Shimmer_F5D4_Timestamp_FormattedUnix_CAL,Shimmer_F5D4_Accel_LN_X_CAL,Shimmer_F5D4_Accel_LN_Y_CAL,Shimmer_F5D4_Accel_LN_Z_CAL,Shimmer_F5D4_Accel_WR_X_CAL,Shimmer_F5D4_Accel_WR_Y_CAL,Shimmer_F5D4_Accel_WR_Z_CAL,Shimmer_F5D4_GSR_Range_CAL,Shimmer_F5D4_GSR_Skin_Conductance_CAL,Shimmer_F5D4_GSR_Skin_Resistance_CAL,Shimmer_F5D4_Gyro_X_CAL,Shimmer_F5D4_Gyro_Y_CAL,Shimmer_F5D4_Gyro_Z_CAL,Shimmer_F5D4_PPG_A13_CAL,Shimmer_F5D4_PPG_IBI_CAL,Shimmer_F5D4_PPGtoHR_CAL,Shimmer_F5D4_GSR_Skin_Conductance_LPF_CAL,Shimmer_F5D4_GSR_Skin_Resistance_LPF_CAL,
yyyy/mm/dd hh:mm:ss.000,m/(s^2),m/(s^2),m/(s^2),m/(s^2),m/(s^2),m/(s^2),no_units,uS,kOhms,deg/s,deg/s,deg/s,mV,ms,BPM,uS,kOhms,
2023-12-13 14:16:30.687000,-4.63855421686747,-3.4819277108433737,7.891566265060241,-3.3721643163703248,-4.576946658491723,8.600858369098711,3.0,0.6941946941946942,1440.518068436201,-0.08565934386107969,-0.033681020919527696,-0.04824893654215959,1038.8278388278388,-1.0,88.01110166077264,0.6999339433108775,1428.7135094577864,
2023-12-13 14:16:30.694000,-4.626506024096386,-3.493975903614458,7.879518072289157,-3.4064990803188224,-4.5744941753525445,8.630288166768853,3.0,0.6937506937506938,1441.44,-0.48272245207155845,0.010139269273351865,-0.13798729677757723,1032.967032967033,-1.0,88.01110166077264,0.6998818888567887,1428.8198711732446,
2023-12-13 14:16:30.702000,-4.626506024096386,-3.4698795180722892,7.867469879518072,-3.3083997547516857,-4.579399141630901,8.598405885959533,3.0,0.6937506937506938,1441.44,-0.20499970864168707,0.12947963405395924,-0.22854146028786204,1029.3040293040292,-1.0,88.01110166077264,0.6998294041652248,1428.9271248022835,
2023-12-13 14:16:30.710000,-4.614457831325302,-3.4698795180722892,7.891566265060241,-3.354996934396076,-4.576946658491723,8.625383200490496,3.0,0.6933066933066933,1442.3631123919308,-0.40265718780956755,0.06876056173882716,-0.42689819940562884,1026.3736263736264,-1.0,88.01110166077264,0.6997765029567029,1429.0352427058801,
2023-12-13 14:16:30.717000,-4.614457831325302,-3.4698795180722892,7.879518072289157,-3.374616799509503,-4.586756591048436,8.591048436541998,3.0,0.6933066933066933,1442.3631123919308,-0.1881009265194328,0.3290018064215366,-0.3610512207913291,1026.3736263736264,-1.0,88.01110166077264,0.6997231987794714,1429.1441975959483,
2023-12-13 14:16:30.725000,-4.590361445783133,-3.4698795180722892,7.855421686746988,-3.345187001839362,-4.584304107909258,8.659717964438993,3.0,0.6937506937506938,1441.44,-0.47491404929782677,0.29567041547695316,-0.18914981644426293,1030.03663003663,-1.0,88.01110166077264,0.6996695048165904,1429.2539629280889,
2023-12-13 14:16:30.733000,-4.614457831325302,-3.457831325301205,7.819277108433735,-3.4163090128755362,-4.471489883507051,8.630288166768853,3.0,0.6937506937506938,1441.44,-0.47095157624846967,0.44647747800244714,-0.3101217877746051,1036.6300366300366,-1.0,88.01110166077264,0.6996154341730798,1429.3645123043098,
2023-12-13 14:16:30.740000,-4.590361445783133,-3.4698795180722892,7.879518072289157,-3.3280196198651133,-4.508277130594727,8.645003065603923,3.0,0.6933066933066933,1442.3631123919308,-0.32958452304644253,1.0083328477361462,-0.1553522521997553,1043.956043956044,-1.0,88.01110166077264,0.6995609998771603,1429.4758194692606,
2023-12-13 14:16:30.748000,-4.578313253012048,-3.457831325301205,7.867469879518072,-3.367259350091968,-4.5744941753525445,8.598405885959533,3.0,0.6937506937506938,1441.44,-0.38727346891206765,0.6204766621991726,-0.41267991375793944,1054.212454212454,-1.0,88.01110166077264,0.6995062144569327,1429.5878591836608,
2023-12-13 14:16:30.756000,-4.590361445783133,-3.4819277108433737,7.843373493975904,-3.3648068669527893,-4.567136725935009,8.544451256897608,3.0,0.6933066933066933,1442.3631123919308,-0.44507895810267534,0.5532311636850998,-0.1355398869529749,1068.131868131868,-1.0,88.01110166077264,0.6994510902108999,1429.7006066682927,
2023-12-13 14:16:30.763000,-4.614457831325302,-3.4819277108433737,7.819277108433735,-3.33292458614347,-4.518087063151441,8.554261189454323,3.0,0.6933066933066933,1442.3631123919308,-0.22865800361284375,0.6577705261931115,-0.02925237457024636,1082.051282051282,-1.0,88.01110166077264,0.6993956392130959,1429.8140375927794,
2023-12-13 14:16:30.771000,-4.614457831325302,-3.4819277108433737,7.819277108433735,-3.3280196198651133,-4.599019006744328,8.600858369098711,3.0,0.6933066933066933,1442.3631123919308,-0.2425266592855893,0.3942660684109317,-0.5023017306683758,1095.2380952380952,-1.0,88.01110166077264,0.6993398731494509,1429.9281284153126,
2023-12-13 14:16:30.779000,-4.626506024096386,-3.4819277108433737,7.855421686746988,-3.3721643163703248,-4.569589209074187,8.564071122011036,3.0,0.6933066933066933,1442.3631123919308,-0.40801818075869645,0.46862070974884945,-0.1471942194510811,1105.4945054945053,-1.0,88.01110166077264,0.699283803453542,1430.0428560999906,
2023-12-13 14:16:30.786000,-4.614457831325302,-3.4698795180722892,7.891566265060241,-3.354996934396076,-4.58185162477008,8.652360515021458,3.0,0.6933066933066933,1442.3631123919308,-0.2971854787017075,0.8161529048423755,-0.4645416933745119,1112.8205128205127,-1.0,88.01110166077264,0.6992274413050962,1430.1581981195618,
2023-12-13 14:16:30.794000,-4.614457831325302,-3.493975903614458,7.867469879518072,-3.3868792152053953,-4.579399141630901,8.615573267933783,3.0,0.6933066933066933,1442.3631123919308,-0.4643086067245498,0.291008682477711,-0.5351669483130355,1121.6117216117216,-1.0,88.01110166077264,0.6991707976299979,1430.274132455102,
2023-12-13 14:16:30.802000,-4.602409638554217,-3.4819277108433737,7.867469879518072,-3.3721643163703248,-4.56468424279583,8.586143470263641,3.0,0.6933066933066933,1442.3631123919308,-0.3080240079249461,0.44426315482780776,-0.483654798671406,1131.8681318681317,-1.0,88.01110166077264,0.6991138831017819,1430.390637592657,
2023-12-13 14:16:30.809000,-4.63855421686747,-3.4698795180722892,7.879518072289157,-3.337829552421827,-4.618638871857756,8.591048436541998,3.0,0.6928626928626929,1443.2874078820892,-0.22982343686265383,-0.16887127789755835,-0.5096439601421828,1140.6593406593406,-1.0,88.01110166077264,0.6990567081446016,1430.5076925168719,
2023-12-13 14:16:30.817000,-4.650602409638554,-3.457831325301205,7.879518072289157,-3.3304721030042916,-4.579399141630901,8.659717964438993,3.0,0.6928626928626929,1443.2874078820892,-0.4863352951459713,0.2926402890274462,-0.4268981994056293,1147.2527472527472,-1.0,88.01110166077264,0.6989992827883488,1430.6252770124574,
2023-12-13 14:16:30.825000,-4.63855421686747,-3.433734939759036,7.867469879518072,-3.313304721030043,-4.572041692213366,8.566523605150214,3.0,0.6928626928626929,1443.2874078820892,-0.19089796631897982,-0.014684458947613166,-0.48307208204650093,1150.18315018315,-1.0,88.01110166077264,0.6989416165138671,1430.7433719790724,
2023-12-13 14:16:30.832000,-4.650602409638554,-3.457831325301205,7.867469879518072,-3.291232372777437,-4.56468424279583,8.62047823421214,3.0,0.6928626928626929,1443.2874078820892,-0.18751820989452864,-0.015150632247538248,-0.47794417574733417,1147.985347985348,-1.0,88.01110166077264,0.698883718556363,1430.8619588079903,
2023-12-13 14:16:30.840000,-4.63855421686747,-3.433734939759036,7.891566265060241,-3.337829552421827,-4.569589209074187,8.568976088289393,3.0,0.6928626928626929,1443.2874078820892,0.012936309072897147,0.1665404113979364,-0.6573043528931882,1144.3223443223442,-1.0,88.01110166077264,0.6988255979009668,1430.9810193907717,
2023-12-13 14:16:30.848000,-4.602409638554217,-3.4457831325301207,7.867469879518072,-3.320662170447578,-4.478847332924586,8.591048436541998,3.0,0.6928626928626929,1443.2874078820892,0.029835091195151413,0.3502126915680905,-0.5141891498164441,1139.194139194139,-1.0,88.01110166077264,0.6987672631618381,1431.1005363642562,
2023-12-13 14:16:30.855000,-4.602409638554217,-3.4457831325301207,7.867469879518072,-3.3942366646229307,-4.579399141630901,8.600858369098711,3.0,0.6928626928626929,1443.2874078820892,-0.4866849251209138,0.5751413087815388,-0.7232678748324692,1134.065934065934,-1.0,88.01110166077264,0.6987087227392624,1431.22049279138,
2023-12-13 14:16:30.863000,-4.602409638554217,-3.4819277108433737,7.891566265060241,-3.3280196198651133,-4.518087063151441,8.605763335377068,3.0,0.6919746919746919,1445.1395572666027,-0.10080997610861794,0.44799254122720145,-0.24613950236000218,1131.135531135531,-1.0,88.01110166077264,0.6986499848286943,1431.3408721424416,
2023-12-13 14:16:30.871000,-4.590361445783133,-3.493975903614458,7.891566265060241,-3.467811158798283,-4.545064377682404,8.632740649908031,3.0,0.6924186924186924,1444.2128887463932,-0.5574267233844187,0.275158790280286,3.4962997494337723E-4,1131.135531135531,-1.0,88.01110166077264,0.6985910572711522,1431.461658615132,
2023-12-13 14:16:30.878000,-4.602409638554217,-3.4819277108433737,7.891566265060241,-3.320662170447578,-4.483752299202942,8.576333537706928,3.0,0.6924186924186924,1444.2128887463932,-0.568498339257619,0.4563836606258373,-0.2893770759279763,1132.6007326007325,-1.0,88.01110166077264,0.6985319476497546,1431.5828369320589,
2023-12-13 14:16:30.886000,-4.602409638554217,-3.4819277108433737,7.879518072289157,-3.3893316983445736,-4.591661557326793,8.595953402820355,3.0,0.6928626928626929,1443.2874078820892,-0.6549734863935662,0.8361983567391176,-0.16758930132276653,1134.7985347985348,-1.0,88.01110166077264,0.6984726634501771,1431.7043919979662,
2023-12-13 14:16:30.893000,-4.626506024096386,-3.4819277108433737,7.867469879518072,-3.3599019006744326,-4.476394849785407,8.581238503985285,3.0,0.6924186924186924,1444.2128887463932,-0.7116135423343621,0.3286521764465941,-0.30103140842608245,1141.3919413919414,-1.0,88.01110166077264,0.6984132120837225,1431.8263088523747,
2023-12-13 14:16:30.901000,-4.626506024096386,-3.493975903614458,7.855421686746988,-3.4310239117106067,-4.572041692213366,8.561618638871858,3.0,0.6924186924186924,1444.2128887463932,-0.5665171027329413,0.08181341413670515,-0.18996561971913054,1148.7179487179487,-1.0,88.01110166077264,0.6983536006342612,1431.9485731897926,
2023-12-13 14:16:30.909000,-4.63855421686747,-3.4819277108433737,7.843373493975904,-3.3721643163703248,-4.567136725935009,8.627835683629675,3.0,0.6924186924186924,1444.2128887463932,-0.40941670065846997,0.4455451314025987,-0.43272536565468195,1156.7765567765566,-1.0,88.01110166077264,0.6982938357333227,1432.0711716215897,
2023-12-13 14:16:30.916000,-4.614457831325302,-3.5060240963855422,7.807228915662651,-3.384426732066217,-4.510729613733905,8.586143470263641,3.0,0.6924186924186924,1444.2128887463932,-0.1446302663014975,0.5795699551308192,-0.44403006817784524,1164.102564102564,-1.0,88.01110166077264,0.6982339238611566,1432.194091057016,
2023-12-13 14:16:30.924000,-4.614457831325302,-3.493975903614458,7.83132530120482,-3.4163090128755362,-4.532801961986511,8.605763335377068,3.0,0.6924186924186924,1444.2128887463932,-0.5087116135423335,0.5892430511042478,-0.4237515296311402,1175.0915750915751,-1.0,88.01110166077264,0.6981738713603688,1432.3173186751285,
2023-12-13 14:16:30.932000,-4.578313253012048,-3.5060240963855422,7.843373493975904,-3.445738810545677,-4.513182096873083,8.598405885959533,3.0,0.6924186924186924,1444.2128887463932,-0.4119806538080536,0.8750072839578107,-0.5256103956645887,1194.8717948717947,-1.0,88.01110166077264,0.6981136844501279,1432.440841895563,
2023-12-13 14:16:30.939000,-4.626506024096386,-3.5060240963855422,7.855421686746988,-3.362354383813611,-4.567136725935009,8.57388105456775,3.0,0.6924186924186924,1444.2128887463932,-0.4401841384534698,0.5151214964162935,-0.6747858516403475,1228.5714285714284,-1.0,88.01110166077264,0.6980533692408849,1432.5646483482508,
2023-12-13 14:16:30.947000,-4.626506024096386,-3.5060240963855422,7.83132530120482,-3.396689147762109,-4.576946658491723,8.600858369098711,3.0,0.6924186924186924,1444.2128887463932,-0.19183031291882827,1.0295437328826984,-0.363498630615931,1284.9816849816848,-1.0,88.01110166077264,0.6979929317495489,1432.688725842195,
2023-12-13 14:16:30.955000,-4.63855421686747,-3.493975903614458,7.807228915662651,-3.3819742489270386,-4.54996934396076,8.605763335377068,3.0,0.6919746919746919,1445.1395572666027,-0.38902161878678365,0.5160538430161419,-0.2992832585513669,1362.6373626373625,-1.0,88.01110166077264,0.6979323779150685,1432.8130623334177,
2023-12-13 14:16:30.962000,-4.614457831325302,-3.493975903614458,7.843373493975904,-3.467811158798283,-4.547516860821582,8.583690987124463,3.0,0.6919746919746919,1445.1395572666027,-0.2611735912825596,0.17586387739642242,-0.4481090845521823,1466.6666666666665,-1.0,88.01110166077264,0.6978717134650598,1432.937646203789,
2023-12-13 14:16:30.970000,-4.63855421686747,-3.4819277108433737,7.843373493975904,-3.413856529736358,-4.569589209074187,8.546903740036786,3.0,0.6919746919746919,1445.1395572666027,0.04556844006759558,0.13996853330225537,-0.09206922673503914,1595.6043956043954,-1.0,88.01110166077264,0.6978109439101476,1433.062466273317,
2023-12-13 14:16:30.978000,-4.650602409638554,-3.493975903614458,7.867469879518072,-3.354996934396076,-4.510729613733905,8.586143470263641,3.0,0.6919746919746919,1445.1395572666027,-0.19614241594312615,0.15104014917545566,-0.24392517918536238,1748.7179487179485,-1.0,88.01110166077264,0.6977500746974713,1433.187511480253,
2023-12-13 14:16:30.985000,-4.63855421686747,-3.493975903614458,7.855421686746988,-3.3476394849785405,-4.6112814224402205,8.57388105456775,3.0,0.6919746919746919,1445.1395572666027,-0.07062525493852402,0.04160596701823846,-0.30336227492570356,1917.9487179487178,-1.0,88.01110166077264,0.6976891112254326,1433.3127708507889,
2023-12-13 14:16:30.993000,-4.650602409638554,-3.4819277108433737,7.819277108433735,-3.374616799509503,-4.589209074187615,8.664622930717352,3.0,0.6919746919746919,1445.1395572666027,-0.0533768428413255,-0.20465007866674456,-0.08472699726123213,2095.238095238095,-1.0,88.01110166077264,0.6976280588583865,1433.4382334688792,
2023-12-13 14:16:31.001000,-4.63855421686747,-3.4819277108433737,7.855421686746988,-3.408951563458001,-4.586756591048436,8.598405885959533,3.0,0.6919746919746919,1445.1395572666027,-0.08262921741157274,0.024241011596060846,-0.03624497406911044,2268.8644688644686,-1.0,88.01110166077264,0.6975669229412246,1433.563888446276,
2023-12-13 14:16:31.008000,-4.662650602409639,-3.493975903614458,7.843373493975904,-3.3697118332311464,-4.584304107909258,8.583690987124463,3.0,0.6919746919746919,1445.1395572666027,-0.1712021443971803,0.006876056173883237,-0.20301847211700938,2430.7692307692305,-1.0,88.01110166077264,0.6975057088138145,1433.6897248928606,
2023-12-13 14:16:31.016000,-4.614457831325302,-3.493975903614458,7.843373493975904,-3.354996934396076,-4.518087063151441,8.578786020846106,3.0,0.6915306915306916,1446.0674157303372,-0.198007109142823,-0.10197540935842977,-0.13950236000233115,2569.9633699633696,-1.0,88.01110166077264,0.697444421825248,1433.81573188736,
2023-12-13 14:16:31.024000,-4.614457831325302,-3.5060240963855422,7.83132530120482,-3.433476394849785,-4.572041692213366,8.561618638871858,3.0,0.6915306915306916,1446.0674157303372,-0.011770875823087047,-0.04230522696812521,-0.31909562379814727,2683.5164835164833,-1.0,88.01110166077264,0.6973830673373207,1433.94189847894,
2023-12-13 14:16:31.031000,-4.614457831325302,-3.5180722891566267,7.855421686746988,-3.3599019006744326,-4.572041692213366,8.615573267933783,3.0,0.6915306915306916,1446.0674157303372,0.01934619194685704,-0.31862945049822305,-0.37678456966377283,2763.369963369963,-1.0,88.01110166077264,0.6973216505572875,1434.0682140275637,
2023-12-13 14:16:31.039000,-4.602409638554217,-3.530120481927711,7.843373493975904,-3.4187614960147146,-4.554874310239117,8.600858369098711,3.0,0.6915306915306916,1446.0674157303372,-0.11712604160596629,-0.07062525493852402,-0.28110249985432084,2803.6630036630036,-1.0,88.01110166077264,0.6972601765607764,1434.194668148862,
2023-12-13 14:16:31.047000,-4.626506024096386,-3.5180722891566267,7.843373493975904,-3.4015941140404657,-4.576946658491723,8.564071122011036,3.0,0.6919746919746919,1445.1395572666027,-0.17563079074646074,0.17260066429695206,-0.12458481440475457,2802.9304029304026,-1.0,88.01110166077264,0.6971986504521552,1434.321250388436,
2023-12-13 14:16:31.054000,-4.614457831325302,-3.530120481927711,7.879518072289157,-3.3819742489270386,-4.584304107909258,8.630288166768853,3.0,0.6915306915306916,1446.0674157303372,0.025522988170851784,0.15465299224986853,-0.4117475671580906,2765.5677655677655,674.072265625,89.0112278160087,0.6971370775243673,1434.4479498882392,
2023-12-13 14:16:31.062000,-4.650602409638554,-3.5060240963855422,7.879518072289157,-3.384426732066217,-4.576946658491723,8.595953402820355,3.0,0.6915306915306916,1446.0674157303372,-0.1537206456500201,0.16549152147310714,-0.346949478468621,2692.307692307692,-1.0,89.0112278160087,0.6970754631415156,1434.5747556323356,
2023-12-13 14:16:31.070000,-4.63855421686747,-3.5060240963855422,7.855421686746988,-3.3819742489270386,-4.569589209074187,8.593500919681176,3.0,0.6915306915306916,1446.0674157303372,0.04720004661733076,0.330983042946216,-0.49682419439426656,2591.208791208791,-1.0,89.0112278160087,0.6970138125893821,1434.701656759641,
2023-12-13 14:16:31.077000,-4.602409638554217,-3.4819277108433737,7.83132530120482,-3.3599019006744326,-4.58185162477008,8.605763335377068,3.0,0.6915306915306916,1446.0674157303372,-0.0397412738185416,0.41943942660684097,-0.3556902278422002,2468.131868131868,-1.0,89.0112278160087,0.6969521312232674,1434.828642255318,
2023-12-13 14:16:31.085000,-4.614457831325302,-3.5180722891566267,7.843373493975904,-3.396689147762109,-4.554874310239117,8.600858369098711,3.0,0.6915306915306916,1446.0674157303372,0.07039216828856061,0.33646057922032574,-0.4125633704329582,2329.6703296703295,-1.0,89.0112278160087,0.6968904243377745,1434.9557012144833,
2023-12-13 14:16:31.093000,-4.626506024096386,-3.493975903614458,7.843373493975904,-3.433476394849785,-4.58185162477008,8.578786020846106,3.0,0.6915306915306916,1446.0674157303372,-0.21956762426431942,0.17796165724608096,-0.3509119515179764,2181.6849816849817,-1.0,89.0112278160087,0.696828697195169,1435.0828227845227,
2023-12-13 14:16:31.100000,-4.63855421686747,-3.5180722891566267,7.843373493975904,-3.413856529736358,-4.567136725935009,8.546903740036786,3.0,0.6915306915306916,1446.0674157303372,-0.0476662199172541,0.15558533884971695,-0.42852980595536405,2028.5714285714284,-1.0,89.0112278160087,0.696766955319553,1435.2099955686551,
2023-12-13 14:16:31.108000,-4.626506024096386,-3.4698795180722892,7.843373493975904,-3.4114040465971796,-4.599019006744328,8.595953402820355,3.0,0.6910866910866911,1446.9964664310955,-0.04556844006759558,0.1513897791503999,-0.4265485694306859,1876.923076923077,-1.0,89.0112278160087,0.6967052044822821,1435.3372076553087,
2023-12-13 14:16:31.116000,-4.626506024096386,-3.493975903614458,7.83132530120482,-3.4015941140404657,-4.530349478847333,8.561618638871858,3.0,0.6915306915306916,1446.0674157303372,0.01853038867198945,0.14707767612610026,-0.48330516869646306,1727.4725274725274,-1.0,89.0112278160087,0.6966434504101471,1435.4644472192215,
2023-12-13 14:16:31.123000,-4.650602409638554,-3.4819277108433737,7.843373493975904,-3.283874923359902,-4.58185162477008,8.551808706315144,3.0,0.6910866910866911,1446.9964664310955,-0.1934619194685617,-0.009206922673503438,-0.3561564011421249,1585.3479853479853,-1.0,89.0112278160087,0.6965816989190549,1435.5917022419712,
2023-12-13 14:16:31.131000,-4.626506024096386,-3.4819277108433737,7.795180722891566,-3.342734518700184,-4.535254445125689,8.546903740036786,3.0,0.6910866910866911,1446.9964664310955,-0.007342229473806583,-0.10162577938348553,-0.5028844472932813,1451.2820512820513,-1.0,89.0112278160087,0.6965199559294432,1435.7189604799532,
2023-12-13 14:16:31.139000,-4.614457831325302,-3.4819277108433737,7.83132530120482,-3.354996934396076,-4.554874310239117,8.539546290619251,3.0,0.6910866910866911,1446.9964664310955,0.11712604160596629,0.003845929724374546,-0.29870054192646056,1328.2051282051282,-1.0,89.0112278160087,0.6964582273107652,1435.8462097899956,
2023-12-13 14:16:31.146000,-4.614457831325302,-3.4819277108433737,7.843373493975904,-3.3599019006744326,-4.527896995708154,8.57388105456775,3.0,0.6910866910866911,1446.9964664310955,0.1471942194510811,-0.2118757648155703,-0.4940271545947204,1218.3150183150183,-1.0,89.0112278160087,0.6963965190232181,1435.9734378329965,
2023-12-13 14:16:31.154000,-4.614457831325302,-3.5060240963855422,7.83132530120482,-3.354996934396076,-4.498467198038013,8.549356223175964,3.0,0.6910866910866911,1446.9964664310955,-0.1272653108793199,-0.6718722685158205,-0.15325447235009587,1117.9487179487178,-1.0,89.0112278160087,0.6963348371201113,1436.100632069132,
2023-12-13 14:16:31.162000,-4.614457831325302,-3.5060240963855422,7.843373493975904,-3.3525444512568976,-4.559779276517474,8.581238503985285,3.0,0.6906426906426906,1447.926711668274,0.09055416351028524,-0.5620884563836608,-0.19439426606841143,1030.03663003663,-1.0,89.0112278160087,0.6962731877496644,1436.2277797542438,
2023-12-13 14:16:31.169000,-4.602409638554217,-3.493975903614458,7.843373493975904,-3.4015941140404657,-4.515634580012263,8.62047823421214,3.0,0.6901986901986902,1448.8581537471857,0.2150224345900581,-0.2981178253015559,0.16141250509877006,954.5787545787546,-1.0,89.0112278160087,0.6962115770069723,1436.3548682501332,
2023-12-13 14:16:31.177000,-4.590361445783133,-3.493975903614458,7.879518072289157,-3.3476394849785405,-4.515634580012263,8.583690987124463,3.0,0.6906426906426906,1447.926711668274,-0.21280811141541875,-0.052677582891440485,-0.0361284307441296,893.040293040293,-1.0,89.0112278160087,0.6961500110411027,1436.4818848185814,
2023-12-13 14:16:31.185000,-4.602409638554217,-3.5060240963855422,7.855421686746988,-3.384426732066217,-4.540159411404046,8.576333537706928,3.0,0.6906426906426906,1447.926711668274,0.020977798496590483,-0.35545714119223853,0.040440533768428356,845.4212454212453,-1.0,89.0112278160087,0.6960884961403774,1436.6088164310413,
2023-12-13 14:16:31.192000,-4.614457831325302,-3.530120481927711,7.867469879518072,-3.4408338442673205,-4.513182096873083,8.591048436541998,3.0,0.6906426906426906,1447.926711668274,-0.11631023833110044,-0.18425499679505827,-0.16957053784744422,811.7216117216117,-1.0,89.0112278160087,0.6960270386137359,1436.7356499990624,
2023-12-13 14:16:31.200000,-4.602409638554217,-3.493975903614458,7.879518072289157,-3.3108522378908645,-4.500919681177192,8.578786020846106,3.0,0.6906426906426906,1447.926711668274,-0.5715284657071259,-0.2590758114328993,-0.3805139560631661,795.6043956043956,-1.0,89.0112278160087,0.6959656447994963,1436.8623723658775,
2023-12-13 14:16:31.208000,-4.626506024096386,-3.5060240963855422,7.83132530120482,-3.4015941140404657,-4.601471489883507,8.57388105456775,3.0,0.6906426906426906,1447.926711668274,-0.2283083736378995,-0.3193287104481098,-0.4666394732241709,797.8021978021977,-1.0,89.0112278160087,0.6959043210629012,1436.9889703116496,
2023-12-13 14:16:31.215000,-4.614457831325302,-3.493975903614458,7.867469879518072,-3.362354383813611,-4.58185162477008,8.62047823421214,3.0,0.6906426906426906,1447.926711668274,0.03449682419439355,0.13985198997727452,-0.5533477070100812,811.7216117216117,-1.0,89.0112278160087,0.6958430737930666,1437.1154305599532,
2023-12-13 14:16:31.223000,-4.626506024096386,-3.493975903614458,7.867469879518072,-3.3819742489270386,-4.545064377682404,8.591048436541998,3.0,0.6906426906426906,1447.926711668274,0.22271429403880894,0.028320027970398804,-0.28739583940329816,839.5604395604395,-1.0,89.0112278160087,0.6957819093994029,1437.2417397853303,
2023-12-13 14:16:31.231000,-4.63855421686747,-3.5060240963855422,7.891566265060241,-3.4408338442673205,-4.569589209074187,8.576333537706928,3.0,0.6901986901986902,1448.8581537471857,-0.1426490297768198,0.15919818192412982,-0.3300506963463663,877.6556776556776,-1.0,89.0112278160087,0.6957208343075866,1437.3678846217797,
2023-12-13 14:16:31.238000,-4.626506024096386,-3.5180722891566267,7.867469879518072,-3.3476394849785405,-4.50337216431637,8.57388105456775,3.0,0.6906426906426906,1447.926711668274,-0.22993998018763467,0.3810966726880712,-0.15908163859914942,920.8791208791208,-1.0,89.0112278160087,0.6956598548058659,1437.4938519851937,
2023-12-13 14:16:31.246000,-4.626506024096386,-3.5180722891566267,7.843373493975904,-3.3893316983445736,-4.542611894543224,8.581238503985285,3.0,0.6906426906426906,1447.926711668274,-0.19544315599324114,0.3267874832468972,-0.42852980595536405,970.6959706959707,-1.0,89.0112278160087,0.6955989771677905,1437.6196288158974,
2023-12-13 14:16:31.254000,-4.650602409638554,-3.5060240963855422,7.855421686746988,-3.3599019006744326,-4.508277130594727,8.566523605150214,3.0,0.6901986901986902,1448.8581537471857,-0.19078142299399725,0.5495017772857061,-0.4218868364314429,1022.7106227106226,-1.0,89.0112278160087,0.6955382079450039,1437.7452014735386,
2023-12-13 14:16:31.261000,-4.614457831325302,-3.5060240963855422,7.819277108433735,-3.3770692826486814,-4.608828939301042,8.595953402820355,3.0,0.6901986901986902,1448.8581537471857,-0.14043470660217872,0.45160538430161434,-0.26163976458248384,1076.923076923077,-1.0,89.0112278160087,0.6954775536536193,1437.8705563936537,
2023-12-13 14:16:31.269000,-4.63855421686747,-3.5060240963855422,7.83132530120482,-3.4530962599632127,-4.525444512568976,8.49540159411404,3.0,0.6901986901986902,1448.8581537471857,-0.07505390128780448,0.5359827515879031,-0.4693199696987349,1131.135531135531,-1.0,89.0112278160087,0.6954170205991249,1437.9956804452147,
2023-12-13 14:16:31.276000,-4.602409638554217,-3.530120481927711,7.843373493975904,-3.354996934396076,-4.522992029429798,8.546903740036786,3.0,0.6901986901986902,1448.8581537471857,-0.1523221257502483,0.37923197948837434,-0.4455451314025987,1181.6849816849815,-1.0,89.0112278160087,0.6953566150093792,1438.1205606516594,
2023-12-13 14:16:31.284000,-4.614457831325302,-3.530120481927711,7.83132530120482,-3.404046597179644,-4.579399141630901,8.54199877375843,3.0,0.6901986901986902,1448.8581537471857,-0.6364430977215785,0.5874949012295317,-0.04242177029310692,1226.3736263736264,-1.0,89.0112278160087,0.6952963430286226,1438.2451842034793,
2023-12-13 14:16:31.292000,-4.614457831325302,-3.530120481927711,7.819277108433735,-3.421213979153893,-4.576946658491723,8.537093807480073,3.0,0.6901986901986902,1448.8581537471857,-0.3992774313851181,0.48878270497057236,-0.34461861196899907,1264.4688644688645,-1.0,89.0112278160087,0.6952362107113452,1438.3695384710925,
2023-12-13 14:16:31.299000,-4.614457831325302,-3.5542168674698797,7.843373493975904,-3.3893316983445736,-4.518087063151441,8.564071122011036,3.0,0.6901986901986902,1448.8581537471857,-0.3158324106986778,0.5298059553639066,-0.09521589650952737,1294.5054945054944,-1.0,89.0112278160087,0.69517622401611,1438.4936110178003,
2023-12-13 14:16:31.307000,-4.614457831325302,-3.5542168674698797,7.819277108433735,-3.47271612507664,-4.589209074187615,8.600858369098711,3.0,0.6901986901986902,1448.8581537471857,-0.18973253306916799,0.6483305168696464,-0.09276848668492547,1315.018315018315,-1.0,89.0112278160087,0.6951163887994259,1438.6173896126334,
2023-12-13 14:16:31.315000,-4.614457831325302,-3.530120481927711,7.819277108433735,-3.413856529736358,-4.522992029429798,8.591048436541998,3.0,0.6897546897546898,1449.7907949790795,-0.07855020103723478,0.31012178777460464,-0.1959093292931649,1328.937728937729,-1.0,89.0112278160087,0.6950567108097769,1438.7408622428693,
2023-12-13 14:16:31.322000,-4.626506024096386,-3.530120481927711,7.819277108433735,-3.3868792152053953,-4.567136725935009,8.554261189454323,3.0,0.6893106893106893,1450.7246376811595,-0.13903618670240694,-0.007342229473806583,-0.27282792378066495,1331.8681318681317,-1.0,89.0112278160087,0.6949971955325992,1438.8640174396269,
2023-12-13 14:16:31.330000,-4.63855421686747,-3.530120481927711,7.843373493975904,-3.438381361128142,-4.545064377682404,8.549356223175964,3.0,0.6897546897546898,1449.7907949790795,-0.2424101159606085,0.0844939106112696,-0.2532486451838471,1329.6703296703297,-1.0,89.0112278160087,0.6949378482912294,1438.9868440841694,
2023-12-13 14:16:31.338000,-4.63855421686747,-3.5180722891566267,7.843373493975904,-3.4015941140404657,-4.525444512568976,8.583690987124463,3.0,0.6897546897546898,1449.7907949790795,-0.14649495950119434,0.051395606316647816,-0.051861779616572026,1322.3443223443223,-1.0,89.0112278160087,0.6948786743269313,1439.109331227992,
2023-12-13 14:16:31.345000,-4.650602409638554,-3.5542168674698797,7.83132530120482,-3.3868792152053953,-4.618638871857756,8.529736358062538,3.0,0.6897546897546898,1449.7907949790795,0.34415243866907486,0.1309946972787136,0.08624206048598561,1309.89010989011,-1.0,89.0112278160087,0.6948196786759406,1439.2314683328007,
2023-12-13 14:16:31.353000,-4.63855421686747,-3.530120481927711,7.843373493975904,-3.443286327406499,-4.540159411404046,8.615573267933783,3.0,0.6897546897546898,1449.7907949790795,-0.15943126857409323,-0.29648621875182074,0.07318920808810632,1290.10989010989,-1.0,89.0112278160087,0.6947608661748849,1439.3532452690306,
2023-12-13 14:16:31.361000,-4.626506024096386,-3.5180722891566267,7.855421686746988,-3.455548743102391,-4.552421827099939,8.566523605150214,3.0,0.6901986901986902,1448.8581537471857,0.07214031816327662,0.14940854262572048,-0.1554687955247361,1268.131868131868,-1.0,89.0112278160087,0.6947022414560036,1439.4746523259496,
2023-12-13 14:16:31.368000,-4.626506024096386,-3.5180722891566267,7.819277108433735,-3.391784181483752,-4.537706928264868,8.57388105456775,3.0,0.6897546897546898,1449.7907949790795,-0.020278538546705464,0.16257793834858103,0.27469261698036224,1242.4908424908424,-1.0,89.0112278160087,0.6946438090921098,1439.595679907225,
2023-12-13 14:16:31.376000,-4.626506024096386,-3.5180722891566267,7.819277108433735,-3.443286327406499,-4.559779276517474,8.546903740036786,3.0,0.6897546897546898,1449.7907949790795,-0.21898490763941522,0.006176796223996482,-0.0611852456150576,1214.6520146520145,-1.0,89.0112278160087,0.6945855734653784,1439.7163188066138,
2023-12-13 14:16:31.384000,-4.63855421686747,-3.5180722891566267,7.83132530120482,-3.4285714285714284,-4.591661557326793,8.502759043531576,3.0,0.6897546897546898,1449.7907949790795,-0.21665404113979328,0.003146669774489527,-0.060136355690227905,1188.278388278388,-1.0,89.0112278160087,0.6945275386052486,1439.836560548536,
2023-12-13 14:16:31.391000,-4.626506024096386,-3.5421686746987953,7.783132530120482,-3.455548743102391,-4.6112814224402205,8.576333537706928,3.0,0.6897546897546898,1449.7907949790795,0.03169978439484827,-0.07726822446244384,0.1416001398519897,1164.8351648351647,-1.0,89.0112278160087,0.6944697083249272,1439.956397101438,
2023-12-13 14:16:31.399000,-4.662650602409639,-3.530120481927711,7.843373493975904,-3.4285714285714284,-4.552421827099939,8.522378908645003,3.0,0.6897546897546898,1449.7907949790795,-0.22551133383835423,0.025056814870928437,0.11153196200687615,1143.5897435897434,-1.0,89.0112278160087,0.6944120863586916,1440.07582059829,
2023-12-13 14:16:31.407000,-4.650602409638554,-3.530120481927711,7.819277108433735,-3.4236664622930717,-4.54996934396076,8.566523605150214,3.0,0.6897546897546898,1449.7907949790795,0.25359827515878963,-0.20954489831594839,0.28110249985432084,1125.2747252747251,-1.0,89.0112278160087,0.6943546763409469,1440.1948233794092,
2023-12-13 14:16:31.414000,-4.602409638554217,-3.5421686746987953,7.83132530120482,-3.3893316983445736,-4.525444512568976,8.549356223175964,3.0,0.6897546897546898,1449.7907949790795,0.3453178719188867,-0.5497348639356678,0.10022725948371289,1109.89010989011,-1.0,89.0112278160087,0.6942974816586263,1440.3133982932573,
2023-12-13 14:16:31.422000,-4.602409638554217,-3.5421686746987953,7.843373493975904,-3.3721643163703248,-4.545064377682404,8.549356223175964,3.0,0.6897546897546898,1449.7907949790795,0.252782471883922,-0.5194335994405913,0.5912242876289263,1097.4358974358975,-1.0,89.0112278160087,0.6942405054537121,1440.4315386913825,
2023-12-13 14:16:31.430000,-4.626506024096386,-3.530120481927711,7.843373493975904,-3.384426732066217,-4.576946658491723,8.546903740036786,3.0,0.6897546897546898,1449.7907949790795,0.09882873958394024,-0.1823903035953614,0.026105704795757703,1087.179487179487,-1.0,89.0112278160087,0.6941837506266467,1440.5492384215013,
2023-12-13 14:16:31.437000,-4.650602409638554,-3.5421686746987953,7.83132530120482,-3.438381361128142,-4.657878602084611,8.578786020846106,3.0,0.6897546897546898,1449.7907949790795,0.008507662723616683,-0.18646931996969937,-0.002214323174639798,1079.120879120879,-1.0,89.0112278160087,0.6941272198406823,1440.6664918186107,
2023-12-13 14:16:31.445000,-4.662650602409639,-3.5421686746987953,7.855421686746988,-3.4481912936848556,-4.559779276517474,8.600858369098711,3.0,0.6897546897546898,1449.7907949790795,0.1752811607715165,-0.1418332265019522,0.45848144047549716,1074.7252747252746,-1.0,89.0112278160087,0.6940709155272334,1440.783293694023,
2023-12-13 14:16:31.453000,-4.662650602409639,-3.530120481927711,7.867469879518072,-3.4114040465971796,-4.579399141630901,8.571428571428571,3.0,0.6893106893106893,1450.7246376811595,-0.15931472524911067,0.01048889924829611,0.27119631723093063,1071.7948717948718,-1.0,89.0112278160087,0.6940148398922605,1440.8996393222353,
2023-12-13 14:16:31.460000,-4.63855421686747,-3.5180722891566267,7.855421686746988,-3.4800735744941753,-4.599019006744328,8.593500919681176,3.0,0.6897546897546898,1449.7907949790795,-0.06479808868947004,0.17598042072140324,0.17877746052094853,1071.062271062271,-1.0,89.0112278160087,0.6939589949131929,1441.015524456545,
2023-12-13 14:16:31.468000,-4.63855421686747,-3.5060240963855422,7.83132530120482,-3.4114040465971796,-4.655426118945432,8.625383200490496,3.0,0.6897546897546898,1449.7907949790795,-0.4293456092302312,0.3559233144921619,0.08402773731134582,1071.7948717948718,-1.0,89.0112278160087,0.6939033824545333,1441.1309450849405,
2023-12-13 14:16:31.476000,-4.650602409638554,-3.530120481927711,7.83132530120482,-3.47271612507664,-4.535254445125689,8.561618638871858,3.0,0.6888666888666889,1451.6596841766034,0.17423227084668724,-0.04382029019287956,-0.0071091428238449095,1073.260073260073,-1.0,89.0112278160087,0.6938480042885051,1441.2458973776468,
2023-12-13 14:16:31.483000,-4.662650602409639,-3.5421686746987953,7.83132530120482,-3.4506437768240343,-4.586756591048436,8.571428571428571,3.0,0.6893106893106893,1450.7246376811595,0.31268574092418827,-0.2259775071382793,-0.020045451896742925,1077.6556776556777,-1.0,89.0112278160087,0.6937928618082242,1441.3603782997027,
2023-12-13 14:16:31.491000,-4.650602409638554,-3.5421686746987953,7.843373493975904,-3.465358675659105,-4.599019006744328,8.576333537706928,3.0,0.6893106893106893,1450.7246376811595,-0.23728220966144126,0.4631431734747397,0.2428762892605327,1079.120879120879,-1.0,89.0112278160087,0.6937379561255834,1441.4743854039716,
2023-12-13 14:16:31.499000,-4.650602409638554,-3.530120481927711,7.843373493975904,-3.4996934396076025,-4.532801961986511,8.49540159411404,3.0,0.6893106893106893,1450.7246376811595,0.3143173474739234,0.5504341238855546,0.2424101159606085,1081.3186813186812,-1.0,89.0112278160087,0.6936832880941943,1441.587916765451,
2023-12-13 14:16:31.506000,-4.63855421686747,-3.5180722891566267,7.843373493975904,-3.4481912936848556,-4.54996934396076,8.549356223175964,3.0,0.6893106893106893,1450.7246376811595,0.3131519142241133,0.13111124060369442,0.030650894470019438,1082.051282051282,-1.0,89.0112278160087,0.6936288582047059,1441.7009712036245,
2023-12-13 14:16:31.514000,-4.602409638554217,-3.530120481927711,7.819277108433735,-3.4285714285714284,-4.586756591048436,8.532188841201716,3.0,0.6893106893106893,1450.7246376811595,0.20453353534176372,-0.4821397354466525,0.40090903793485244,1084.2490842490843,-1.0,89.0112278160087,0.6935746668858208,1441.8135476673772,
2023-12-13 14:16:31.522000,-4.602409638554217,-3.530120481927711,7.819277108433735,-3.408951563458001,-4.522992029429798,8.62047823421214,3.0,0.6893106893106893,1450.7246376811595,-0.025056814870928437,-0.43552240545422766,0.41780782005710626,1085.7142857142856,-1.0,89.0112278160087,0.693520714497663,1441.9256452481927,
2023-12-13 14:16:31.529000,-4.590361445783133,-3.5060240963855422,7.795180722891566,-3.4825260576333537,-4.618638871857756,8.485591661557326,3.0,0.6893106893106893,1450.7246376811595,0.12994580735388434,-0.2524328419089795,0.5240953324398343,1087.9120879120878,-1.0,89.0112278160087,0.6934670011983023,1442.037263452362,
2023-12-13 14:16:31.537000,-4.63855421686747,-3.5421686746987953,7.807228915662651,-3.342734518700184,-4.518087063151441,8.480686695278969,3.0,0.6893106893106893,1450.7246376811595,0.28541460287862047,-0.3627993706660451,0.3391410756948893,1092.3076923076922,-1.0,89.0112278160087,0.6934135269601389,1442.1484021671076,
2023-12-13 14:16:31.545000,-4.626506024096386,-3.530120481927711,7.819277108433735,-3.3770692826486814,-4.540159411404046,8.610668301655426,3.0,0.6893106893106893,1450.7246376811595,-0.017714585397121858,-0.3933337218110833,0.3689761668900412,1097.4358974358975,-1.0,89.0112278160087,0.6933602915868308,1442.2590616255643,
2023-12-13 14:16:31.552000,-4.626506024096386,-3.5542168674698797,7.795180722891566,-3.438381361128142,-4.594114040465971,8.51256897608829,3.0,0.6893106893106893,1450.7246376811595,0.2728279237806658,-0.2251617038634117,0.35032923489307133,1106.9597069597069,-1.0,89.0112278160087,0.6933072948694965,1442.369242086922,
2023-12-13 14:16:31.560000,-4.602409638554217,-3.5542168674698797,7.807228915662651,-3.362354383813611,-4.498467198038013,8.610668301655426,3.0,0.6893106893106893,1450.7246376811595,0.026688421420663622,-0.9000640988287392,0.35079540819299554,1117.2161172161173,-1.0,89.0112278160087,0.6932545365842878,1442.4789438409207,
2023-12-13 14:16:31.568000,-4.63855421686747,-3.530120481927711,7.819277108433735,-3.3991416309012874,-4.567136725935009,8.539546290619251,3.0,0.6893106893106893,1450.7246376811595,0.24042887943593078,-0.3026630149758172,0.38179593263795836,1128.937728937729,-1.0,89.0112278160087,0.6932020163628272,1442.5881674723119,
2023-12-13 14:16:31.575000,-4.63855421686747,-3.5060240963855422,7.83132530120482,-3.435928877988964,-4.59656652360515,8.586143470263641,3.0,0.6893106893106893,1450.7246376811595,0.5314375619136418,-0.2271429403880894,0.10745294563253864,1140.6593406593406,-1.0,89.0112278160087,0.6931497335734312,1442.6969141032193,
2023-12-13 14:16:31.583000,-4.63855421686747,-3.5180722891566267,7.855421686746988,-3.435928877988964,-4.589209074187615,8.60331085223789,3.0,0.6888666888666889,1451.6596841766034,0.14707767612610026,-0.21385700134024802,0.07820057106229227,1146.5201465201465,-1.0,89.0112278160087,0.6930976873616768,1442.805185309657,
2023-12-13 14:16:31.591000,-4.63855421686747,-3.5180722891566267,7.843373493975904,-3.445738810545677,-4.623543838136112,8.529736358062538,3.0,0.6893106893106893,1450.7246376811595,0.11700949828098545,0.08938873026047514,0.3253889633471246,1148.7179487179487,-1.0,89.0112278160087,0.6930458768082045,1442.9129828073821,
2023-12-13 14:16:31.598000,-4.63855421686747,-3.5180722891566267,7.855421686746988,-3.391784181483752,-4.56468424279583,8.539546290619251,3.0,0.6893106893106893,1450.7246376811595,-0.12621642095449062,-0.19089796631897982,0.20534933861663046,1148.7179487179487,-1.0,89.0112278160087,0.6929943010551517,1443.0203081850038,
2023-12-13 14:16:31.606000,-4.63855421686747,-3.5180722891566267,7.855421686746988,-3.4310239117106067,-4.616186388718577,8.57388105456775,3.0,0.6893106893106893,1450.7246376811595,0.33273119282093033,-0.2384476429112531,0.37375444321426504,1149.4505494505493,-1.0,89.0112278160087,0.692942959336779,1443.1271628310487,
2023-12-13 14:16:31.614000,-4.650602409638554,-3.5421686746987953,7.867469879518072,-3.3868792152053953,-4.6627835683629675,8.568976088289393,3.0,0.6888666888666889,1451.6596841766034,0.009906182623390191,-0.008158032748674174,0.5101101334421071,1147.985347985348,-1.0,89.0112278160087,0.6928918508615767,1443.2335481829225,
2023-12-13 14:16:31.621000,-4.63855421686747,-3.530120481927711,7.855421686746988,-3.494788473329246,-4.58185162477008,8.556713672593501,3.0,0.6888666888666889,1451.6596841766034,-0.0666627818891669,-0.20709748849134735,0.5091777868422587,1145.7875457875457,-1.0,89.0112278160087,0.6928409748225857,1443.3394657139497,
2023-12-13 14:16:31.629000,-4.63855421686747,-3.5421686746987953,7.855421686746988,-3.408951563458001,-4.520539546290619,8.576333537706928,3.0,0.6884226884226884,1452.5959367945825,0.055241536041024095,-0.2819183031291884,0.6601013926927335,1144.3223443223442,-1.0,89.0112278160087,0.6927903303759748,1443.4449169779475,
2023-12-13 14:16:31.636000,-4.626506024096386,-3.5421686746987953,7.843373493975904,-3.4481912936848556,-4.545064377682404,8.54199877375843,3.0,0.6888666888666889,1451.6596841766034,-0.03717732066895799,-0.39776236816036376,0.5493852339607249,1142.1245421245421,-1.0,89.0112278160087,0.6927399166403178,1443.549903610902,
2023-12-13 14:16:31.644000,-4.650602409638554,-3.530120481927711,7.855421686746988,-3.4015941140404657,-4.599019006744328,8.551808706315144,3.0,0.6888666888666889,1451.6596841766034,0.008041489423693338,-0.22504516053843088,0.5929724375036424,1140.6593406593406,-1.0,89.0112278160087,0.6926897328234833,1443.6544270629522,
2023-12-13 14:16:31.652000,-4.63855421686747,-3.5421686746987953,7.83132530120482,-3.4580012262415694,-4.599019006744328,8.522378908645003,3.0,0.6888666888666889,1451.6596841766034,0.16094633179884585,-0.18903327311928123,0.5461220208612549,1139.194139194139,-1.0,89.0112278160087,0.6926397781141249,1443.7584888111314,
2023-12-13 14:16:31.659000,-4.614457831325302,-3.530120481927711,7.843373493975904,-3.4236664622930717,-4.540159411404046,8.515021459227468,3.0,0.6888666888666889,1451.6596841766034,0.1604801584989225,-0.18448808344501993,0.5451896742614065,1140.6593406593406,-1.0,89.0112278160087,0.6925900515829297,1443.8620905695595,
2023-12-13 14:16:31.667000,-4.614457831325302,-3.5542168674698797,7.771084337349398,-3.4163090128755362,-4.56468424279583,8.571428571428571,3.0,0.6888666888666889,1451.6596841766034,0.14451372297651666,-0.05990326904026623,0.3745702464891322,1139.9267399267399,-1.0,89.0112278160087,0.6925405523494121,1443.9652339471313,
2023-12-13 14:16:31.675000,-4.602409638554217,-3.5662650602409642,7.807228915662651,-3.413856529736358,-4.542611894543224,8.57388105456775,3.0,0.6888666888666889,1451.6596841766034,0.20383427539187698,-0.25651185828331746,0.388788532136822,1141.3919413919414,-1.0,89.0112278160087,0.6924912797375112,1444.0679201281573,
2023-12-13 14:16:31.682000,-4.614457831325302,-3.5542168674698797,7.795180722891566,-3.4408338442673205,-4.5744941753525445,8.54199877375843,3.0,0.6888666888666889,1451.6596841766034,0.3095390711497005,0.17201794767204787,0.3855253190373525,1146.5201465201465,-1.0,89.0112278160087,0.6924422332713849,1444.170149880644,
2023-12-13 14:16:31.690000,-4.602409638554217,-3.5542168674698797,7.819277108433735,-3.4310239117106067,-4.552421827099939,8.556713672593501,3.0,0.6888666888666889,1451.6596841766034,0.5675659926577705,0.3527766447176741,0.49251209136996693,1161.904761904762,-1.0,89.0112278160087,0.6923934125429009,1444.2719238276197,
2023-12-13 14:16:31.698000,-4.674698795180723,-3.5542168674698797,7.843373493975904,-3.408951563458001,-4.586756591048436,8.532188841201716,3.0,0.6888666888666889,1451.6596841766034,0.18308956354524816,0.37829963288852586,0.4754967659227314,1189.7435897435896,-1.0,89.0112278160087,0.6923448172275111,1444.3732424142806,
2023-12-13 14:16:31.705000,-4.63855421686747,-3.5421686746987953,7.795180722891566,-3.435928877988964,-4.645616186388718,8.488044144696504,3.0,0.6884226884226884,1452.5959367945825,0.3175805605733938,0.2512674086591694,0.7021735330108966,1237.3626373626373,-1.0,89.0112278160087,0.6922964470992015,1444.474105877049,
2023-12-13 14:16:31.713000,-4.650602409638554,-3.5542168674698797,7.819277108433735,-3.4187614960147146,-4.630901287553648,8.554261189454323,3.0,0.6884226884226884,1452.5959367945825,0.6668609055416359,-0.07237340481324003,0.39205174523629194,1305.4945054945053,-1.0,89.0112278160087,0.6922483018952186,1444.5745145293654,
2023-12-13 14:16:31.721000,-4.63855421686747,-3.5542168674698797,7.783132530120482,-3.374616799509503,-4.59656652360515,8.500306560392398,3.0,0.6888666888666889,1451.6596841766034,0.6608006526426202,-0.4398345084785273,0.6476312569197601,1400.7326007326005,-1.0,89.0112278160087,0.6922003813072725,1444.6744687807554,
2023-12-13 14:16:31.728000,-4.650602409638554,-3.5421686746987953,7.795180722891566,-3.421213979153893,-4.586756591048436,8.529736358062538,3.0,0.6884226884226884,1452.5959367945825,0.6563720062933397,-0.7872501602470725,0.9016957053784743,1519.4139194139193,-1.0,89.0112278160087,0.6921526852800367,1444.773968507877,
2023-12-13 14:16:31.736000,-4.626506024096386,-3.5060240963855422,7.83132530120482,-3.42611894543225,-4.606376456161864,8.515021459227468,3.0,0.6884226884226884,1452.5959367945825,0.7565992657770517,-0.8879435930307096,0.7123128022842493,1658.6080586080584,-1.0,89.0112278160087,0.6921052140318136,1444.8730130191568,
2023-12-13 14:16:31.744000,-4.626506024096386,-3.530120481927711,7.807228915662651,-3.362354383813611,-4.64316370324954,8.519926425505824,3.0,0.6884226884226884,1452.5959367945825,0.7796748441233026,-1.3225336518850888,0.8898082862304056,1817.5824175824175,-1.0,89.0112278160087,0.6920579678834489,1444.9716014148314,
2023-12-13 14:16:31.751000,-4.626506024096386,-3.530120481927711,7.819277108433735,-3.4236664622930717,-4.58185162477008,8.586143470263641,3.0,0.6884226884226884,1452.5959367945825,0.6814288211642682,-1.0166074238098013,0.8075286987937771,1991.2087912087911,-1.0,89.0112278160087,0.6920109472564201,1445.0697325830918,
2023-12-13 14:16:31.759000,-4.602409638554217,-3.530120481927711,7.807228915662651,-3.435928877988964,-4.576946658491723,8.595953402820355,3.0,0.6884226884226884,1452.5959367945825,0.7818891672979437,-1.3264961249344442,1.1818658586329467,2169.230769230769,-1.0,89.0112278160087,0.6919641526802144,1445.167405184953,
2023-12-13 14:16:31.767000,-4.614457831325302,-3.530120481927711,7.83132530120482,-3.4506437768240343,-4.594114040465971,8.519926425505824,3.0,0.6884226884226884,1452.5959367945825,0.7589301322766737,-0.7641745819008218,1.265310879319387,2342.8571428571427,-1.0,89.0112278160087,0.691917584798472,1445.2646176416902,
2023-12-13 14:16:31.774000,-4.626506024096386,-3.5542168674698797,7.83132530120482,-3.467811158798283,-4.496014714898835,8.605763335377068,3.0,0.6884226884226884,1452.5959367945825,0.6766505448400435,-1.0449274517802,1.1656663364605793,2498.9010989010985,-1.0,89.0112278160087,0.6918712443739407,1445.3613681247425,
2023-12-13 14:16:31.782000,-4.614457831325302,-3.5060240963855422,7.83132530120482,-3.413856529736358,-4.535254445125689,8.595953402820355,3.0,0.6879786879786879,1453.5333978702809,0.4268981994056284,-0.7300273876813708,1.2768486684925116,2625.6410256410254,-1.0,89.0112278160087,0.6918251324310319,1445.4576542628358,
2023-12-13 14:16:31.790000,-4.602409638554217,-3.530120481927711,7.83132530120482,-3.4408338442673205,-4.591661557326793,8.62047823421214,3.0,0.6884226884226884,1452.5959367945825,0.7731484179243635,-0.6000815803274864,1.1149699900938177,2720.14652014652,-1.0,89.0112278160087,0.6917792502276071,1445.5534732081164,
2023-12-13 14:16:31.797000,-4.626506024096386,-3.5421686746987953,7.843373493975904,-3.4530962599632127,-4.559779276517474,8.622930717351318,3.0,0.6884226884226884,1452.5959367945825,0.735854553930423,-0.5599906765340023,1.257152846570713,2777.289377289377,-1.0,89.0112278160087,0.6917335990769439,1445.6488219955213,
2023-12-13 14:16:31.805000,-4.650602409638554,-3.5180722891566267,7.867469879518072,-3.4408338442673205,-4.50337216431637,8.571428571428571,3.0,0.6884226884226884,1452.5959367945825,0.7127789755841739,-0.1576831186993772,0.9701066371423581,2797.8021978021975,-1.0,89.0112278160087,0.6916881803808538,1445.7436974663206,
2023-12-13 14:16:31.813000,-4.63855421686747,-3.5421686746987953,7.867469879518072,-3.4580012262415694,-4.58185162477008,8.586143470263641,3.0,0.6884226884226884,1452.5959367945825,0.9963288852630958,-0.306858574675136,1.1587902802866965,2780.21978021978,-1.0,89.0112278160087,0.6916429956405258,1445.838096253452,
2023-12-13 14:16:31.820000,-4.674698795180723,-3.5180722891566267,7.855421686746988,-3.3721643163703248,-4.5744941753525445,8.54199877375843,3.0,0.6884226884226884,1452.5959367945825,0.7438960433541163,-0.29159139910261694,0.9945807353883798,2726.007326007326,735.3515625,81.59362549800797,0.6915980464558017,1445.9320147832584,
2023-12-13 14:16:31.828000,-4.662650602409639,-3.5060240963855422,7.819277108433735,-3.408951563458001,-4.5744941753525445,8.564071122011036,3.0,0.6884226884226884,1452.5959367945825,0.41501078025756055,-0.39508187168579934,0.7557834625021859,2639.5604395604396,-1.0,81.59362549800797,0.6915533345234959,1446.0254492792137,
2023-12-13 14:16:31.836000,-4.674698795180723,-3.5060240963855422,7.855421686746988,-3.404046597179644,-4.579399141630901,8.54199877375843,3.0,0.6884226884226884,1452.5959367945825,0.7778101509236056,-0.2710797739059498,0.9152147310762774,2528.937728937729,-1.0,81.59362549800797,0.6915088616348585,1446.1183957674216,
2023-12-13 14:16:31.843000,-4.662650602409639,-3.5060240963855422,7.843373493975904,-3.4015941140404657,-4.559779276517474,8.502759043531576,3.0,0.6884226884226884,1452.5959367945825,0.8935376726298002,-0.6518268166190785,0.8290892139152727,2397.069597069597,-1.0,81.59362549800797,0.6914646296722683,1446.210850083717,
2023-12-13 14:16:31.851000,-4.650602409638554,-3.5180722891566267,7.843373493975904,-3.3893316983445736,-4.5744941753525445,8.537093807480073,3.0,0.6884226884226884,1452.5959367945825,0.8266418040906699,-1.0740632830254648,0.6200104888992489,2254.212454212454,-1.0,81.59362549800797,0.691420640605247,1446.3028078821737,
2023-12-13 14:16:31.859000,-4.662650602409639,-3.5180722891566267,7.855421686746988,-3.4114040465971796,-4.616186388718577,8.551808706315144,3.0,0.6884226884226884,1452.5959367945825,0.8519317056115617,-1.2931647339898609,0.8562438086358609,2104.029304029304,-1.0,81.59362549800797,0.6913768964858914,1446.3942646448113,
2023-12-13 14:16:31.866000,-4.650602409638554,-3.5060240963855422,7.83132530120482,-3.4408338442673205,-4.616186388718577,8.549356223175964,3.0,0.6884226884226884,1452.5959367945825,0.7050871161354231,-1.4477011829147486,0.7225686148825833,1950.9157509157508,-1.0,81.59362549800797,0.6913333995825761,1446.4852154067728,
2023-12-13 14:16:31.874000,-4.63855421686747,-3.5060240963855422,7.819277108433735,-3.345187001839362,-4.552421827099939,8.55916615573268,3.0,0.6884226884226884,1452.5959367945825,0.7454111065788707,-1.4492162461395028,1.0514538779791391,1799.9999999999998,-1.0,81.59362549800797,0.6912901523541373,1446.5756548097766,
2023-12-13 14:16:31.882000,-4.650602409638554,-3.4819277108433737,7.819277108433735,-3.3893316983445736,-4.559779276517474,8.62047823421214,3.0,0.6884226884226884,1452.5959367945825,0.8276906940155009,-1.3755608647514719,0.8147543849426029,1653.4798534798533,-1.0,81.59362549800797,0.691247157296158,1446.6655774187768,
2023-12-13 14:16:31.889000,-4.63855421686747,-3.493975903614458,7.855421686746988,-3.3476394849785405,-4.58185162477008,8.546903740036786,3.0,0.6879786879786879,1453.5333978702809,0.6954140201619946,-1.224637258900997,0.730260474331332,1515.7509157509157,-1.0,81.59362549800797,0.6912044169361623,1446.7549777321872,
2023-12-13 14:16:31.897000,-4.626506024096386,-3.5060240963855422,7.83132530120482,-3.396689147762109,-4.589209074187615,8.60331085223789,3.0,0.6879786879786879,1453.5333978702809,0.6855078375386044,-1.2092535400034954,0.8762892605326034,1388.278388278388,-1.0,81.59362549800797,0.6911619336792176,1446.8438505079237,
2023-12-13 14:16:31.905000,-4.590361445783133,-3.5060240963855422,7.83132530120482,-3.3770692826486814,-4.522992029429798,8.54199877375843,3.0,0.6879786879786879,1453.5333978702809,0.873608764058039,-1.2740516286929655,0.9285006701241196,1271.062271062271,-1.0,81.59362549800797,0.6911197099195169,1446.93219053491,
2023-12-13 14:16:31.912000,-4.602409638554217,-3.493975903614458,7.855421686746988,-3.4114040465971796,-4.554874310239117,8.578786020846106,3.0,0.6879786879786879,1453.5333978702809,0.9543732882699149,-1.0500553580793655,0.8589243051104254,1164.102564102564,-1.0,81.59362549800797,0.6910777481516628,1447.0199923970963,
2023-12-13 14:16:31.920000,-4.590361445783133,-3.5060240963855422,7.867469879518072,-3.391784181483752,-4.473942366646229,8.564071122011036,3.0,0.6879786879786879,1453.5333978702809,0.9440009323465995,-0.702756249635803,0.8642852980595542,1071.062271062271,-1.0,81.59362549800797,0.6910360508154001,1447.1072507937936,
2023-12-13 14:16:31.928000,-4.602409638554217,-3.530120481927711,7.891566265060241,-3.4187614960147146,-4.525444512568976,8.58859595340282,3.0,0.6879786879786879,1453.5333978702809,0.6913350037876583,-0.6623157158673728,0.9304819066487965,990.4761904761904,-1.0,81.59362549800797,0.6909946202893492,1447.1939605529676,
2023-12-13 14:16:31.935000,-4.602409638554217,-3.5180722891566267,7.855421686746988,-3.404046597179644,-4.510729613733905,8.598405885959533,3.0,0.6875346875346875,1454.4720697449145,0.6820115377891723,-0.6525260765689652,0.9198764640755196,926.0073260073259,-1.0,81.59362549800797,0.6909534588845517,1447.2801166449235,
2023-12-13 14:16:31.943000,-4.614457831325302,-3.5060240963855422,7.83132530120482,-3.3868792152053953,-4.54996934396076,8.581238503985285,3.0,0.6875346875346875,1454.4720697449145,0.6733873317405749,-0.6557892896684355,0.8931880426548576,875.4578754578754,-1.0,81.59362549800797,0.690912568827377,1447.3657142255354,
2023-12-13 14:16:31.951000,-4.63855421686747,-3.5060240963855422,7.867469879518072,-3.438381361128142,-4.532801961986511,8.598405885959533,3.0,0.6875346875346875,1454.4720697449145,0.8324689703397239,-0.4784103490472588,1.0028553114620358,842.4908424908424,-1.0,81.59362549800797,0.6908719522107285,1447.4507487383812,
2023-12-13 14:16:31.958000,-4.63855421686747,-3.5060240963855422,7.879518072289157,-3.413856529736358,-4.601471489883507,8.561618638871858,3.0,0.6879786879786879,1453.5333978702809,0.503583707243168,-0.2983509119515176,0.6864401841384536,826.3736263736263,-1.0,81.59362549800797,0.6908316109766763,1447.5352159439294,
2023-12-13 14:16:31.966000,-4.63855421686747,-3.493975903614458,7.855421686746988,-3.408951563458001,-4.594114040465971,8.605763335377068,3.0,0.6879786879786879,1453.5333978702809,0.5115086533418789,-0.5661674727579971,0.9224404172251036,827.8388278388278,-1.0,81.59362549800797,0.6907915470587559,1447.6191116187756,
2023-12-13 14:16:31.974000,-4.674698795180723,-3.5180722891566267,7.855421686746988,-3.3795217657878602,-4.554874310239117,8.549356223175964,3.0,0.6879786879786879,1453.5333978702809,0.6118524561505735,-0.8497173824369206,0.4989219742439259,845.4212454212453,-1.0,81.59362549800797,0.6907517623967654,1447.7024315244037,
2023-12-13 14:16:31.981000,-4.63855421686747,-3.5180722891566267,7.843373493975904,-3.384426732066217,-4.675045984058859,8.561618638871858,3.0,0.6879786879786879,1453.5333978702809,0.7137113221840207,-0.9022784220033785,0.6461161936950053,872.5274725274725,-1.0,81.59362549800797,0.6907122587926587,1447.7851717118988,
2023-12-13 14:16:31.989000,-4.662650602409639,-3.5060240963855422,7.83132530120482,-3.374616799509503,-4.579399141630901,8.549356223175964,3.0,0.6879786879786879,1453.5333978702809,0.6754851115902334,-1.106928500670123,0.7604451955014272,912.8205128205127,-1.0,81.59362549800797,0.6906730379055049,1447.8673285326436,
2023-12-13 14:16:31.997000,-4.650602409638554,-3.5060240963855422,7.843373493975904,-3.3721643163703248,-4.567136725935009,8.571428571428571,3.0,0.6879786879786879,1453.5333978702809,0.7605617388264089,-0.8832818600314657,0.5527649903851766,958.9743589743589,-1.0,81.59362549800797,0.6906341012468609,1447.9488986481379,
2023-12-13 14:16:32.004000,-4.63855421686747,-3.5060240963855422,7.855421686746988,-3.4015941140404657,-4.652973635806253,8.593500919681176,3.0,0.6875346875346875,1454.4720697449145,0.6923838937124877,-0.8005360992949122,0.48563603519608367,1013.9194139194138,-1.0,81.59362549800797,0.6905954501766497,1448.0298790387517,
2023-12-13 14:16:32.012000,-4.626506024096386,-3.5180722891566267,7.855421686746988,-3.3795217657878602,-4.591661557326793,8.583690987124463,3.0,0.6875346875346875,1454.4720697449145,0.5023017306683771,-0.7471592564535849,0.5109259367169755,1071.062271062271,-1.0,81.59362549800797,0.6905570858890924,1448.110267040215,
2023-12-13 14:16:32.019000,-4.650602409638554,-3.493975903614458,7.819277108433735,-3.445738810545677,-4.547516860821582,8.568976088289393,3.0,0.6875346875346875,1454.4720697449145,0.8014684458947623,-0.8774546937824135,0.5041664238680723,1128.2051282051282,-1.0,81.59362549800797,0.6905190093676018,1448.1900604380319,
2023-12-13 14:16:32.027000,-4.63855421686747,-3.4698795180722892,7.855421686746988,-3.33292458614347,-4.569589209074187,8.581238503985285,3.0,0.6879786879786879,1453.5333978702809,0.5637200629333959,-0.9159139910261624,0.5742089621816917,1182.4175824175823,-1.0,81.59362549800797,0.6904812213717605,1448.2692574879254,
2023-12-13 14:16:32.035000,-4.63855421686747,-3.4819277108433737,7.879518072289157,-3.391784181483752,-4.547516860821582,8.58859595340282,3.0,0.6875346875346875,1454.4720697449145,0.5581259833343036,-0.73981702697978,0.2147893479400973,1232.2344322344322,-1.0,81.59362549800797,0.6904437225845768,1448.3478566046301,
2023-12-13 14:16:32.042000,-4.626506024096386,-3.493975903614458,7.891566265060241,-3.3648068669527893,-4.572041692213366,8.605763335377068,3.0,0.6879786879786879,1453.5333978702809,0.5374978148126557,-0.6434356972204426,0.1934619194685617,1276.1904761904761,-1.0,81.59362549800797,0.6904065136223027,1448.4258563475914,
2023-12-13 14:16:32.050000,-4.614457831325302,-3.493975903614458,7.891566265060241,-3.408951563458001,-4.589209074187615,8.576333537706928,3.0,0.6875346875346875,1454.4720697449145,0.5922731775537564,-0.7596293922265605,0.40195792785968254,1314.2857142857142,-1.0,81.59362549800797,0.6903695950034812,1448.5032554855902,
2023-12-13 14:16:32.058000,-4.614457831325302,-3.5060240963855422,7.867469879518072,-3.325567136725935,-4.613733905579399,8.610668301655426,3.0,0.6879786879786879,1453.5333978702809,0.6003146669774481,-0.6440184138453467,0.41151448050812806,1347.2527472527472,-1.0,81.59362549800797,0.6903329670122028,1448.5800532792096,
2023-12-13 14:16:32.065000,-4.602409638554217,-3.493975903614458,7.855421686746988,-3.396689147762109,-4.599019006744328,8.64990803188228,3.0,0.6875346875346875,1454.4720697449145,0.441815745003205,-0.620942835499096,0.3424042887943588,1372.161172161172,-1.0,81.59362549800797,0.69029662969019,1448.6562494977481,
2023-12-13 14:16:32.073000,-4.602409638554217,-3.4698795180722892,7.843373493975904,-3.396689147762109,-4.527896995708154,8.610668301655426,3.0,0.6875346875346875,1454.4720697449145,0.13041198065380769,-0.5520657304352897,0.7169745352834919,1388.278388278388,-1.0,81.59362549800797,0.6902605828506146,1448.7318443901881,
2023-12-13 14:16:32.081000,-4.626506024096386,-3.4819277108433737,7.867469879518072,-3.303494788473329,-4.54996934396076,8.615573267933783,3.0,0.6879786879786879,1453.5333978702809,0.6014801002272582,-0.34496824194394243,0.4157100402074473,1394.139194139194,-1.0,81.59362549800797,0.6902248259222654,1448.806839014833,
2023-12-13 14:16:32.088000,-4.614457831325302,-3.4698795180722892,7.867469879518072,-3.3795217657878602,-4.522992029429798,8.583690987124463,3.0,0.6870906870906871,1455.4119547657513,0.4117475671580902,-0.44403006817784435,0.4383194452537723,1389.7435897435896,-1.0,81.59362549800797,0.690189358380288,1448.8812343348125,
2023-12-13 14:16:32.096000,-4.614457831325302,-3.4819277108433737,7.855421686746988,-3.3476394849785405,-4.554874310239117,8.583690987124463,3.0,0.6870906870906871,1455.4119547657513,0.4074354641337923,-0.4665229298991892,0.628168521647922,1379.4871794871794,-1.0,81.59362549800797,0.6901541794537494,1448.9550318360475,
2023-12-13 14:16:32.104000,-4.602409638554217,-3.4819277108433737,7.867469879518072,-3.325567136725935,-4.478847332924586,8.576333537706928,3.0,0.6875346875346875,1454.4720697449145,0.38564186236233244,-0.5204824893654223,0.16048015849892164,1363.3699633699632,-1.0,81.59362549800797,0.6901192878022218,1449.028234204884,
2023-12-13 14:16:32.111000,-4.590361445783133,-3.4819277108433737,7.879518072289157,-3.3721643163703248,-4.527896995708154,8.642550582464745,3.0,0.6875346875346875,1454.4720697449145,0.48738418507080056,-0.3603519608414441,0.07738476778742512,1339.194139194139,-1.0,81.59362549800797,0.6900846819483366,1449.1008444130707,
2023-12-13 14:16:32.119000,-4.578313253012048,-3.4819277108433737,7.855421686746988,-3.391784181483752,-4.500919681177192,8.58859595340282,3.0,0.6875346875346875,1454.4720697449145,0.20663131519142225,-0.354058621292465,0.5902919410290779,1309.89010989011,-1.0,81.59362549800797,0.6900503603058391,1449.1728656586454,
2023-12-13 14:16:32.127000,-4.590361445783133,-3.4698795180722892,7.891566265060241,-3.337829552421827,-4.515634580012263,8.608215818516248,3.0,0.6879786879786879,1453.5333978702809,0.3406561389196428,0.018646931996970283,-0.07680205116252029,1276.1904761904761,-1.0,81.59362549800797,0.6900163210491397,1449.2443016423304,
2023-12-13 14:16:32.134000,-4.590361445783133,-3.4698795180722892,7.83132530120482,-3.296137339055794,-4.427345187001839,8.52728387492336,3.0,0.6875346875346875,1454.4720697449145,0.5025348173183388,-0.2690985373812721,0.26968125400617715,1241.0256410256409,-1.0,81.59362549800797,0.6899825622715742,1449.3151562332018,
2023-12-13 14:16:32.142000,-4.602409638554217,-3.4698795180722892,7.843373493975904,-3.4114040465971796,-4.547516860821582,8.544451256897608,3.0,0.6875346875346875,1454.4720697449145,0.4049880543091895,0.0858924305110431,0.3680438202901927,1208.7912087912086,-1.0,81.59362549800797,0.6899490818676275,1449.385433717919,
2023-12-13 14:16:32.150000,-4.626506024096386,-3.4819277108433737,7.83132530120482,-3.3525444512568976,-4.635806253832005,8.57388105456775,3.0,0.6875346875346875,1454.4720697449145,0.6602179360177143,0.2710797739059498,0.17702931064623295,1178.021978021978,-1.0,81.59362549800797,0.6899158773843349,1449.4551391151288,
2023-12-13 14:16:32.157000,-4.63855421686747,-3.4698795180722892,7.855421686746988,-3.3770692826486814,-4.557326793378295,8.57388105456775,3.0,0.6875346875346875,1454.4720697449145,0.0892721869354943,0.01048889924829611,0.23017306683759636,1147.985347985348,-1.0,81.59362549800797,0.6898829461712654,1449.5242778586223,
2023-12-13 14:16:32.165000,-4.626506024096386,-3.4698795180722892,7.83132530120482,-3.408951563458001,-4.542611894543224,8.568976088289393,3.0,0.6875346875346875,1454.4720697449145,0.29916671522638516,0.099527999533827,0.1785443738709871,1120.14652014652,-1.0,81.59362549800797,0.6898502853924617,1449.592855772352,
2023-12-13 14:16:32.173000,-4.63855421686747,-3.4698795180722892,7.867469879518072,-3.313304721030043,-4.623543838136112,8.576333537706928,3.0,0.6875346875346875,1454.4720697449145,0.23425208321193258,0.21921799428937863,0.2337859099120101,1095.2380952380952,-1.0,81.59362549800797,0.689817892177836,1449.6608787562106,
2023-12-13 14:16:32.180000,-4.626506024096386,-3.4698795180722892,7.83132530120482,-3.404046597179644,-4.56468424279583,8.566523605150214,3.0,0.6875346875346875,1454.4720697449145,0.1707359710972552,-0.08752403706077655,0.15383718897500093,1073.260073260073,-1.0,81.59362549800797,0.6897857636161419,1449.7283528003243,
2023-12-13 14:16:32.188000,-4.626506024096386,-3.457831325301205,7.867469879518072,-3.3574494175352543,-4.579399141630901,8.564071122011036,3.0,0.6875346875346875,1454.4720697449145,-0.0787832876871982,-0.31373463084901926,0.011887419148067666,1053.4798534798533,-1.0,81.59362549800797,0.6897538966210232,1449.795284262536,
2023-12-13 14:16:32.196000,-4.650602409638554,-3.4457831325301207,7.903614457831326,-3.3942366646229307,-4.554874310239117,8.618025751072961,3.0,0.6875346875346875,1454.4720697449145,-0.15675077209952878,-0.3573218343919354,0.22271429403880807,1037.3626373626373,-1.0,81.59362549800797,0.6897222879468377,1449.861679835269,
2023-12-13 14:16:32.203000,-4.650602409638554,-3.4698795180722892,7.867469879518072,-3.3893316983445736,-4.569589209074187,8.591048436541998,3.0,0.6875346875346875,1454.4720697449145,0.11596060835615618,-0.6282850649729026,0.29287337567740745,1027.8388278388277,-1.0,81.59362549800797,0.6896909343436861,1449.927546223312,
2023-12-13 14:16:32.211000,-4.650602409638554,-3.4698795180722892,7.903614457831326,-3.367259350091968,-4.567136725935009,8.62047823421214,3.0,0.6875346875346875,1454.4720697449145,0.10826874890740709,-0.6229240720237738,0.2844822562787714,1021.978021978022,-1.0,81.59362549800797,0.6896598325537477,1449.9928901511141,
2023-12-13 14:16:32.219000,-4.650602409638554,-3.4819277108433737,7.903614457831326,-3.3402820355610054,-4.537706928264868,8.600858369098711,3.0,0.6875346875346875,1454.4720697449145,0.13367519375327805,-0.4348231455043409,0.24485752578521017,1021.978021978022,-1.0,81.59362549800797,0.6896289790416601,1450.0577189222893,
2023-12-13 14:16:32.226000,-4.63855421686747,-3.457831325301205,7.891566265060241,-3.384426732066217,-4.567136725935009,8.640098099325566,3.0,0.6875346875346875,1454.4720697449145,-0.09871219625895941,-0.12248703455509517,0.11316356855661178,1027.8388278388277,-1.0,81.59362549800797,0.689598370033498,1450.1220403383275,
2023-12-13 14:16:32.234000,-4.614457831325302,-3.493975903614458,7.891566265060241,-3.342734518700184,-4.5744941753525445,8.647455548743102,3.0,0.6870906870906871,1455.4119547657513,-0.083678107336402,-0.3934502651360641,0.15232212575024812,1038.095238095238,-1.0,81.59362549800797,0.6895680018222563,1450.1858620639125,
2023-12-13 14:16:32.242000,-4.602409638554217,-3.4698795180722892,7.891566265060241,-3.3574494175352543,-4.569589209074187,8.63519313304721,3.0,0.6866466866466866,1456.35305528613,0.20325155876697107,-0.03531262746926114,-0.2825010197540939,1050.5494505494505,-1.0,81.59362549800797,0.6895378706159287,1450.2491919480383,
2023-12-13 14:16:32.249000,-4.578313253012048,-3.4698795180722892,7.855421686746988,-3.3304721030042916,-4.498467198038013,8.615573267933783,3.0,0.6870906870906871,1455.4119547657513,-0.18448808344501993,-0.10558825243284264,-0.10209195268340975,1063.7362637362637,-1.0,81.59362549800797,0.6895079723751095,1450.3120383677763,
2023-12-13 14:16:32.257000,-4.602409638554217,-3.4698795180722892,7.867469879518072,-3.337829552421827,-4.552421827099939,8.610668301655426,3.0,0.6870906870906871,1455.4119547657513,-0.12633296427947147,0.17551424742147992,-0.1236524678049068,1077.6556776556777,-1.0,81.59362549800797,0.6894783030764413,1450.3744096698617,
2023-12-13 14:16:32.265000,-4.590361445783133,-3.4819277108433737,7.903614457831326,-3.3476394849785405,-4.500919681177192,8.618025751072961,3.0,0.6870906870906871,1455.4119547657513,0.06876056173882543,0.13565643027795574,0.14497989627644045,1087.9120879120878,-1.0,81.59362549800797,0.6894488586022766,1450.4363143933667,
2023-12-13 14:16:32.272000,-4.578313253012048,-3.457831325301205,7.879518072289157,-3.362354383813611,-4.493562231759657,8.622930717351318,3.0,0.6870906870906871,1455.4119547657513,-0.13425791037818396,-0.11829147485577639,-0.030068177845113304,1094.5054945054944,-1.0,81.59362549800797,0.6894196346404613,1450.497761483404,
2023-12-13 14:16:32.280000,-4.590361445783133,-3.4819277108433737,7.879518072289157,-3.3697118332311464,-4.545064377682404,8.586143470263641,3.0,0.6870906870906871,1455.4119547657513,-0.10628751238272767,0.500670124118642,-0.09859565293397793,1101.098901098901,-1.0,81.59362549800797,0.6893906269887741,1450.5587596578869,
2023-12-13 14:16:32.288000,-4.590361445783133,-3.4698795180722892,7.855421686746988,-3.3402820355610054,-4.515634580012263,8.578786020846106,3.0,0.6870906870906871,1455.4119547657513,0.18040906707068372,-6.992599498850188E-4,-0.12073888468038046,1105.4945054945053,-1.0,81.59362549800797,0.6893618314119124,1450.619317704595,
2023-12-13 14:16:32.295000,-4.590361445783133,-3.4819277108433737,7.855421686746988,-3.408951563458001,-4.540159411404046,8.598405885959533,3.0,0.6870906870906871,1455.4119547657513,0.24742147893479313,0.5110424800419555,-0.03286521764465967,1110.6227106227107,-1.0,81.59362549800797,0.6893332436684338,1450.6794444248837,
2023-12-13 14:16:32.303000,-4.626506024096386,-3.4819277108433737,7.867469879518072,-3.350091968117719,-4.545064377682404,8.586143470263641,3.0,0.6875346875346875,1454.4720697449145,0.22399627061359986,0.43808635860380957,0.17411572752170595,1116.4835164835165,-1.0,81.59362549800797,0.6893048596549501,1450.7391483336316,
2023-12-13 14:16:32.311000,-4.626506024096386,-3.4819277108433737,7.843373493975904,-3.367259350091968,-4.505824647455548,8.593500919681176,3.0,0.6870906870906871,1455.4119547657513,-0.18040906707068372,0.1523221257502483,-0.12248703455509583,1126.007326007326,-1.0,81.59362549800797,0.6892766754223485,1450.7984376195975,
2023-12-13 14:16:32.318000,-4.614457831325302,-3.493975903614458,7.855421686746988,-3.3648068669527893,-4.557326793378295,8.576333537706928,3.0,0.6870906870906871,1455.4119547657513,0.014567915622632328,-0.11502826175630776,-0.1420663131519141,1135.5311355311355,-1.0,81.59362549800797,0.6892486870640323,1450.8573203823398,
2023-12-13 14:16:32.326000,-4.63855421686747,-3.4698795180722892,7.879518072289157,-3.438381361128142,-4.547516860821582,8.58859595340282,3.0,0.6870906870906871,1455.4119547657513,0.025639531495834356,0.4568498339257624,-0.36081813414136676,1144.3223443223442,-1.0,81.59362549800797,0.6892208905720515,1450.9158049370842,
2023-12-13 14:16:32.334000,-4.662650602409639,-3.457831325301205,7.879518072289157,-3.3599019006744326,-4.601471489883507,8.62047823421214,3.0,0.6870906870906871,1455.4119547657513,0.17353301089680048,0.258609638132976,-0.22737602703805151,1152.3809523809523,-1.0,81.59362549800797,0.689193281990506,1450.9738994902898,
2023-12-13 14:16:32.341000,-4.650602409638554,-3.4698795180722892,7.855421686746988,-3.42611894543225,-4.535254445125689,8.598405885959533,3.0,0.6870906870906871,1455.4119547657513,0.13623914690286165,0.2763242235300961,-0.5376143581376374,1157.5091575091574,-1.0,81.59362549800797,0.6891658574295769,1451.0316121102328,
2023-12-13 14:16:32.349000,-4.614457831325302,-3.4819277108433737,7.843373493975904,-3.320662170447578,-4.64316370324954,8.637645616186388,3.0,0.6870906870906871,1455.4119547657513,-0.006992599498864074,0.23262047666219912,-0.14171668317697073,1159.7069597069597,-1.0,81.59362549800797,0.6891386132176808,1451.0889504100635,
2023-12-13 14:16:32.357000,-4.626506024096386,-3.4698795180722892,7.879518072289157,-3.3182096873083995,-4.576946658491723,8.566523605150214,3.0,0.6875346875346875,1454.4720697449145,-0.14544606957636508,-0.146028786201271,-0.43482314550434115,1162.6373626373625,-1.0,81.59362549800797,0.6891115458938509,1451.145921563475,
2023-12-13 14:16:32.364000,-4.614457831325302,-3.4819277108433737,7.867469879518072,-3.374616799509503,-4.527896995708154,8.62047823421214,3.0,0.6875346875346875,1454.4720697449145,-0.33249810617096864,-0.14334828972670657,-0.45102266767670907,1161.1721611721612,-1.0,81.59362549800797,0.6890846522211591,1451.2025322713346,
2023-12-13 14:16:32.372000,-4.602409638554217,-3.493975903614458,7.891566265060241,-3.3525444512568976,-4.527896995708154,8.62047823421214,3.0,0.6870906870906871,1455.4119547657513,-0.3026630149758172,0.4123302837829961,-0.45358662082629225,1158.2417582417581,-1.0,81.59362549800797,0.6890579292211697,1451.258788689017,
2023-12-13 14:16:32.380000,-4.602409638554217,-3.4819277108433737,7.879518072289157,-3.3648068669527893,-4.572041692213366,8.637645616186388,3.0,0.6870906870906871,1455.4119547657513,0.12318629450498193,0.5364489248878265,-0.14754384942602428,1151.6483516483515,-1.0,81.59362549800797,0.6890313738993211,1451.3146970079836,
2023-12-13 14:16:32.387000,-4.614457831325302,-3.4698795180722892,7.879518072289157,-3.3770692826486814,-4.547516860821582,8.62047823421214,3.0,0.6870906870906871,1455.4119547657513,-0.2954373288269915,0.29205757240254027,-0.09067070683526607,1148.7179487179487,-1.0,81.59362549800797,0.689004983235817,1451.3702634752856,
2023-12-13 14:16:32.395000,-4.626506024096386,-3.4457831325301207,7.867469879518072,-3.3697118332311464,-4.50337216431637,8.57388105456775,3.0,0.6870906870906871,1455.4119547657513,-0.10022725948371375,0.08006526426198912,-0.08006526426198957,1144.3223443223442,-1.0,81.59362549800797,0.6889787543348088,1451.4254940779786,
2023-12-13 14:16:32.402000,-4.614457831325302,-3.4698795180722892,7.855421686746988,-3.3868792152053953,-4.58185162477008,8.605763335377068,3.0,0.6870906870906871,1455.4119547657513,-0.24054542276091162,0.06759512848901532,-0.3734048132393214,1144.3223443223442,-1.0,81.59362549800797,0.6889526847114863,1451.4803939442086,
2023-12-13 14:16:32.410000,-4.590361445783133,-3.4819277108433737,7.867469879518072,-3.342734518700184,-4.545064377682404,8.62047823421214,3.0,0.6870906870906871,1455.4119547657513,-0.2291241769127671,0.20872909504108078,-0.1609463317988465,1143.5897435897434,-1.0,81.59362549800797,0.6889267721213396,1451.534967699415,
2023-12-13 14:16:32.418000,-4.602409638554217,-3.4698795180722892,7.843373493975904,-3.3770692826486814,-4.576946658491723,8.605763335377068,3.0,0.6870906870906871,1455.4119547657513,-0.13787075345259683,0.28599731950352464,-0.2999825185012528,1145.7875457875457,-1.0,81.59362549800797,0.6889010142925129,1451.5892200244496,
2023-12-13 14:16:32.425000,-4.578313253012048,-3.457831325301205,7.879518072289157,-3.3893316983445736,-4.552421827099939,8.632740649908031,3.0,0.6870906870906871,1455.4119547657513,-0.18402191014509658,0.19217994289377077,0.07971563428704596,1150.9157509157508,-1.0,81.59362549800797,0.6888754089444318,1451.6431556162593,
2023-12-13 14:16:32.433000,-4.578313253012048,-3.457831325301205,7.879518072289157,-3.3599019006744326,-4.557326793378295,8.595953402820355,3.0,0.6870906870906871,1455.4119547657513,-0.12365246780490702,0.2061651418914989,-0.2725948371307035,1167.032967032967,-1.0,81.59362549800797,0.688849953954041,1451.696778841283,
2023-12-13 14:16:32.441000,-4.578313253012048,-3.457831325301205,7.867469879518072,-3.303494788473329,-4.569589209074187,8.645003065603923,3.0,0.6870906870906871,1455.4119547657513,0.04195559699318271,-0.036944234018996325,-0.18378882349513426,1194.8717948717947,-1.0,81.59362549800797,0.6888246474896,1451.7500934564982,
2023-12-13 14:16:32.448000,-4.590361445783133,-3.4698795180722892,7.855421686746988,-3.3083997547516857,-4.554874310239117,8.615573267933783,3.0,0.6875346875346875,1454.4720697449145,-0.2677000174814986,0.2561622283083732,-0.370724316764757,1241.7582417582416,-1.0,81.59362549800797,0.6887994878668614,1451.803102909126,
2023-12-13 14:16:32.456000,-4.590361445783133,-3.4457831325301207,7.867469879518072,-3.3059472716125073,-4.510729613733905,8.600858369098711,3.0,0.6875346875346875,1454.4720697449145,-0.0393916438435991,0.4099994172833759,-0.06421537206456521,1310.6227106227104,-1.0,81.59362549800797,0.6887744737029746,1451.855810010941,
2023-12-13 14:16:32.464000,-4.602409638554217,-3.457831325301205,7.843373493975904,-3.3648068669527893,-4.537706928264868,8.613120784794605,3.0,0.6875346875346875,1454.4720697449145,-0.05967018239030283,0.227958743662957,-0.35685566109201095,1406.5934065934066,-1.0,81.59362549800797,0.6887496039421428,1451.9082168840166,
2023-12-13 14:16:32.471000,-4.626506024096386,-3.4457831325301207,7.867469879518072,-3.374616799509503,-4.569589209074187,8.55916615573268,3.0,0.6870906870906871,1455.4119547657513,0.027737311345492885,0.3692092535400033,-0.46477478002447403,1527.4725274725274,-1.0,81.59362549800797,0.6887248777215624,1451.960325244585,
2023-12-13 14:16:32.479000,-4.63855421686747,-3.4457831325301207,7.867469879518072,-3.3304721030042916,-4.576946658491723,8.60331085223789,3.0,0.6870906870906871,1455.4119547657513,-0.39216828856127317,-0.06934327836373134,-0.5573101800594372,1672.5274725274724,-1.0,81.59362549800797,0.6887002942262573,1452.0121367103575,
2023-12-13 14:16:32.487000,-4.626506024096386,-3.457831325301205,7.867469879518072,-3.3574494175352543,-4.532801961986511,8.60331085223789,3.0,0.6875346875346875,1454.4720697449145,-0.39216828856127317,-0.06479808868947004,-0.5582425266592856,1839.5604395604394,-1.0,81.59362549800797,0.6886758526708177,1452.0636528392208,
2023-12-13 14:16:32.494000,-4.626506024096386,-3.457831325301205,7.867469879518072,-3.3280196198651133,-4.559779276517474,8.600858369098711,3.0,0.6870906870906871,1455.4119547657513,-0.08577588718606226,0.5185012528407429,-0.42188683643144315,2021.245421245421,-1.0,81.59362549800797,0.6886515527276381,1452.1148742268524,
2023-12-13 14:16:32.502000,-4.626506024096386,-3.4457831325301207,7.879518072289157,-3.342734518700184,-4.510729613733905,8.632740649908031,3.0,0.6875346875346875,1454.4720697449145,-0.030184721170095657,0.5682652526076573,-0.43727055532894327,2209.523809523809,-1.0,81.59362549800797,0.6886273943799359,1452.1658008172603,
2023-12-13 14:16:32.510000,-4.602409638554217,-3.4457831325301207,7.891566265060241,-3.3574494175352543,-4.537706928264868,8.586143470263641,3.0,0.6875346875346875,1454.4720697449145,-0.30674203135015515,0.09929491288386533,-0.07085834158848525,2394.139194139194,-1.0,81.59362549800797,0.6886033777643521,1452.2164322315657,
2023-12-13 14:16:32.517000,-4.590361445783133,-3.457831325301205,7.879518072289157,-3.3108522378908645,-4.56468424279583,8.637645616186388,3.0,0.6875346875346875,1454.4720697449145,-0.21478934794009644,0.40941670065846997,-0.33482897267059014,2561.904761904762,-1.0,81.59362549800797,0.6885795033325538,1452.2667674259237,
2023-12-13 14:16:32.525000,-4.614457831325302,-3.4698795180722892,7.855421686746988,-3.3010423053341507,-4.545064377682404,8.595953402820355,3.0,0.6875346875346875,1454.4720697449145,-0.21595478118990652,0.13239321717848537,-0.3344793426956474,2704.029304029304,-1.0,81.59362549800797,0.6885557717144577,1452.3168049810747,
2023-12-13 14:16:32.533000,-4.626506024096386,-3.4819277108433737,7.91566265060241,-3.315757204169221,-4.559779276517474,8.62047823421214,3.0,0.6870906870906871,1455.4119547657513,-0.3562729444671061,0.23949653283608235,-0.07447118466289834,2805.8608058608056,-1.0,81.59362549800797,0.6885321837197256,1452.3665430991598,
2023-12-13 14:16:32.540000,-4.602409638554217,-3.4698795180722892,7.843373493975904,-3.354996934396076,-4.5744941753525445,8.55916615573268,3.0,0.6875346875346875,1454.4720697449145,-0.4943767845696629,0.621991725423927,0.062234135539887304,2807.326007326007,-1.0,81.59362549800797,0.688508740189535,1452.4159799174936,
2023-12-13 14:16:32.548000,-4.626506024096386,-3.493975903614458,7.867469879518072,-3.3648068669527893,-4.5744941753525445,8.613120784794605,3.0,0.6870906870906871,1455.4119547657513,-0.5539304236349867,0.573276615581842,0.12015616805547433,2805.8608058608056,-1.0,81.59362549800797,0.6884854421246649,1452.465113237391,
2023-12-13 14:16:32.556000,-4.590361445783133,-3.493975903614458,7.867469879518072,-3.3795217657878602,-4.496014714898835,8.627835683629675,3.0,0.6870906870906871,1455.4119547657513,-0.11153196200687572,0.5399452246372585,-0.005360992949128891,2805.8608058608056,-1.0,81.59362549800797,0.6884622908341972,1452.5139402131226,
2023-12-13 14:16:32.563000,-4.614457831325302,-3.4819277108433737,7.903614457831326,-3.3574494175352543,-4.513182096873083,8.610668301655426,3.0,0.6870906870906871,1455.4119547657513,-0.3573218343919354,0.447060194627353,-0.3132684575490937,2805.8608058608056,-1.0,81.59362549800797,0.6884392877543014,1452.562457734919,
2023-12-13 14:16:32.571000,-4.626506024096386,-3.493975903614458,7.843373493975904,-3.367259350091968,-4.5744941753525445,8.63519313304721,3.0,0.6870906870906871,1455.4119547657513,-0.26723384418157525,0.48715109842083715,-0.23716566633646063,2775.091575091575,-1.0,81.59362549800797,0.6884164344368138,1452.610662449101,
2023-12-13 14:16:32.579000,-4.602409638554217,-3.457831325301205,7.879518072289157,-3.3648068669527893,-4.579399141630901,8.63519313304721,3.0,0.6870906870906871,1455.4119547657513,-0.3136180875240367,0.39403298176097007,-0.1461453295262512,2688.6446886446884,-1.0,81.59362549800797,0.6883937325477161,1452.6585507612797,
2023-12-13 14:16:32.586000,-4.602409638554217,-3.457831325301205,7.867469879518072,-3.2985898221949723,-4.562231759656652,8.63519313304721,3.0,0.6870906870906871,1455.4119547657513,-0.06736204183905366,0.6686090554163502,-0.5464716508361979,2569.9633699633696,765.9912109375,78.32988047808765,0.688371183726271,1452.706119130762,
2023-12-13 14:16:32.594000,-4.626506024096386,-3.457831325301205,7.855421686746988,-3.362354383813611,-4.545064377682404,8.615573267933783,3.0,0.6870906870906871,1455.4119547657513,-0.1006934327836371,0.7121962589592681,-0.2875123827282794,2429.304029304029,-1.0,78.32988047808765,0.6883487897414737,1452.7533637436516,
2023-12-13 14:16:32.602000,-4.614457831325302,-3.4819277108433737,7.867469879518072,-3.374616799509503,-4.527896995708154,8.62047823421214,3.0,0.6875346875346875,1454.4720697449145,-0.4546355107511213,0.6814288211642682,-0.37981469611328,2271.7948717948716,-1.0,78.32988047808765,0.6883265526164676,1452.8002802528874,
2023-12-13 14:16:32.609000,-4.614457831325302,-3.4698795180722892,7.867469879518072,-3.362354383813611,-4.606376456161864,8.583690987124463,3.0,0.6870906870906871,1455.4119547657513,-0.39554804498572266,0.8167356214672796,-0.5486859740108386,2110.6227106227107,-1.0,78.32988047808765,0.6883044746250713,1452.8468637815272,
2023-12-13 14:16:32.617000,-4.63855421686747,-3.457831325301205,7.867469879518072,-3.3648068669527893,-4.552421827099939,8.652360515021458,3.0,0.6870906870906871,1455.4119547657513,-0.2876289260532598,0.6300332148476204,-0.44018413845347026,1950.9157509157508,-1.0,78.32988047808765,0.6882825581604525,1452.8931092007072,
2023-12-13 14:16:32.625000,-4.650602409638554,-3.4698795180722892,7.879518072289157,-3.374616799509503,-4.552421827099939,8.586143470263641,3.0,0.6870906870906871,1455.4119547657513,-0.35091195151797727,0.6144164093001571,-0.4230522696812541,1798.5347985347985,-1.0,78.32988047808765,0.6882608055718867,1452.9390114751618,
2023-12-13 14:16:32.632000,-4.63855421686747,-3.457831325301205,7.855421686746988,-3.315757204169221,-4.537706928264868,8.630288166768853,3.0,0.6870906870906871,1455.4119547657513,-0.41431152030767376,0.42946215255521203,-0.7724491579744772,1655.6776556776556,-1.0,78.32988047808765,0.6882392192990381,1452.9845653789355,
2023-12-13 14:16:32.640000,-4.650602409638554,-3.4698795180722892,7.867469879518072,-3.3059472716125073,-4.554874310239117,8.586143470263641,3.0,0.6870906870906871,1455.4119547657513,-0.3389079890449268,0.38272827923780633,-0.3088398111998133,1523.0769230769229,-1.0,78.32988047808765,0.6882178018671706,1453.02976550548,
2023-12-13 14:16:32.648000,-4.626506024096386,-3.4457831325301207,7.855421686746988,-3.374616799509503,-4.554874310239117,8.549356223175964,3.0,0.6870906870906871,1455.4119547657513,-0.06631315191422439,-0.2600081580327495,-0.4296952392051741,1403.6630036630036,-1.0,78.32988047808765,0.6881965560208247,1453.0746059880382,
2023-12-13 14:16:32.655000,-4.614457831325302,-3.4819277108433737,7.83132530120482,-3.362354383813611,-4.589209074187615,8.556713672593501,3.0,0.6870906870906871,1455.4119547657513,-0.3908863119864805,-0.10267466930831479,-0.47293281277314797,1295.970695970696,-1.0,78.32988047808765,0.688175484559371,1453.1190808438366,
2023-12-13 14:16:32.663000,-4.590361445783133,-3.4698795180722892,7.879518072289157,-3.4015941140404657,-4.554874310239117,8.618025751072961,3.0,0.6866466866466866,1456.35305528613,-0.009556552648447682,0.22166540411397967,-0.3787658061884503,1199.2673992673992,-1.0,78.32988047808765,0.6881545903426225,1453.1631839624474,
2023-12-13 14:16:32.671000,-4.602409638554217,-3.4819277108433737,7.879518072289157,-3.374616799509503,-4.569589209074187,8.622930717351318,3.0,0.6866466866466866,1456.35305528613,-0.42503350620593155,0.11607715168113703,-0.11735912825592883,1112.087912087912,-1.0,78.32988047808765,0.688133876264557,1453.2069091649496,
2023-12-13 14:16:32.678000,-4.614457831325302,-3.4819277108433737,7.867469879518072,-3.337829552421827,-4.572041692213366,8.689147762109135,3.0,0.6866466866466866,1456.35305528613,-0.34893071499329953,0.08857292698560582,-0.011887419148068535,1038.095238095238,-1.0,78.32988047808765,0.6881133450774147,1453.2502505727116,
2023-12-13 14:16:32.686000,-4.590361445783133,-3.4698795180722892,7.879518072289157,-3.3280196198651133,-4.510729613733905,8.566523605150214,3.0,0.6866466866466866,1456.35305528613,-0.4714177495483947,0.2887943593030716,-0.1513897791503988,980.9523809523808,-1.0,78.32988047808765,0.6880929995237224,1453.2932023275528,
2023-12-13 14:16:32.694000,-4.626506024096386,-3.4698795180722892,7.891566265060241,-3.3599019006744326,-4.547516860821582,8.618025751072961,3.0,0.6866466866466866,1456.35305528613,-0.424217702931064,0.4754967659227327,-0.48831653167064815,936.9963369963369,-1.0,78.32988047808765,0.6880728423291208,1453.3357586069503,
2023-12-13 14:16:32.701000,-4.63855421686747,-3.4819277108433737,7.891566265060241,-3.384426732066217,-4.56468424279583,8.62047823421214,3.0,0.6862026862026863,1457.2953736654804,-0.6501952100693432,0.6163976458248347,-0.48598566517102726,906.9597069597069,-1.0,78.32988047808765,0.6880528763335261,1453.3779133494222,
2023-12-13 14:16:32.709000,-4.626506024096386,-3.4819277108433737,7.891566265060241,-3.33292458614347,-4.584304107909258,8.605763335377068,3.0,0.6862026862026863,1457.2953736654804,-0.4651244099994174,0.31373463084901926,-0.3158324106986769,887.9120879120878,-1.0,78.32988047808765,0.6880331044522546,1453.4196603398618,
2023-12-13 14:16:32.717000,-4.626506024096386,-3.4819277108433737,7.867469879518072,-3.374616799509503,-4.586756591048436,8.627835683629675,3.0,0.6862026862026863,1457.2953736654804,-0.38727346891206765,0.40941670065846997,-0.40475496765922697,880.5860805860805,-1.0,78.32988047808765,0.6880135293387571,1453.4609939173922,
2023-12-13 14:16:32.724000,-4.614457831325302,-3.457831325301205,7.903614457831326,-3.350091968117719,-4.535254445125689,8.637645616186388,3.0,0.6862026862026863,1457.2953736654804,-0.79587436629567,0.2729444671056466,-0.7853854670473743,885.7142857142857,-1.0,78.32988047808765,0.6879941533866331,1453.5019089679836,
2023-12-13 14:16:32.732000,-4.626506024096386,-3.457831325301205,7.903614457831326,-3.303494788473329,-4.513182096873083,8.63519313304721,3.0,0.6862026862026863,1457.2953736654804,-0.13262630382844878,0.3179301905483363,-0.4130295437328824,901.098901098901,-1.0,78.32988047808765,0.6879749788690053,1453.5424006323226,
2023-12-13 14:16:32.740000,-4.602409638554217,-3.457831325301205,7.843373493975904,-3.3697118332311464,-4.540159411404046,8.600858369098711,3.0,0.6862026862026863,1457.2953736654804,-0.43622166540411444,0.31408426082396174,-0.5758405687314262,926.7399267399267,-1.0,78.32988047808765,0.6879560079280662,1453.5824643280098,
2023-12-13 14:16:32.747000,-4.614457831325302,-3.457831325301205,7.843373493975904,-3.33292458614347,-4.569589209074187,8.578786020846106,3.0,0.6862026862026863,1457.2953736654804,-0.3397237923197944,0.41629275683235323,-0.6471650836198353,959.7069597069597,-1.0,78.32988047808765,0.6879372425641607,1453.622095772735,
2023-12-13 14:16:32.755000,-4.626506024096386,-3.4698795180722892,7.819277108433735,-3.3599019006744326,-4.56468424279583,8.581238503985285,3.0,0.6862026862026863,1457.2953736654804,-0.13682186352776582,0.3158324106986778,-0.304294621525552,997.069597069597,-1.0,78.32988047808765,0.6879186846244802,1453.661291008289,
2023-12-13 14:16:32.763000,-4.626506024096386,-3.4457831325301207,7.819277108433735,-3.28632740649908,-4.4886572654813,8.544451256897608,3.0,0.6862026862026863,1457.2953736654804,-0.13460754035312647,0.30988870112464295,-0.3004486918011776,1038.8278388278388,-1.0,78.32988047808765,0.6879003357914523,1453.7000464252087,
2023-12-13 14:16:32.770000,-4.614457831325302,-3.457831325301205,7.855421686746988,-3.3795217657878602,-4.567136725935009,8.546903740036786,3.0,0.6862026862026863,1457.2953736654804,-0.11631023833110044,0.0114212458481428,-0.3089563545247941,1083.5164835164835,-1.0,78.32988047808765,0.6878821977096561,1453.7383584968284,
2023-12-13 14:16:32.778000,-4.626506024096386,-3.4457831325301207,7.83132530120482,-3.342734518700184,-4.500919681177192,8.593500919681176,3.0,0.6862026862026863,1457.2953736654804,-0.29671930540178243,0.024707184895985928,-0.33191538954606337,1128.937728937729,-1.0,78.32988047808765,0.6878642718147341,1453.7762241385074,
2023-12-13 14:16:32.785000,-4.590361445783133,-3.457831325301205,7.807228915662651,-3.342734518700184,-4.545064377682404,8.581238503985285,3.0,0.6862026862026863,1457.2953736654804,-0.2473049356098123,0.08146378416176263,-0.0652642619893947,1172.161172161172,-1.0,78.32988047808765,0.6878465591937752,1453.8136410008292,
2023-12-13 14:16:32.793000,-4.614457831325302,-3.4819277108433737,7.83132530120482,-3.391784181483752,-4.527896995708154,8.568976088289393,3.0,0.6862026862026863,1457.2953736654804,0.12050579803041749,-0.012586679097954637,-0.4256162228308373,1213.1868131868132,-1.0,78.32988047808765,0.6878290608612133,1453.8506068911204,
2023-12-13 14:16:32.801000,-4.614457831325302,-3.4698795180722892,7.843373493975904,-3.3353770692826483,-4.537706928264868,8.605763335377068,3.0,0.6862026862026863,1457.2953736654804,-0.15302138570013335,-0.4714177495483947,-0.06677932521414838,1250.5494505494505,-1.0,78.32988047808765,0.6878117777264564,1453.8871198416678,
2023-12-13 14:16:32.808000,-4.590361445783133,-3.4698795180722892,7.83132530120482,-3.4580012262415694,-4.540159411404046,8.55916615573268,3.0,0.6862026862026863,1457.2953736654804,0.10966726880717886,-0.43796981527883044,-0.1980071091428232,1283.5164835164835,-1.0,78.32988047808765,0.6877947104341554,1453.923178445118,
2023-12-13 14:16:32.816000,-4.63855421686747,-3.4698795180722892,7.891566265060241,-3.3476394849785405,-4.579399141630901,8.57388105456775,3.0,0.6862026862026863,1457.2953736654804,-0.27096323058096894,-0.4322591923547573,-0.2997494318512902,1309.89010989011,-1.0,78.32988047808765,0.6877778593539192,1453.9587818763544,
2023-12-13 14:16:32.824000,-4.63855421686747,-3.433734939759036,7.879518072289157,-3.3182096873083995,-4.520539546290619,8.600858369098711,3.0,0.6862026862026863,1457.2953736654804,-0.1426490297768198,-0.8704620942835494,-0.261756307907464,1327.4725274725274,-1.0,78.32988047808765,0.6877612245702867,1453.9939299138273,
2023-12-13 14:16:32.831000,-4.626506024096386,-3.4457831325301207,7.879518072289157,-3.3697118332311464,-4.525444512568976,8.662170447578172,3.0,0.6862026862026863,1457.2953736654804,0.18134141367053214,-0.5112755666919172,-0.05722277256570114,1336.9963369963368,-1.0,78.32988047808765,0.6877448058730594,1454.0286229601227,
2023-12-13 14:16:32.839000,-4.614457831325302,-3.457831325301205,7.855421686746988,-3.3648068669527893,-4.525444512568976,8.598405885959533,3.0,0.6862026862026863,1457.2953736654804,0.16455917487325872,-0.6288677815978085,0.15931472524911175,1338.4615384615383,-1.0,78.32988047808765,0.6877286027480923,1454.06286206156,
2023-12-13 14:16:32.847000,-4.614457831325302,-3.457831325301205,7.855421686746988,-3.320662170447578,-4.569589209074187,8.654812998160637,3.0,0.6862026862026863,1457.2953736654804,0.0896218169104368,-0.8056640055940794,-0.21991725423926323,1334.7985347985348,-1.0,78.32988047808765,0.6877126143686468,1454.0966489265827,
2023-12-13 14:16:32.854000,-4.614457831325302,-3.457831325301205,7.879518072289157,-3.325567136725935,-4.530349478847333,8.622930717351318,3.0,0.6857586857586858,1458.2389122693428,0.06200104888992476,-0.4801584989219731,-0.0930015733348867,1322.3443223443223,-1.0,78.32988047808765,0.6876968397261659,1454.1299856512978,
2023-12-13 14:16:32.862000,-4.590361445783133,-3.4698795180722892,7.891566265060241,-3.367259350091968,-4.505824647455548,8.561618638871858,3.0,0.6857586857586858,1458.2389122693428,0.06468154536448921,-0.6031117067769933,-0.22807528698793783,1306.9597069597069,-1.0,78.32988047808765,0.6876812775921362,1454.1628748030746,
2023-12-13 14:16:32.870000,-4.614457831325302,-3.457831325301205,7.891566265060241,-3.3599019006744326,-4.527896995708154,8.600858369098711,3.0,0.6857586857586858,1458.2389122693428,0.0981294796340535,-0.5742089621816904,-0.07015908163859937,1284.9816849816848,-1.0,78.32988047808765,0.6876659261827447,1454.1953201261085,
2023-12-13 14:16:32.877000,-4.626506024096386,-3.4698795180722892,7.843373493975904,-3.3059472716125073,-4.554874310239117,8.551808706315144,3.0,0.6857586857586858,1458.2389122693428,0.11502826175630776,-0.5315541052386227,0.009323465998485358,1260.8058608058607,-1.0,78.32988047808765,0.6876507831640455,1454.227326527726,
2023-12-13 14:16:32.885000,-4.626506024096386,-3.457831325301205,7.83132530120482,-3.3648068669527893,-4.547516860821582,8.561618638871858,3.0,0.6857586857586858,1458.2389122693428,0.3306334129712718,-0.7947089330458599,-8.15803274867157E-4,1235.8974358974358,-1.0,78.32988047808765,0.687635845795759,1454.2588997761168,
2023-12-13 14:16:32.893000,-4.626506024096386,-3.457831325301205,7.843373493975904,-3.3231146535867566,-4.554874310239117,8.598405885959533,3.0,0.6857586857586858,1458.2389122693428,0.2399627061360057,-0.6584697861429982,0.07901637433715986,1208.7912087912086,-1.0,78.32988047808765,0.6876211109265458,1454.2900465104458,
2023-12-13 14:16:32.900000,-4.602409638554217,-3.4698795180722892,7.843373493975904,-3.3010423053341507,-4.576946658491723,8.595953402820355,3.0,0.6857586857586858,1458.2389122693428,0.4086008973836024,-1.0718489598508254,0.1729502942718952,1186.8131868131868,-1.0,78.32988047808765,0.6876065748514041,1454.3207745405537,
2023-12-13 14:16:32.908000,-4.614457831325302,-3.4698795180722892,7.855421686746988,-3.320662170447578,-4.5744941753525445,8.571428571428571,3.0,0.6857586857586858,1458.2389122693428,0.5301555853388491,-0.7950585630208025,-0.08379465066138371,1165.5677655677655,-1.0,78.32988047808765,0.6875922334679154,1454.3510925188962,
2023-12-13 14:16:32.916000,-4.614457831325302,-3.4457831325301207,7.843373493975904,-3.296137339055794,-4.56468424279583,8.576333537706928,3.0,0.6857586857586858,1458.2389122693428,0.3774838296136583,-0.6430860672454983,0.058854379115436756,1147.2527472527472,-1.0,78.32988047808765,0.6875780824020405,1454.3810096764162,
2023-12-13 14:16:32.923000,-4.590361445783133,-3.4457831325301207,7.855421686746988,-3.3402820355610054,-4.493562231759657,8.605763335377068,3.0,0.6857586857586858,1458.2389122693428,0.3335469960957979,-0.7349222073305746,-0.02901928792028469,1126.007326007326,-1.0,78.32988047808765,0.6875641168583704,1454.4105361371933,
2023-12-13 14:16:32.931000,-4.626506024096386,-3.457831325301205,7.867469879518072,-3.3525444512568976,-4.461679950950337,8.62047823421214,3.0,0.6857586857586858,1458.2389122693428,0.45789872385059166,-0.6402890274459531,0.06712895518909133,1106.9597069597069,-1.0,78.32988047808765,0.6875503316209172,1454.4396829168354,
2023-12-13 14:16:32.939000,-4.602409638554217,-3.4698795180722892,7.855421686746988,-3.3280196198651133,-4.522992029429798,8.537093807480073,3.0,0.6857586857586858,1458.2389122693428,0.3962473049356094,-0.8361983567391176,0.16316065497348628,1087.9120879120878,-1.0,78.32988047808765,0.6875367210552443,1454.468461918049,
2023-12-13 14:16:32.946000,-4.590361445783133,-3.4698795180722892,7.843373493975904,-3.3599019006744326,-4.567136725935009,8.564071122011036,3.0,0.6857586857586858,1458.2389122693428,0.42666511275566676,-1.0611269739525675,0.19742439251791838,1073.260073260073,-1.0,78.32988047808765,0.6875232791120042,1454.4968859232006,
2023-12-13 14:16:32.954000,-4.566265060240964,-3.4698795180722892,7.891566265060241,-3.3721643163703248,-4.476394849785407,8.662170447578172,3.0,0.6857586857586858,1458.2389122693428,0.39578113163568607,-1.5592331449216241,-0.3640813472408369,1060.07326007326,-1.0,78.32988047808765,0.6875099993319632,1454.5249685837493,
2023-12-13 14:16:32.962000,-4.566265060240964,-3.5060240963855422,7.9397590361445785,-3.3304721030042916,-4.542611894543224,8.657265481299815,3.0,0.6857586857586858,1458.2389122693428,0.6259541984732824,-1.1972495775304466,0.3162985839986018,1051.2820512820513,-1.0,78.32988047808765,0.6874968748525703,1454.5527244063726,
2023-12-13 14:16:32.969000,-4.602409638554217,-3.4698795180722892,7.927710843373494,-3.320662170447578,-4.510729613733905,8.637645616186388,3.0,0.6857586857586858,1458.2389122693428,0.8671988811840808,-1.1878095682069816,-0.048948196492046125,1043.956043956044,-1.0,78.32988047808765,0.687483898416139,1454.5801687357025,
2023-12-13 14:16:32.977000,-4.650602409638554,-3.457831325301205,7.91566265060241,-3.342734518700184,-4.567136725935009,8.60331085223789,3.0,0.6853146853146853,1459.1836734693877,0.831886253714818,-0.9056581784278297,0.12481790105471711,1041.0256410256409,-1.0,78.32988047808765,0.6874710623796787,1454.607317733538,
2023-12-13 14:16:32.985000,-4.686746987951808,-3.457831325301205,7.91566265060241,-3.303494788473329,-4.576946658491723,8.689147762109135,3.0,0.6853146853146853,1459.1836734693877,0.35487442456733265,-0.9026280519783227,0.09568206980945158,1041.0256410256409,-1.0,78.32988047808765,0.6874583585771302,1454.6341886721427,
2023-12-13 14:16:32.992000,-4.674698795180723,-3.433734939759036,7.9397590361445785,-3.3059472716125073,-4.532801961986511,8.642550582464745,3.0,0.6853146853146853,1459.1836734693877,0.44717673795233387,-0.8389953965386628,-0.2984674552764991,1044.6886446886447,-1.0,78.32988047808765,0.6874457784494997,1454.6607996609168,
2023-12-13 14:16:33,-4.614457831325302,-3.4457831325301207,8.0,-3.3231146535867566,-4.5744941753525445,8.669527896995708,3.0,0.6853146853146853,1459.1836734693877,0.06526426198939513,-0.4568498339257624,-0.3069751180001164,1050.5494505494505,-1.0,78.32988047808765,0.6874333130378021,1454.6871696576734,
2023-12-13 14:16:33.008000,-4.602409638554217,-3.433734939759036,7.963855421686747,-3.362354383813611,-4.535254445125689,8.750459840588595,3.0,0.6848706848706849,1460.129659643436,-0.17563079074646074,-0.24392517918536283,-0.3016141250509875,1057.142857142857,-1.0,78.32988047808765,0.687420952870351,1454.7133187055235,
2023-12-13 14:16:33.015000,-4.590361445783133,-3.457831325301205,7.975903614457832,-3.342734518700184,-4.537706928264868,8.671980380134887,3.0,0.6853146853146853,1459.1836734693877,-0.07924946098712153,0.7160421886836426,-0.3272536565468212,1064.4688644688645,-1.0,78.32988047808765,0.6874086882565504,1454.7392673184536,
2023-12-13 14:16:33.023000,-4.590361445783133,-3.457831325301205,7.951807228915663,-3.3083997547516857,-4.576946658491723,8.689147762109135,3.0,0.6853146853146853,1459.1836734693877,-0.04603461336751892,0.8751238272827916,-0.1539537322999824,1071.062271062271,-1.0,78.32988047808765,0.6873965092526959,1454.7650365499762,
2023-12-13 14:16:33.031000,-4.578313253012048,-3.457831325301205,7.91566265060241,-3.3059472716125073,-4.530349478847333,8.622930717351318,3.0,0.6853146853146853,1459.1836734693877,-0.3160654973486394,1.0318745993823204,-0.19567624264320238,1079.120879120879,-1.0,78.32988047808765,0.687384405564786,1454.790648193273,
2023-12-13 14:16:33.038000,-4.55421686746988,-3.4819277108433737,7.91566265060241,-3.396689147762109,-4.434702636419375,8.613120784794605,3.0,0.6853146853146853,1459.1836734693877,-0.3109375910494722,1.019054833634404,-0.19066487966901707,1086.4468864468863,-1.0,78.32988047808765,0.6873723665808468,1454.8161247163289,
2023-12-13 14:16:33.046000,-4.566265060240964,-3.493975903614458,7.879518072289157,-3.337829552421827,-4.419987737584304,8.645003065603923,3.0,0.6848706848706849,1460.129659643436,-0.27527533360526857,1.1907231513315077,-0.02039508187168565,1094.5054945054944,-1.0,78.32988047808765,0.6873603813940795,1454.8414892129294,
2023-12-13 14:16:33.054000,-4.530120481927711,-3.530120481927711,7.879518072289157,-3.3893316983445736,-4.520539546290619,8.605763335377068,3.0,0.6853146853146853,1459.1836734693877,-0.08729095041081487,1.2242876289260527,0.24007924946098697,1101.8315018315018,-1.0,78.32988047808765,0.6873484386780632,1454.8667656688904,
2023-12-13 14:16:33.061000,-4.55421686746988,-3.5180722891566267,7.867469879518072,-3.4015941140404657,-4.510729613733905,8.62047823421214,3.0,0.6853146853146853,1459.1836734693877,-0.1139793718314785,1.3481731833809214,-0.18681894994464188,1109.1575091575091,-1.0,78.32988047808765,0.6873365268399815,1454.8919786359413,
2023-12-13 14:16:33.069000,-4.578313253012048,-3.5060240963855422,7.879518072289157,-3.4187614960147146,-4.530349478847333,8.57388105456775,3.0,0.6848706848706849,1460.129659643436,-0.1250509877046788,1.746634811491172,0.24462443913524828,1116.4835164835165,-1.0,78.32988047808765,0.6873246342066494,1454.917152835726,
2023-12-13 14:16:33.077000,-4.578313253012048,-3.530120481927711,7.891566265060241,-3.350091968117719,-4.498467198038013,8.615573267933783,3.0,0.6848706848706849,1460.129659643436,-0.04556844006759558,1.5161121146786314,0.19905599906765356,1122.3443223443223,-1.0,78.32988047808765,0.6873127487646072,1454.94231371393,
2023-12-13 14:16:33.084000,-4.626506024096386,-3.493975903614458,7.903614457831326,-3.391784181483752,-4.567136725935009,8.654812998160637,3.0,0.6848706848706849,1460.129659643436,4.661732999250815E-4,1.7151681137462853,0.4315599324048714,1128.937728937729,-1.0,78.32988047808765,0.6873008581675678,1454.9674874247678,
2023-12-13 14:16:33.092000,-4.614457831325302,-3.4698795180722892,7.855421686746988,-3.3353770692826483,-4.530349478847333,8.57388105456775,3.0,0.6848706848706849,1460.129659643436,-0.1792436338208736,1.1660159664355216,0.32422353009731364,1134.7985347985348,-1.0,78.32988047808765,0.6872889499039386,1454.9927004744522,
2023-12-13 14:16:33.100000,-4.626506024096386,-3.457831325301205,7.879518072289157,-3.313304721030043,-4.576946658491723,8.630288166768853,3.0,0.6848706848706849,1460.129659643436,-0.068877105063808,1.0018064215372073,0.2942718955771809,1143.5897435897434,-1.0,78.32988047808765,0.6872770113264746,1455.0179796583848,
2023-12-13 14:16:33.107000,-4.650602409638554,-3.457831325301205,7.843373493975904,-3.33292458614347,-4.625996321275291,8.654812998160637,3.0,0.6848706848706849,1460.129659643436,-0.06619660858924355,0.8690635743837777,0.26606841093176387,1149.4505494505493,-1.0,78.32988047808765,0.6872650296827549,1455.0433519966266,
2023-12-13 14:16:33.115000,-4.614457831325302,-3.433734939759036,7.867469879518072,-3.254445125689761,-4.557326793378295,8.613120784794605,3.0,0.6848706848706849,1460.129659643436,0.012703222422935475,0.6451838470951569,-0.11654332498106167,1154.5787545787546,-1.0,78.32988047808765,0.687252992146412,1455.0688446677395,
2023-12-13 14:16:33.123000,-4.662650602409639,-3.433734939759036,7.91566265060241,-3.2691600245248313,-4.608828939301042,8.598405885959533,3.0,0.6848706848706849,1460.129659643436,-0.07610279121263375,0.8363149000640984,-0.5273585455393043,1156.7765567765566,-1.0,78.32988047808765,0.6872408859877883,1455.0944846490104,
2023-12-13 14:16:33.130000,-4.650602409638554,-3.397590361445783,7.891566265060241,-3.3697118332311464,-4.542611894543224,8.618025751072961,3.0,0.6848706848706849,1460.129659643436,-0.12050579803041749,0.5068469203426367,-0.2898432492279005,1159.7069597069597,-1.0,78.32988047808765,0.6872286984473278,1455.1202989826738,
2023-12-13 14:16:33.138000,-4.63855421686747,-3.421686746987952,7.879518072289157,-3.2495401594114037,-4.562231759656652,8.600858369098711,3.0,0.6848706848706849,1460.129659643436,-0.14824310937591037,0.167356214672804,-0.30336227492570356,1161.904761904762,-1.0,78.32988047808765,0.6872164166409996,1455.1463149746746,
2023-12-13 14:16:33.146000,-4.614457831325302,-3.433734939759036,7.91566265060241,-3.313304721030043,-4.4886572654813,8.640098099325566,3.0,0.6848706848706849,1460.129659643436,-0.6019462735271832,0.8663830779092132,-0.1614125050987705,1166.3003663003662,-1.0,78.32988047808765,0.6872040277428773,1455.1725598097364,
2023-12-13 14:16:33.153000,-4.63855421686747,-3.421686746987952,7.91566265060241,-3.2765174739423664,-4.554874310239117,8.66707541385653,3.0,0.6844266844266845,1461.0768731754783,-0.7933104131460864,1.318454635510751,-0.4777110890973718,1166.3003663003662,-1.0,78.32988047808765,0.687191519157522,1455.1990601878952,
2023-12-13 14:16:33.161000,-4.614457831325302,-3.36144578313253,7.891566265060241,-3.2348252605763332,-4.54996934396076,8.632740649908031,3.0,0.6844266844266845,1461.0768731754783,-0.568964512557544,0.4401841384534698,0.1994056290425965,1162.6373626373625,-1.0,78.32988047808765,0.687178878384207,1455.225842614083,
2023-12-13 14:16:33.168000,-4.626506024096386,-3.385542168674699,7.843373493975904,-3.254445125689761,-4.532801961986511,8.591048436541998,3.0,0.6844266844266845,1461.0768731754783,-0.7017073597109719,0.329934153021385,-0.12050579803041792,1157.5091575091574,-1.0,78.32988047808765,0.687166093019865,1455.2529333916893,
2023-12-13 14:16:33.176000,-4.650602409638554,-3.36144578313253,7.855421686746988,-3.256897608828939,-4.513182096873083,8.610668301655426,3.0,0.6844266844266845,1461.0768731754783,-0.8012353592447989,0.114329001806421,-0.11770875823087242,1150.18315018315,-1.0,78.32988047808765,0.6871531507722618,1455.2803585910365,
2023-12-13 14:16:33.184000,-4.63855421686747,-3.349397590361446,7.819277108433735,-3.256897608828939,-4.498467198038013,8.524831391784181,3.0,0.6844266844266845,1461.0768731754783,-1.037818308956355,0.17609696404638409,-0.23658294971155516,1147.2527472527472,-1.0,78.32988047808765,0.6871400393655337,1455.3081442482485,
2023-12-13 14:16:33.191000,-4.626506024096386,-3.36144578313253,7.83132530120482,-3.2299202942979766,-4.545064377682404,8.593500919681176,3.0,0.6844266844266845,1461.0768731754783,-0.9371248761727163,-0.2229473806887706,-0.09556552648447053,1145.054945054945,-1.0,78.32988047808765,0.6871267467219333,1455.336315981677,
2023-12-13 14:16:33.199000,-4.602409638554217,-3.3734939759036147,7.855421686746988,-3.1686082158185163,-4.50337216431637,8.591048436541998,3.0,0.6844266844266845,1461.0768731754783,-0.9000640988287392,-0.4680379931239435,-0.30779092127498403,1146.5201465201465,-1.0,78.32988047808765,0.6871132609937024,1455.3648989243723,
2023-12-13 14:16:33.207000,-4.566265060240964,-3.3734939759036147,7.891566265060241,-3.2176578786020844,-4.383200490496628,8.662170447578172,3.0,0.6844266844266845,1461.0768731754783,-1.2607656896451258,-0.25359827515878963,-0.5320202785385468,1153.113553113553,-1.0,78.32988047808765,0.6870995705942773,1455.39391765795,
2023-12-13 14:16:33.214000,-4.55421686746988,-3.3373493975903616,7.927710843373494,-3.2176578786020844,-4.50337216431637,8.647455548743102,3.0,0.6844266844266845,1461.0768731754783,-1.463900705087116,-0.0734222947380693,-0.540178311287221,1170.6959706959706,-1.0,78.32988047808765,0.6870856642287549,1455.4233961480265,
2023-12-13 14:16:33.222000,-4.55421686746988,-3.385542168674699,7.91566265060241,-3.261802575107296,-4.4886572654813,8.647455548743102,3.0,0.6844266844266845,1461.0768731754783,-1.6043354116892947,0.029019287920283823,-0.9298991900238914,1199.2673992673992,-1.0,78.32988047808765,0.6870715309235351,1455.4533576813847,
2023-12-13 14:16:33.230000,-4.590361445783133,-3.397590361445783,7.927710843373494,-3.264255058246474,-4.50337216431637,8.645003065603923,3.0,0.6844266844266845,1461.0768731754783,-1.1937532777810147,0.4526542742264436,-0.721403181632772,1246.153846153846,-1.0,78.32988047808765,0.6870571600550798,1455.4838248050094,
2023-12-13 14:16:33.237000,-4.590361445783133,-3.421686746987952,7.9397590361445785,-3.3231146535867566,-4.496014714898835,8.676885346413243,3.0,0.6844266844266845,1461.0768731754783,-1.6581784278305454,1.1043645475205413,-0.8359652700891554,1314.2857142857142,-1.0,78.32988047808765,0.6870425413777075,1455.5148192671552,
2023-12-13 14:16:33.245000,-4.590361445783133,-3.4457831325301207,7.951807228915663,-3.342734518700184,-4.525444512568976,8.64990803188228,3.0,0.683982683982684,1462.0253164556962,-1.4165841151448044,1.2451488840976623,-1.0866499621234194,1405.8608058608058,-1.0,78.32988047808765,0.6870276651891212,1455.5463616679824,
2023-12-13 14:16:33.253000,-4.614457831325302,-3.4819277108433737,7.903614457831326,-3.33292458614347,-4.505824647455548,8.679337829552422,3.0,0.6844266844266845,1461.0768731754783,-1.3729969116018883,1.3111124060369443,-1.0180059437095739,1525.2747252747251,-1.0,78.32988047808765,0.6870125221864258,1455.578471766952,
2023-12-13 14:16:33.260000,-4.590361445783133,-3.4698795180722892,7.903614457831326,-3.462906192519926,-4.505824647455548,8.686695278969957,3.0,0.6844266844266845,1461.0768731754783,-1.011945690810559,1.7270555328943533,-1.0858341588485518,1665.9340659340658,-1.0,78.32988047808765,0.6869971033313595,1455.6111687631983,
2023-12-13 14:16:33.268000,-4.602409638554217,-3.493975903614458,7.879518072289157,-3.3648068669527893,-4.518087063151441,8.6817903126916,3.0,0.6844266844266845,1461.0768731754783,-0.943185129071732,1.9738942952042422,-1.443272536565468,1827.8388278388277,-1.0,78.32988047808765,0.6869814001928266,1455.644470568565,
2023-12-13 14:16:33.276000,-4.602409638554217,-3.493975903614458,7.879518072289157,-3.3353770692826483,-4.540159411404046,8.627835683629675,3.0,0.683982683982684,1462.0253164556962,-0.8428413262630374,1.8977915039916085,-1.4446710564652407,2001.4652014652013,-1.0,78.32988047808765,0.686965404958608,1455.678393786417,
2023-12-13 14:16:33.283000,-4.63855421686747,-3.5180722891566267,7.879518072289157,-3.4064990803188224,-4.557326793378295,8.544451256897608,3.0,0.683982683982684,1462.0253164556962,-0.7294446710564648,2.339257619019871,-0.7754792844239846,2178.0219780219777,-1.0,78.32988047808765,0.6869491101583534,1455.7129542995692,
2023-12-13 14:16:33.291000,-4.626506024096386,-3.530120481927711,7.819277108433735,-3.4408338442673205,-4.552421827099939,8.58859595340282,3.0,0.683982683982684,1462.0253164556962,-0.4334246256045691,2.2322708466872565,-1.2110016898782119,2347.9853479853477,-1.0,78.32988047808765,0.6869325086617768,1455.7481672743859,
2023-12-13 14:16:33.299000,-4.626506024096386,-3.5542168674698797,7.843373493975904,-3.4702636419374615,-4.542611894543224,8.554261189454323,3.0,0.683982683982684,1462.0253164556962,-0.41221374045801523,2.1068702290076335,-0.8951692791795349,2504.7619047619046,-1.0,78.32988047808765,0.6869155938342738,1455.7840468286006,
2023-12-13 14:16:33.306000,-4.602409638554217,-3.5542168674698797,7.795180722891566,-3.4530962599632127,-4.537706928264868,8.55916615573268,3.0,0.683982683982684,1462.0253164556962,-0.5126740865916907,1.7113221840219108,-0.7794417574733409,2641.7582417582416,-1.0,78.32988047808765,0.6868983595520464,1455.8206059991744,
2023-12-13 14:16:33.314000,-4.63855421686747,-3.5662650602409642,7.819277108433735,-3.4996934396076025,-4.557326793378295,8.583690987124463,3.0,0.6835386835386835,1462.9749918804807,-0.5055649437678458,1.6997843948487854,-0.7697686614999127,2750.915750915751,-1.0,78.32988047808765,0.6868808002154951,1455.8578567138409,
2023-12-13 14:16:33.322000,-4.650602409638554,-3.5662650602409642,7.807228915662651,-3.47271612507664,-4.4886572654813,8.581238503985285,3.0,0.683982683982684,1462.0253164556962,-0.6541576831187004,1.6249635802109426,-0.8081114154186817,2805.8608058608056,-1.0,78.32988047808765,0.686862910750326,1455.8958097926934,
2023-12-13 14:16:33.329000,-4.614457831325302,-3.5542168674698797,7.83132530120482,-3.5291232372777435,-4.599019006744328,8.556713672593501,3.0,0.683982683982684,1462.0253164556962,-0.4489248878270499,1.3500378765806182,-0.7088165025348176,2805.8608058608056,765.9912109375,78.32988047808765,0.6868446865857705,1455.9344749904915,
2023-12-13 14:16:33.337000,-4.626506024096386,-3.6024096385542173,7.855421686746988,-3.445738810545677,-4.594114040465971,8.566523605150214,3.0,0.683982683982684,1462.0253164556962,-0.809976108618379,0.8218635277664469,-0.8561272653108797,2805.8608058608056,-1.0,78.32988047808765,0.6868261236941247,1455.9738609086246,
2023-12-13 14:16:33.345000,-4.662650602409639,-3.5662650602409642,7.879518072289157,-3.4825260576333537,-4.623543838136112,8.598405885959533,3.0,0.683982683982684,1462.0253164556962,-0.5716450090321085,0.8915564361051207,-0.9859565293397818,2805.8608058608056,-1.0,78.32988047808765,0.6868072186074583,1456.0139749634966,
2023-12-13 14:16:33.352000,-4.686746987951808,-3.5783132530120483,7.855421686746988,-3.438381361128142,-4.635806253832005,8.608215818516248,3.0,0.683982683982684,1462.0253164556962,-0.5490356039857811,0.9455159955713539,-0.6590525027679037,2753.846153846154,-1.0,78.32988047808765,0.6867879684221313,1456.054823376823,
2023-12-13 14:16:33.360000,-4.686746987951808,-3.5662650602409642,7.891566265060241,-3.455548743102391,-4.608828939301042,8.60331085223789,3.0,0.683982683982684,1462.0253164556962,-0.32911834974651744,0.8612551716100459,-0.9575199580444035,2660.07326007326,-1.0,78.32988047808765,0.6867683708017254,1456.09641116929,
2023-12-13 14:16:33.368000,-4.686746987951808,-3.5421686746987953,7.867469879518072,-3.408951563458001,-4.6627835683629675,8.659717964438993,3.0,0.683982683982684,1462.0253164556962,-0.5393625080123543,0.5151214964162935,-0.61464949595012,2535.5311355311355,-1.0,78.32988047808765,0.6867484239784294,1456.1387421574716,
2023-12-13 14:16:33.375000,-4.698795180722891,-3.5180722891566267,7.879518072289157,-3.497240956468424,-4.606376456161864,8.630288166768853,3.0,0.683982683982684,1462.0253164556962,-0.7799079307732641,0.8127731484179243,-1.0072839578113166,2391.941391941392,-1.0,78.32988047808765,0.6867281267529445,1456.1818189538842,
2023-12-13 14:16:33.383000,-4.674698795180723,-3.5180722891566267,7.91566265060241,-3.421213979153893,-4.606376456161864,8.613120784794605,3.0,0.683982683982684,1462.0253164556962,-0.6366761843715402,0.6848085775887176,-0.9694073771924709,2235.164835164835,-1.0,78.32988047808765,0.6867074784929685,1456.2256429700365,
2023-12-13 14:16:33.391000,-4.698795180722891,-3.5180722891566267,7.891566265060241,-3.3770692826486814,-4.645616186388718,8.657265481299815,3.0,0.6835386835386835,1462.9749918804807,-0.7202377483829614,0.8793193869821103,-0.7920284365712955,2073.260073260073,-1.0,78.32988047808765,0.6866864791303248,1456.270214422346,
2023-12-13 14:16:33.398000,-4.674698795180723,-3.4819277108433737,7.879518072289157,-3.3083997547516857,-4.606376456161864,8.613120784794605,3.0,0.6835386835386835,1462.9749918804807,-0.56197191305868,0.8261756307907465,-0.7986714060952161,1912.087912087912,-1.0,78.32988047808765,0.6866651290075185,1456.315532660086,
2023-12-13 14:16:33.406000,-4.662650602409639,-3.4819277108433737,7.855421686746988,-3.367259350091968,-4.58185162477008,8.568976088289393,3.0,0.6835386835386835,1462.9749918804807,-1.0293106462327368,0.7717498980245917,-0.7898141133966556,1754.5787545787546,-1.0,78.32988047808765,0.6866434288505002,1456.3615962233416,
2023-12-13 14:16:33.414000,-4.650602409638554,-3.4457831325301207,7.807228915662651,-3.3010423053341507,-4.621091354996934,8.522378908645003,3.0,0.6835386835386835,1462.9749918804807,-1.0971388613717155,0.6870229007633587,-1.0121787774605209,1602.197802197802,-1.0,78.32988047808765,0.6866213798992469,1456.4084025634018,
2023-12-13 14:16:33.421000,-4.650602409638554,-3.457831325301205,7.807228915662651,-3.337829552421827,-4.535254445125689,8.49540159411404,3.0,0.6835386835386835,1462.9749918804807,-0.8283899539653858,0.6955305634869754,-0.9716217003671107,1461.5384615384614,-1.0,78.32988047808765,0.6865989838983537,1456.4559480625255,
2023-12-13 14:16:33.429000,-4.614457831325302,-3.433734939759036,7.783132530120482,-3.33292458614347,-4.59656652360515,8.49785407725322,3.0,0.6835386835386835,1462.9749918804807,-0.6983276032865224,0.5060311170677708,-0.5964687372530744,1337.7289377289376,-1.0,78.32988047808765,0.6865762432252424,1456.504227763164,
2023-12-13 14:16:33.437000,-4.602409638554217,-3.4096385542168677,7.807228915662651,-3.2348252605763332,-4.572041692213366,8.515021459227468,3.0,0.683094683094683,1463.9259018524538,-0.905425091777868,-0.7667385350504053,-1.1982984674552768,1227.106227106227,-1.0,78.32988047808765,0.6865531608581905,1456.5532354353797,
2023-12-13 14:16:33.444000,-4.578313253012048,-3.421686746987952,7.759036144578314,-3.3280196198651133,-4.498467198038013,8.546903740036786,3.0,0.6835386835386835,1462.9749918804807,-1.0646232737019978,0.12295320785502026,-0.958452304644251,1131.8681318681317,-1.0,78.32988047808765,0.6865297400665112,1456.602964235449,
2023-12-13 14:16:33.452000,-4.55421686746988,-3.4457831325301207,7.819277108433735,-3.315757204169221,-4.45677498467198,8.561618638871858,3.0,0.683094683094683,1463.9259018524538,-0.4273643727055535,0.42386807295612144,-0.5364489248878274,1050.5494505494505,-1.0,78.32988047808765,0.6865059845256894,1456.6534064588304,
2023-12-13 14:16:33.460000,-4.566265060240964,-3.457831325301205,7.807228915662651,-3.354996934396076,-4.576946658491723,8.566523605150214,3.0,0.683094683094683,1463.9259018524538,-0.8048482023192118,0.022376318396363993,-0.34799836839344983,984.6153846153845,-1.0,78.32988047808765,0.6864818983138057,1456.7045535473592,
2023-12-13 14:16:33.467000,-4.590361445783133,-3.4457831325301207,7.843373493975904,-3.320662170447578,-4.530349478847333,8.615573267933783,3.0,0.6826506826506826,1464.878048780488,-1.0555328943534752,-0.1764465940213266,-0.2960200454518961,933.3333333333333,-1.0,78.32988047808765,0.6864574857366601,1456.7563964632675,
2023-12-13 14:16:33.475000,-4.590361445783133,-3.433734939759036,7.867469879518072,-3.33292458614347,-4.522992029429798,8.564071122011036,3.0,0.6826506826506826,1464.878048780488,-0.5715284657071259,-0.2682827341064045,-0.46034613367519445,894.5054945054944,-1.0,78.32988047808765,0.6864327514393282,1456.808925454019,
2023-12-13 14:16:33.483000,-4.590361445783133,-3.421686746987952,7.891566265060241,-3.3476394849785405,-4.557326793378295,8.615573267933783,3.0,0.683094683094683,1463.9259018524538,-0.8690635743837777,-0.3278363731717265,-0.01351902569780263,870.3296703296703,-1.0,78.32988047808765,0.6864077003464474,1456.862130179143,
2023-12-13 14:16:33.490000,-4.614457831325302,-3.433734939759036,7.867469879518072,-3.264255058246474,-4.527896995708154,8.618025751072961,3.0,0.683094683094683,1463.9259018524538,-0.9994755550375853,0.17458190082162975,-0.28832818600314614,856.4102564102564,-1.0,78.32988047808765,0.6863823377824522,1456.9159994473132,
2023-12-13 14:16:33.498000,-4.626506024096386,-3.4457831325301207,7.879518072289157,-3.3525444512568976,-4.584304107909258,8.630288166768853,3.0,0.683094683094683,1463.9259018524538,-0.8540294854612203,0.5510168405104587,-0.42363498630615937,854.9450549450548,-1.0,78.32988047808765,0.686356669335248,1456.9705215039048,
2023-12-13 14:16:33.506000,-4.626506024096386,-3.4457831325301207,7.879518072289157,-3.3059472716125073,-4.569589209074187,8.676885346413243,3.0,0.683094683094683,1463.9259018524538,-0.7836373171726596,0.2724782938057233,-0.8927218693549326,866.6666666666666,-1.0,78.32988047808765,0.6863307007192738,1457.0256843246761,
2023-12-13 14:16:33.513000,-4.63855421686747,-3.4457831325301207,7.867469879518072,-3.3721643163703248,-4.540159411404046,8.627835683629675,3.0,0.683094683094683,1463.9259018524538,-1.0643901870520363,0.6528757065439077,-0.7628926053260295,887.9120879120878,-1.0,78.32988047808765,0.6863044379044477,1457.0814753431305,
2023-12-13 14:16:33.521000,-4.626506024096386,-3.4457831325301207,7.855421686746988,-3.3648068669527893,-4.579399141630901,8.586143470263641,3.0,0.683094683094683,1463.9259018524538,-1.0549501777285695,0.7061360060602541,-0.8602062816852167,919.4139194139193,-1.0,78.32988047808765,0.6862778870956691,1457.1378814938203,
