Shimmer_F5D4_Timestamp_FormattedUnix_CAL,Shimmer_F5D4_Accel_LN_X_CAL,Shimmer_F5D4_Accel_LN_Y_CAL,Shimmer_F5D4_Accel_LN_Z_CAL,Shimmer_F5D4_Accel_WR_X_CAL,Shimmer_F5D4_Accel_WR_Y_CAL,Shimmer_F5D4_Accel_WR_Z_CAL,Shimmer_F5D4_GSR_Range_CAL,Shimmer_F5D4_GSR_Skin_Conductance_CAL,Shimmer_F5D4_GSR_Skin_Resistance_CAL,Shimmer_F5D4_Gyro_X_CAL,Shimmer_F5D4_Gyro_Y_CAL,Shimmer_F5D4_Gyro_Z_CAL,Shimmer_F5D4_PPG_A13_CAL,Shimmer_F5D4_PPG_IBI_CAL,Shimmer_F5D4_PPGtoHR_CAL,Shimmer_F5D4_GSR_Skin_Conductance_LPF_CAL,
yyyy/mm/dd hh:mm:ss.000,m/(s^2),m/(s^2),m/(s^2),m/(s^2),m/(s^2),m/(s^2),no_units,uS,kOhms,deg/s,deg/s,deg/s,mV,ms,BPM,uS,
2023-08-11 20:29:32.897000,-9.168674698795181,-1.2530120481927711,-3.036144578313253,-1.213979153893317,-9.087063151440834,-2.6879215205395464,2.0,1.9904761904761905,502.39234449760767,-0.3438028086941323,0.3046442515004966,-0.24590641571004007,1440.2930402930401,-1.0,100.42292368985596,1.990347634782615,
2023-08-11 20:29:32.905000,-9.168674698795181,-1.2409638554216869,-3.0843373493975905,-1.1820968730839976,-9.128755364806867,-2.670754138565297,2.0,1.9904761904761905,502.39234449760767,-0.22178194743896051,0.07738476778742467,0.061418332265019276,1441.7582417582416,-1.0,100.42292368985596,1.9903681004348215,
2023-08-11 20:29:32.912000,-9.19277108433735,-1.2409638554216869,-3.072289156626506,-1.1232372777437154,-9.089515634580012,-2.6241569589209073,2.0,1.9904761904761905,502.39234449760767,-0.106054425732766,0.12213740458015267,0.06969290833867473,1445.4212454212454,-1.0,100.42292368985596,1.9903873267946142,
2023-08-11 20:29:32.920000,-9.156626506024097,-1.2409638554216869,-3.060240963855422,-1.1428571428571428,-9.087063151440834,-2.6241569589209073,2.0,1.9904761904761905,502.39234449760767,-0.37293863993939697,-0.24357554921042032,-0.05920400909037948,1449.084249084249,-1.0,100.42292368985596,1.9904053332453477,
2023-08-11 20:29:32.928000,-9.156626506024097,-1.2530120481927711,-3.060240963855422,-1.150214592274678,-9.10668301655426,-2.65113427345187,2.0,1.9904761904761905,502.39234449760767,-0.19777402249286133,-0.25394790513373383,0.15476953557485024,1450.5494505494505,-1.0,100.42292368985596,1.9904221401720232,
2023-08-11 20:29:32.935000,-9.180722891566266,-1.2530120481927711,-3.060240963855422,-1.1673819742489269,-9.072348252605764,-2.6683016554261187,2.0,1.9904761904761905,502.39234449760767,-0.3743371598391705,-0.32667093992191465,0.06386574208962162,1450.5494505494505,-1.0,100.42292368985596,1.9904377689588784,
2023-08-11 20:29:32.943000,-9.180722891566266,-1.2409638554216869,-3.072289156626506,-1.1060698957694666,-9.109135499693439,-2.6462293071735132,2.0,1.9890109890109888,502.76243093922653,-0.13798729677757768,-0.05430918944117393,-0.021327428471534297,1448.3516483516482,-1.0,100.42292368985596,1.9904522419838522,
2023-08-11 20:29:32.951000,-9.204819277108435,-1.2409638554216869,-3.0481927710843375,-1.1330472103004292,-9.096873083997547,-2.675659104843654,2.0,1.9890109890109888,502.76243093922653,-0.2632713711322181,-0.462443913524853,-0.02727113804556867,1442.4908424908424,-1.0,100.42292368985596,1.990465582574902,
2023-08-11 20:29:32.958000,-9.19277108433735,-1.2530120481927711,-3.0481927710843375,-1.1722869405272838,-9.133660331085224,-2.621704475781729,2.0,1.9904761904761905,502.39234449760767,-0.10104306275858134,-0.35906998426665143,0.21502243459005896,1436.6300366300366,-1.0,100.42292368985596,1.99047781440023,
2023-08-11 20:29:32.966000,-9.204819277108435,-1.2650602409638554,-3.0481927710843375,-1.1305947271612506,-9.148375229920294,-2.6658491722869404,2.0,1.9904761904761905,502.39234449760767,-0.3667618437154005,-0.0983625662840169,0.08962181691043637,1429.3040293040292,497.894287109375,120.50750842782715,1.990488961975889,
2023-08-11 20:29:32.974000,-9.204819277108435,-1.2530120481927711,-3.060240963855422,-1.226241569589209,-9.126302881667687,-2.629061925199264,2.0,1.9919413919413917,502.02280250091945,0.07435464133791772,-0.03309830429462177,-0.171085601072199,1422.7106227106226,-1.0,120.50750842782715,1.990499051203652,
2023-08-11 20:29:32.981000,-9.216867469879519,-1.2650602409638554,-3.072289156626506,-1.1747394236664623,-9.07725321888412,-2.680564071122011,2.0,1.9904761904761905,502.39234449760767,-0.2795874366295665,-0.020045451896742058,0.18122487034555088,1416.117216117216,-1.0,120.50750842782715,1.9905081089218553,
2023-08-11 20:29:32.989000,-9.216867469879519,-1.2650602409638554,-3.060240963855422,-1.137952176578786,-9.050275904353157,-2.633966891477621,2.0,1.9919413919413917,502.02280250091945,-0.24800419555969905,0.2732940970805909,-0.30720820465007853,1410.989010989011,-1.0,120.50750842782715,1.990516162521976,
2023-08-11 20:29:32.997000,-9.19277108433735,-1.2650602409638554,-3.0481927710843375,-1.213979153893317,-9.126302881667687,-2.670754138565297,2.0,1.9919413919413917,502.02280250091945,-0.2729444671056466,0.4816735621467292,0.24474098246023,1407.3260073260071,-1.0,120.50750842782715,1.9905232403708204,
2023-08-11 20:29:33.004000,-9.204819277108435,-1.2771084337349399,-3.0843373493975905,-1.1919068056407112,-9.109135499693439,-2.680564071122011,2.0,1.9919413919413917,502.02280250091945,-0.1899656197191314,0.20115377891731254,-0.06468154536448921,1402.197802197802,-1.0,120.50750842782715,1.9905293722989876,
2023-08-11 20:29:33.012000,-9.204819277108435,-1.2771084337349399,-3.072289156626506,-1.1771919068056407,-9.040465971796444,-2.6879215205395464,2.0,1.9919413919413917,502.02280250091945,0.2283083736378995,0.4419322883281858,0.07097488491346653,1397.8021978021977,-1.0,120.50750842782715,1.9905345891033968,
2023-08-11 20:29:33.020000,-9.19277108433735,-1.2771084337349399,-3.036144578313253,-1.2164316370324952,-9.082158185162477,-2.6486817903126916,2.0,1.9919413919413917,502.02280250091945,-0.07283957811316338,0.16234485169861934,0.02412446827107958,1395.6043956043954,-1.0,120.50750842782715,1.9905389225047183,
2023-08-11 20:29:33.027000,-9.180722891566266,-1.2650602409638554,-3.024096385542169,-1.1722869405272838,-9.07725321888412,-2.6781115879828326,2.0,1.9919413919413917,502.02280250091945,-0.06386574208962162,0.23110541343744478,0.023541751646174527,1393.4065934065934,-1.0,120.50750842782715,1.9905424051018836,
2023-08-11 20:29:33.035000,-9.19277108433735,-1.2650602409638554,-3.036144578313253,-1.1526670754138564,-9.087063151440834,-2.705088902513795,2.0,1.9919413919413917,502.02280250091945,-0.41920633995687934,-0.15745003204941554,-0.038226210593788564,1395.6043956043954,-1.0,120.50750842782715,1.990545069865792,
2023-08-11 20:29:33.043000,-9.168674698795181,-1.2530120481927711,-3.060240963855422,-1.1600245248313916,-9.094420600858369,-2.6241569589209073,2.0,1.9919413919413917,502.02280250091945,-0.055707709340947445,0.0060602528990139105,0.2230639240137523,1397.8021978021977,-1.0,120.50750842782715,1.99054695061316,
2023-08-11 20:29:33.050000,-9.156626506024097,-1.2650602409638554,-3.072289156626506,-1.1477621091354997,-9.087063151440834,-2.702636419374617,2.0,1.9919413919413917,502.02280250091945,-0.15476953557484935,-0.30790746459996526,-0.08192995746168641,1400.0,-1.0,120.50750842782715,1.9905480819156889,
2023-08-11 20:29:33.058000,-9.19277108433735,-1.2530120481927711,-3.060240963855422,-1.179644389944819,-9.123850398528509,-2.616799509503372,2.0,1.9919413919413917,502.02280250091945,-0.08192995746168598,-0.6500786667443607,0.28413262630382863,1401.4652014652013,-1.0,120.50750842782715,1.9905484986184976,
2023-08-11 20:29:33.066000,-9.19277108433735,-1.2650602409638554,-3.0481927710843375,-1.155119558553035,-9.12139791538933,-2.71244635193133,2.0,1.9919413919413917,502.02280250091945,0.004428646349280464,-0.30499388147543915,-0.024707184895984627,1403.6630036630036,-1.0,120.50750842782715,1.990548236269717,
2023-08-11 20:29:33.073000,-9.19277108433735,-1.2771084337349399,-3.0481927710843375,-1.2213366033108521,-9.13856529736358,-2.6952789699570814,2.0,1.9919413919413917,502.02280250091945,-0.10756948895752033,-0.1743488141716698,-0.03985781714352331,1407.3260073260071,-1.0,120.50750842782715,1.9905473310555601,
2023-08-11 20:29:33.081000,-9.19277108433735,-1.2771084337349399,-3.0481927710843375,-1.1943592887798895,-9.143470263641937,-2.6315144083384427,2.0,1.9919413919413917,502.02280250091945,-0.26583532428180173,-0.7769943476487381,-0.011887419148068318,1411.7216117216117,-1.0,120.50750842782715,1.9905458197336454,
2023-08-11 20:29:33.088000,-9.216867469879519,-1.2530120481927711,-3.024096385542169,-1.2213366033108521,-9.064990803188227,-2.616799509503372,2.0,1.9919413919413917,502.02280250091945,-0.3012644950760437,-0.33902453236990765,0.0791329176621407,1414.6520146520145,-1.0,120.50750842782715,1.9905437395647188,
2023-08-11 20:29:33.096000,-9.19277108433735,-1.2530120481927711,-3.0843373493975905,-1.1919068056407112,-9.13856529736358,-2.7075413856529735,2.0,1.9904761904761905,502.39234449760767,-0.18297302022026732,-0.1650253481731838,0.24660567565992683,1412.4542124542124,-1.0,120.50750842782715,1.9905411277850344,
2023-08-11 20:29:33.104000,-9.204819277108435,-1.2650602409638554,-3.0481927710843375,-1.213979153893317,-9.109135499693439,-2.633966891477621,2.0,1.9890109890109888,502.76243093922653,-0.23600023308665033,-0.2683992774313836,0.3049938814754387,1409.5238095238094,-1.0,120.50750842782715,1.9905380215677597,
2023-08-11 20:29:33.111000,-9.19277108433735,-1.2650602409638554,-3.024096385542169,-1.2164316370324952,-9.079705702023299,-2.629061925199264,2.0,1.9904761904761905,502.39234449760767,-0.22737602703805107,-0.2671173008565944,0.30149758172600627,1405.8608058608058,-1.0,120.50750842782715,1.9905344578070272,
2023-08-11 20:29:33.119000,-9.204819277108435,-1.2771084337349399,-3.036144578313253,-1.2115266707541386,-9.084610668301655,-2.6364193746167994,2.0,1.9919413919413917,502.02280250091945,-0.46570712662432334,-0.06841093176388291,0.42083794650661366,1400.0,-1.0,120.50750842782715,1.9905304729676456,
2023-08-11 20:29:33.127000,-9.19277108433735,-1.2771084337349399,-3.024096385542169,-1.2360515021459226,-9.133660331085224,-2.6364193746167994,2.0,1.9919413919413917,502.02280250091945,-0.22900763358778625,0.20255229881708603,0.2510343220092069,1392.6739926739926,-1.0,120.50750842782715,1.9905261040899853,
2023-08-11 20:29:33.134000,-9.204819277108435,-1.2650602409638554,-3.0481927710843375,-1.155119558553035,-9.038013488657265,-2.629061925199264,2.0,1.9919413919413917,502.02280250091945,0.2637375444321432,0.25557951168346904,0.3415884855194921,1386.080586080586,-1.0,120.50750842782715,1.9905213888113193,
2023-08-11 20:29:33.142000,-9.19277108433735,-1.2771084337349399,-3.060240963855422,-1.1771919068056407,-9.082158185162477,-2.675659104843654,2.0,1.9919413919413917,502.02280250091945,0.005011362974186382,0.5362158382378648,0.004778276324223841,1380.2197802197802,-1.0,120.50750842782715,1.9905163648275583,
2023-08-11 20:29:33.150000,-9.204819277108435,-1.2409638554216869,-3.072289156626506,-1.1330472103004292,-9.1704475781729,-2.629061925199264,2.0,1.9919413919413917,502.02280250091945,0.220383427539187,0.431210302429928,0.021793601771458945,1375.8241758241757,-1.0,120.50750842782715,1.990511069355507,
2023-08-11 20:29:33.157000,-9.19277108433735,-1.2409638554216869,-3.0843373493975905,-1.1600245248313916,-9.155732679337829,-2.680564071122011,2.0,1.9904761904761905,502.39234449760767,-0.16071324514888416,0.49612493444438066,0.18926635976924422,1372.8937728937728,-1.0,120.50750842782715,1.990505539120988,
2023-08-11 20:29:33.165000,-9.204819277108435,-1.2650602409638554,-3.072289156626506,-1.1771919068056407,-9.114040465971796,-2.6315144083384427,2.0,1.9919413919413917,502.02280250091945,0.12947963405395924,0.14707767612610026,-0.053959559466231426,1374.3589743589744,-1.0,120.50750842782715,1.9904998102763591,
2023-08-11 20:29:33.173000,-9.19277108433735,-1.2409638554216869,-3.060240963855422,-1.1894543225015328,-9.111587982832617,-2.641324340895156,2.0,1.9919413919413917,502.02280250091945,0.01853038867198945,-1.1654332498257214E-4,0.1334421071033155,1377.2893772893772,-1.0,120.50750842782715,1.9904939187403141,
2023-08-11 20:29:33.180000,-9.180722891566266,-1.2891566265060241,-3.0481927710843375,-1.2164316370324952,-9.104230533415082,-2.6486817903126916,2.0,1.9919413919413917,502.02280250091945,-0.16828856127265243,0.05046325971680112,-0.1994056290425965,1381.6849816849815,-1.0,120.50750842782715,1.9904879006436875,
2023-08-11 20:29:33.188000,-9.216867469879519,-1.2650602409638554,-3.0481927710843375,-1.2507664009809931,-9.172900061312077,-2.6315144083384427,2.0,1.9919413919413917,502.02280250091945,0.028086941320435394,0.3469494784686201,-0.2838995396538661,1385.3479853479853,-1.0,120.50750842782715,1.9904817917944644,
2023-08-11 20:29:33.196000,-9.204819277108435,-1.2771084337349399,-3.060240963855422,-1.2213366033108521,-9.160637645616186,-2.6658491722869404,2.0,1.9919413919413917,502.02280250091945,-0.0071091428238449095,0.028786201270322147,-0.015733348872443296,1386.8131868131868,-1.0,120.50750842782715,1.9904756276030289,
2023-08-11 20:29:33.203000,-9.204819277108435,-1.2530120481927711,-3.072289156626506,-1.1477621091354997,-9.133660331085224,-2.6364193746167994,2.0,1.9919413919413917,502.02280250091945,0.001631606549735182,0.1117650486568374,0.2476545655847561,1387.5457875457876,-1.0,120.50750842782715,1.9904694430099577,
2023-08-11 20:29:33.211000,-9.180722891566266,-1.2530120481927711,-3.024096385542169,-1.1919068056407112,-9.028203556100552,-2.6462293071735132,2.0,1.9919413919413917,502.02280250091945,-0.05069634636676106,0.05454227609113734,0.31093759104947266,1385.3479853479853,-1.0,120.50750842782715,1.99046327241649,
2023-08-11 20:29:33.219000,-9.204819277108435,-1.2409638554216869,-3.036144578313253,-1.1820968730839976,-9.082158185162477,-2.6437768240343344,2.0,1.9919413919413917,502.02280250091945,0.036011887419147896,-0.12365246780490528,-0.02470718489598506,1383.150183150183,-1.0,120.50750842782715,1.9904571496178107,
2023-08-11 20:29:33.226000,-9.168674698795181,-1.2289156626506024,-3.024096385542169,-1.179644389944819,-9.087063151440834,-2.629061925199264,2.0,1.9904761904761905,502.39234449760767,-0.4877338150457431,-0.23937998951110154,0.3302837829963288,1380.2197802197802,-1.0,120.50750842782715,1.9904511077392695,
2023-08-11 20:29:33.234000,-9.180722891566266,-1.2289156626506024,-3.036144578313253,-1.150214592274678,-9.035561005518087,-2.611894543225015,2.0,1.9919413919413917,502.02280250091945,-0.4729328127731491,-0.3834275391876931,0.4681545364489248,1376.5567765567764,-1.0,120.50750842782715,1.990445178682958,
2023-08-11 20:29:33.242000,-9.168674698795181,-1.2530120481927711,-3.0,-1.1820968730839976,-9.101778050275904,-2.6560392397302266,2.0,1.9904761904761905,502.39234449760767,-0.06048598566517042,0.08530971388613719,0.09976108618378868,1374.3589743589744,-1.0,120.50750842782715,1.990439393490557,
2023-08-11 20:29:33.249000,-9.19277108433735,-1.2530120481927711,-3.0,-1.1992642550582464,-9.084610668301655,-2.55793991416309,2.0,1.9904761904761905,502.39234449760767,-0.1386865567274627,-0.12353592447992617,0.37655148301381075,1372.161172161172,-1.0,120.50750842782715,1.9904337823207237,
2023-08-11 20:29:33.257000,-9.19277108433735,-1.2650602409638554,-3.036144578313253,-1.184549356223176,-9.020846106683017,-2.6315144083384427,2.0,1.9904761904761905,502.39234449760767,-0.3710739467397001,0.05197832294155373,0.34520132859390495,1372.8937728937728,-1.0,120.50750842782715,1.9904283738672157,
2023-08-11 20:29:33.265000,-9.19277108433735,-1.2650602409638554,-3.024096385542169,-1.2360515021459226,-9.136112814224402,-2.6977314530962597,2.0,1.9904761904761905,502.39234449760767,-0.020161995221722892,0.05990326904026623,0.07085834158848568,1374.3589743589744,-1.0,120.50750842782715,1.9904231957627232,
2023-08-11 20:29:33.272000,-9.240963855421688,-1.2891566265060241,-3.036144578313253,-1.1624770079705702,-9.089515634580012,-2.6977314530962597,2.0,1.9904761904761905,502.39234449760767,-0.1287803741040725,0.37049123011479596,0.10372355923314493,1377.2893772893772,-1.0,120.50750842782715,1.9904182745275583,
2023-08-11 20:29:33.280000,-9.216867469879519,-1.2530120481927711,-3.072289156626506,-1.231146535867566,-9.116492949110974,-2.65113427345187,2.0,1.9919413919413917,502.02280250091945,-0.1165433249810621,0.20488316531670625,0.028669657945341313,1382.4175824175823,-1.0,120.50750842782715,1.990413635521151,
2023-08-11 20:29:33.288000,-9.216867469879519,-1.2650602409638554,-3.060240963855422,-1.1477621091354997,-9.197424892703863,-2.6609442060085837,2.0,1.9904761904761905,502.39234449760767,-0.33343045277081707,0.23891381621117644,0.061068702290076333,1386.8131868131868,-1.0,120.50750842782715,1.9904093029311856,
2023-08-11 20:29:33.295000,-9.204819277108435,-1.2409638554216869,-3.096385542168675,-1.1649294911097485,-9.064990803188227,-2.675659104843654,2.0,1.9904761904761905,502.39234449760767,-0.24369209253539942,0.02540644484587095,0.30685857467513517,1388.278388278388,-1.0,120.50750842782715,1.9904052993776027,
2023-08-11 20:29:33.303000,-9.180722891566266,-1.2530120481927711,-3.072289156626506,-1.1673819742489269,-9.141017780502759,-2.6388718577559778,2.0,1.9904761904761905,502.39234449760767,-0.12470135772973627,-0.18367228017015408,0.2319212167123128,1389.0109890109889,-1.0,120.50750842782715,1.9904016458366305,
2023-08-11 20:29:33.311000,-9.19277108433735,-1.2530120481927711,-3.060240963855422,-1.1109748620478233,-9.172900061312077,-2.6683016554261187,2.0,1.9904761904761905,502.39234449760767,-0.53901287803741,-0.6383077909212754,0.10978381213216014,1389.0109890109889,-1.0,120.50750842782715,1.9903983620587269,
2023-08-11 20:29:33.318000,-9.180722891566266,-1.2289156626506024,-3.036144578313253,-1.0938074800735744,-9.089515634580012,-2.609442060085837,2.0,1.9904761904761905,502.39234449760767,-0.5084785268923719,-0.44694365130237224,0.49414369791970164,1388.278388278388,-1.0,120.50750842782715,1.990395466532256,
2023-08-11 20:29:33.326000,-9.19277108433735,-1.2409638554216869,-3.0481927710843375,-1.1747394236664623,-9.094420600858369,-2.621704475781729,2.0,1.9904761904761905,502.39234449760767,-0.673970048365479,-0.3638482605908744,0.2638540877571236,1387.5457875457876,-1.0,120.50750842782715,1.990392976450772,
2023-08-11 20:29:33.334000,-9.19277108433735,-1.2289156626506024,-3.024096385542169,-1.1232372777437154,-9.111587982832617,-2.609442060085837,2.0,1.9904761904761905,502.39234449760767,-0.3961307616106286,-0.4622108268748913,0.2209661441640929,1386.080586080586,-1.0,120.50750842782715,1.9903909076839073,
2023-08-11 20:29:33.341000,-9.240963855421688,-1.2409638554216869,-3.024096385542169,-1.1771919068056407,-9.18761496014715,-2.6732066217044754,2.0,1.9904761904761905,502.39234449760767,-0.19555969931822195,-0.7419148068294386,-0.14288211642678147,1385.3479853479853,-1.0,120.50750842782715,1.9903892747518528,
2023-08-11 20:29:33.349000,-9.216867469879519,-1.2409638554216869,-3.024096385542169,-1.1992642550582464,-9.133660331085224,-2.6241569589209073,2.0,1.9904761904761905,502.39234449760767,-0.1018588660334472,-0.4708350329234888,0.1661907814229939,1382.4175824175823,-1.0,120.50750842782715,1.9903880908034193,
2023-08-11 20:29:33.357000,-9.228915662650603,-1.2409638554216869,-3.036144578313253,-1.2066217044757817,-9.158185162477007,-2.6879215205395464,2.0,1.9904761904761905,502.39234449760767,-0.2096614416409292,-0.028786201270322147,0.18297302022026646,1380.2197802197802,-1.0,120.50750842782715,1.990387367597617,
2023-08-11 20:29:33.364000,-9.228915662650603,-1.2530120481927711,-3.036144578313253,-1.1820968730839976,-9.160637645616186,-2.6462293071735132,2.0,1.9904761904761905,502.39234449760767,-0.1769127673212517,0.42887943593030786,0.30720820465007853,1378.021978021978,-1.0,120.50750842782715,1.9903871154887511,
2023-08-11 20:29:33.372000,-9.216867469879519,-1.2650602409638554,-3.024096385542169,-1.1600245248313916,-9.155732679337829,-2.6732066217044754,2.0,1.9904761904761905,502.39234449760767,-0.38855544548686033,0.24066196608589246,0.5176854495658761,1374.3589743589744,-1.0,120.50750842782715,1.9903873434149546,
2023-08-11 20:29:33.380000,-9.204819277108435,-1.2530120481927711,-3.024096385542169,-1.1894543225015328,-9.123850398528509,-2.65113427345187,2.0,1.9904761904761905,502.39234449760767,-0.2771400268049654,0.12831420080414915,0.1938115494435055,1372.8937728937728,-1.0,120.50750842782715,1.9903880588901244,
2023-08-11 20:29:33.387000,-9.19277108433735,-1.2650602409638554,-3.024096385542169,-1.2164316370324952,-9.057633353770692,-2.629061925199264,2.0,1.9904761904761905,502.39234449760767,-0.272711380455685,0.12435172775479203,0.19486043936833522,1375.091575091575,-1.0,120.50750842782715,1.9903892675413108,
2023-08-11 20:29:33.395000,-9.168674698795181,-1.2650602409638554,-3.024096385542169,-1.1919068056407112,-9.0453709380748,-2.675659104843654,2.0,1.9904761904761905,502.39234449760767,-0.5111590233669363,0.04440300681778374,0.45300390420138653,1380.952380952381,-1.0,120.50750842782715,1.9903909736323848,
2023-08-11 20:29:33.403000,-9.144578313253012,-1.2530120481927711,-3.024096385542169,-1.1354996934396075,-9.01348865726548,-2.5849172286940525,2.0,1.9890109890109888,502.76243093922653,-0.19963871569255817,0.009440009323466846,0.2975351086766509,1390.4761904761904,-1.0,120.50750842782715,1.9903931800290162,
2023-08-11 20:29:33.410000,-9.156626506024097,-1.2409638554216869,-3.036144578313253,-1.1453096259963211,-9.067443286327405,-2.65113427345187,2.0,1.9890109890109888,502.76243093922653,-0.22609405046326014,-0.13320902045335295,0.1739991841967247,1400.7326007326005,-1.0,120.50750842782715,1.9903958877439754,
2023-08-11 20:29:33.418000,-9.180722891566266,-1.2650602409638554,-3.072289156626506,-1.1575720416922133,-9.074800735744942,-2.6658491722869404,2.0,1.9904761904761905,502.39234449760767,-0.2047666219917254,-0.10803566225744368,0.2946215255521239,1414.6520146520145,-1.0,120.50750842782715,1.9903990962946105,
2023-08-11 20:29:33.426000,-9.19277108433735,-1.2530120481927711,-3.060240963855422,-1.1820968730839976,-9.082158185162477,-2.6903740036787247,2.0,1.9890109890109888,502.76243093922653,-0.5967018239030352,-0.10115960608356218,0.001981236524678125,1428.5714285714284,-1.0,120.50750842782715,1.9904028041673192,
2023-08-11 20:29:33.433000,-9.19277108433735,-1.2409638554216869,-3.0481927710843375,-1.1575720416922133,-9.082158185162477,-2.629061925199264,2.0,1.9904761904761905,502.39234449760767,-0.024823728220966765,-0.5510168405104605,0.27842200337975637,1441.0256410256409,-1.0,120.50750842782715,1.9904070079480385,
2023-08-11 20:29:33.441000,-9.19277108433735,-1.2409638554216869,-3.036144578313253,-1.1526670754138564,-9.111587982832617,-2.6364193746167994,2.0,1.9904761904761905,502.39234449760767,-0.006526426198938992,-0.4504399510518025,0.003496299749432037,1452.7472527472526,-1.0,120.50750842782715,1.9904117028265782,
2023-08-11 20:29:33.449000,-9.204819277108435,-1.2289156626506024,-3.060240963855422,-1.1354996934396075,-9.13856529736358,-2.6486817903126916,2.0,1.9890109890109888,502.76243093922653,-0.3248062467222195,-0.468970339723792,0.21805256103956636,1463.003663003663,-1.0,120.50750842782715,1.9904168835615719,
2023-08-11 20:29:33.456000,-9.216867469879519,-1.2289156626506024,-3.0481927710843375,-1.1158798283261802,-9.118945432250152,-2.6486817903126916,2.0,1.9904761904761905,502.39234449760767,-0.45789872385059166,-0.6081230697511797,0.43004486918011753,1472.5274725274724,-1.0,120.50750842782715,1.990422542601411,
2023-08-11 20:29:33.464000,-9.240963855421688,-1.2289156626506024,-3.0481927710843375,-1.196811771919068,-9.116492949110974,-2.6535867565910483,2.0,1.9904761904761905,502.39234449760767,-0.07179068818833412,-0.7137113221840223,0.155235708874774,1478.3882783882782,-1.0,120.50750842782715,1.9904286705965861,
2023-08-11 20:29:33.471000,-9.228915662650603,-1.2289156626506024,-3.060240963855422,-1.155119558553035,-9.150827713059472,-2.6462293071735132,2.0,1.9904761904761905,502.39234449760767,-0.3279529164967073,-1.1978322941553525,0.3824951925878447,1481.3186813186812,-1.0,120.50750842782715,1.9904352574396733,
2023-08-11 20:29:33.479000,-9.19277108433735,-1.2048192771084338,-3.036144578313253,-1.184549356223176,-9.155732679337829,-2.6069895769466584,2.0,1.9904761904761905,502.39234449760767,-0.41384534700775044,-1.6313734630849008,0.15255521240020956,1482.051282051282,-1.0,120.50750842782715,1.9904422922906133,
2023-08-11 20:29:33.487000,-9.204819277108435,-1.2048192771084338,-3.024096385542169,-1.1281422440220723,-9.094420600858369,-2.6143470263641935,2.0,1.9904761904761905,502.39234449760767,-0.5913408309539063,-1.266709399219159,0.1994056290425965,1480.5860805860805,-1.0,120.50750842782715,1.9904497635377565,
2023-08-11 20:29:33.494000,-9.204819277108435,-1.2048192771084338,-3.036144578313253,-1.1698344573881054,-9.109135499693439,-2.6020846106683013,2.0,1.9904761904761905,502.39234449760767,-0.09894528290892109,-1.39187693024882,0.27387681370549505,1479.120879120879,-1.0,120.50750842782715,1.9904576583407132,
2023-08-11 20:29:33.502000,-9.216867469879519,-1.2048192771084338,-2.987951807228916,-1.155119558553035,-9.101778050275904,-2.633966891477621,2.0,1.9904761904761905,502.39234449760767,-0.49297826466989114,-1.0721985898257678,0.36070159081638575,1477.6556776556777,-1.0,120.50750842782715,1.9904659626680554,
2023-08-11 20:29:33.510000,-9.180722891566266,-1.2289156626506024,-3.0120481927710845,-1.137952176578786,-9.123850398528509,-2.6192519926425506,2.0,1.9890109890109888,502.76243093922653,0.015267175572519083,-1.0767437795000292,0.03682769069401549,1475.4578754578754,-1.0,120.50750842782715,1.9904746613371216,
2023-08-11 20:29:33.517000,-9.204819277108435,-1.216867469879518,-3.0120481927710845,-1.2017167381974247,-9.185162477007971,-2.629061925199264,2.0,1.9904761904761905,502.39234449760767,0.2748091603053435,-0.6707068352660104,0.21875182098945312,1472.5274725274724,-1.0,120.50750842782715,1.9904837375631417,
2023-08-11 20:29:33.525000,-9.180722891566266,-1.2530120481927711,-3.0120481927710845,-1.1575720416922133,-9.16799509503372,-2.6143470263641935,2.0,1.9890109890109888,502.76243093922653,0.3055765981003433,-0.6055591166015961,-0.05955363906532286,1471.7948717948716,-1.0,120.50750842782715,1.990493173423412,
2023-08-11 20:29:33.533000,-9.204819277108435,-1.2650602409638554,-3.0120481927710845,-1.1404046597179645,-9.038013488657265,-2.6192519926425506,2.0,1.9890109890109888,502.76243093922653,0.16700658469786148,-0.3109375910494722,0.39554804498572393,1469.5970695970695,-1.0,120.50750842782715,1.9905029499346434,
2023-08-11 20:29:33.540000,-9.204819277108435,-1.2530120481927711,-3.0481927710843375,-1.155119558553035,-9.096873083997547,-2.621704475781729,2.0,1.9890109890109888,502.76243093922653,0.4879669016957047,0.5432084377367289,0.2680496474564424,1467.3992673992673,-1.0,120.50750842782715,1.9905130465695273,
2023-08-11 20:29:33.548000,-9.216867469879519,-1.2650602409638554,-3.060240963855422,-1.1771919068056407,-9.067443286327405,-2.6388718577559778,2.0,1.9904761904761905,502.39234449760767,0.1628110249985427,0.7666219917254246,0.019113105296894497,1467.3992673992673,-1.0,120.50750842782715,1.9905234412994626,
2023-08-11 20:29:33.556000,-9.19277108433735,-1.2650602409638554,-3.024096385542169,-1.2188841201716738,-9.133660331085224,-2.6241569589209073,2.0,1.9890109890109888,502.76243093922653,0.20604859856651633,0.5900588543791153,0.03228250101975418,1464.4688644688645,-1.0,120.50750842782715,1.9905341111981893,
2023-08-11 20:29:33.563000,-9.19277108433735,-1.2650602409638554,-3.0481927710843375,-1.1894543225015328,-9.069895769466584,-2.6535867565910483,2.0,1.9890109890109888,502.76243093922653,0.27947089330458563,0.7048540294854615,0.18273993357030435,1463.003663003663,-1.0,120.50750842782715,1.9905450330122136,
2023-08-11 20:29:33.571000,-9.19277108433735,-1.2771084337349399,-3.036144578313253,-1.2532188841201717,-9.067443286327405,-2.670754138565297,2.0,1.9890109890109888,502.76243093922653,0.31058796107452974,0.6378416176213503,-0.14194976982693305,1460.8058608058607,-1.0,120.50750842782715,1.9905561826109481,
2023-08-11 20:29:33.579000,-9.168674698795181,-1.2650602409638554,-3.0481927710843375,-1.213979153893317,-9.09196811771919,-2.6364193746167994,2.0,1.9890109890109888,502.76243093922653,-0.05733931589068263,0.5095274168172012,-0.35708874774197286,1459.3406593406592,-1.0,120.50750842782715,1.990567534542366,
2023-08-11 20:29:33.586000,-9.19277108433735,-1.2650602409638554,-3.036144578313253,-1.2237890864500305,-9.114040465971796,-2.6364193746167994,2.0,1.9890109890109888,502.76243093922653,-0.04230522696812521,0.3243400734222945,0.09964454285880783,1459.3406593406592,-1.0,120.50750842782715,1.9905790621493735,
2023-08-11 20:29:33.594000,-9.19277108433735,-1.2650602409638554,-3.060240963855422,-1.226241569589209,-9.099325567136725,-2.675659104843654,2.0,1.9890109890109888,502.76243093922653,-0.0867082337859107,0.2595419847328244,-0.008507662723617984,1457.8754578754579,-1.0,120.50750842782715,1.9905907381080696,
2023-08-11 20:29:33.602000,-9.228915662650603,-1.2650602409638554,-3.072289156626506,-1.2409564684242795,-9.133660331085224,-2.680564071122011,2.0,1.9890109890109888,502.76243093922653,0.09847910960899774,-0.33494551599557143,-0.07097488491346653,1454.212454212454,-1.0,120.50750842782715,1.9906025340168556,
2023-08-11 20:29:33.609000,-9.228915662650603,-1.2771084337349399,-3.060240963855422,-1.1698344573881054,-9.12139791538933,-2.680564071122011,2.0,1.9890109890109888,502.76243093922653,-0.3290018064215366,-0.6965794534118064,0.01748149874715888,1449.084249084249,-1.0,120.50750842782715,1.99061442051203,
2023-08-11 20:29:33.617000,-9.228915662650603,-1.2530120481927711,-3.036144578313253,-1.2066217044757817,-9.143470263641937,-2.6241569589209073,2.0,1.9890109890109888,502.76243093922653,-0.1287803741040725,-1.2354757881242358,0.22830837363790035,1444.6886446886447,-1.0,120.50750842782715,1.9906263682637098,
2023-08-11 20:29:33.625000,-9.240963855421688,-1.2650602409638554,-3.036144578313253,-1.1477621091354997,-9.16799509503372,-2.633966891477621,2.0,1.9890109890109888,502.76243093922653,-0.3369267525202491,-1.4184488083445013,0.3158324106986769,1441.0256410256409,597.47314453125,100.42292368985596,1.990638347498043,
2023-08-11 20:29:33.632000,-9.228915662650603,-1.2650602409638554,-3.0,-1.2017167381974247,-9.175352544451256,-2.609442060085837,2.0,1.9890109890109888,502.76243093922653,-0.13227667385350453,-1.7528116077151685,0.31105413437445395,1436.6300366300366,-1.0,100.42292368985596,1.990650328083222,
2023-08-11 20:29:33.640000,-9.228915662650603,-1.2289156626506024,-2.987951807228916,-1.1894543225015328,-9.104230533415082,-2.6192519926425506,2.0,1.9890109890109888,502.76243093922653,-0.3728220966144162,-1.9137579395140143,0.6116193695006118,1430.03663003663,-1.0,100.42292368985596,1.9906622795475117,
2023-08-11 20:29:33.648000,-9.204819277108435,-1.2409638554216869,-2.9759036144578315,-1.2164316370324952,-9.158185162477007,-2.5358675659104843,2.0,1.9890109890109888,502.76243093922653,-0.23028961016257718,-1.7278713361692208,0.5750247654565588,1424.9084249084249,-1.0,100.42292368985596,1.9906741707104394,
2023-08-11 20:29:33.655000,-9.19277108433735,-1.2409638554216869,-2.963855421686747,-1.1477621091354997,-9.101778050275904,-2.560392397302268,2.0,1.9890109890109888,502.76243093922653,-0.47153429287337556,-0.94726414544607,0.5081288969174289,1421.9780219780218,-1.0,100.42292368985596,1.9906859702288864,
2023-08-11 20:29:33.663000,-9.204819277108435,-1.216867469879518,-2.963855421686747,-1.1330472103004292,-9.10668301655426,-2.5554874310239115,2.0,1.9875457875457876,503.13306302985626,-0.4643086067245498,-0.9365421595478122,0.5040498805430923,1417.5824175824175,-1.0,100.42292368985596,1.9906976466522153,
2023-08-11 20:29:33.671000,-9.204819277108435,-1.2289156626506024,-2.9759036144578315,-1.1404046597179645,-9.079705702023299,-2.5947271612507663,2.0,1.9875457875457876,503.13306302985626,-0.4264320261057051,-0.6342287745469374,0.31443389079890427,1413.9194139194137,-1.0,100.42292368985596,1.9907091679863378,
2023-08-11 20:29:33.678000,-9.19277108433735,-1.2289156626506024,-2.951807228915663,-1.1060698957694666,-9.035561005518087,-2.5677498467198037,2.0,1.9875457875457876,503.13306302985626,-0.024940271545947603,0.07715168113746301,0.2174698444146613,1406.5934065934066,-1.0,100.42292368985596,1.9907205016797962,
2023-08-11 20:29:33.686000,-9.19277108433735,-1.216867469879518,-3.0,-1.0962599632127528,-9.143470263641937,-2.60453709380748,2.0,1.9875457875457876,503.13306302985626,0.08379465066138284,0.5383136180875233,0.02797039799545499,1398.5347985347985,-1.0,100.42292368985596,1.990731615135781,
2023-08-11 20:29:33.694000,-9.204819277108435,-1.216867469879518,-2.987951807228916,-1.1526670754138564,-9.12139791538933,-2.6315144083384427,2.0,1.9890109890109888,502.76243093922653,-0.08286230406153441,0.6142998659751762,-0.03927510051861739,1394.139194139194,-1.0,100.42292368985596,1.990742475766978,
2023-08-11 20:29:33.701000,-9.204819277108435,-1.216867469879518,-3.024096385542169,-1.0815450643776823,-9.126302881667687,-2.5898221949724096,2.0,1.9890109890109888,502.76243093922653,0.2263271371132218,1.02977681953266,-0.05850474914049316,1394.139194139194,-1.0,100.42292368985596,1.9907530515437142,
2023-08-11 20:29:33.709000,-9.216867469879519,-1.216867469879518,-3.036144578313253,-1.137952176578786,-9.128755364806867,-2.6315144083384427,2.0,1.9875457875457876,503.13306302985626,0.2883281860031466,1.3374511974826637,-0.3038284482256282,1398.5347985347985,-1.0,100.42292368985596,1.990763311122137,
2023-08-11 20:29:33.717000,-9.204819277108435,-1.216867469879518,-3.0481927710843375,-1.1477621091354997,-9.116492949110974,-2.6609442060085837,2.0,1.9875457875457876,503.13306302985626,0.1835557368451715,0.7739642211992311,-0.2743429870054193,1405.8608058608058,-1.0,100.42292368985596,1.9907732229556534,
2023-08-11 20:29:33.724000,-9.240963855421688,-1.216867469879518,-3.024096385542169,-1.155119558553035,-9.1704475781729,-2.6952789699570814,2.0,1.9875457875457876,503.13306302985626,0.3386749023949651,1.0575141308781546,-0.26012470135772947,1412.4542124542124,-1.0,100.42292368985596,1.9907827557435074,
2023-08-11 20:29:33.732000,-9.240963855421688,-1.2048192771084338,-3.024096385542169,-1.1649294911097485,-9.221949724095646,-2.6388718577559778,2.0,1.9875457875457876,503.13306302985626,0.2780723734048139,1.0157916205349338,-0.2153720645650019,1419.7802197802198,-1.0,100.42292368985596,1.9907918784216443,
2023-08-11 20:29:33.740000,-9.228915662650603,-1.2048192771084338,-3.0843373493975905,-1.1649294911097485,-9.1704475781729,-2.6658491722869404,2.0,1.9875457875457876,503.13306302985626,0.06526426198939513,0.6501952100693432,0.08997144688537975,1422.7106227106226,-1.0,100.42292368985596,1.9908005597997127,
2023-08-11 20:29:33.747000,-9.216867469879519,-1.216867469879518,-3.0481927710843375,-1.137952176578786,-9.160637645616186,-2.6486817903126916,2.0,1.9875457875457876,503.13306302985626,0.3882058155119161,0.5159372996911593,0.24101159606083583,1421.245421245421,-1.0,100.42292368985596,1.990808769568975,
2023-08-11 20:29:33.755000,-9.240963855421688,-1.216867469879518,-3.060240963855422,-1.1992642550582464,-9.118945432250152,-2.6388718577559778,2.0,1.9875457875457876,503.13306302985626,0.2644368043820282,-0.03123361109492492,-0.038342753918768964,1416.8498168498168,-1.0,100.42292368985596,1.990816477834299,
2023-08-11 20:29:33.763000,-9.240963855421688,-1.2289156626506024,-3.0,-1.1575720416922133,-9.180257510729612,-2.6560392397302266,2.0,1.9875457875457876,503.13306302985626,-0.19392809276848677,0.2624555678573505,-0.0872909504108153,1412.4542124542124,-1.0,100.42292368985596,1.9908236547497817,
2023-08-11 20:29:33.770000,-9.19277108433735,-1.2289156626506024,-3.0120481927710845,-1.1894543225015328,-9.12139791538933,-2.60453709380748,2.0,1.9875457875457876,503.13306302985626,0.16187867839869427,0.11024998543208478,0.1086183788823496,1408.7912087912086,-1.0,100.42292368985596,1.9908302710669903,
2023-08-11 20:29:33.778000,-9.216867469879519,-1.216867469879518,-2.9759036144578315,-1.1771919068056407,-9.126302881667687,-2.6241569589209073,2.0,1.9875457875457876,503.13306302985626,0.1774954839461576,-0.01048889924829611,-0.06503117533943237,1407.3260073260071,-1.0,100.42292368985596,1.9908362981899106,
2023-08-11 20:29:33.786000,-9.216867469879519,-1.2530120481927711,-3.0,-1.2164316370324952,-9.133660331085224,-2.5677498467198037,2.0,1.9875457875457876,503.13306302985626,0.2370491230114796,0.12913000407901673,0.10185886603344785,1403.6630036630036,-1.0,100.42292368985596,1.9908417082291148,
2023-08-11 20:29:33.793000,-9.180722891566266,-1.2289156626506024,-3.0,-1.1698344573881054,-9.126302881667687,-2.580012262415696,2.0,1.9875457875457876,503.13306302985626,0.17574733407144158,-0.14218285647689471,-0.11293048190664857,1397.069597069597,-1.0,100.42292368985596,1.99084647451291,
2023-08-11 20:29:33.801000,-9.19277108433735,-1.2289156626506024,-2.987951807228916,-1.213979153893317,-9.150827713059472,-2.5971796443899446,2.0,1.9875457875457876,503.13306302985626,0.13192704387856202,0.1827399335703039,-0.25161703863411233,1391.9413919413919,-1.0,100.42292368985596,1.9908505711144628,
2023-08-11 20:29:33.809000,-9.19277108433735,-1.2409638554216869,-2.9759036144578315,-1.1771919068056407,-9.114040465971796,-2.5677498467198037,2.0,1.9875457875457876,503.13306302985626,0.05477536274109902,0.32305809684750353,0.14497989627644065,1389.0109890109889,-1.0,100.42292368985596,1.9908539729396453,
2023-08-11 20:29:33.816000,-9.180722891566266,-1.2289156626506024,-2.987951807228916,-1.1820968730839976,-9.126302881667687,-2.5652973635806253,2.0,1.9875457875457876,503.13306302985626,0.17761202727113842,0.38529223238738997,-0.1304119806538081,1389.7435897435896,-1.0,100.42292368985596,1.990856656201615,
2023-08-11 20:29:33.824000,-9.204819277108435,-1.216867469879518,-3.0120481927710845,-1.1453096259963211,-9.087063151440834,-2.629061925199264,2.0,1.9875457875457876,503.13306302985626,-0.03845929724375067,0.6782821513897787,0.16141250509877028,1389.0109890109889,-1.0,100.42292368985596,1.990858597980191,
2023-08-11 20:29:33.832000,-9.180722891566266,-1.216867469879518,-3.024096385542169,-1.1330472103004292,-9.084610668301655,-2.6535867565910483,2.0,1.9875457875457876,503.13306302985626,-0.0981294796340535,0.6307324747975054,-0.0857758871860614,1383.8827838827838,-1.0,100.42292368985596,1.990859776271724,
2023-08-11 20:29:33.839000,-9.204819277108435,-1.2289156626506024,-3.0481927710843375,-1.1870018393623543,-9.155732679337829,-2.6535867565910483,2.0,1.9875457875457876,503.13306302985626,-0.11328011188159173,0.7816560806479802,0.09626478643435707,1378.7545787545787,-1.0,100.42292368985596,1.990860170036664,
2023-08-11 20:29:33.847000,-9.204819277108435,-1.2289156626506024,-3.024096385542169,-1.1575720416922133,-9.131207847946046,-2.71244635193133,2.0,1.9875457875457876,503.13306302985626,-0.03671114736903465,0.8245440242410114,-0.05897092244041737,1375.8241758241757,-1.0,100.42292368985596,1.9908597592447324,
2023-08-11 20:29:33.854000,-9.228915662650603,-1.2409638554216869,-3.0481927710843375,-1.1624770079705702,-9.12139791538933,-2.6732066217044754,2.0,1.9875457875457876,503.13306302985626,-0.15931472524911067,0.5482198007109135,-0.3045277081755143,1375.091575091575,-1.0,100.42292368985596,1.9908585249175883,
2023-08-11 20:29:33.862000,-9.216867469879519,-1.216867469879518,-3.072289156626506,-1.2213366033108521,-9.148375229920294,-2.6192519926425506,2.0,1.986080586080586,503.5042419771302,-0.004661732999242137,0.33587786259541985,-0.07715168113746279,1373.6263736263736,-1.0,100.42292368985596,1.9908564491689071,
2023-08-11 20:29:33.870000,-9.204819277108435,-1.2409638554216869,-3.0481927710843375,-1.1673819742489269,-9.126302881667687,-2.6486817903126916,2.0,1.986080586080586,503.5042419771302,-0.07971563428704662,0.36827690694015486,0.1935784627935434,1375.8241758241757,-1.0,100.42292368985596,1.990853515206991,
2023-08-11 20:29:33.877000,-9.228915662650603,-1.2409638554216869,-3.036144578313253,-1.1673819742489269,-9.099325567136725,-2.6952789699570814,2.0,1.986080586080586,503.5042419771302,0.04545189674261474,0.08006526426198912,-0.12808111415418683,1383.8827838827838,-1.0,100.42292368985596,1.9908497072300146,
2023-08-11 20:29:33.885000,-9.228915662650603,-1.2289156626506024,-3.0481927710843375,-1.1575720416922133,-9.109135499693439,-2.6683016554261187,2.0,1.9875457875457876,503.13306302985626,-0.33541168929549475,0.038808927218693175,-0.023075578346250313,1391.2087912087911,-1.0,100.42292368985596,1.990845009963953,
2023-08-11 20:29:33.893000,-9.204819277108435,-1.2289156626506024,-3.036144578313253,-1.2188841201716738,-9.133660331085224,-2.6560392397302266,2.0,1.986080586080586,503.5042419771302,-0.0867082337859107,0.2563953149583349,0.02144397179651535,1399.2673992673992,-1.0,100.42292368985596,1.99083940924902,
2023-08-11 20:29:33.900000,-9.204819277108435,-1.216867469879518,-3.024096385542169,-1.2066217044757817,-9.136112814224402,-2.6388718577559778,2.0,1.986080586080586,503.5042419771302,-0.23751529631140295,0.13565643027795574,-0.08845638366062585,1404.3956043956043,-1.0,100.42292368985596,1.9908328921299732,
2023-08-11 20:29:33.908000,-9.204819277108435,-1.216867469879518,-3.024096385542169,-1.1722869405272838,-9.087063151440834,-2.6437768240343344,2.0,1.986080586080586,503.5042419771302,-0.004778276324222974,0.2287745469378246,0.17003671114736887,1408.7912087912086,-1.0,100.42292368985596,1.9908254463462844,
2023-08-11 20:29:33.916000,-9.228915662650603,-1.2289156626506024,-3.0120481927710845,-1.1722869405272838,-9.12139791538933,-2.582464745554874,2.0,1.986080586080586,503.5042419771302,-0.0658469786142993,0.3038284482256273,0.01480100227259487,1408.7912087912086,-1.0,100.42292368985596,1.9908170608019118,
2023-08-11 20:29:33.923000,-9.228915662650603,-1.2289156626506024,-2.987951807228916,-1.1305947271612506,-9.089515634580012,-2.60453709380748,2.0,1.986080586080586,503.5042419771302,0.13402482372822055,0.1341413670532014,-0.01689878212225383,1405.8608058608058,-1.0,100.42292368985596,1.9908077255738144,
2023-08-11 20:29:33.931000,-9.216867469879519,-1.2409638554216869,-3.0120481927710845,-1.1354996934396075,-9.141017780502759,-2.629061925199264,2.0,1.986080586080586,503.5042419771302,0.11665986830604294,0.4208379465066145,0.24089505273585457,1399.2673992673992,-1.0,100.42292368985596,1.9907974319171775,
2023-08-11 20:29:33.939000,-9.216867469879519,-1.2409638554216869,-2.987951807228916,-1.150214592274678,-9.131207847946046,-2.6388718577559778,2.0,1.986080586080586,503.5042419771302,0.11607715168113703,0.4151273235825414,0.23891381621117644,1391.9413919413919,-1.0,100.42292368985596,1.9907861722674207,
2023-08-11 20:29:33.946000,-9.19277108433735,-1.216867469879518,-3.0,-1.2752912323727774,-9.165542611894542,-2.6143470263641935,2.0,1.986080586080586,503.5042419771302,0.09894528290892109,0.6226909853738121,0.3737544432142648,1383.8827838827838,-1.0,100.42292368985596,1.9907739402390732,
2023-08-11 20:29:33.954000,-9.216867469879519,-1.2289156626506024,-3.0120481927710845,-1.137952176578786,-9.10668301655426,-2.587369711833231,2.0,1.986080586080586,503.5042419771302,0.09906182623390192,0.6170969057747215,0.14055124992716042,1378.021978021978,-1.0,100.42292368985596,1.990760730621646,
2023-08-11 20:29:33.962000,-9.240963855421688,-1.216867469879518,-3.0120481927710845,-1.1673819742489269,-9.104230533415082,-2.560392397302268,2.0,1.986080586080586,503.5042419771302,0.46465823669949236,0.7459938232037766,0.16863819124759624,1371.4285714285713,-1.0,100.42292368985596,1.990746539372611,
2023-08-11 20:29:33.969000,-9.19277108433735,-1.2409638554216869,-3.024096385542169,-1.1404046597179645,-9.050275904353157,-2.587369711833231,2.0,1.986080586080586,503.5042419771302,0.15698385874949047,0.6457665637200628,0.16782238797272886,1363.3699633699632,-1.0,100.42292368985596,1.9907313636076112,
2023-08-11 20:29:33.977000,-9.204819277108435,-1.2289156626506024,-3.0481927710843375,-1.1649294911097485,-9.118945432250152,-2.609442060085837,2.0,1.986080586080586,503.5042419771302,0.3229415535225227,0.7468096264786441,0.19660858924305102,1357.5091575091574,-1.0,100.42292368985596,1.9907152015880765,
2023-08-11 20:29:33.985000,-9.19277108433735,-1.2289156626506024,-3.060240963855422,-1.2066217044757817,-9.13856529736358,-2.6437768240343344,2.0,1.986080586080586,503.5042419771302,0.414661150282618,0.9239554804498575,-0.005827166249053105,1351.6483516483515,-1.0,100.42292368985596,1.9906980527063567,
2023-08-11 20:29:33.992000,-9.216867469879519,-1.2409638554216869,-3.024096385542169,-1.1600245248313916,-9.118945432250152,-2.670754138565297,2.0,1.986080586080586,503.5042419771302,0.42666511275566676,0.6570712662432265,0.02494027154594717,1347.985347985348,-1.0,100.42292368985596,1.990679917468572,
2023-08-11 20:29:34,-9.204819277108435,-1.2289156626506024,-3.0481927710843375,-1.1477621091354997,-9.155732679337829,-2.6388718577559778,2.0,1.986080586080586,503.5042419771302,0.45405279412621713,0.5470543674611034,-0.1314608705786376,1347.985347985348,-1.0,100.42292368985596,1.9906607974753274,
2023-08-11 20:29:34.008000,-9.216867469879519,-1.2530120481927711,-3.0481927710843375,-1.1183323114653587,-9.104230533415082,-2.629061925199264,2.0,1.986080586080586,503.5042419771302,0.404638424334247,0.7447118466289839,-0.16036361517394102,1351.6483516483515,-1.0,100.42292368985596,1.9906406954004745,
2023-08-11 20:29:34.015000,-9.168674698795181,-1.2289156626506024,-3.0120481927710845,-1.1698344573881054,-9.133660331085224,-2.6241569589209073,2.0,1.9846153846153847,503.87596899224803,0.09661441640930088,0.5111590233669363,-0.03869238389371256,1357.5091575091574,-1.0,100.42292368985596,1.990619614968095,
2023-08-11 20:29:34.023000,-9.168674698795181,-1.2409638554216869,-3.024096385542169,-1.1600245248313916,-9.150827713059472,-2.5971796443899446,2.0,1.9846153846153847,503.87596899224803,0.08414428063632708,0.4490414311520307,-0.19171376959384656,1367.032967032967,-1.0,100.42292368985596,1.9905975608930988,
2023-08-11 20:29:34.031000,-9.19277108433735,-1.2289156626506024,-3.036144578313253,-1.1673819742489269,-9.141017780502759,-2.6486817903126916,2.0,1.9846153846153847,503.87596899224803,-0.0374104073189214,0.18670240661966103,-0.2370491230114796,1377.2893772893772,-1.0,100.42292368985596,1.9905745387157745,
2023-08-11 20:29:34.038000,-9.19277108433735,-1.2289156626506024,-3.0481927710843375,-1.1820968730839976,-9.155732679337829,-2.641324340895156,2.0,1.986080586080586,503.5042419771302,-0.03589534409416706,0.24742147893479313,0.05384301614125059,1386.8131868131868,-1.0,100.42292368985596,1.990550554280607,
2023-08-11 20:29:34.046000,-9.204819277108435,-1.2530120481927711,-3.060240963855422,-1.1870018393623543,-9.158185162477007,-2.65113427345187,2.0,1.986080586080586,503.5042419771302,-0.02191014509643891,0.15197249577530408,-0.05489190606608007,1394.139194139194,-1.0,100.42292368985596,1.9905256147232802,
2023-08-11 20:29:34.054000,-9.216867469879519,-1.216867469879518,-3.060240963855422,-1.179644389944819,-9.109135499693439,-2.6266094420600856,2.0,1.986080586080586,503.5042419771302,-0.11223122195676248,0.21105996154070272,0.1903152496940737,1398.5347985347985,-1.0,100.42292368985596,1.990499728931112,
2023-08-11 20:29:34.061000,-9.216867469879519,-1.2409638554216869,-3.036144578313253,-1.1232372777437154,-9.128755364806867,-2.6486817903126916,2.0,1.986080586080586,503.5042419771302,-0.049997086416876044,0.3741040731892071,-0.2709632305809685,1403.6630036630036,-1.0,100.42292368985596,1.9904729061061284,
2023-08-11 20:29:34.069000,-9.216867469879519,-1.216867469879518,-3.0481927710843375,-1.1673819742489269,-9.155732679337829,-2.6658491722869404,2.0,1.9846153846153847,503.87596899224803,-0.10990035545714054,0.5331857117883578,-0.23739875298642274,1408.7912087912086,-1.0,100.42292368985596,1.9904451562606817,
2023-08-11 20:29:34.077000,-9.216867469879519,-1.2530120481927711,-3.024096385542169,-1.1526670754138564,-9.096873083997547,-2.6854690374003676,2.0,1.9846153846153847,503.87596899224803,-0.3672280170153256,0.4645416933745115,-0.09952799953382678,1413.1868131868132,-1.0,100.42292368985596,1.990416489657722,
2023-08-11 20:29:34.084000,-9.240963855421688,-1.2409638554216869,-3.036144578313253,-1.120784794604537,-9.10668301655426,-2.6658491722869404,2.0,1.9846153846153847,503.87596899224803,0.09405046325971728,0.626303828448225,-0.023891381621117688,1413.1868131868132,-1.0,100.42292368985596,1.990386916282948,
2023-08-11 20:29:34.092000,-9.216867469879519,-1.2409638554216869,-3.036144578313253,-1.150214592274678,-9.145922746781116,-2.6560392397302266,2.0,1.9846153846153847,503.87596899224803,-0.10593788240778515,0.46151156692500456,0.020861255171610082,1410.989010989011,-1.0,100.42292368985596,1.9903564467548807,
2023-08-11 20:29:34.100000,-9.204819277108435,-1.2289156626506024,-3.060240963855422,-1.0864500306560392,-9.15328019619865,-2.6658491722869404,2.0,1.9846153846153847,503.87596899224803,0.1074529456325395,0.7133616922090781,0.34077268224462454,1409.5238095238094,-1.0,100.42292368985596,1.9903250922842555,
2023-08-11 20:29:34.107000,-9.19277108433735,-1.2048192771084338,-3.024096385542169,-1.1354996934396075,-9.101778050275904,-2.582464745554874,2.0,1.9846153846153847,503.87596899224803,-0.382262105937883,0.3996270613600606,0.41524386690752285,1409.5238095238094,-1.0,100.42292368985596,1.9902928646335052,
2023-08-11 20:29:34.115000,-9.168674698795181,-1.216867469879518,-3.036144578313253,-1.137952176578786,-9.062538320049049,-2.65113427345187,2.0,1.9846153846153847,503.87596899224803,-0.21222539479051283,0.4843540586212919,0.39799545481032567,1411.7216117216117,-1.0,100.42292368985596,1.99025977653443,
2023-08-11 20:29:34.123000,-9.19277108433735,-1.2048192771084338,-3.0120481927710845,-1.091354996934396,-9.074800735744942,-2.6952789699570814,2.0,1.9846153846153847,503.87596899224803,-0.2419439426606834,0.26303828448225647,0.2739933570304761,1416.8498168498168,-1.0,100.42292368985596,1.9902258411234002,
2023-08-11 20:29:34.130000,-9.204819277108435,-1.1927710843373494,-3.060240963855422,-1.1183323114653587,-9.104230533415082,-2.6266094420600856,2.0,1.9846153846153847,503.87596899224803,-0.07482081463784107,0.09067070683526607,0.2129246547403998,1424.1758241758241,-1.0,100.42292368985596,1.9901910714812778,
2023-08-11 20:29:34.138000,-9.19277108433735,-1.1686746987951808,-3.0,-1.1109748620478233,-9.06008583690987,-2.6241569589209073,2.0,1.9846153846153847,503.87596899224803,0.03169978439484827,0.07435464133791772,-0.551249927160422,1432.9670329670328,-1.0,100.42292368985596,1.9901554810874198,
2023-08-11 20:29:34.146000,-9.204819277108435,-1.1927710843373494,-3.036144578313253,-1.1232372777437154,-9.057633353770692,-2.6437768240343344,2.0,1.9846153846153847,503.87596899224803,-0.026804964745644456,0.5319037352135652,-0.02645533477070108,1443.956043956044,-1.0,100.42292368985596,1.9901190837821217,
2023-08-11 20:29:34.153000,-9.216867469879519,-1.1927710843373494,-3.0120481927710845,-1.137952176578786,-9.172900061312077,-2.663396689147762,2.0,1.9846153846153847,503.87596899224803,0.1574500320494138,0.0874074937357957,-0.19521006934327836,1454.9450549450548,-1.0,100.42292368985596,1.9900818937303566,
2023-08-11 20:29:34.161000,-9.216867469879519,-1.1927710843373494,-3.024096385542169,-1.1404046597179645,-9.116492949110974,-2.6658491722869404,2.0,1.9846153846153847,503.87596899224803,0.11293048190664923,0.2104772449157968,-0.5152380397412738,1464.4688644688645,-1.0,100.42292368985596,1.9900439253869924,
2023-08-11 20:29:34.169000,-9.216867469879519,-1.2048192771084338,-3.036144578313253,-1.1673819742489269,-9.160637645616186,-2.5971796443899446,2.0,1.9831501831501832,504.2482452899889,0.08111415418681839,0.25686148825826,-0.03764349396888286,1472.5274725274724,-1.0,100.42292368985596,1.9900051934636245,
2023-08-11 20:29:34.176000,-9.228915662650603,-1.2048192771084338,-3.036144578313253,-1.0643776824034334,-9.207234825260576,-2.6683016554261187,2.0,1.9831501831501832,504.2482452899889,0.12808111415418746,0.4682710797739052,-0.37468678981411346,1480.5860805860805,-1.0,100.42292368985596,1.9899657128623893,
2023-08-11 20:29:34.184000,-9.204819277108435,-1.2048192771084338,-3.0481927710843375,-1.125689760882894,-9.074800735744942,-2.6683016554261187,2.0,1.9831501831501832,504.2482452899889,0.2044169920167829,0.24951925878445338,-0.2192179942893771,1485.7142857142856,-1.0,100.42292368985596,1.9899254985070347,
2023-08-11 20:29:34.192000,-9.19277108433735,-1.216867469879518,-3.0120481927710845,-1.137952176578786,-9.023298589822195,-2.6683016554261187,2.0,1.9846153846153847,503.87596899224803,0.3245731600722561,0.30767437795000185,-0.12854728745411104,1490.10989010989,-1.0,100.42292368985596,1.98988456482149,
2023-08-11 20:29:34.199000,-9.19277108433735,-1.2048192771084338,-3.060240963855422,-1.1624770079705702,-9.1704475781729,-2.6658491722869404,2.0,1.9846153846153847,503.87596899224803,0.0941670065846981,0.7341064040557069,-0.1614125050987705,1493.040293040293,-1.0,100.42292368985596,1.9898429262618942,
2023-08-11 20:29:34.207000,-9.204819277108435,-1.2289156626506024,-3.0481927710843375,-1.1600245248313916,-9.082158185162477,-2.675659104843654,2.0,1.9831501831501832,504.2482452899889,0.26222248120738884,0.13204358720354287,-0.06992599498863704,1495.970695970696,-1.0,100.42292368985596,1.989800597850226,
2023-08-11 20:29:34.215000,-9.216867469879519,-1.216867469879518,-3.024096385542169,-1.1428571428571428,-9.101778050275904,-2.663396689147762,2.0,1.9846153846153847,503.87596899224803,0.2611735912825596,0.13064506730376935,-0.06876056173882651,1495.970695970696,-1.0,100.42292368985596,1.9897575941998225,
2023-08-11 20:29:34.222000,-9.204819277108435,-1.2289156626506024,-3.024096385542169,-1.1820968730839976,-9.114040465971796,-2.6364193746167994,2.0,1.9831501831501832,504.2482452899889,0.32084377367286243,0.12889691742905507,-0.1281976574791679,1495.2380952380952,-1.0,100.42292368985596,1.9897139299143745,
2023-08-11 20:29:34.230000,-9.19277108433735,-1.2530120481927711,-3.0,-1.1698344573881054,-9.118945432250152,-2.6315144083384427,2.0,1.9831501831501832,504.2482452899889,0.21280811141541875,0.2785385467047372,-0.08286230406153484,1491.5750915750914,-1.0,100.42292368985596,1.9896696196007642,
2023-08-11 20:29:34.237000,-9.19277108433735,-1.2289156626506024,-3.0,-1.1453096259963211,-9.126302881667687,-2.6903740036787247,2.0,1.9831501831501832,504.2482452899889,0.23903035953615728,0.16665695472291897,-0.09626478643435707,1484.9816849816848,-1.0,100.42292368985596,1.9896246773219792,
2023-08-11 20:29:34.245000,-9.204819277108435,-1.2530120481927711,-3.036144578313253,-1.1673819742489269,-9.128755364806867,-2.6388718577559778,2.0,1.9831501831501832,504.2482452899889,0.1582658353242814,0.03927510051861826,-0.2611735912825592,1478.3882783882782,-1.0,100.42292368985596,1.9895791170350077,
2023-08-11 20:29:34.253000,-9.204819277108435,-1.2530120481927711,-3.0481927710843375,-1.2826486817903127,-9.13856529736358,-2.611894543225015,2.0,1.9831501831501832,504.2482452899889,0.14229939980187556,-0.11409591515645932,0.07621933453761437,1474.7252747252746,-1.0,100.42292368985596,1.9895329525728984,
2023-08-11 20:29:34.260000,-9.19277108433735,-1.2289156626506024,-3.060240963855422,-1.1894543225015328,-9.07725321888412,-2.7148988350705086,2.0,1.9831501831501832,504.2482452899889,-0.25581259833343073,-0.11514480508128859,0.3826117359128255,1473.9926739926739,-1.0,100.42292368985596,1.9894861976288811,
2023-08-11 20:29:34.268000,-9.228915662650603,-1.2409638554216869,-3.060240963855422,-1.1354996934396075,-9.099325567136725,-2.700183936235438,2.0,1.9831501831501832,504.2482452899889,-0.07248994813822088,0.053143756191363835,0.09102033681020923,1473.9926739926739,-1.0,100.42292368985596,1.9894388657425803,
2023-08-11 20:29:34.276000,-9.19277108433735,-1.2409638554216869,-3.0481927710843375,-1.1428571428571428,-9.111587982832617,-2.658491722869405,2.0,1.9831501831501832,504.2482452899889,-0.040557077093409194,-0.11561097838121367,0.30336227492570356,1474.7252747252746,-1.0,100.42292368985596,1.9893909702883183,
2023-08-11 20:29:34.283000,-9.216867469879519,-1.2409638554216869,-3.060240963855422,-1.1575720416922133,-9.160637645616186,-2.6462293071735132,2.0,1.9831501831501832,504.2482452899889,0.09719713303420506,-0.20430044869180033,-0.06584697861429996,1477.6556776556777,-1.0,100.42292368985596,1.9893425244655172,
2023-08-11 20:29:34.291000,-9.216867469879519,-1.216867469879518,-3.024096385542169,-1.1894543225015328,-9.109135499693439,-2.6315144083384427,2.0,1.9831501831501832,504.2482452899889,0.020278538546705464,0.011887419148067882,0.07097488491346653,1477.6556776556777,658.75244140625,91.08125636986937,1.9892935412911854,
2023-08-11 20:29:34.299000,-9.156626506024097,-1.2048192771084338,-3.0481927710843375,-1.0815450643776823,-9.082158185162477,-2.599632127529123,2.0,1.9831501831501832,504.2482452899889,0.0033797564244512,-0.2617563079074655,0.11537789173125114,1476.923076923077,-1.0,91.08125636986937,1.989244033594471,
2023-08-11 20:29:34.306000,-9.180722891566266,-1.216867469879518,-3.0481927710843375,-1.1477621091354997,-9.1704475781729,-2.633966891477621,2.0,1.9831501831501832,504.2482452899889,0.017831128722102692,-0.06153487559000141,0.14602878620127036,1477.6556776556777,-1.0,91.08125636986937,1.989194014013234,
2023-08-11 20:29:34.314000,-9.180722891566266,-1.2409638554216869,-3.072289156626506,-1.0938074800735744,-9.101778050275904,-2.6658491722869404,2.0,1.9831501831501832,504.2482452899889,-0.2569780315832408,-0.23075578346250228,-0.5264261989394556,1479.8534798534797,-1.0,91.08125636986937,1.9891434954505034,
2023-08-11 20:29:34.322000,-9.168674698795181,-1.216867469879518,-3.0481927710843375,-1.120784794604537,-9.062538320049049,-2.616799509503372,2.0,1.9816849816849815,504.6210720887246,0.01678223879727343,-0.4173416467571825,-0.370258143464833,1479.120879120879,-1.0,91.08125636986937,1.9890924905498555,
2023-08-11 20:29:34.329000,-9.180722891566266,-1.216867469879518,-3.060240963855422,-1.1673819742489269,-9.126302881667687,-2.592274678111588,2.0,1.9816849816849815,504.6210720887246,0.029135831245264657,-0.051395606316647816,-0.21234193811549454,1474.7252747252746,-1.0,91.08125636986937,1.9890410112418881,
2023-08-11 20:29:34.337000,-9.19277108433735,-1.216867469879518,-3.0481927710843375,-1.1305947271612506,-9.101778050275904,-2.6437768240343344,2.0,1.9816849816849815,504.6210720887246,0.05535807936600493,-0.11502826175630776,-0.17947672047083507,1470.3296703296703,-1.0,91.08125636986937,1.9889890691009993,
2023-08-11 20:29:34.345000,-9.240963855421688,-1.216867469879518,-3.0481927710843375,-1.0717351318209687,-9.133660331085224,-2.6486817903126916,2.0,1.9816849816849815,504.6210720887246,-0.19136413961890317,-0.3315657595711202,-0.3151331507487908,1464.4688644688645,-1.0,91.08125636986937,1.988936674856732,
2023-08-11 20:29:34.352000,-9.204819277108435,-1.2289156626506024,-3.0481927710843375,-1.1453096259963211,-9.109135499693439,-2.680564071122011,2.0,1.9831501831501832,504.2482452899889,0.008041489423693338,-0.044752636792727986,0.24975234543441527,1460.8058608058607,-1.0,91.08125636986937,1.9888838384654417,
2023-08-11 20:29:34.360000,-9.204819277108435,-1.2048192771084338,-3.0481927710843375,-1.0472103004291844,-9.123850398528509,-2.700183936235438,2.0,1.9816849816849815,504.6210720887246,-0.0071091428238449095,-0.4145446069576372,0.12563370432958448,1457.8754578754579,-1.0,91.08125636986937,1.9888305700961126,
2023-08-11 20:29:34.368000,-9.240963855421688,-1.2048192771084338,-3.024096385542169,-1.1600245248313916,-9.172900061312077,-2.6903740036787247,2.0,1.9816849816849815,504.6210720887246,-0.08402773731134625,-0.2132742847153421,-0.08903910028553111,1455.6776556776556,-1.0,91.08125636986937,1.9887768797112995,
2023-08-11 20:29:34.375000,-9.19277108433735,-1.216867469879518,-3.036144578313253,-1.1330472103004292,-9.172900061312077,-2.6683016554261187,2.0,1.9816849816849815,504.6210720887246,-0.08379465066138284,-0.3153662373987527,-0.19427772274342994,1452.7472527472526,-1.0,91.08125636986937,1.9887227765449906,
2023-08-11 20:29:34.383000,-9.204819277108435,-1.2409638554216869,-3.036144578313253,-1.137952176578786,-9.118945432250152,-2.6732066217044754,2.0,1.9816849816849815,504.6210720887246,0.036944234018996325,-0.2348347998368385,0.16094633179884626,1449.084249084249,-1.0,91.08125636986937,1.9886682695643216,
2023-08-11 20:29:34.391000,-9.19277108433735,-1.216867469879518,-3.0481927710843375,-1.120784794604537,-9.12139791538933,-2.6315144083384427,2.0,1.9816849816849815,504.6210720887246,0.020161995221722892,-0.21677058446477412,0.3278363731717265,1444.6886446886447,-1.0,91.08125636986937,1.9886133674742517,
2023-08-11 20:29:34.398000,-9.228915662650603,-1.2048192771084338,-3.060240963855422,-1.1477621091354997,-9.069895769466584,-2.6462293071735132,2.0,1.9802197802197803,504.9944506104328,0.09509935318454654,-0.015616805547461593,-0.3462502185187342,1441.7582417582416,-1.0,91.08125636986937,1.9885580787230173,
2023-08-11 20:29:34.406000,-9.204819277108435,-1.216867469879518,-3.060240963855422,-1.1330472103004292,-9.150827713059472,-2.658491722869405,2.0,1.9816849816849815,504.6210720887246,-0.015616805547461593,-0.07610279121263375,0.3302837829963288,1438.095238095238,-1.0,91.08125636986937,1.9885024110156728,
2023-08-11 20:29:34.414000,-9.204819277108435,-1.2048192771084338,-3.024096385542169,-1.1281422440220723,-9.145922746781116,-2.599632127529123,2.0,1.9816849816849815,504.6210720887246,0.07528698793776616,-0.07528698793776616,0.22189849076394155,1432.2344322344322,-1.0,91.08125636986937,1.9884463717414964,
2023-08-11 20:29:34.421000,-9.19277108433735,-1.2048192771084338,-3.0120481927710845,-1.1158798283261802,-9.104230533415082,-2.6879215205395464,2.0,1.9816849816849815,504.6210720887246,-0.0026804964745644456,-0.06025289901520874,-0.08507662723617508,1427.8388278388277,-1.0,91.08125636986937,1.9883899685060893,
2023-08-11 20:29:34.429000,-9.204819277108435,-1.2048192771084338,-3.036144578313253,-1.1428571428571428,-9.109135499693439,-2.6069895769466584,2.0,1.9816849816849815,504.6210720887246,0.17959326379581614,-0.10617096905774683,0.09976108618378889,1423.4432234432234,-1.0,91.08125636986937,1.9883332086811598,
2023-08-11 20:29:34.437000,-9.204819277108435,-1.2048192771084338,-3.024096385542169,-1.1404046597179645,-9.040465971796444,-2.6560392397302266,2.0,1.9802197802197803,504.9944506104328,0.1131635685566109,-0.3958976749606669,0.006176796223996265,1418.3150183150183,-1.0,91.08125636986937,1.9882760994128381,
2023-08-11 20:29:34.444000,-9.180722891566266,-1.1927710843373494,-3.060240963855422,-1.1722869405272838,-9.123850398528509,-2.592274678111588,2.0,1.9802197802197803,504.9944506104328,-0.024823728220966765,-0.2287745469378246,0.02225977507138272,1412.4542124542124,-1.0,91.08125636986937,1.9882186471379533,
2023-08-11 20:29:34.452000,-9.180722891566266,-1.2048192771084338,-3.036144578313253,-1.1011649294911097,-9.148375229920294,-2.6535867565910483,2.0,1.9802197802197803,504.9944506104328,0.26583532428180173,-0.12318629450498193,0.036128430744129164,1409.5238095238094,-1.0,91.08125636986937,1.98816085752143,
2023-08-11 20:29:34.460000,-9.168674698795181,-1.1927710843373494,-3.024096385542169,-1.0692826486817903,-9.072348252605764,-2.5971796443899446,2.0,1.9802197802197803,504.9944506104328,0.0632830254647157,-0.44601130470252376,-0.08589243051104245,1406.5934065934066,-1.0,91.08125636986937,1.9881027359187782,
2023-08-11 20:29:34.467000,-9.204819277108435,-1.2048192771084338,-3.036144578313253,-1.0987124463519313,-9.094420600858369,-2.629061925199264,2.0,1.9802197802197803,504.9944506104328,0.090204533535341,-0.41629275683235323,-0.083211934036478,1408.058608058608,-1.0,91.08125636986937,1.9880442873807191,
2023-08-11 20:29:34.475000,-9.216867469879519,-1.216867469879518,-3.036144578313253,-1.1330472103004292,-9.145922746781116,-2.65113427345187,2.0,1.9787545787545786,505.36838208071083,-0.12446827107977461,-0.2960200454518974,-0.15896509527416816,1408.7912087912086,-1.0,91.08125636986937,1.9879855166578138,
2023-08-11 20:29:34.483000,-9.228915662650603,-1.2048192771084338,-3.024096385542169,-1.179644389944819,-9.111587982832617,-2.609442060085837,2.0,1.9787545787545786,505.36838208071083,-0.12575024765456555,-0.22621059378824096,-0.0644484587145271,1410.2564102564102,-1.0,91.08125636986937,1.9879264281703453,
2023-08-11 20:29:34.490000,-9.204819277108435,-1.1927710843373494,-3.060240963855422,-1.155119558553035,-9.13856529736358,-2.658491722869405,2.0,1.9802197802197803,504.9944506104328,-0.12773148417924324,-0.2366994930365371,-0.06398228541460288,1412.4542124542124,-1.0,91.08125636986937,1.9878670258736446,
2023-08-11 20:29:34.498000,-9.204819277108435,-1.216867469879518,-3.024096385542169,-1.0717351318209687,-9.123850398528509,-2.658491722869405,2.0,1.9802197802197803,504.9944506104328,-0.13111124060369442,-0.3513781248179006,-0.15476953557485001,1415.3846153846152,-1.0,91.08125636986937,1.9878073132617013,
2023-08-11 20:29:34.506000,-9.216867469879519,-1.2289156626506024,-3.0481927710843375,-1.1526670754138564,-9.155732679337829,-2.641324340895156,2.0,1.9802197802197803,504.9944506104328,-0.008624206048599255,-0.3899539653866321,-0.3511450381679389,1418.3150183150183,-1.0,91.08125636986937,1.9877472935091458,
2023-08-11 20:29:34.513000,-9.216867469879519,-1.1927710843373494,-3.036144578313253,-1.1281422440220723,-9.09196811771919,-2.5726548129981603,2.0,1.9802197802197803,504.9944506104328,0.12516753102965963,-0.16642386807295556,0.20278538546704727,1421.245421245421,-1.0,91.08125636986937,1.9876869690510162,
2023-08-11 20:29:34.521000,-9.228915662650603,-1.216867469879518,-3.0481927710843375,-1.1575720416922133,-9.128755364806867,-2.599632127529123,2.0,1.9802197802197803,504.9944506104328,-0.10465590583299422,-0.3111706776994339,0.1088514655323117,1422.7106227106226,-1.0,91.08125636986937,1.9876263421110851,
2023-08-11 20:29:34.529000,-9.204819277108435,-1.216867469879518,-3.024096385542169,-1.1747394236664623,-9.074800735744942,-2.582464745554874,2.0,1.9802197802197803,504.9944506104328,0.0051279062991672186,-0.3907697686614997,0.3223588368976168,1424.1758241758241,-1.0,91.08125636986937,1.9875654146688364,
2023-08-11 20:29:34.536000,-9.228915662650603,-1.1927710843373494,-3.0120481927710845,-1.1232372777437154,-9.165542611894542,-2.6560392397302266,2.0,1.9802197802197803,504.9944506104328,-0.29788473865159426,-0.2861138628285072,-0.09381737660975473,1423.4432234432234,-1.0,91.08125636986937,1.9875041880390005,
2023-08-11 20:29:34.544000,-9.216867469879519,-1.1927710843373494,-3.024096385542169,-1.1526670754138564,-9.087063151440834,-2.6192519926425506,2.0,1.9802197802197803,504.9944506104328,0.011071615873200292,-0.28692966610337306,0.07680205116251963,1423.4432234432234,-1.0,91.08125636986937,1.987442663365587,
2023-08-11 20:29:34.552000,-9.204819277108435,-1.2048192771084338,-3.0481927710843375,-1.1281422440220723,-9.089515634580012,-2.6560392397302266,2.0,1.9802197802197803,504.9944506104328,-0.0768020511625205,0.06992599498863726,-0.21280811141541875,1424.9084249084249,-1.0,91.08125636986937,1.9873808416247194,
2023-08-11 20:29:34.559000,-9.228915662650603,-1.180722891566265,-3.036144578313253,-1.1673819742489269,-9.114040465971796,-2.621704475781729,2.0,1.9787545787545786,505.36838208071083,0.07785094108734976,-0.2611735912825596,-0.059320552415360314,1424.1758241758241,-1.0,91.08125636986937,1.9873187236290184,
2023-08-11 20:29:34.567000,-9.216867469879519,-1.2048192771084338,-3.0120481927710845,-1.0889025137952175,-9.13856529736358,-2.641324340895156,2.0,1.9787545787545786,505.36838208071083,-0.043121030242992804,-0.3925179185362157,0.24578987238505903,1423.4432234432234,-1.0,91.08125636986937,1.9872563095409745,
2023-08-11 20:29:34.575000,-9.204819277108435,-1.216867469879518,-3.0120481927710845,-1.196811771919068,-9.101778050275904,-2.6143470263641935,2.0,1.9787545787545786,505.36838208071083,-0.040440533768428356,-0.14020161995221703,-0.07621933453761437,1419.7802197802198,-1.0,91.08125636986937,1.9871935988085423,
2023-08-11 20:29:34.582000,-9.204819277108435,-1.216867469879518,-3.036144578313253,-1.1698344573881054,-9.133660331085224,-2.6364193746167994,2.0,1.9787545787545786,505.36838208071083,-0.0680613017889404,0.07924946098712153,-0.30662548802517325,1414.6520146520145,-1.0,91.08125636986937,1.9871305906270469,
2023-08-11 20:29:34.590000,-9.216867469879519,-1.2048192771084338,-3.036144578313253,-1.1526670754138564,-9.133660331085224,-2.6192519926425506,2.0,1.9787545787545786,505.36838208071083,-0.18984907639414883,-0.17714585397121335,-0.15523570887477423,1409.5238095238094,-1.0,91.08125636986937,1.9870672839444925,
2023-08-11 20:29:34.597000,-9.216867469879519,-1.1927710843373494,-3.0,-1.1232372777437154,-9.158185162477007,-2.5947271612507663,2.0,1.9787545787545786,505.36838208071083,-0.06631315191422439,-0.14288211642678147,-0.26105704795757834,1405.8608058608058,-1.0,91.08125636986937,1.987003677468225,
2023-08-11 20:29:34.605000,-9.204819277108435,-1.1927710843373494,-3.036144578313253,-1.1575720416922133,-9.079705702023299,-2.658491722869405,2.0,1.9787545787545786,505.36838208071083,-0.14253248645183897,0.07388846803799265,-0.09206922673503871,1400.7326007326005,-1.0,91.08125636986937,1.9869397696730366,
2023-08-11 20:29:34.613000,-9.19277108433735,-1.2048192771084338,-3.0120481927710845,-1.1820968730839976,-9.163090128755364,-2.700183936235438,2.0,1.9787545787545786,505.36838208071083,0.1343744537031648,-0.036128430744128734,-0.15383718897500137,1394.8717948717947,-1.0,91.08125636986937,1.9868755588107738,
2023-08-11 20:29:34.620000,-9.19277108433735,-1.2048192771084338,-3.0120481927710845,-1.1673819742489269,-9.133660331085224,-2.60453709380748,2.0,1.9787545787545786,505.36838208071083,0.23798146961132802,0.0045451896742613,-0.2755084202552298,1389.0109890109889,-1.0,91.08125636986937,1.9868110429215293,
2023-08-11 20:29:34.628000,-9.204819277108435,-1.2048192771084338,-3.0,-1.1673819742489269,-9.126302881667687,-2.641324340895156,2.0,1.9772893772893774,505.74286772878844,-0.19206339956878993,-0.020395081871686302,0.15500262222481212,1381.6849816849815,-1.0,91.08125636986937,1.9867462198464645,
2023-08-11 20:29:34.636000,-9.19277108433735,-1.2048192771084338,-3.0120481927710845,-1.1232372777437154,-9.116492949110974,-2.663396689147762,2.0,1.9772893772893774,505.74286772878844,-0.009789639298409356,-0.2146728046151156,0.018064215372064582,1379.4871794871794,-1.0,91.08125636986937,1.9866810872075222,
2023-08-11 20:29:34.643000,-9.19277108433735,-1.216867469879518,-3.0,-1.1011649294911097,-9.136112814224402,-2.5971796443899446,2.0,1.9787545787545786,505.36838208071083,-0.0564069692908342,-0.013285939047841392,-0.25522988170852523,1378.021978021978,-1.0,91.08125636986937,1.9866156427421036,
2023-08-11 20:29:34.651000,-9.19277108433735,-1.2048192771084338,-3.024096385542169,-1.1820968730839976,-9.094420600858369,-2.6535867565910483,2.0,1.9787545787545786,505.36838208071083,0.17026979779733184,0.10873492220733044,-0.2798205232795292,1378.021978021978,-1.0,91.08125636986937,1.986549884252538,
2023-08-11 20:29:34.659000,-9.216867469879519,-1.216867469879518,-3.0120481927710845,-1.1477621091354997,-9.160637645616186,-2.5652973635806253,2.0,1.9787545787545786,505.36838208071083,0.09090379348522774,-0.33389662607074216,-0.10593788240778515,1378.7545787545787,-1.0,91.08125636986937,1.9864838088165298,
2023-08-11 20:29:34.666000,-9.228915662650603,-1.2048192771084338,-3.036144578313253,-1.1477621091354997,-9.148375229920294,-2.6388718577559778,2.0,1.9787545787545786,505.36838208071083,-0.11188159198181996,-0.11094924538197154,-0.05594079599090955,1380.2197802197802,-1.0,91.08125636986937,1.9864174129119516,
2023-08-11 20:29:34.674000,-9.228915662650603,-1.1927710843373494,-3.060240963855422,-1.1354996934396075,-9.109135499693439,-2.5898221949724096,2.0,1.9787545787545786,505.36838208071083,0.14486335295145916,-0.31723093059844953,-0.2047666219917254,1383.150183150183,-1.0,91.08125636986937,1.986350692929172,
2023-08-11 20:29:34.682000,-9.228915662650603,-1.2048192771084338,-3.036144578313253,-1.0839975475168608,-9.104230533415082,-2.6609442060085837,2.0,1.9787545787545786,505.36838208071083,0.033447934269564286,-0.18390536682011577,-0.14008507662723618,1385.3479853479853,-1.0,91.08125636986937,1.9862836451926391,
2023-08-11 20:29:34.689000,-9.216867469879519,-1.2048192771084338,-3.0481927710843375,-1.1158798283261802,-9.109135499693439,-2.700183936235438,2.0,1.9772893772893774,505.74286772878844,-0.15045743255055147,-0.015733348872444163,0.12190431793019056,1388.278388278388,-1.0,91.08125636986937,1.9862162659843792,
2023-08-11 20:29:34.697000,-9.19277108433735,-1.2048192771084338,-3.060240963855422,-1.1060698957694666,-9.089515634580012,-2.6266094420600856,2.0,1.9787545787545786,505.36838208071083,-0.026804964745644456,-0.31862945049822305,-0.15383718897500137,1388.278388278388,-1.0,91.08125636986937,1.9861485515346344,
2023-08-11 20:29:34.705000,-9.204819277108435,-1.1927710843373494,-3.0120481927710845,-1.1060698957694666,-9.150827713059472,-2.621704475781729,2.0,1.9772893772893774,505.74286772878844,0.01829730202202604,-0.4506730377017659,-0.04626770001748146,1389.7435897435896,-1.0,91.08125636986937,1.9860804979445843,
2023-08-11 20:29:34.712000,-9.216867469879519,-1.216867469879518,-3.024096385542169,-1.061925199264255,-9.114040465971796,-2.6143470263641935,2.0,1.9787545787545786,505.36838208071083,0.050113629741856874,-0.6548569430685854,0.04510226676767093,1390.4761904761904,-1.0,91.08125636986937,1.9860121008263274,
2023-08-11 20:29:34.720000,-9.204819277108435,-1.216867469879518,-3.024096385542169,-1.1575720416922133,-9.12139791538933,-2.5775597792765175,2.0,1.9772893772893774,505.74286772878844,0.11269739525668582,-0.13752112347765258,-0.24777110890973716,1391.2087912087911,-1.0,91.08125636986937,1.9859433557880466,
2023-08-11 20:29:34.728000,-9.19277108433735,-1.2289156626506024,-3.024096385542169,-1.1820968730839976,-9.084610668301655,-2.6069895769466584,2.0,1.9772893772893774,505.74286772878844,0.08239613076161106,-0.13216013052852368,-0.11071615873200856,1389.7435897435896,-1.0,91.08125636986937,1.9858742584975975,
2023-08-11 20:29:34.735000,-9.216867469879519,-1.2530120481927711,-3.0481927710843375,-1.1011649294911097,-9.10668301655426,-2.6364193746167994,2.0,1.9772893772893774,505.74286772878844,-0.20604859856651633,0.08903910028553089,-0.21886836431443396,1389.0109890109889,-1.0,91.08125636986937,1.985804804185397,
2023-08-11 20:29:34.743000,-9.228915662650603,-1.2530120481927711,-3.0481927710843375,-1.1305947271612506,-9.104230533415082,-2.633966891477621,2.0,1.9772893772893774,505.74286772878844,0.14847619602587203,0.21665404113979328,-0.020511625196666706,1389.7435897435896,-1.0,91.08125636986937,1.985734988131469,
2023-08-11 20:29:34.751000,-9.216867469879519,-1.216867469879518,-3.024096385542169,-1.103617412630288,-9.072348252605764,-2.6535867565910483,2.0,1.9787545787545786,505.36838208071083,-0.21886836431443438,-0.04113979371831512,-0.21828564768952846,1391.9413919413919,-1.0,91.08125636986937,1.9856648056957114,
2023-08-11 20:29:34.758000,-9.204819277108435,-1.2048192771084338,-3.036144578313253,-1.1281422440220723,-9.089515634580012,-2.60453709380748,2.0,1.9772893772893774,505.74286772878844,0.07552007458772783,-0.17586387739642242,0.029368917895227633,1395.6043956043954,-1.0,91.08125636986937,1.985594252841873,
2023-08-11 20:29:34.766000,-9.204819277108435,-1.1927710843373494,-3.024096385542169,-1.1305947271612506,-9.111587982832617,-2.6192519926425506,2.0,1.9772893772893774,505.74286772878844,0.07668550783753793,-0.17633005069634577,0.028786201270322147,1398.5347985347985,-1.0,91.08125636986937,1.9855233262072298,
2023-08-11 20:29:34.774000,-9.19277108433735,-1.2048192771084338,-3.036144578313253,-1.1183323114653587,-9.143470263641937,-2.6069895769466584,2.0,1.9772893772893774,505.74286772878844,0.13542334362799405,-0.3272536565468206,0.13472408367810731,1399.2673992673992,-1.0,91.08125636986937,1.9854520220861585,
2023-08-11 20:29:34.781000,-9.19277108433735,-1.1927710843373494,-3.0481927710843375,-1.0815450643776823,-9.15328019619865,-2.609442060085837,2.0,1.9758241758241757,506.1179087875417,0.2421770293106468,-0.3865742089621809,-0.2777227434298701,1394.8717948717947,-1.0,91.08125636986937,1.9853803369593757,
2023-08-11 20:29:34.789000,-9.204819277108435,-1.2048192771084338,-3.024096385542169,-1.0839975475168608,-9.111587982832617,-2.6192519926425506,2.0,1.9758241758241757,506.1179087875417,0.04288794359303113,-0.37002505681487086,0.18192413029543741,1391.2087912087911,-1.0,91.08125636986937,1.9853082674613571,
2023-08-11 20:29:34.797000,-9.204819277108435,-1.216867469879518,-3.0481927710843375,-1.0938074800735744,-9.18761496014715,-2.6241569589209073,2.0,1.9772893772893774,505.74286772878844,-0.07808402773731143,-0.5204824893654223,-0.2461395023600024,1389.0109890109889,-1.0,91.08125636986937,1.985235809855054,
2023-08-11 20:29:34.804000,-9.204819277108435,-1.2048192771084338,-3.036144578313253,-1.1158798283261802,-9.118945432250152,-2.6658491722869404,2.0,1.9772893772893774,505.74286772878844,0.10675368568265274,-0.565002039508187,-0.5046325971679971,1389.7435897435896,-1.0,91.08125636986937,1.9851629610162784,
2023-08-11 20:29:34.812000,-9.19277108433735,-1.1927710843373494,-3.036144578313253,-1.0815450643776823,-9.15328019619865,-2.60453709380748,2.0,1.9772893772893774,505.74286772878844,-0.2292407202377479,-0.011304702523163701,-0.3957811316356856,1389.7435897435896,-1.0,91.08125636986937,1.985089718538881,
2023-08-11 20:29:34.820000,-9.216867469879519,-1.2048192771084338,-3.0120481927710845,-1.074187614960147,-9.111587982832617,-2.6437768240343344,2.0,1.9758241758241757,506.1179087875417,0.1695705378474451,0.1881009265194328,-0.3763183963638482,1387.5457875457876,-1.0,91.08125636986937,1.9850160798566086,
2023-08-11 20:29:34.827000,-9.228915662650603,-1.216867469879518,-3.0481927710843375,-1.1820968730839976,-9.101778050275904,-2.658491722869405,2.0,1.9772893772893774,505.74286772878844,0.276207680205117,0.26432026105704737,-0.3438028086941319,1385.3479853479853,-1.0,91.08125636986937,1.984942042312753,
2023-08-11 20:29:34.835000,-9.240963855421688,-1.2048192771084338,-3.024096385542169,-1.1354996934396075,-9.175352544451256,-2.6560392397302266,2.0,1.9758241758241757,506.1179087875417,0.07505390128780448,0.47957578229706893,-0.20243575549210432,1383.8827838827838,-1.0,91.08125636986937,1.9848676040384652,
2023-08-11 20:29:34.843000,-9.228915662650603,-1.2048192771084338,-3.072289156626506,-1.125689760882894,-9.141017780502759,-2.621704475781729,2.0,1.9772893772893774,505.74286772878844,0.27189557718081736,0.28063632655439574,0.24136122603577878,1382.4175824175823,-1.0,91.08125636986937,1.9847927635286693,
2023-08-11 20:29:34.850000,-9.228915662650603,-1.2048192771084338,-3.0481927710843375,-1.1330472103004292,-9.246474555487431,-2.616799509503372,2.0,1.9758241758241757,506.1179087875417,0.23809801293630886,0.496591107744304,0.11829147485577769,1383.8827838827838,-1.0,91.08125636986937,1.9847175196401625,
2023-08-11 20:29:34.858000,-9.19277108433735,-1.180722891566265,-3.024096385542169,-1.0987124463519313,-9.133660331085224,-2.633966891477621,2.0,1.9758241758241757,506.1179087875417,0.18984907639414883,0.19217994289377077,-0.21875182098945267,1386.080586080586,-1.0,91.08125636986937,1.9846418716581906,
2023-08-11 20:29:34.866000,-9.180722891566266,-1.180722891566265,-3.0,-1.1477621091354997,-9.067443286327405,-2.6364193746167994,2.0,1.9758241758241757,506.1179087875417,0.21735330108968004,0.37655148301380986,0.04032399044344752,1392.6739926739926,-1.0,91.08125636986937,1.984565818799704,
2023-08-11 20:29:34.873000,-9.180722891566266,-1.1927710843373494,-3.0,-1.0766400980993256,-9.128755364806867,-2.705088902513795,2.0,1.9758241758241757,506.1179087875417,-0.09008799021036015,0.00827457607365501,-0.09777984965911098,1402.9304029304028,-1.0,91.08125636986937,1.9844893606981178,
2023-08-11 20:29:34.881000,-9.204819277108435,-1.2048192771084338,-3.024096385542169,-1.1330472103004292,-9.055180870631514,-2.616799509503372,2.0,1.9758241758241757,506.1179087875417,-0.10570479575782349,0.2384476429112531,-0.4006759512848903,1413.9194139194137,-1.0,91.08125636986937,1.9844124974286377,
2023-08-11 20:29:34.889000,-9.19277108433735,-1.2048192771084338,-3.036144578313253,-1.0668301655426118,-9.109135499693439,-2.71244635193133,2.0,1.9758241758241757,506.1179087875417,0.3224753802225976,-0.5887768778043244,-0.26094050463259705,1423.4432234432234,-1.0,91.08125636986937,1.9843352295319956,
2023-08-11 20:29:34.896000,-9.216867469879519,-1.1927710843373494,-3.024096385542169,-1.137952176578786,-9.150827713059472,-2.6020846106683013,2.0,1.9758241758241757,506.1179087875417,0.14905891265077795,-0.2955538721519723,-0.21304119806538085,1435.164835164835,-1.0,91.08125636986937,1.9842575580365647,
2023-08-11 20:29:34.904000,-9.216867469879519,-1.216867469879518,-3.024096385542169,-1.1526670754138564,-9.114040465971796,-2.6732066217044754,2.0,1.9758241758241757,506.1179087875417,0.11619369500611786,0.04288794359303113,-0.33308082279587453,1446.153846153846,-1.0,91.08125636986937,1.9841794844788134,
2023-08-11 20:29:34.912000,-9.19277108433735,-1.2048192771084338,-3.024096385542169,-1.103617412630288,-9.104230533415082,-2.6535867565910483,2.0,1.9758241758241757,506.1179087875417,0.18926635976924464,-0.1412505098770463,-0.3461336751937534,1454.9450549450548,-1.0,91.08125636986937,1.9841010109221107,
2023-08-11 20:29:34.919000,-9.19277108433735,-1.2048192771084338,-3.036144578313253,-1.0938074800735744,-9.072348252605764,-2.633966891477621,2.0,1.9758241758241757,506.1179087875417,0.15663422877454622,-0.04848202319212169,-0.18914981644426293,1462.2710622710622,-1.0,91.08125636986937,1.9840221399738545,
2023-08-11 20:29:34.927000,-9.204819277108435,-1.216867469879518,-3.036144578313253,-1.150214592274678,-9.128755364806867,-2.6020846106683013,2.0,1.9758241758241757,506.1179087875417,0.24590641571004052,0.05943709574034115,-0.29403880892721884,1468.8644688644688,-1.0,91.08125636986937,1.9839428748009413,
2023-08-11 20:29:34.935000,-9.216867469879519,-1.2048192771084338,-3.0120481927710845,-1.137952176578786,-9.084610668301655,-2.6020846106683013,2.0,1.9743589743589745,506.49350649350646,0.397063108210477,0.3026630149758172,0.044403006817784606,1471.062271062271,-1.0,91.08125636986937,1.983863219143582,
2023-08-11 20:29:34.942000,-9.19277108433735,-1.1927710843373494,-3.0,-1.1600245248313916,-9.13856529736358,-2.621704475781729,2.0,1.9743589743589745,506.49350649350646,0.37899889283841265,0.3477652817434877,-0.18262339024532395,1473.9926739926739,-1.0,91.08125636986937,1.983783177292684,
2023-08-11 20:29:34.950000,-9.204819277108435,-1.2048192771084338,-3.024096385542169,-1.150214592274678,-9.18761496014715,-2.599632127529123,2.0,1.9743589743589745,506.49350649350646,0.2999825185012528,0.5604568498339256,-0.40790163743371605,1476.1904761904761,-1.0,91.08125636986937,1.9837027539609806,
2023-08-11 20:29:34.958000,-9.228915662650603,-1.1927710843373494,-3.0,-1.0987124463519313,-9.12139791538933,-2.6388718577559778,2.0,1.9743589743589745,506.49350649350646,-0.02284249169628734,0.025056814870928437,-0.4166423868072957,1476.1904761904761,-1.0,91.08125636986937,1.983621953798078,
2023-08-11 20:29:34.965000,-9.216867469879519,-1.216867469879518,-2.987951807228916,-1.0938074800735744,-9.109135499693439,-2.6069895769466584,2.0,1.9743589743589745,506.49350649350646,0.5575432667093995,0.25709457490822163,-0.38121321601305286,1474.7252747252746,-1.0,91.08125636986937,1.9835407819205049,
2023-08-11 20:29:34.973000,-9.204819277108435,-1.1927710843373494,-3.0120481927710845,-1.1158798283261802,-9.094420600858369,-2.5898221949724096,2.0,1.9743589743589745,506.49350649350646,0.006526426198938992,-0.09171959676009533,-0.23891381621117644,1473.260073260073,-1.0,91.08125636986937,1.983459243877153,
2023-08-11 20:29:34.980000,-9.216867469879519,-1.1927710843373494,-3.0,-1.1183323114653587,-9.143470263641937,-2.592274678111588,2.0,1.9743589743589745,506.49350649350646,0.358137637666803,0.08053143756191421,-0.3724724666394732,1472.5274725274724,-1.0,91.08125636986937,1.9833773452240786,
2023-08-11 20:29:34.988000,-9.204819277108435,-1.2048192771084338,-3.024096385542169,-1.0938074800735744,-9.126302881667687,-2.658491722869405,2.0,1.9743589743589745,506.49350649350646,0.3419381154944355,-0.037760037293863916,-0.4589476137754209,1473.9926739926739,-1.0,91.08125636986937,1.98329509246845,
2023-08-11 20:29:34.996000,-9.216867469879519,-1.2289156626506024,-3.0,-1.1305947271612506,-9.194972409564684,-2.6143470263641935,2.0,1.9743589743589745,506.49350649350646,0.1128139385816684,0.029485461220208904,-0.10349047258318282,1474.7252747252746,-1.0,91.08125636986937,1.9832124925350838,
2023-08-11 20:29:35.003000,-9.204819277108435,-1.2048192771084338,-3.0120481927710845,-1.1011649294911097,-9.143470263641937,-2.6658491722869404,2.0,1.9743589743589745,506.49350649350646,0.221432317464018,0.4606957636501369,-0.36116776411631035,1476.923076923077,-1.0,91.08125636986937,1.9831295523353756,
2023-08-11 20:29:35.011000,-9.240963855421688,-1.1927710843373494,-2.987951807228916,-1.0717351318209687,-9.131207847946046,-2.633966891477621,2.0,1.9743589743589745,506.49350649350646,0.5432084377367289,0.3229415535225227,-0.35848726764174593,1478.3882783882782,-1.0,91.08125636986937,1.983046279247926,
2023-08-11 20:29:35.019000,-9.228915662650603,-1.216867469879518,-3.024096385542169,-1.1526670754138564,-9.165542611894542,-2.6609442060085837,2.0,1.9743589743589745,506.49350649350646,0.26676767088165015,0.5388963347124293,-0.3102383310995863,1476.923076923077,666.412353515625,90.03434537711225,1.9829626811051901,
2023-08-11 20:29:35.026000,-9.216867469879519,-1.216867469879518,-3.0,-1.155119558553035,-9.126302881667687,-2.6658491722869404,2.0,1.9743589743589745,506.49350649350646,0.6465823669949304,0.3545247945923901,-0.01713186877221594,1475.4578754578754,-1.0,90.03434537711225,1.982878766178999,
2023-08-11 20:29:35.034000,-9.216867469879519,-1.2048192771084338,-3.024096385542169,-1.213979153893317,-9.099325567136725,-2.6020846106683013,2.0,1.9743589743589745,506.49350649350646,0.30580968475030673,0.33902453236990937,-0.521298292640289,1473.9926739926739,-1.0,90.03434537711225,1.982794543165123,
2023-08-11 20:29:35.042000,-9.19277108433735,-1.1927710843373494,-3.036144578313253,-1.108522378908645,-9.10668301655426,-2.629061925199264,2.0,1.9728937728937728,506.86966208689194,0.30254647165083637,0.3369267525202491,-0.5181516228658004,1472.5274725274724,-1.0,90.03434537711225,1.9827100211670472,
2023-08-11 20:29:35.049000,-9.19277108433735,-1.180722891566265,-3.0481927710843375,-1.0643776824034334,-9.10668301655426,-2.616799509503372,2.0,1.9743589743589745,506.49350649350646,0.46722218984907593,0.09102033681020859,-0.4059204009090379,1470.3296703296703,-1.0,90.03434537711225,1.9826252096443568,
2023-08-11 20:29:35.057000,-9.19277108433735,-1.2048192771084338,-3.060240963855422,-1.0521152667075413,-9.114040465971796,-2.6143470263641935,2.0,1.9728937728937728,506.86966208689194,0.2490530854845283,0.7165083619835677,-0.17318338092185753,1468.8644688644688,-1.0,90.03434537711225,1.9825401182908322,
2023-08-11 20:29:35.065000,-9.180722891566266,-1.2048192771084338,-3.0481927710843375,-1.1943592887798895,-9.114040465971796,-2.6143470263641935,2.0,1.9728937728937728,506.86966208689194,0.2150224345900581,0.03997436046850501,-0.3067420313501543,1466.6666666666665,-1.0,90.03434537711225,1.9824547570855244,
2023-08-11 20:29:35.072000,-9.180722891566266,-1.216867469879518,-3.0481927710843375,-1.1354996934396075,-9.084610668301655,-2.6462293071735132,2.0,1.9743589743589745,506.49350649350646,0.31909562379814643,0.13320902045335295,-0.3969465648854962,1463.003663003663,-1.0,90.03434537711225,1.9823691361692686,
2023-08-11 20:29:35.080000,-9.19277108433735,-1.2048192771084338,-3.024096385542169,-1.1281422440220723,-9.094420600858369,-2.670754138565297,2.0,1.9728937728937728,506.86966208689194,0.36081813414136743,0.303362274925704,-0.196142415943127,1457.142857142857,-1.0,90.03434537711225,1.9822832662825716,
2023-08-11 20:29:35.088000,-9.204819277108435,-1.216867469879518,-3.024096385542169,-1.1232372777437154,-9.118945432250152,-2.641324340895156,2.0,1.9714285714285715,507.2463768115942,0.5834158848551956,0.22749257036303192,-0.2400792494609874,1448.3516483516482,-1.0,90.03434537711225,1.9821971578663153,
2023-08-11 20:29:35.095000,-9.204819277108435,-1.2048192771084338,-3.0481927710843375,-1.1305947271612506,-9.072348252605764,-2.6241569589209073,2.0,1.9714285714285715,507.2463768115942,0.6245556785735089,-0.07552007458772783,-0.19148068294388446,1439.5604395604394,-1.0,90.03434537711225,1.982110820548038,
2023-08-11 20:29:35.103000,-9.180722891566266,-1.2289156626506024,-3.036144578313253,-1.1134273451870018,-9.158185162477007,-2.6437768240343344,2.0,1.9714285714285715,507.2463768115942,0.06841093176388291,0.12644950760445228,-0.24975234543441507,1430.7692307692307,-1.0,90.03434537711225,1.982024263927122,
2023-08-11 20:29:35.111000,-9.216867469879519,-1.2048192771084338,-3.036144578313253,-1.0717351318209687,-9.101778050275904,-2.702636419374617,2.0,1.9728937728937728,506.86966208689194,0.11351319853155341,0.13041198065380769,-0.2287745469378237,1420.5128205128203,-1.0,90.03434537711225,1.9819374975131308,
2023-08-11 20:29:35.118000,-9.216867469879519,-1.216867469879518,-3.036144578313253,-1.1747394236664623,-9.13856529736358,-2.6241569589209073,2.0,1.9714285714285715,507.2463768115942,-0.07447118466289857,0.13204358720354287,-0.22259775071382767,1412.4542124542124,-1.0,90.03434537711225,1.9818505311908619,
2023-08-11 20:29:35.126000,-9.228915662650603,-1.216867469879518,-3.0120481927710845,-1.1870018393623543,-9.116492949110974,-2.633966891477621,2.0,1.9728937728937728,506.86966208689194,0.16770584464774824,0.16490880484820297,-0.3386749023949651,1406.5934065934066,-1.0,90.03434537711225,1.9817633747717651,
2023-08-11 20:29:35.134000,-9.216867469879519,-1.2409638554216869,-3.024096385542169,-1.1747394236664623,-9.111587982832617,-2.6388718577559778,2.0,1.9728937728937728,506.86966208689194,0.2856476895285821,0.34858108501835533,-0.5005535807936603,1402.9304029304028,-1.0,90.03434537711225,1.9816760379337541,
2023-08-11 20:29:35.141000,-9.240963855421688,-1.216867469879518,-3.0481927710843375,-1.1575720416922133,-9.07725321888412,-2.641324340895156,2.0,1.9728937728937728,506.86966208689194,0.09859565293397857,0.34636676184371595,-0.5547462269098533,1400.0,-1.0,90.03434537711225,1.9815885307235257,
2023-08-11 20:29:35.149000,-9.216867469879519,-1.2048192771084338,-3.036144578313253,-1.1477621091354997,-9.141017780502759,-2.6143470263641935,2.0,1.9728937728937728,506.86966208689194,0.0816968708117243,0.3287687197715749,-0.23262047666219912,1401.4652014652013,-1.0,90.03434537711225,1.9815008630767528,
2023-08-11 20:29:35.157000,-9.216867469879519,-1.2289156626506024,-3.0120481927710845,-1.1404046597179645,-9.084610668301655,-2.616799509503372,2.0,1.9728937728937728,506.86966208689194,0.4461278480275046,0.16211176504865768,-0.30592622807528674,1399.2673992673992,-1.0,90.03434537711225,1.9814130447972431,
2023-08-11 20:29:35.164000,-9.216867469879519,-1.2048192771084338,-3.0120481927710845,-1.155119558553035,-9.13856529736358,-2.629061925199264,2.0,1.9728937728937728,506.86966208689194,0.22900763358778625,0.3903035953615763,-0.4409999417283374,1396.3369963369962,-1.0,90.03434537711225,1.981325085537442,
2023-08-11 20:29:35.172000,-9.180722891566266,-1.1927710843373494,-3.0481927710843375,-1.1354996934396075,-9.16799509503372,-2.6683016554261187,2.0,1.9714285714285715,507.2463768115942,0.5169861896159903,0.05279412621642132,0.0026804964745644456,1396.3369963369962,-1.0,90.03434537711225,1.9812369947804682,
2023-08-11 20:29:35.180000,-9.216867469879519,-1.2048192771084338,-3.024096385542169,-1.1158798283261802,-9.145922746781116,-2.621704475781729,2.0,1.9714285714285715,507.2463768115942,0.5887768778043244,0.17621350737136493,-0.3167647572985253,1400.0,-1.0,90.03434537711225,1.9811487813312598,
2023-08-11 20:29:35.187000,-9.19277108433735,-1.180722891566265,-3.036144578313253,-1.1575720416922133,-9.12139791538933,-2.6437768240343344,2.0,1.9714285714285715,507.2463768115942,0.4160596701823898,-0.06608006526426272,-0.224112813938582,1402.9304029304028,-1.0,90.03434537711225,1.9810604532301495,
2023-08-11 20:29:35.195000,-9.19277108433735,-1.1927710843373494,-3.024096385542169,-1.1771919068056407,-9.114040465971796,-2.609442060085837,2.0,1.9714285714285715,507.2463768115942,0.291008682477711,0.05827166249053105,-0.19206339956878948,1407.3260073260071,-1.0,90.03434537711225,1.9809720181930848,
2023-08-11 20:29:35.203000,-9.204819277108435,-1.2048192771084338,-3.024096385542169,-1.2434089515634579,-9.123850398528509,-2.609442060085837,2.0,1.9714285714285715,507.2463768115942,0.10675368568265274,-0.5201328593904782,-0.022143231746401454,1411.7216117216117,-1.0,90.03434537711225,1.9808834840535636,
2023-08-11 20:29:35.210000,-9.19277108433735,-1.2048192771084338,-3.036144578313253,-1.179644389944819,-9.109135499693439,-2.6486817903126916,2.0,1.9714285714285715,507.2463768115942,0.4106986772332609,-0.3122195676242649,-0.2964862187518212,1416.117216117216,-1.0,90.03434537711225,1.9807948586813415,
2023-08-11 20:29:35.218000,-9.204819277108435,-1.2048192771084338,-3.0120481927710845,-1.1698344573881054,-9.079705702023299,-2.675659104843654,2.0,1.9714285714285715,507.2463768115942,0.16397645824835452,-0.3088398111998137,-0.21688712778975627,1415.3846153846152,-1.0,90.03434537711225,1.9807061494820923,
2023-08-11 20:29:35.226000,-9.19277108433735,-1.2289156626506024,-3.036144578313253,-1.1820968730839976,-9.13856529736358,-2.6535867565910483,2.0,1.9714285714285715,507.2463768115942,0.07179068818833412,-0.21385700134024802,-0.0462677000174819,1413.1868131868132,-1.0,90.03434537711225,1.9806173633913298,
2023-08-11 20:29:35.233000,-9.204819277108435,-1.2409638554216869,-3.024096385542169,-1.1820968730839976,-9.172900061312077,-2.629061925199264,2.0,1.9714285714285715,507.2463768115942,0.08764058038575911,-0.31804673387331717,-0.21327428471534252,1412.4542124542124,-1.0,90.03434537711225,1.9805285064122002,
2023-08-11 20:29:35.241000,-9.216867469879519,-1.2409638554216869,-3.0120481927710845,-1.1453096259963211,-9.185162477007971,-2.6609442060085837,2.0,1.9699633699633703,507.6236519152101,0.3162985839986011,0.037760037293863916,-0.05803857584056851,1412.4542124542124,-1.0,90.03434537711225,1.980439583680301,
2023-08-11 20:29:35.249000,-9.228915662650603,-1.2530120481927711,-2.987951807228916,-1.1747394236664623,-9.09196811771919,-2.60453709380748,2.0,1.9699633699633703,507.6236519152101,0.2838995396538661,0.09999417283375035,-0.07202377483829622,1414.6520146520145,-1.0,90.03434537711225,1.9803505999168634,
2023-08-11 20:29:35.256000,-9.216867469879519,-1.2530120481927711,-3.036144578313253,-1.1330472103004292,-9.150827713059472,-2.582464745554874,2.0,1.9699633699633703,507.6236519152101,0.4038226210593794,0.46617329992424666,-0.16351028494842945,1415.3846153846152,-1.0,90.03434537711225,1.9802615592874413,
2023-08-11 20:29:35.264000,-9.204819277108435,-1.2289156626506024,-3.024096385542169,-1.213979153893317,-9.126302881667687,-2.6535867565910483,2.0,1.9699633699633703,507.6236519152101,0.5379639881125808,0.5535807936600424,0.007808402773730796,1413.9194139194137,-1.0,90.03434537711225,1.9801724653669204,
2023-08-11 20:29:35.272000,-9.228915662650603,-1.2289156626506024,-3.0120481927710845,-1.1575720416922133,-9.07725321888412,-2.633966891477621,2.0,1.9699633699633703,507.6236519152101,0.4695530563486979,0.39601421828564776,-0.4763125691975994,1412.4542124542124,-1.0,90.03434537711225,1.9800833211411124,
2023-08-11 20:29:35.279000,-9.19277108433735,-1.2409638554216869,-3.0120481927710845,-1.1354996934396075,-9.141017780502759,-2.633966891477621,2.0,1.9699633699633703,507.6236519152101,0.47934269564710724,0.05768894586562513,0.033447934269565154,1410.989010989011,-1.0,90.03434537711225,1.9799941290102518,
2023-08-11 20:29:35.287000,-9.19277108433735,-1.2409638554216869,-3.024096385542169,-1.1870018393623543,-9.06008583690987,-2.6683016554261187,2.0,1.9699633699633703,507.6236519152101,0.21443971796515393,-0.03507954081929947,-0.10022725948371289,1407.3260073260071,-1.0,90.03434537711225,1.9799048907945116,
2023-08-11 20:29:35.295000,-9.19277108433735,-1.216867469879518,-3.036144578313253,-1.2066217044757817,-9.09196811771919,-2.60453709380748,2.0,1.9699633699633703,507.6236519152101,0.15104014917545566,-0.06677932521414773,-0.20511625196666877,1402.9304029304028,-1.0,90.03434537711225,1.97981560774164,
2023-08-11 20:29:35.302000,-9.180722891566266,-1.216867469879518,-3.036144578313253,-1.1698344573881054,-9.079705702023299,-2.6364193746167994,2.0,1.9699633699633703,507.6236519152101,0.24019579278596737,-0.5851640347299115,0.04300448691801197,1398.5347985347985,-1.0,90.03434537711225,1.9797262805368065,
2023-08-11 20:29:35.310000,-9.204819277108435,-1.2048192771084338,-3.024096385542169,-1.1060698957694666,-9.1704475781729,-2.629061925199264,2.0,1.9699633699633703,507.6236519152101,0.023192121671231584,-0.21618786783986993,0.10640405570770893,1394.8717948717947,-1.0,90.03434537711225,1.979636909314754,
2023-08-11 20:29:35.318000,-9.228915662650603,-1.1927710843373494,-3.024096385542169,-1.1649294911097485,-9.116492949110974,-2.658491722869405,2.0,1.9699633699633703,507.6236519152101,0.02167705844647724,-0.21490589126507728,0.10850183555736834,1391.2087912087911,-1.0,90.03434537711225,1.9795474936743291,
2023-08-11 20:29:35.325000,-9.228915662650603,-1.1927710843373494,-3.0120481927710845,-1.079092581238504,-9.114040465971796,-2.6879215205395464,2.0,1.9699633699633703,507.6236519152101,0.24707184895985063,-0.33704329584522996,-0.10826874890740623,1383.8827838827838,-1.0,90.03434537711225,1.9794580326954643,
2023-08-11 20:29:35.333000,-9.216867469879519,-1.1927710843373494,-3.0481927710843375,-1.1600245248313916,-9.109135499693439,-2.6315144083384427,2.0,1.9699633699633703,507.6236519152101,0.060602528990151255,-0.23063924013752143,0.18157450032049424,1378.021978021978,-1.0,90.03434537711225,1.9793685249586535,
2023-08-11 20:29:35.341000,-9.228915662650603,-1.2048192771084338,-3.024096385542169,-1.1624770079705702,-9.104230533415082,-2.6830165542611892,2.0,1.9699633699633703,507.6236519152101,0.2878620127032232,-0.04591807004253809,-0.1555853388497178,1374.3589743589744,-1.0,90.03434537711225,1.9792789685669816,
2023-08-11 20:29:35.348000,-9.265060240963855,-1.216867469879518,-3.0,-1.1232372777437154,-9.145922746781116,-2.6609442060085837,2.0,1.9699633699633703,507.6236519152101,0.11665986830604294,-0.03100052444496325,-0.27620768020511616,1373.6263736263736,-1.0,90.03434537711225,1.979189361170731,
2023-08-11 20:29:35.356000,-9.228915662650603,-1.2289156626506024,-3.0481927710843375,-1.137952176578786,-9.185162477007971,-2.6241569589209073,2.0,1.9699633699633703,507.6236519152101,0.09754676300914931,-0.3842433424625607,-0.061068702290076333,1371.4285714285713,-1.0,90.03434537711225,1.9790996999945796,
2023-08-11 20:29:35.363000,-9.240963855421688,-1.2289156626506024,-3.036144578313253,-1.2237890864500305,-9.118945432250152,-2.611894543225015,2.0,1.9699633699633703,507.6236519152101,0.5838820581551188,0.36664530039041965,-0.5150049530913118,1369.230769230769,-1.0,90.03434537711225,1.9790099818673976,
2023-08-11 20:29:35.371000,-9.228915662650603,-1.2530120481927711,-3.0120481927710845,-1.108522378908645,-9.123850398528509,-2.587369711833231,2.0,1.9699633699633703,507.6236519152101,0.19614241594312615,0.40673620418390555,0.04125633704329595,1368.4981684981683,-1.0,90.03434537711225,1.9789202032546334,
2023-08-11 20:29:35.379000,-9.204819277108435,-1.2289156626506024,-3.0120481927710845,-1.2115266707541386,-9.13856529736358,-2.560392397302268,2.0,1.9684981684981684,508.00148864905094,0.4061534875589996,0.47852689237223967,-0.09533243983450865,1369.230769230769,-1.0,90.03434537711225,1.978830360293254,
2023-08-11 20:29:35.386000,-9.204819277108435,-1.2530120481927711,-3.036144578313253,-1.1477621091354997,-9.12139791538933,-2.6683016554261187,2.0,1.9684981684981684,508.00148864905094,0.26338791445719895,0.6405221140959148,0.08892255696055006,1370.6959706959706,-1.0,90.03434537711225,1.9787404483365356,
2023-08-11 20:29:35.394000,-9.19277108433735,-1.2289156626506024,-3.024096385542169,-1.1771919068056407,-9.057633353770692,-2.611894543225015,2.0,1.9684981684981684,508.00148864905094,0.718023425208322,1.1224287628926055,-3.4962997494294334E-4,1373.6263736263736,-1.0,90.03434537711225,1.9786504619217962,
2023-08-11 20:29:35.402000,-9.180722891566266,-1.2289156626506024,-3.036144578313253,-1.1747394236664623,-9.072348252605764,-2.55793991416309,2.0,1.9684981684981684,508.00148864905094,-0.11339665520657258,0.7457607365538131,-0.2097779849659109,1379.4871794871794,-1.0,90.03434537711225,1.978560395722876,
2023-08-11 20:29:35.409000,-9.180722891566266,-1.2530120481927711,-3.060240963855422,-1.1134273451870018,-9.055180870631514,-2.6388718577559778,2.0,1.9684981684981684,508.00148864905094,0.11549443505623284,0.8466872559874137,-0.20896218169104333,1386.8131868131868,-1.0,90.03434537711225,1.978470244521321,
2023-08-11 20:29:35.417000,-9.216867469879519,-1.2530120481927711,-3.0481927710843375,-1.1428571428571428,-9.072348252605764,-2.6388718577559778,2.0,1.9684981684981684,508.00148864905094,0.2044169920167829,0.5341180583882063,0.025989161470776866,1394.8717948717947,-1.0,90.03434537711225,1.9783800027580345,
2023-08-11 20:29:35.425000,-9.19277108433735,-1.2530120481927711,-3.036144578313253,-1.1698344573881054,-9.050275904353157,-2.592274678111588,2.0,1.9684981684981684,508.00148864905094,-0.01200396247304872,0.3307499562962526,0.05990326904026536,1400.0,-1.0,90.03434537711225,1.9782896641206227,
2023-08-11 20:29:35.432000,-9.204819277108435,-1.2409638554216869,-3.0120481927710845,-1.1771919068056407,-9.07725321888412,-2.629061925199264,2.0,1.9684981684981684,508.00148864905094,0.09323465998484969,0.3122195676242649,-0.015616805547462026,1402.197802197802,-1.0,90.03434537711225,1.9781992221145106,
2023-08-11 20:29:35.440000,-9.19277108433735,-1.2409638554216869,-3.036144578313253,-1.1722869405272838,-9.114040465971796,-2.6977314530962597,2.0,1.9684981684981684,508.00148864905094,0.16852164792261584,0.04918128314200845,-0.012819765747917178,1402.197802197802,-1.0,90.03434537711225,1.9781086705307633,
2023-08-11 20:29:35.448000,-9.19277108433735,-1.2409638554216869,-3.036144578313253,-1.1477621091354997,-9.118945432250152,-2.6830165542611892,2.0,1.9684981684981684,508.00148864905094,0.242759745935551,-0.07668550783753793,-0.056523512615815036,1400.0,-1.0,90.03434537711225,1.9780180030013532,
2023-08-11 20:29:35.455000,-9.204819277108435,-1.216867469879518,-3.060240963855422,-1.1771919068056407,-9.052728387492335,-2.6609442060085837,2.0,1.9684981684981684,508.00148864905094,0.19322883281860004,-0.1392692733523686,-0.03869238389371234,1394.139194139194,-1.0,90.03434537711225,1.9779272130476149,
2023-08-11 20:29:35.463000,-9.204819277108435,-1.2289156626506024,-3.024096385542169,-1.061925199264255,-9.150827713059472,-2.609442060085837,2.0,1.9684981684981684,508.00148864905094,0.2225977507138281,-0.09370083328477302,0.16234485169861892,1389.0109890109889,-1.0,90.03434537711225,1.9778362941291014,
2023-08-11 20:29:35.471000,-9.180722891566266,-1.2289156626506024,-3.024096385542169,-1.120784794604537,-9.131207847946046,-2.6879215205395464,2.0,1.9670329670329672,508.3798882681564,-0.329934153021385,0.02540644484587095,0.10139269273352386,1385.3479853479853,-1.0,90.03434537711225,1.9777452396927455,
2023-08-11 20:29:35.478000,-9.19277108433735,-1.2048192771084338,-3.024096385542169,-1.0839975475168608,-9.064990803188227,-2.60453709380748,2.0,1.9684981684981684,508.00148864905094,-0.08414428063632708,-0.45160538430161434,0.17831128722102432,1380.952380952381,-1.0,90.03434537711225,1.9776540427295486,
2023-08-11 20:29:35.486000,-9.204819277108435,-1.2409638554216869,-3.0,-1.1330472103004292,-9.074800735744942,-2.575107296137339,2.0,1.9670329670329672,508.3798882681564,-0.11665986830604294,-0.2370491230114796,0.45253773090146276,1377.2893772893772,-1.0,90.03434537711225,1.977562696244526,
2023-08-11 20:29:35.494000,-9.204819277108435,-1.216867469879518,-3.0120481927710845,-1.1600245248313916,-9.07725321888412,-2.6535867565910483,2.0,1.9670329670329672,508.3798882681564,-0.31688130062350706,-0.17621350737136493,-0.16013052852397913,1372.161172161172,-1.0,90.03434537711225,1.9774711933379887,
2023-08-11 20:29:35.501000,-9.216867469879519,-1.2289156626506024,-3.0120481927710845,-1.150214592274678,-9.069895769466584,-2.6241569589209073,2.0,1.9684981684981684,508.00148864905094,-0.37818308956354507,0.06736204183905366,-0.20325155876697193,1367.7655677655678,-1.0,90.03434537711225,1.977379526724221,
2023-08-11 20:29:35.509000,-9.216867469879519,-1.2289156626506024,-3.0120481927710845,-1.1354996934396075,-9.158185162477007,-2.5971796443899446,2.0,1.9670329670329672,508.3798882681564,-0.31688130062350706,-0.027620768020512047,-0.06351611211467867,1366.3003663003662,-1.0,90.03434537711225,1.9772876897250153,
2023-08-11 20:29:35.517000,-9.204819277108435,-1.2289156626506024,-3.0481927710843375,-1.1330472103004292,-9.104230533415082,-2.6683016554261187,2.0,1.9670329670329672,508.3798882681564,-0.026105704795757703,-0.04580152671755725,-0.21642095448983162,1367.032967032967,-1.0,90.03434537711225,1.9771956758912999,
2023-08-11 20:29:35.524000,-9.19277108433735,-1.2289156626506024,-3.0481927710843375,-1.1428571428571428,-9.172900061312077,-2.5898221949724096,2.0,1.9670329670329672,508.3798882681564,-0.16397645824835452,-0.07738476778742467,-0.04335411689295491,1369.230769230769,-1.0,90.03434537711225,1.977103478519798,
2023-08-11 20:29:35.532000,-9.204819277108435,-1.2409638554216869,-3.072289156626506,-1.1747394236664623,-9.143470263641937,-2.6486817903126916,2.0,1.9670329670329672,508.3798882681564,-0.1956762426432028,0.31769710389837463,0.020861255171610082,1369.230769230769,-1.0,90.03434537711225,1.9770110911516487,
2023-08-11 20:29:35.540000,-9.204819277108435,-1.2409638554216869,-3.060240963855422,-1.1698344573881054,-9.094420600858369,-2.6486817903126916,2.0,1.9670329670329672,508.3798882681564,-0.11945690810558822,0.35802109434182217,-0.1580327486743197,1370.6959706959706,-1.0,90.03434537711225,1.9769185076120679,
2023-08-11 20:29:35.547000,-9.204819277108435,-1.2289156626506024,-3.0843373493975905,-1.1134273451870018,-9.16799509503372,-2.6903740036787247,2.0,1.9655677655677655,508.7588520313082,0.10652059903269108,0.933162403123361,0.04300448691801197,1369.9633699633698,-1.0,90.03434537711225,1.9768257220488528,
2023-08-11 20:29:35.555000,-9.204819277108435,-1.1927710843373494,-3.0843373493975905,-1.1870018393623543,-9.131207847946046,-2.670754138565297,2.0,1.9655677655677655,508.7588520313082,0.04300448691801197,0.6336460579220332,-0.061534875590000544,1369.230769230769,-1.0,90.03434537711225,1.976732728934901,
2023-08-11 20:29:35.563000,-9.228915662650603,-1.2048192771084338,-3.0843373493975905,-1.137952176578786,-9.165542611894542,-2.670754138565297,2.0,1.9655677655677655,508.7588520313082,-0.14288211642678147,0.5374978148126575,4.661732999242137E-4,1371.4285714285713,-1.0,90.03434537711225,1.9766395229648464,
2023-08-11 20:29:35.570000,-9.216867469879519,-1.2048192771084338,-3.060240963855422,-1.1354996934396075,-9.118945432250152,-2.6560392397302266,2.0,1.9655677655677655,508.7588520313082,0.024940271545947603,0.8669657945341174,0.0020977798496593955,1377.2893772893772,-1.0,90.03434537711225,1.9765460990537949,
2023-08-11 20:29:35.578000,-9.204819277108435,-1.2048192771084338,-3.0481927710843375,-1.0717351318209687,-9.109135499693439,-2.6609442060085837,2.0,1.9655677655677655,508.7588520313082,0.037876580618844746,-0.028553114620360476,0.15873200862420606,1386.8131868131868,-1.0,90.03434537711225,1.9764524519104312,
2023-08-11 20:29:35.586000,-9.180722891566266,-1.2048192771084338,-3.036144578313253,-1.1330472103004292,-9.114040465971796,-2.6535867565910483,2.0,1.9670329670329672,508.3798882681564,0.020161995221722892,-0.32002797039799485,0.11328011188159218,1396.3369963369962,-1.0,90.03434537711225,1.9763585761326936,
2023-08-11 20:29:35.593000,-9.19277108433735,-1.216867469879518,-3.0120481927710845,-1.155119558553035,-9.099325567136725,-2.60453709380748,2.0,1.9670329670329672,508.3798882681564,0.01759804207214102,-0.3175805605733938,0.11223122195676248,1407.3260073260071,-1.0,90.03434537711225,1.9762644672147283,
2023-08-11 20:29:35.601000,-9.180722891566266,-1.216867469879518,-3.0481927710843375,-1.137952176578786,-9.094420600858369,-2.641324340895156,2.0,1.9655677655677655,508.7588520313082,-0.06223413553988644,-0.40871744070858324,-0.009789639298409356,1416.117216117216,-1.0,90.03434537711225,1.9761701216388652,
2023-08-11 20:29:35.609000,-9.204819277108435,-1.2409638554216869,-3.036144578313253,-1.1575720416922133,-9.072348252605764,-2.633966891477621,2.0,1.9655677655677655,508.7588520313082,-0.17108560107219944,-0.4378532719538496,0.1736495542217822,1426.3736263736262,-1.0,90.03434537711225,1.9760755364065463,
2023-08-11 20:29:35.616000,-9.19277108433735,-1.2409638554216869,-3.024096385542169,-1.1134273451870018,-9.111587982832617,-2.611894543225015,2.0,1.9655677655677655,508.7588520313082,-0.1117650486568374,-0.49565876114445556,0.08216304411164853,1438.095238095238,-1.0,90.03434537711225,1.9759807089214048,
2023-08-11 20:29:35.624000,-9.19277108433735,-1.2530120481927711,-3.0,-1.150214592274678,-9.072348252605764,-2.5898221949724096,2.0,1.9655677655677655,508.7588520313082,-0.20348464541693448,-0.3248062467222195,-0.07015908163859894,1449.8168498168498,-1.0,90.03434537711225,1.9758856369746889,
2023-08-11 20:29:35.632000,-9.19277108433735,-1.2530120481927711,-2.963855421686747,-1.2213366033108521,-9.087063151440834,-2.6143470263641935,2.0,1.9655677655677655,508.7588520313082,-0.14101742322708463,-0.12435172775479203,0.09836256628401603,1460.07326007326,-1.0,90.03434537711225,1.9757903187632617,
2023-08-11 20:29:35.639000,-9.204819277108435,-1.2409638554216869,-2.9759036144578315,-1.2213366033108521,-9.069895769466584,-2.60453709380748,2.0,1.9655677655677655,508.7588520313082,-0.21968416758930198,-0.1392692733523686,0.08565934386108055,1471.062271062271,-1.0,90.03434537711225,1.9756947529054447,
2023-08-11 20:29:35.647000,-9.216867469879519,-1.2409638554216869,-3.0120481927710845,-1.1624770079705702,-9.126302881667687,-2.6437768240343344,2.0,1.9655677655677655,508.7588520313082,-0.17423227084668724,0.05827166249053105,0.07202377483829622,1478.3882783882782,-1.0,90.03434537711225,1.9755989384548303,
2023-08-11 20:29:35.655000,-9.204819277108435,-1.2289156626506024,-3.0,-1.1649294911097485,-9.094420600858369,-2.587369711833231,2.0,1.9655677655677655,508.7588520313082,-0.11421245848144017,-0.07994872093700829,-0.11153196200687615,1479.8534798534797,-1.0,90.03434537711225,1.9755028749121433,
2023-08-11 20:29:35.662000,-9.19277108433735,-1.2289156626506024,-3.0481927710843375,-1.1747394236664623,-9.150827713059472,-2.633966891477621,2.0,1.9655677655677655,508.7588520313082,0.11502826175630776,-0.01759804207214102,-0.18705203659460398,1479.8534798534797,-1.0,90.03434537711225,1.9754065622352988,
2023-08-11 20:29:35.670000,-9.180722891566266,-1.2289156626506024,-3.024096385542169,-1.196811771919068,-9.177805027590434,-2.6658491722869404,2.0,1.9655677655677655,508.7588520313082,-0.17714585397121335,0.361633937416235,0.029368917895227633,1477.6556776556777,-1.0,90.03434537711225,1.9753100008477709,
2023-08-11 20:29:35.678000,-9.204819277108435,-1.2409638554216869,-3.024096385542169,-1.1698344573881054,-9.123850398528509,-2.663396689147762,2.0,1.9655677655677655,508.7588520313082,-0.1632771982984678,0.35802109434182217,0.07656896451255753,1473.260073260073,-1.0,90.03434537711225,1.9752131916454303,
2023-08-11 20:29:35.685000,-9.204819277108435,-1.2530120481927711,-3.0481927710843375,-1.1894543225015328,-9.12139791538933,-2.6315144083384427,2.0,1.9655677655677655,508.7588520313082,0.08146378416176263,0.3070916613250977,-0.07621933453761415,1472.5274725274724,-1.0,90.03434537711225,1.975116136001971,
2023-08-11 20:29:35.693000,-9.204819277108435,-1.2409638554216869,-3.060240963855422,-1.184549356223176,-9.067443286327405,-2.6781115879828326,2.0,1.9655677655677655,508.7588520313082,0.17085251442223603,0.2728279237806658,0.07796748441233016,1473.260073260073,-1.0,90.03434537711225,1.975018835773108,
2023-08-11 20:29:35.701000,-9.216867469879519,-1.2409638554216869,-3.0481927710843375,-1.184549356223176,-9.096873083997547,-2.6560392397302266,2.0,1.9641025641025642,509.13838120104435,-0.03193287104481168,0.11794184488083388,-0.07237340481323917,1473.9926739926739,-1.0,90.03434537711225,1.9749212932996927,
2023-08-11 20:29:35.708000,-9.204819277108435,-1.2530120481927711,-3.0843373493975905,-1.1820968730839976,-9.074800735744942,-2.6781115879828326,2.0,1.9626373626373625,509.518477043673,-0.30860672454985205,-0.0075753161237682555,0.09696404638424339,1472.5274725274724,-1.0,90.03434537711225,1.974823511375097,
2023-08-11 20:29:35.716000,-9.204819277108435,-1.2650602409638554,-3.072289156626506,-1.1870018393623543,-9.109135499693439,-2.6658491722869404,2.0,1.9641025641025642,509.13838120104435,-0.3996270613600606,-0.36221665404113923,0.37270555328943533,1471.062271062271,-1.0,90.03434537711225,1.9747254926145303,
2023-08-11 20:29:35.724000,-9.216867469879519,-1.2289156626506024,-3.036144578313253,-1.1673819742489269,-9.069895769466584,-2.675659104843654,2.0,1.9641025641025642,509.13838120104435,-0.2912417691276727,-0.3341297127207038,0.2653691509818775,1468.8644688644688,-1.0,90.03434537711225,1.97462723984027,
2023-08-11 20:29:35.731000,-9.19277108433735,-1.2289156626506024,-3.0481927710843375,-1.155119558553035,-9.064990803188227,-2.5432250153280194,2.0,1.9641025641025642,509.13838120104435,-0.366412213740458,-0.6230406153487563,0.4161762135073715,1463.7362637362637,-1.0,90.03434537711225,1.9745287561461233,
2023-08-11 20:29:35.739000,-9.19277108433735,-1.2409638554216869,-3.024096385542169,-1.1820968730839976,-9.126302881667687,-2.6192519926425506,2.0,1.9641025641025642,509.13838120104435,-0.3496299749431846,-1.2150807062525493,0.4447293281277315,1456.4102564102564,-1.0,90.03434537711225,1.9744300445025293,
2023-08-11 20:29:35.746000,-9.19277108433735,-1.2289156626506024,-3.024096385542169,-1.184549356223176,-9.143470263641937,-2.6266094420600856,2.0,1.9641025641025642,509.13838120104435,-0.45731600722568577,-0.7322417108560101,0.10582133908280389,1446.153846153846,-1.0,90.03434537711225,1.9743311086972382,
2023-08-11 20:29:35.754000,-9.19277108433735,-1.2289156626506024,-3.024096385542169,-1.1722869405272838,-9.116492949110974,-2.6437768240343344,2.0,1.9641025641025642,509.13838120104435,-0.42410115960608313,-1.0154419905599912,0.48854961832061067,1436.6300366300366,-1.0,90.03434537711225,1.9742319527998873,
2023-08-11 20:29:35.762000,-9.168674698795181,-1.216867469879518,-3.0120481927710845,-1.1600245248313916,-9.072348252605764,-2.6192519926425506,2.0,1.9641025641025642,509.13838120104435,-0.34811491171843195,-1.1762717790338562,0.6073072664763126,1430.03663003663,-1.0,90.03434537711225,1.9741325811882573,
2023-08-11 20:29:35.769000,-9.204819277108435,-1.2048192771084338,-3.0,-1.1771919068056407,-9.10668301655426,-2.6266094420600856,2.0,1.9641025641025642,509.13838120104435,-0.6216420954489827,-0.7719829846745534,0.4063865742089621,1423.4432234432234,727.691650390625,82.45250576640805,1.9740329989625292,
2023-08-11 20:29:35.777000,-9.204819277108435,-1.216867469879518,-3.0120481927710845,-1.179644389944819,-9.13856529736358,-2.6560392397302266,2.0,1.9626373626373625,509.518477043673,-0.5419264611619362,-0.5386632480624676,0.3443855253190374,1416.8498168498168,-1.0,82.45250576640805,1.9739332114459756,
2023-08-11 20:29:35.785000,-9.216867469879519,-1.216867469879518,-3.036144578313253,-1.1477621091354997,-9.104230533415082,-2.616799509503372,2.0,1.9641025641025642,509.13838120104435,-0.14171668317697136,-0.43039449915506045,0.49740691101917117,1408.7912087912086,-1.0,82.45250576640805,1.9738332236854286,
2023-08-11 20:29:35.792000,-9.216867469879519,-1.2048192771084338,-3.0120481927710845,-1.120784794604537,-9.141017780502759,-2.692826486817903,2.0,1.9641025641025642,509.13838120104435,-0.21700367111473753,-0.1707359710972552,0.18810092651943366,1402.9304029304028,-1.0,82.45250576640805,1.9737330408648588,
2023-08-11 20:29:35.800000,-9.228915662650603,-1.216867469879518,-3.036144578313253,-1.2164316370324952,-9.079705702023299,-2.6658491722869404,2.0,1.9626373626373625,509.518477043673,-0.32375735679739026,-0.0961482431093758,0.23576714643668778,1400.0,-1.0,82.45250576640805,1.9736326688231582,
2023-08-11 20:29:35.808000,-9.216867469879519,-1.2048192771084338,-3.060240963855422,-1.1526670754138564,-9.15328019619865,-2.6364193746167994,2.0,1.9626373626373625,509.518477043673,-0.1100168987821231,0.12936309072897842,0.279820523279529,1400.0,-1.0,82.45250576640805,1.9735321130966441,
2023-08-11 20:29:35.815000,-9.204819277108435,-1.216867469879518,-3.024096385542169,-1.1771919068056407,-9.079705702023299,-2.6462293071735132,2.0,1.9626373626373625,509.518477043673,-0.47666219917254277,-0.07470427131286024,0.01619952217236751,1403.6630036630036,-1.0,82.45250576640805,1.9734313788405113,
2023-08-11 20:29:35.823000,-9.216867469879519,-1.2048192771084338,-3.036144578313253,-1.1158798283261802,-9.050275904353157,-2.6560392397302266,2.0,1.9626373626373625,509.518477043673,-0.0949828098595657,0.07808402773731143,0.13705495017772837,1407.3260073260071,-1.0,82.45250576640805,1.9733304712755644,
2023-08-11 20:29:35.831000,-9.228915662650603,-1.216867469879518,-3.036144578313253,-1.1453096259963211,-9.133660331085224,-2.641324340895156,2.0,1.9626373626373625,509.518477043673,-0.3391410756948902,-0.1199230814055133,0.13495717032806984,1411.7216117216117,-1.0,82.45250576640805,1.9732293956774307,
2023-08-11 20:29:35.838000,-9.204819277108435,-1.216867469879518,-3.036144578313253,-1.1600245248313916,-9.104230533415082,-2.6854690374003676,2.0,1.9626373626373625,509.518477043673,-0.4432142649029785,-0.4837713419963877,0.14835965270089163,1415.3846153846152,-1.0,82.45250576640805,1.9731281573663335,
2023-08-11 20:29:35.846000,-9.216867469879519,-1.2289156626506024,-3.036144578313253,-1.1404046597179645,-9.126302881667687,-2.6241569589209073,2.0,1.9626373626373625,509.518477043673,-0.18157450032049383,-0.049297826466989284,0.08635860381096688,1417.5824175824175,-1.0,82.45250576640805,1.973026761697617,
2023-08-11 20:29:35.854000,-9.19277108433735,-1.2530120481927711,-3.024096385542169,-1.1526670754138564,-9.128755364806867,-2.6658491722869404,2.0,1.9611721611721613,509.89914082928647,-0.17994289377075864,-0.6730377017656306,0.379348522813356,1416.117216117216,-1.0,82.45250576640805,1.972925214053213,
2023-08-11 20:29:35.861000,-9.204819277108435,-1.2289156626506024,-3.024096385542169,-1.0987124463519313,-9.13856529736358,-2.580012262415696,2.0,1.9611721611721613,509.89914082928647,-0.1480100227259487,-0.8781539537323002,0.3027795583007985,1413.1868131868132,-1.0,82.45250576640805,1.9728235197994357,
2023-08-11 20:29:35.869000,-9.204819277108435,-1.2409638554216869,-3.0,-1.1943592887798895,-9.1704475781729,-2.621704475781729,2.0,1.9611721611721613,509.89914082928647,-0.1471942194510811,-0.8702290076335878,0.30056523512615785,1410.2564102564102,-1.0,82.45250576640805,1.972721684141429,
2023-08-11 20:29:35.877000,-9.19277108433735,-1.2530120481927711,-3.024096385542169,-1.1011649294911097,-9.116492949110974,-2.609442060085837,2.0,1.9626373626373625,509.518477043673,-0.08507662723617551,-0.7387681370549508,0.5446069576365015,1405.8608058608058,-1.0,82.45250576640805,1.9726197120824316,
