Shimmer_F5D4_Timestamp_FormattedUnix_CAL,Shimmer_F5D4_Accel_LN_X_CAL,Shimmer_F5D4_Accel_LN_Y_CAL,Shimmer_F5D4_Accel_LN_Z_CAL,Shimmer_F5D4_Accel_WR_X_CAL,Shimmer_F5D4_Accel_WR_Y_CAL,Shimmer_F5D4_Accel_WR_Z_CAL,Shimmer_F5D4_GSR_Range_CAL,Shimmer_F5D4_GSR_Skin_Conductance_CAL,Shimmer_F5D4_GSR_Skin_Resistance_CAL,Shimmer_F5D4_Gyro_X_CAL,Shimmer_F5D4_Gyro_Y_CAL,Shimmer_F5D4_Gyro_Z_CAL,Shimmer_F5D4_PPG_A13_CAL,Shimmer_F5D4_PPG_IBI_CAL,Shimmer_F5D4_PPGtoHR_CAL,Shimmer_F5D4_GSR_Skin_Conductance_LPF_CAL,
yyyy/mm/dd hh:mm:ss.000,m/(s^2),m/(s^2),m/(s^2),m/(s^2),m/(s^2),m/(s^2),no_units,uS,kOhms,deg/s,deg/s,deg/s,mV,ms,BPM,uS,
2023-08-15 12:56:01.670000,8.349397590361447,-0.6987951807228916,-5.421686746987952,-0.6425505824647455,9.036787247087675,-4.824034334763948,3.0,1.442779442779443,693.1066317895061,0.5674494493327897,-0.14672804615115603,0.013402482372822228,1055.6776556776556,-1.0,89.0112278160087,1.415238720992373,
2023-08-15 12:56:01.678000,8.313253012048193,-0.674698795180723,-5.445783132530121,-0.6474555487431024,8.975475168608215,-4.865726548129981,3.0,1.442779442779443,693.1066317895061,0.3525435580677124,0.17329992424683882,0.028786201270322147,1038.8278388278388,-1.0,89.0112278160087,1.415532068419016,
2023-08-15 12:56:01.686000,8.289156626506024,-0.6867469879518072,-5.433734939759036,-0.6204782342121398,8.98283261802575,-4.865726548129981,3.0,1.442779442779443,693.1066317895061,0.2566284016082983,0.5391294213623908,0.09183614008507661,1027.106227106227,-1.0,89.0112278160087,1.4158264007413701,
2023-08-15 12:56:01.693000,8.25301204819277,-0.6867469879518072,-5.46987951807229,-0.6008583690987124,8.997547516860822,-4.904966278356836,3.0,1.442779442779443,693.1066317895061,0.589592681079192,0.12516753102965963,-0.13787075345259597,1018.3150183150183,-1.0,89.0112278160087,1.41612165010352,
2023-08-15 12:56:01.701000,8.25301204819277,-0.6867469879518072,-5.457831325301205,-0.6204782342121398,8.931330472103005,-4.934396076026977,2.0,1.4468864468864473,691.139240506329,0.44740982460229556,0.23040615348755977,-0.2136239146902859,1016.117216117216,-1.0,89.0112278160087,1.4164177483899827,
2023-08-15 12:56:01.709000,8.25301204819277,-0.6867469879518072,-5.481927710843374,-0.6180257510729613,8.941140404659718,-4.860821581851624,2.0,1.4454212454212458,691.8398378104408,0.3055765981003433,0.07889983101217903,-0.028436571295379204,1021.978021978022,-1.0,89.0112278160087,1.4167146286901728,
2023-08-15 12:56:01.716000,8.27710843373494,-0.674698795180723,-5.445783132530121,-0.5885959534028203,9.026977314530962,-4.892703862660944,2.0,1.4468864468864473,691.139240506329,0.3174640172484112,-0.3011479517510629,-0.16700658469786148,1033.6996336996335,-1.0,89.0112278160087,1.4170122249605068,
2023-08-15 12:56:01.724000,8.27710843373494,-0.6867469879518072,-5.445783132530121,-0.5910484365419988,8.997547516860822,-4.904966278356836,2.0,1.4454212454212458,691.8398378104408,0.43622166540411444,-0.039624730493560766,-0.31839636384826053,1053.4798534798533,-1.0,89.0112278160087,1.417310471413713,
2023-08-15 12:56:01.732000,8.228915662650603,-0.674698795180723,-5.506024096385542,-0.5665236051502146,8.899448191293684,-4.897608828939301,2.0,1.4454212454212458,691.8398378104408,0.49076394149525004,0.17434881417166806,-0.07027562496358021,1079.8534798534797,-1.0,89.0112278160087,1.4176093027803305,
2023-08-15 12:56:01.739000,8.216867469879519,-0.6987951807228916,-5.481927710843374,-0.5959534028203556,8.950950337216431,-4.9000613120784795,2.0,1.4468864468864473,691.139240506329,0.4256162228308375,0.08123069751179923,0.1580327486743197,1109.1575091575091,-1.0,89.0112278160087,1.4179086538572916,
2023-08-15 12:56:01.747000,8.204819277108435,-0.710843373493976,-5.46987951807229,-0.6253832004904966,8.889638258736971,-4.863274064990803,2.0,1.4468864468864473,691.139240506329,0.33203193287104527,0.17423227084668724,-0.16467571819823998,1142.1245421245421,-1.0,89.0112278160087,1.4182084603913205,
2023-08-15 12:56:01.755000,8.216867469879519,-0.6987951807228916,-5.457831325301205,-0.6106683016554261,8.874923359901901,-4.892703862660944,2.0,1.4468864468864473,691.139240506329,0.17667968067129,-0.20604859856651633,-0.0868247771108911,1176.5567765567764,-1.0,89.0112278160087,1.41850865924064,
2023-08-15 12:56:01.762000,8.240963855421688,-0.710843373493976,-5.46987951807229,-0.6327406499080318,8.95340282035561,-4.851011649294911,2.0,1.4468864468864473,691.139240506329,0.20546588194161217,0.07015908163859894,-0.25359827515879046,1210.989010989011,-1.0,89.0112278160087,1.418809188136957,
2023-08-15 12:56:01.770000,8.25301204819277,-0.710843373493976,-5.46987951807229,-0.5959534028203556,8.914163090128755,-4.887798896382587,2.0,1.4468864468864473,691.139240506329,0.21933453761435773,-0.1752811607715165,0.09917836955888362,1243.956043956044,-1.0,89.0112278160087,1.4191099856148988,
2023-08-15 12:56:01.778000,8.25301204819277,-0.710843373493976,-5.445783132530121,-0.568976088289393,8.95340282035561,-4.819129368485592,2.0,1.4468864468864473,691.139240506329,-0.10220849600839145,-0.16094633179884585,-0.11537789173125114,1273.9926739926739,-1.0,89.0112278160087,1.41941099109781,
2023-08-15 12:56:01.785000,8.25301204819277,-0.710843373493976,-5.46987951807229,-0.6376456161863887,8.941140404659718,-4.885346413243409,2.0,1.4468864468864473,691.139240506329,-0.2532486451838471,-0.3292348930715,-0.05384301614125059,1299.6336996336995,-1.0,89.0112278160087,1.4197121451080597,
2023-08-15 12:56:01.793000,8.301204819277109,-0.6987951807228916,-5.46987951807229,-0.6082158185162476,8.948497854077253,-4.801961986511342,2.0,1.4454212454212458,691.8398378104408,-0.09661441640930088,-0.4079016374337156,0.16409300157333492,1320.8791208791208,-1.0,89.0112278160087,1.4200133891859896,
2023-08-15 12:56:01.800000,8.27710843373494,-0.6987951807228916,-5.445783132530121,-0.6082158185162476,8.970570202329858,-4.887798896382587,2.0,1.4468864468864473,691.139240506329,-0.08006526426198912,-0.19252957286871328,0.28856127265310866,1337.7289377289376,-1.0,89.0112278160087,1.4203146656104395,
2023-08-15 12:56:01.808000,8.27710843373494,-0.710843373493976,-5.457831325301205,-0.5640711220110362,8.997547516860822,-4.858369098712446,2.0,1.4468864468864473,691.139240506329,0.1820406736204189,-0.20569896859157383,0.3030126449507606,1349.4505494505493,-1.0,89.0112278160087,1.4206159179969051,
2023-08-15 12:56:01.816000,8.289156626506024,-0.710843373493976,-5.445783132530121,-0.5469037400367872,8.992642550582465,-4.8706315144083385,2.0,1.4468864468864473,691.139240506329,-0.12446827107977461,-0.1414835965270097,0.3654798671406096,1355.3113553113553,-1.0,89.0112278160087,1.42091709157992,
2023-08-15 12:56:01.823000,8.27710843373494,-0.6987951807228916,-5.409638554216868,-0.5591661557326794,8.985285101164928,-4.863274064990803,2.0,1.4454212454212458,691.8398378104408,-0.0023308664996219363,0.08927218693549256,0.1489423693257967,1354.5787545787546,-1.0,89.0112278160087,1.421218132816231,
2023-08-15 12:56:01.831000,8.313253012048193,-0.6987951807228916,-5.421686746987952,-0.6229307173513182,8.997547516860822,-4.880441446965052,2.0,1.4454212454212458,691.8398378104408,0.24124468271079838,0.08997144688537932,0.436221665404114,1346.5201465201465,-1.0,89.0112278160087,1.4215189893533515,
2023-08-15 12:56:01.839000,8.325301204819278,-0.6987951807228916,-5.445783132530121,-0.6229307173513182,9.041692213366032,-4.86817903126916,2.0,1.4454212454212458,691.8398378104408,-0.37340481323932206,0.08915564361051173,0.24695530563486978,1332.6007326007325,-1.0,89.0112278160087,1.4218196098072784,
2023-08-15 12:56:01.846000,8.313253012048193,-0.710843373493976,-5.445783132530121,-0.6204782342121398,9.022072348252605,-4.838749233599018,2.0,1.4468864468864473,691.139240506329,-0.12575024765456555,0.11910727813064571,0.1672396713478236,1315.7509157509157,-1.0,89.0112278160087,1.4221199438245722,
2023-08-15 12:56:01.854000,8.301204819277109,-0.710843373493976,-5.457831325301205,-0.6670754138565297,9.002452483139178,-4.851011649294911,2.0,1.4454212454212458,691.8398378104408,-0.07843365771225394,0.39310063516112165,0.30184721170094964,1298.9010989010987,-1.0,89.0112278160087,1.4224199427580377,
2023-08-15 12:56:01.862000,8.325301204819278,-0.710843373493976,-5.433734939759036,-0.5297363580625383,8.985285101164928,-4.8706315144083385,2.0,1.4468864468864473,691.139240506329,0.1650253481731838,0.28017015325447236,0.2835499096789232,1283.5164835164835,-1.0,89.0112278160087,1.4227195594010595,
2023-08-15 12:56:01.869000,8.325301204819278,-0.6867469879518072,-5.421686746987952,-0.5714285714285714,8.98283261802575,-4.865726548129981,2.0,1.4468864468864473,691.139240506329,0.25336518850882794,0.2929899190023887,0.06829438843890208,1269.5970695970695,-1.0,89.0112278160087,1.4230187478160679,
2023-08-15 12:56:01.877000,8.301204819277109,-0.710843373493976,-5.445783132530121,-0.6474555487431024,8.936235438381361,-4.88289393010423,2.0,1.4454212454212458,691.8398378104408,-0.043121030242992804,0.15418681894994518,0.03624497406911,1253.4798534798533,-1.0,89.0112278160087,1.4233174638780532,
2023-08-15 12:56:01.885000,8.25301204819277,-0.710843373493976,-5.46987951807229,-0.6327406499080318,9.017167381974248,-4.843654199877376,2.0,1.4468864468864473,691.139240506329,0.07633587786259542,0.24485752578521125,0.019229648621875334,1239.5604395604396,-1.0,89.0112278160087,1.4236156644639502,
2023-08-15 12:56:01.892000,8.27710843373494,-0.7228915662650602,-5.445783132530121,-0.6057633353770693,8.955855303494788,-4.86817903126916,2.0,1.4454212454212458,691.8398378104408,0.2681661907814237,0.2756249635802111,-0.2101276149408543,1225.6410256410256,-1.0,89.0112278160087,1.4239133078578141,
2023-08-15 12:56:01.900000,8.265060240963855,-0.7228915662650602,-5.445783132530121,-0.6376456161863887,8.92152053954629,-4.855916615573268,2.0,1.4468864468864473,691.139240506329,-0.07517044461278531,0.09113688013518942,-0.0710914282384478,1210.2564102564102,-1.0,89.0112278160087,1.4242103536226034,
2023-08-15 12:56:01.908000,8.240963855421688,-0.7228915662650602,-5.457831325301205,-0.5714285714285714,8.995095033721643,-4.86817903126916,2.0,1.4468864468864473,691.139240506329,-0.04941436979197012,0.1818075869704555,-0.1471942194510811,1193.4065934065934,-1.0,89.0112278160087,1.424506762694015,
2023-08-15 12:56:01.915000,8.265060240963855,-0.710843373493976,-5.493975903614458,-0.5910484365419988,8.83077866339669,-4.843654199877376,2.0,1.4454212454212458,691.8398378104408,-0.08565934386107969,0.1658411514480514,-0.25208321193403654,1178.021978021978,-1.0,89.0112278160087,1.4248024979987493,
2023-08-15 12:56:01.923000,8.240963855421688,-0.710843373493976,-5.481927710843374,-0.640098099325567,8.933782955242183,-4.922133660331085,2.0,1.4468864468864473,691.139240506329,0.10733640230755867,0.14812656605092953,-0.07959909096206534,1164.102564102564,-1.0,89.0112278160087,1.425097523175767,
2023-08-15 12:56:01.931000,8.240963855421688,-0.7228915662650602,-5.445783132530121,-0.645003065603924,8.963212752912323,-4.833844267320662,2.0,1.4454212454212458,691.8398378104408,0.2523162985839987,0.010721985898257782,0.05908746576539821,1153.113553113553,-1.0,89.0112278160087,1.4253918029712174,
2023-08-15 12:56:01.938000,8.240963855421688,-0.6987951807228916,-5.457831325301205,-0.568976088289393,8.928877988963825,-4.843654199877376,2.0,1.4454212454212458,691.8398378104408,-0.12365246780490702,0.11794184488083388,0.07598624788765204,1144.3223443223442,-1.0,89.0112278160087,1.4256853032279264,
2023-08-15 12:56:01.946000,8.25301204819277,-0.710843373493976,-5.481927710843374,-0.6082158185162476,8.928877988963825,-4.853464132434089,2.0,1.4454212454212458,691.8398378104408,-0.130178894003846,0.11561097838121367,0.07610279121263332,1136.9963369963368,-1.0,89.0112278160087,1.4259779903169167,
2023-08-15 12:56:01.954000,8.240963855421688,-0.710843373493976,-5.445783132530121,-0.6229307173513182,8.98283261802575,-4.890251379521765,2.0,1.4454212454212458,691.8398378104408,0.2313385000874082,-0.083678107336402,-0.36478060719072325,1131.8681318681317,-1.0,89.0112278160087,1.4262698316738416,
2023-08-15 12:56:01.961000,8.265060240963855,-0.6987951807228916,-5.445783132530121,-0.6131207847946045,8.948497854077253,-4.88289393010423,2.0,1.4454212454212458,691.8398378104408,-0.020161995221722892,-0.11584406503117535,-0.1629275683235244,1133.3333333333333,-1.0,89.0112278160087,1.4265607957229847,
2023-08-15 12:56:01.969000,8.27710843373494,-0.6987951807228916,-5.457831325301205,-0.6057633353770693,8.950950337216431,-4.897608828939301,2.0,1.4454212454212458,691.8398378104408,-0.2973020220266883,-0.42211992308140545,0.06677932521414817,1136.9963369963368,-1.0,89.0112278160087,1.4268508516575238,
2023-08-15 12:56:01.977000,8.289156626506024,-0.6867469879518072,-5.46987951807229,-0.5910484365419988,9.009809932556713,-4.9074187614960145,2.0,1.443956043956044,692.5418569254185,0.282734106404056,-0.3428704620942839,0.4006759512848903,1139.9267399267399,-1.0,89.0112278160087,1.4271399693742801,
2023-08-15 12:56:01.984000,8.301204819277109,-0.674698795180723,-5.46987951807229,-0.5199264255058246,8.936235438381361,-4.892703862660944,2.0,1.4454212454212458,691.8398378104408,-0.04242177029310605,0.14812656605092953,-0.030068177845113953,1140.6593406593406,-1.0,89.0112278160087,1.4274281191778282,
2023-08-15 12:56:01.992000,8.301204819277109,-0.6867469879518072,-5.493975903614458,-0.6106683016554261,9.041692213366032,-4.9074187614960145,2.0,1.4454212454212458,691.8398378104408,-0.1964920459180704,0.0078084027737316646,0.1547695355748498,1139.9267399267399,-1.0,89.0112278160087,1.4277152720856159,
2023-08-15 12:56:02,8.313253012048193,-0.6867469879518072,-5.46987951807229,-0.6057633353770693,8.919068056407111,-4.799509503372164,2.0,1.4454212454212458,691.8398378104408,-0.21024415826583512,-0.3750364197890573,0.19824019579278598,1138.4615384615383,-1.0,89.0112278160087,1.4280013999674175,
2023-08-15 12:56:02.007000,8.313253012048193,-0.6867469879518072,-5.481927710843374,-0.5812385039852851,8.98283261802575,-4.941753525444512,2.0,1.4454212454212458,691.8398378104408,-0.3504457782180522,-0.005244449624148055,0.2425266592855893,1139.194139194139,-1.0,89.0112278160087,1.428286474868391,
2023-08-15 12:56:02.015000,8.289156626506024,-0.6867469879518072,-5.46987951807229,-0.6033108522378908,8.95340282035561,-4.865726548129981,2.0,1.4454212454212458,691.8398378104408,-0.28797855602820405,-0.19008216304411224,-0.1715517743721228,1140.6593406593406,-1.0,89.0112278160087,1.428570469074179,
2023-08-15 12:56:02.023000,8.313253012048193,-0.674698795180723,-5.493975903614458,-0.5567136725935009,8.960760269773145,-4.890251379521765,2.0,1.4454212454212458,691.8398378104408,-0.10570479575782349,0.3749198764640747,0.012470135772973802,1145.7875457875457,-1.0,89.0112278160087,1.428853355013666,
2023-08-15 12:56:02.030000,8.265060240963855,-0.6867469879518072,-5.493975903614458,-0.5738810545677498,9.002452483139178,-4.904966278356836,2.0,1.4454212454212458,691.8398378104408,-0.1517394091253424,0.3732882699143412,-0.402657187809568,1151.6483516483515,-1.0,89.0112278160087,1.4291351051704093,
2023-08-15 12:56:02.038000,8.265060240963855,-0.6867469879518072,-5.46987951807229,-0.6376456161863887,8.995095033721643,-4.873083997547517,2.0,1.4454212454212458,691.8398378104408,-0.24182739933570255,0.5559116601596643,-0.0027970397995452823,1158.2417582417581,-1.0,89.0112278160087,1.429415691982253,
2023-08-15 12:56:02.046000,8.265060240963855,-0.674698795180723,-5.457831325301205,-0.5787860208461066,8.923973022685468,-4.931943592887799,2.0,1.4454212454212458,691.8398378104408,0.003496299749432037,0.5194335994405913,0.10384010255812619,1167.7655677655678,-1.0,89.0112278160087,1.4296950877509107,
2023-08-15 12:56:02.053000,8.25301204819277,-0.674698795180723,-5.433734939759036,-0.6033108522378908,8.943592887798896,-4.846106683016554,2.0,1.4454212454212458,691.8398378104408,-0.1309946972787136,0.500087407493736,-0.6603344793426955,1175.8241758241757,-1.0,89.0112278160087,1.4299732646797843,
2023-08-15 12:56:02.061000,8.25301204819277,-0.6867469879518072,-5.397590361445784,-0.5346413243408952,8.901900674432863,-4.828939301042305,2.0,1.443956043956044,692.5418569254185,-0.1881009265194328,0.4190897966318985,-0.04813239321717832,1182.4175824175823,-1.0,89.0112278160087,1.4302501946251585,
2023-08-15 12:56:02.069000,8.240963855421688,-0.6987951807228916,-5.409638554216868,-0.5714285714285714,8.95340282035561,-4.853464132434089,2.0,1.4454212454212458,691.8398378104408,0.09218577006002042,0.8442398461628109,-0.27737311345492666,1184.6153846153845,-1.0,89.0112278160087,1.430525848515828,
2023-08-15 12:56:02.076000,8.240963855421688,-0.6867469879518072,-5.421686746987952,-0.6180257510729613,8.896995708154506,-4.846106683016554,2.0,1.443956043956044,692.5418569254185,0.2475380222597757,0.3321484761960261,-0.17213449099702827,1186.080586080586,-1.0,89.0112278160087,1.4308001966772967,
2023-08-15 12:56:02.084000,8.240963855421688,-0.6867469879518072,-5.433734939759036,-0.5885959534028203,8.86020846106683,-4.806866952789699,2.0,1.4454212454212458,691.8398378104408,0.44624439135248545,0.5132568032165966,0.024823728220966332,1183.8827838827838,-1.0,89.0112278160087,1.431073208780418,
2023-08-15 12:56:02.092000,8.240963855421688,-0.6987951807228916,-5.421686746987952,-0.568976088289393,8.916615573267933,-4.816676885346413,2.0,1.443956043956044,692.5418569254185,0.39916088806013555,-0.10232503933337228,0.19043179301905475,1181.6849816849815,-1.0,89.0112278160087,1.431344853712943,
2023-08-15 12:56:02.099000,8.27710843373494,-0.6987951807228916,-5.433734939759036,-0.6082158185162476,8.96811771919068,-4.82158185162477,2.0,1.443956043956044,692.5418569254185,0.7042713128605556,-0.1636268282734103,0.12376901112988742,1185.3479853479853,-1.0,89.0112278160087,1.4316150995347263,
2023-08-15 12:56:02.107000,8.27710843373494,-0.6987951807228916,-5.385542168674699,-0.5738810545677498,8.98283261802575,-4.770079705702023,2.0,1.4454212454212458,691.8398378104408,0.4861022084960079,-0.5012528407435461,0.2105937882407785,1198.5347985347985,-1.0,89.0112278160087,1.431883913003168,
2023-08-15 12:56:02.115000,8.313253012048193,-0.674698795180723,-5.409638554216868,-0.5910484365419988,9.004904966278357,-4.799509503372164,2.0,1.443956043956044,692.5418569254185,0.43715401200396287,-0.4693199696987362,0.2681661907814228,1219.7802197802198,-1.0,89.0112278160087,1.4321512604302962,
2023-08-15 12:56:02.122000,8.27710843373494,-0.710843373493976,-5.421686746987952,-0.5640711220110362,8.980380134886571,-4.831391784181483,2.0,1.443956043956044,692.5418569254185,0.6300332148476204,-0.5405279412621644,0.328419089796632,1250.5494505494505,-1.0,89.0112278160087,1.432417107035817,
2023-08-15 12:56:02.130000,8.265060240963855,-0.6987951807228916,-5.433734939759036,-0.6106683016554261,8.975475168608215,-4.824034334763948,2.0,1.4424908424908425,693.2453021838496,0.36338208729095106,-0.5042829671930549,0.5561447468096264,1291.5750915750914,-1.0,89.0112278160087,1.4326814162227817,
2023-08-15 12:56:02.138000,8.289156626506024,-0.710843373493976,-5.481927710843374,-0.5567136725935009,8.977927651747393,-4.917228694052728,2.0,1.443956043956044,692.5418569254185,0.7091661325097611,-0.08729095041081487,0.19987180234252072,1342.8571428571427,-1.0,89.0112278160087,1.4329441499145246,
2023-08-15 12:56:02.145000,8.289156626506024,-0.7228915662650602,-5.506024096385542,-0.6793378295524218,9.012262415695892,-4.858369098712446,2.0,1.4424908424908425,693.2453021838496,0.7014742730610103,-0.0427714002680503,0.07645242118757668,1397.8021978021977,-1.0,89.0112278160087,1.4332052688755232,
2023-08-15 12:56:02.153000,8.301204819277109,-0.7349397590361446,-5.46987951807229,-0.6670754138565297,9.02942979767014,-4.897608828939301,2.0,1.443956043956044,692.5418569254185,0.22271429403880894,-0.4680379931239435,-0.20057106229240704,1457.142857142857,-1.0,89.0112278160087,1.4334647322673941,
2023-08-15 12:56:02.161000,8.301204819277109,-0.710843373493976,-5.530120481927711,-0.6425505824647455,8.985285101164928,-4.9368485591661555,2.0,1.443956043956044,692.5418569254185,0.08123069751179923,-0.03659460404405381,-0.16933745119748256,1517.9487179487178,-1.0,89.0112278160087,1.4337224977283272,
2023-08-15 12:56:02.168000,8.325301204819278,-0.6987951807228916,-5.493975903614458,-0.539546290619252,9.041692213366032,-4.909871244635193,2.0,1.443956043956044,692.5418569254185,0.3520773847677873,-0.17341646757181964,-0.04568498339257598,1578.021978021978,-1.0,89.0112278160087,1.4339785218624599,
2023-08-15 12:56:02.176000,8.313253012048193,-0.7349397590361446,-5.506024096385542,-0.6057633353770693,8.990190067443287,-4.9147762109135495,2.0,1.443956043956044,692.5418569254185,-0.18880018646931956,0.14812656605092953,-0.1672396713478236,1633.6996336996335,-1.0,89.0112278160087,1.4342327596263558,
2023-08-15 12:56:02.183000,8.265060240963855,-0.710843373493976,-5.530120481927711,-0.6180257510729613,8.936235438381361,-4.902513795217658,2.0,1.443956043956044,692.5418569254185,-0.13250976050346794,0.008507662723616683,-0.2877454693782415,1680.5860805860805,-1.0,89.0112278160087,1.4344851643306804,
2023-08-15 12:56:02.191000,8.265060240963855,-0.710843373493976,-5.518072289156627,-0.5959534028203556,9.019619865113427,-4.9294911097486205,2.0,1.443956043956044,692.5418569254185,-0.10325738593322072,0.3119864809743015,-0.13250976050346708,1715.7509157509157,-1.0,89.0112278160087,1.4347356877890565,
2023-08-15 12:56:02.199000,8.265060240963855,-0.6987951807228916,-5.518072289156627,-0.6082158185162476,8.943592887798896,-4.934396076026977,2.0,1.443956043956044,692.5418569254185,-0.5037002505681489,-0.027154594720586966,0.06957636501369388,1739.194139194139,-1.0,89.0112278160087,1.4349842803166346,
2023-08-15 12:56:02.206000,8.25301204819277,-0.6867469879518072,-5.518072289156627,-0.522378908645003,8.904353157572041,-4.9442060085836905,2.0,1.443956043956044,692.5418569254185,-0.6275858050230176,0.47491404929782677,-0.40254064448458715,1750.18315018315,-1.0,89.0112278160087,1.4352308907490092,
2023-08-15 12:56:02.214000,8.240963855421688,-0.6867469879518072,-5.506024096385542,-0.5910484365419988,8.919068056407111,-4.875536480686695,2.0,1.4424908424908425,693.2453021838496,-0.6270030883981117,0.3650136938406845,-0.18332265019521027,1747.2527472527472,-1.0,89.0112278160087,1.435475466599333,
2023-08-15 12:56:02.222000,8.240963855421688,-0.674698795180723,-5.493975903614458,-0.5836909871244634,8.931330472103005,-4.897608828939301,2.0,1.4424908424908425,693.2453021838496,-0.6266534584231692,0.36513023716566706,-0.18075869704562667,1729.6703296703295,-1.0,89.0112278160087,1.4357179534455733,
2023-08-15 12:56:02.229000,8.25301204819277,-0.674698795180723,-5.493975903614458,-0.5567136725935009,8.960760269773145,-4.904966278356836,2.0,1.4424908424908425,693.2453021838496,-0.7020569896859161,0.26944816735621463,0.052327952916496674,1700.3663003663003,-1.0,89.0112278160087,1.4359582947694653,
2023-08-15 12:56:02.237000,8.240963855421688,-0.6867469879518072,-5.457831325301205,-0.6082158185162476,8.928877988963825,-4.887798896382587,2.0,1.4424908424908425,693.2453021838496,-0.68282734106404,0.11526134840626943,-0.14381446302663034,1660.8058608058607,-1.0,89.0112278160087,1.4361964326174947,
2023-08-15 12:56:02.245000,8.228915662650603,-0.674698795180723,-5.445783132530121,-0.6302881667688535,8.896995708154506,-4.9294911097486205,2.0,1.4424908424908425,693.2453021838496,-0.6045102266767669,0.29741856535166916,0.1174756715809101,1614.6520146520145,-1.0,89.0112278160087,1.4364323076538343,
2023-08-15 12:56:02.252000,8.228915662650603,-0.674698795180723,-5.421686746987952,-0.5616186388718577,8.948497854077253,-4.8706315144083385,2.0,1.4424908424908425,693.2453021838496,-0.75520074587728,0.25091777868422516,0.2553464250335061,1563.3699633699632,-1.0,89.0112278160087,1.4366658592334467,
2023-08-15 12:56:02.260000,8.25301204819277,-0.710843373493976,-5.433734939759036,-0.645003065603924,8.958307786633966,-4.860821581851624,2.0,1.4410256410256412,693.950177935943,-0.6425033506205924,-0.10244158265835313,0.33051686964629096,1512.087912087912,-1.0,89.0112278160087,1.436897025474181,
2023-08-15 12:56:02.268000,8.25301204819277,-0.6987951807228916,-5.445783132530121,-0.6033108522378908,8.904353157572041,-4.8706315144083385,2.0,1.4424908424908425,693.2453021838496,-0.3774838296136583,0.2482372822096607,0.3441524386690753,1456.4102564102564,-1.0,89.0112278160087,1.4371257427173967,
2023-08-15 12:56:02.275000,8.240963855421688,-0.674698795180723,-5.46987951807229,-0.5591661557326794,8.847946045370938,-4.794604537093807,2.0,1.4424908424908425,693.2453021838496,-0.695647106811958,0.04754967659227327,0.2795874366295669,1400.7326007326005,-1.0,89.0112278160087,1.4373519460595419,
2023-08-15 12:56:02.283000,8.265060240963855,-0.6987951807228916,-5.445783132530121,-0.5640711220110362,8.919068056407111,-4.855916615573268,2.0,1.4410256410256412,693.950177935943,-0.4157100402074473,0.22865800361284375,0.3824951925878447,1344.3223443223442,-1.0,89.0112278160087,1.4375755699961381,
2023-08-15 12:56:02.291000,8.25301204819277,-0.710843373493976,-5.457831325301205,-0.5591661557326794,8.92152053954629,-4.873083997547517,2.0,1.4410256410256412,693.950177935943,-0.7158091020336809,-0.18542043004486836,0.2717790338558361,1288.6446886446886,-1.0,89.0112278160087,1.4377965480145736,
2023-08-15 12:56:02.298000,8.27710843373494,-0.6987951807228916,-5.421686746987952,-0.5714285714285714,9.04659717964439,-4.848559166155733,2.0,1.4410256410256412,693.950177935943,-0.2370491230114796,-0.49029776819532667,0.24019579278596825,1239.5604395604396,-1.0,89.0112278160087,1.4380148125958654,
2023-08-15 12:56:02.306000,8.27710843373494,-0.6867469879518072,-5.409638554216868,-0.5787860208461066,8.963212752912323,-4.828939301042305,2.0,1.4410256410256412,693.950177935943,-0.2802866965794532,-0.24322591923547607,0.5130237165666336,1197.069597069597,-1.0,89.0112278160087,1.4382302953658153,
2023-08-15 12:56:02.314000,8.289156626506024,-0.6987951807228916,-5.421686746987952,-0.6082158185162476,8.98283261802575,-4.824034334763948,2.0,1.4410256410256412,693.950177935943,0.10617096905774683,-0.37876580618845096,0.5851640347299106,1161.904761904762,-1.0,89.0112278160087,1.4384429272424188,
2023-08-15 12:56:02.321000,8.301204819277109,-0.674698795180723,-5.421686746987952,-0.615573267933783,8.95340282035561,-4.86817903126916,2.0,1.4410256410256412,693.950177935943,0.001631606549735182,-0.14929199930073964,0.5920400909037935,1133.3333333333333,666.412353515625,90.03434537711225,1.4386526385891478,
2023-08-15 12:56:02.329000,8.289156626506024,-0.6867469879518072,-5.445783132530121,-0.6204782342121398,9.017167381974248,-4.851011649294911,2.0,1.4395604395604398,694.6564885496182,-0.04451955014276631,-0.36338208729095106,0.6020628168521649,1109.1575091575091,-1.0,90.03434537711225,1.4388593593737913,
2023-08-15 12:56:02.337000,8.301204819277109,-0.674698795180723,-5.46987951807229,-0.598405885959534,8.985285101164928,-4.863274064990803,2.0,1.4410256410256412,693.950177935943,0.22982343686265383,-0.1786609171959677,0.625604568498339,1088.6446886446886,-1.0,90.03434537711225,1.4390630189785092,
2023-08-15 12:56:02.344000,8.301204819277109,-0.6626506024096386,-5.457831325301205,-0.5861434702636419,9.044144696505212,-4.8412017167381975,2.0,1.4410256410256412,693.950177935943,0.3800477827632419,-0.27014742730610136,0.4218868364314433,1073.260073260073,-1.0,90.03434537711225,1.4392635467686492,
2023-08-15 12:56:02.352000,8.301204819277109,-0.674698795180723,-5.457831325301205,-0.5738810545677498,8.990190067443287,-4.902513795217658,2.0,1.4395604395604398,694.6564885496182,0.5139560631664816,-0.28285064972903684,0.29473806887710513,1064.4688644688645,-1.0,90.03434537711225,1.4394608726422495,
2023-08-15 12:56:02.360000,8.325301204819278,-0.674698795180723,-5.457831325301205,-0.6229307173513182,9.039239730226853,-4.88289393010423,2.0,1.4395604395604398,694.6564885496182,0.494842957869588,-0.11328011188159173,0.24683876230988852,1063.003663003663,-1.0,90.03434537711225,1.4396549262567868,
2023-08-15 12:56:02.367000,8.337349397590362,-0.674698795180723,-5.457831325301205,-0.615573267933783,8.980380134886571,-4.797057020232986,2.0,1.4395604395604398,694.6564885496182,0.5676825359827513,0.05617388264087252,-0.06071907231513295,1068.8644688644688,-1.0,90.03434537711225,1.4398456372761996,
2023-08-15 12:56:02.375000,8.313253012048193,-0.6506024096385542,-5.481927710843374,-0.6351931330472103,9.024524831391783,-4.917228694052728,2.0,1.4395604395604398,694.6564885496182,0.3009148651011012,0.08787366703572079,-0.16712312802284232,1082.7838827838827,-1.0,90.03434537711225,1.44003293598589,
2023-08-15 12:56:02.383000,8.313253012048193,-0.674698795180723,-5.457831325301205,-0.568976088289393,8.933782955242183,-4.9074187614960145,2.0,1.4395604395604398,694.6564885496182,0.3709574034147193,0.028553114620360476,-0.2426432026105706,1101.8315018315018,-1.0,90.03434537711225,1.4402167533237673,
2023-08-15 12:56:02.390000,8.27710843373494,-0.6867469879518072,-5.493975903614458,-0.5787860208461066,8.946045370938075,-4.912323727774371,2.0,1.4395604395604398,694.6564885496182,0.18646931996969937,-0.045684983392576414,-0.1659576947730318,1125.2747252747251,-1.0,90.03434537711225,1.4403970210613382,
2023-08-15 12:56:02.398000,8.265060240963855,-0.710843373493976,-5.493975903614458,-0.6057633353770693,8.973022685469036,-4.924586143470264,2.0,1.4395604395604398,694.6564885496182,0.22900763358778625,0.44589476137754297,-0.09067070683526607,1151.6483516483515,-1.0,90.03434537711225,1.4405736719850986,
2023-08-15 12:56:02.406000,8.240963855421688,-0.6867469879518072,-5.530120481927711,-0.5616186388718577,8.977927651747393,-4.83629675045984,2.0,1.4395604395604398,694.6564885496182,0.1185245615057398,0.5520657304352897,-0.2907755958277489,1180.952380952381,-1.0,90.03434537711225,1.440746640216378,
2023-08-15 12:56:02.413000,8.240963855421688,-0.6867469879518072,-5.518072289156627,-0.5714285714285714,8.896995708154506,-4.895156345800122,2.0,1.4395604395604398,694.6564885496182,0.26968125400617626,0.7804906473981701,-0.5509002971854788,1212.4542124542124,-1.0,90.03434537711225,1.4409158613712774,
2023-08-15 12:56:02.421000,8.25301204819277,-0.6867469879518072,-5.518072289156627,-0.6327406499080318,8.933782955242183,-4.934396076026977,2.0,1.4380952380952383,695.3642384105959,0.022026688421421484,0.6979779733115782,-0.6391235941961425,1244.6886446886447,-1.0,90.03434537711225,1.4410812725916766,
2023-08-15 12:56:02.429000,8.216867469879519,-0.6987951807228916,-5.530120481927711,-0.640098099325567,8.867565910484364,-4.963825873697118,2.0,1.4395604395604398,694.6564885496182,-0.17842783054600603,0.31210302429928405,-0.46757181982401974,1276.1904761904761,-1.0,90.03434537711225,1.4412428122308105,
2023-08-15 12:56:02.436000,8.240963855421688,-0.6867469879518072,-5.46987951807229,-0.6131207847946045,8.84549356223176,-4.875536480686695,2.0,1.4380952380952383,695.3642384105959,-0.42211992308140545,0.06899364838878884,-0.4636093467746635,1306.227106227106,-1.0,90.03434537711225,1.441400420449426,
2023-08-15 12:56:02.444000,8.204819277108435,-0.6867469879518072,-5.457831325301205,-0.568976088289393,8.862660944206008,-4.9000613120784795,2.0,1.4380952380952383,695.3642384105959,0.25394790513373383,0.41839053668201176,-0.41093176388322344,1331.8681318681317,-1.0,90.03434537711225,1.4415540396977122,
2023-08-15 12:56:02.452000,8.228915662650603,-0.674698795180723,-5.46987951807229,-0.615573267933783,8.931330472103005,-4.86817903126916,2.0,1.4380952380952383,695.3642384105959,-0.25021851873434015,-0.0759862478876529,-0.008391119398636281,1351.6483516483515,-1.0,90.03434537711225,1.4417036143128816,
2023-08-15 12:56:02.459000,8.19277108433735,-0.6987951807228916,-5.481927710843374,-0.5836909871244634,8.882280809319436,-4.9000613120784795,2.0,1.4380952380952383,695.3642384105959,-0.4711846628984331,-0.12400209777984952,0.11537789173125114,1365.5677655677655,-1.0,90.03434537711225,1.441849090701097,
2023-08-15 12:56:02.467000,8.228915662650603,-0.710843373493976,-5.46987951807229,-0.598405885959534,8.973022685469036,-4.8706315144083385,2.0,1.4380952380952383,695.3642384105959,-0.27725657012994626,-0.3565060311170678,0.28553114620360126,1372.8937728937728,-1.0,90.03434537711225,1.4419904175137226,
2023-08-15 12:56:02.475000,8.228915662650603,-0.6987951807228916,-5.457831325301205,-0.6548129981606376,8.884733292458614,-4.9000613120784795,2.0,1.4380952380952383,695.3642384105959,-0.16351028494842945,-0.38412679913757986,0.19474389604335393,1374.3589743589744,-1.0,90.03434537711225,1.4421275459452352,
2023-08-15 12:56:02.482000,8.240963855421688,-0.710843373493976,-5.46987951807229,-0.6008583690987124,8.96811771919068,-4.8706315144083385,2.0,1.4380952380952383,695.3642384105959,-0.3689761668900416,-0.1846046267700025,0.48633529514597046,1370.6959706959706,-1.0,90.03434537711225,1.4422604298756991,
2023-08-15 12:56:02.490000,8.27710843373494,-0.6987951807228916,-5.445783132530121,-0.568976088289393,8.973022685469036,-4.873083997547517,2.0,1.4366300366300364,696.0734319224887,0.12866383077909166,-0.354058621292465,0.20663131519142225,1363.3699633699632,-1.0,90.03434537711225,1.4423890261454704,
2023-08-15 12:56:02.498000,8.27710843373494,-0.710843373493976,-5.421686746987952,-0.5935009196811771,9.002452483139178,-4.855916615573268,2.0,1.4380952380952383,695.3642384105959,0.13250976050346794,-0.350562321543033,0.20651477186644143,1351.6483516483515,-1.0,90.03434537711225,1.4425132941712522,
2023-08-15 12:56:02.505000,8.301204819277109,-0.6867469879518072,-5.433734939759036,-0.6425505824647455,9.04659717964439,-4.811771919068057,2.0,1.4366300366300364,696.0734319224887,0.013985198997728147,-0.27096323058096894,-0.04102325039333384,1336.263736263736,-1.0,90.03434537711225,1.442633196340525,
2023-08-15 12:56:02.513000,8.337349397590362,-0.6987951807228916,-5.421686746987952,-0.5910484365419988,9.071122011036174,-4.833844267320662,2.0,1.4366300366300364,696.0734319224887,-0.04242177029310605,-0.13239321717848537,0.30720820465007853,1320.8791208791208,-1.0,90.03434537711225,1.4427486982977062,
2023-08-15 12:56:02.521000,8.349397590361447,-0.6987951807228916,-5.433734939759036,-0.6008583690987124,9.049049662783569,-4.887798896382587,2.0,1.4366300366300364,696.0734319224887,0.15698385874949047,-0.17598042072140324,0.16712312802284232,1307.6923076923076,-1.0,90.03434537711225,1.442859768500818,
2023-08-15 12:56:02.528000,8.337349397590362,-0.6867469879518072,-5.46987951807229,-0.5738810545677498,8.992642550582465,-4.8412017167381975,2.0,1.4366300366300364,696.0734319224887,0.49426024124468204,-0.09777984965911098,0.39170211526134857,1292.3076923076922,-1.0,90.03434537711225,1.4429663786248208,
2023-08-15 12:56:02.536000,8.325301204819278,-0.6867469879518072,-5.409638554216868,-0.5640711220110362,9.012262415695892,-4.873083997547517,2.0,1.4366300366300364,696.0734319224887,0.3248062467222195,-0.05034671639181855,0.20360118874191488,1278.3882783882782,-1.0,90.03434537711225,1.4430685037860522,
2023-08-15 12:56:02.544000,8.325301204819278,-0.674698795180723,-5.421686746987952,-0.5493562231759657,9.044144696505212,-4.897608828939301,2.0,1.4366300366300364,696.0734319224887,0.398811258085193,0.4554513140259889,0.30499388147543827,1265.2014652014652,-1.0,90.03434537711225,1.443166122598382,
2023-08-15 12:56:02.551000,8.325301204819278,-0.674698795180723,-5.445783132530121,-0.5885959534028203,9.036787247087675,-4.851011649294911,2.0,1.4366300366300364,696.0734319224887,0.8367810733640235,0.5451896742614065,-0.26641804090670723,1253.4798534798533,-1.0,90.03434537711225,1.4432592170925076,
2023-08-15 12:56:02.559000,8.325301204819278,-0.6867469879518072,-5.433734939759036,-0.5812385039852851,9.058859595340282,-4.858369098712446,2.0,1.4366300366300364,696.0734319224887,0.7828215138977921,0.4964745644193232,-0.5570770934094749,1240.2930402930401,-1.0,90.03434537711225,1.4433477726363402,
2023-08-15 12:56:02.566000,8.337349397590362,-0.674698795180723,-5.433734939759036,-0.5542611894543225,9.01471489883507,-4.892703862660944,2.0,1.4366300366300364,696.0734319224887,0.8816502534817323,0.8596235650603108,-0.6459996503700249,1229.3040293040292,-1.0,90.03434537711225,1.4434317781438097,
2023-08-15 12:56:02.574000,8.301204819277109,-0.674698795180723,-5.457831325301205,-0.5959534028203556,8.98283261802575,-4.86817903126916,2.0,1.4351648351648352,696.7840735068913,1.0240661966085887,0.5151214964162935,-1.0836198356739115,1220.5128205128203,-1.0,90.03434537711225,1.443511226381518,
2023-08-15 12:56:02.582000,8.27710843373494,-0.6987951807228916,-5.445783132530121,-0.5959534028203556,8.980380134886571,-4.804414469650521,2.0,1.4366300366300364,696.0734319224887,1.3782413612260362,0.7991375793951404,-0.6642969523920518,1215.3846153846152,-1.0,90.03434537711225,1.443586113337606,
2023-08-15 12:56:02.589000,8.240963855421688,-0.710843373493976,-5.457831325301205,-0.5836909871244634,8.958307786633966,-4.875536480686695,2.0,1.4336996336996337,697.4961676034748,1.058563020802984,1.159372996911602,-0.9663772507429635,1211.7216117216117,-1.0,90.03434537711225,1.44365643851627,
2023-08-15 12:56:02.597000,8.216867469879519,-0.710843373493976,-5.433734939759036,-0.615573267933783,8.870018393623543,-4.895156345800122,2.0,1.4351648351648352,696.7840735068913,1.4882582600081578,1.1941029077559588,-1.173358195909329,1210.2564102564102,-1.0,90.03434537711225,1.4437222049073422,
2023-08-15 12:56:02.605000,8.216867469879519,-0.710843373493976,-5.518072289156627,-0.5935009196811771,8.919068056407111,-4.924586143470264,2.0,1.4351648351648352,696.7840735068913,1.123361109492454,1.1823320319328718,-0.9668434240428878,1212.4542124542124,-1.0,90.03434537711225,1.4437834186814036,
2023-08-15 12:56:02.612000,8.19277108433735,-0.7228915662650602,-5.518072289156627,-0.598405885959534,8.894543225015328,-4.9368485591661555,2.0,1.4351648351648352,696.7840735068913,1.4481673562146735,0.6991434065613883,-1.2002797039799544,1215.3846153846152,-1.0,90.03434537711225,1.443840089738878,
2023-08-15 12:56:02.620000,8.216867469879519,-0.7228915662650602,-5.506024096385542,-0.5861434702636419,8.936235438381361,-4.858369098712446,2.0,1.4351648351648352,696.7840735068913,1.64757298525727,0.6450673037701761,-0.9301322766738536,1216.8498168498168,-1.0,90.03434537711225,1.4438922313841651,
2023-08-15 12:56:02.628000,8.204819277108435,-0.6867469879518072,-5.481927710843374,-0.5787860208461066,8.899448191293684,-4.919681177191906,2.0,1.4351648351648352,696.7840735068913,1.9064157100402077,0.37946506613833775,-0.6280519783229418,1218.3150183150183,-1.0,90.03434537711225,1.4439398602993132,
2023-08-15 12:56:02.635000,8.228915662650603,-0.6626506024096386,-5.46987951807229,-0.6180257510729613,8.92152053954629,-4.909871244635193,2.0,1.4351648351648352,696.7840735068913,1.8745993823203768,0.2980012819765751,-0.8040323990443446,1220.5128205128203,-1.0,90.03434537711225,1.4439829965090525,
2023-08-15 12:56:02.643000,8.216867469879519,-0.674698795180723,-5.518072289156627,-0.5616186388718577,8.93868792152054,-4.902513795217658,2.0,1.4351648351648352,696.7840735068913,1.7366120855428009,0.3221257502476551,-0.5217644659402133,1219.7802197802198,-1.0,90.03434537711225,1.4440216634763792,
2023-08-15 12:56:02.651000,8.25301204819277,-0.674698795180723,-5.493975903614458,-0.6670754138565297,8.926425505824646,-4.917228694052728,2.0,1.4351648351648352,696.7840735068913,1.6326554396596935,0.6690752287162752,-0.3795816094633177,1219.7802197802198,-1.0,90.03434537711225,1.4440558880312644,
2023-08-15 12:56:02.658000,8.25301204819277,-0.6626506024096386,-5.506024096385542,-0.5861434702636419,8.946045370938075,-4.9294911097486205,2.0,1.4351648351648352,696.7840735068913,1.8346250218518736,0.3435697220441707,-0.19206339956878948,1218.3150183150183,-1.0,90.03434537711225,1.4440857003032592,
2023-08-15 12:56:02.666000,8.289156626506024,-0.674698795180723,-5.493975903614458,-0.5935009196811771,8.96811771919068,-4.9589209074187615,2.0,1.4351648351648352,696.7840735068913,1.438610803566226,0.6313151914224113,-0.11444554513140227,1215.3846153846152,-1.0,90.03434537711225,1.444111133637346,
2023-08-15 12:56:02.674000,8.240963855421688,-0.674698795180723,-5.518072289156627,-0.5935009196811771,8.931330472103005,-4.96137339055794,2.0,1.4336996336996337,697.4961676034748,1.582308723267875,0.6395897674960663,-0.3422877454693784,1209.5238095238094,-1.0,90.03434537711225,1.4441322243757997,
2023-08-15 12:56:02.681000,8.289156626506024,-0.6626506024096386,-5.542168674698796,-0.568976088289393,9.0,-4.993255671367259,2.0,1.4351648351648352,696.7840735068913,1.8011770875823094,0.8767554338325267,-0.5836489715051572,1205.128205128205,-1.0,90.03434537711225,1.444149011429406,
2023-08-15 12:56:02.689000,8.301204819277109,-0.6626506024096386,-5.506024096385542,-0.5738810545677498,8.990190067443287,-4.922133660331085,2.0,1.4351648351648352,696.7840735068913,1.7571237107394682,0.6412213740458015,-0.39554804498572355,1202.9304029304028,-1.0,90.03434537711225,1.4441615365972815,
2023-08-15 12:56:02.697000,8.301204819277109,-0.6626506024096386,-5.493975903614458,-0.615573267933783,9.007357449417535,-4.86817903126916,2.0,1.4351648351648352,696.7840735068913,1.4072606491463202,0.8071790688188337,-0.5900588543791153,1200.0,-1.0,90.03434537711225,1.4441698448582592,
2023-08-15 12:56:02.704000,8.313253012048193,-0.6626506024096386,-5.433734939759036,-0.5861434702636419,9.0,-4.904966278356836,2.0,1.4351648351648352,696.7840735068913,1.5968766388905073,0.35802109434182217,-0.6931996969873553,1199.2673992673992,-1.0,90.03434537711225,1.4441739839629064,
2023-08-15 12:56:02.712000,8.313253012048193,-0.6506024096385542,-5.445783132530121,-0.6106683016554261,8.987737584304108,-4.858369098712446,2.0,1.4351648351648352,696.7840735068913,1.5701882174698454,1.2260357788007687,-0.8571761552357084,1203.6630036630036,-1.0,90.03434537711225,1.4441740043204956,
2023-08-15 12:56:02.720000,8.325301204819278,-0.674698795180723,-5.409638554216868,-0.539546290619252,8.997547516860822,-4.794604537093807,2.0,1.4351648351648352,696.7840735068913,1.6189033273119287,1.3839519841501078,-1.0948079948720935,1210.2564102564102,-1.0,90.03434537711225,1.444169958755215,
2023-08-15 12:56:02.727000,8.289156626506024,-0.6867469879518072,-5.433734939759036,-0.510116492949111,9.053954629061925,-4.784794604537094,2.0,1.4351648351648352,696.7840735068913,1.163452013285938,1.4766039275100515,-0.9499446419206335,1217.5824175824175,-1.0,90.03434537711225,1.4441619024089043,
2023-08-15 12:56:02.735000,8.289156626506024,-0.7228915662650602,-5.421686746987952,-0.6695278969957081,9.007357449417535,-4.873083997547517,2.0,1.4351648351648352,696.7840735068913,1.3688013519025712,0.8833984033564483,-0.9294330167239673,1223.4432234432234,-1.0,90.03434537711225,1.4441498926416803,
2023-08-15 12:56:02.743000,8.289156626506024,-0.6867469879518072,-5.457831325301205,-0.6351931330472103,9.031882280809318,-4.846106683016554,2.0,1.432234432234432,698.2097186700769,1.3134432725365663,0.8764058038575843,-1.197249577530447,1228.5714285714284,-1.0,90.03434537711225,1.4441339889310416,
2023-08-15 12:56:02.750000,8.289156626506024,-0.6867469879518072,-5.397590361445784,-0.5738810545677498,9.01471489883507,-4.831391784181483,2.0,1.4336996336996337,697.4961676034748,1.3801060544257313,0.47176737952333725,-1.171143872734689,1233.6996336996335,-1.0,90.03434537711225,1.4441142520622088,
2023-08-15 12:56:02.758000,8.337349397590362,-0.6867469879518072,-5.385542168674699,-0.5787860208461066,9.012262415695892,-4.816676885346413,2.0,1.4351648351648352,696.7840735068913,1.7050288444729336,-0.1276149408542624,-1.452945632538896,1242.4908424908424,-1.0,90.03434537711225,1.444090744333518,
2023-08-15 12:56:02.766000,8.325301204819278,-0.6265060240963856,-5.397590361445784,-0.5248313917841815,8.916615573267933,-4.792152053954629,2.0,1.4351648351648352,696.7840735068913,1.629275683235244,0.06852747508886375,-1.2128663830779087,1254.212454212454,-1.0,90.03434537711225,1.4440635306279743,
2023-08-15 12:56:02.773000,8.325301204819278,-0.6265060240963856,-5.385542168674699,-0.48068669527896996,9.058859595340282,-4.833844267320662,2.0,1.4351648351648352,696.7840735068913,1.6152904842375142,0.06677932521414773,-1.2048248936542154,1271.7948717948716,-1.0,90.03434537711225,1.444032677921853,
2023-08-15 12:56:02.781000,8.337349397590362,-0.6144578313253012,-5.421686746987952,-0.510116492949111,8.973022685469036,-4.794604537093807,2.0,1.4351648351648352,696.7840735068913,1.3571470194044633,-0.272711380455685,-1.041431152030767,1297.4358974358975,-1.0,90.03434537711225,1.4439982545882724,
2023-08-15 12:56:02.789000,8.301204819277109,-0.6024096385542169,-5.421686746987952,-0.5199264255058246,8.963212752912323,-4.846106683016554,2.0,1.4366300366300364,696.0734319224887,1.190023891381621,-0.44158265835324334,-1.1861779616572459,1332.6007326007325,-1.0,90.03434537711225,1.4439603303192572,
2023-08-15 12:56:02.796000,8.289156626506024,-0.6144578313253012,-5.433734939759036,-0.5125689760882893,8.980380134886571,-4.846106683016554,2.0,1.4351648351648352,696.7840735068913,1.4045801526717556,-0.6409882873958398,-0.6422702639706316,1375.091575091575,-1.0,90.03434537711225,1.4439189768088203,
2023-08-15 12:56:02.804000,8.27710843373494,-0.6385542168674699,-5.445783132530121,-0.5763335377069282,8.997547516860822,-4.8779889638258735,2.0,1.4366300366300364,696.0734319224887,1.1300040790163757,-0.13717149350271007,-0.9863061593147252,1423.4432234432234,-1.0,90.03434537711225,1.4438742672171008,
2023-08-15 12:56:02.812000,8.265060240963855,-0.6626506024096386,-5.457831325301205,-0.6057633353770693,8.973022685469036,-4.922133660331085,2.0,1.4351648351648352,696.7840735068913,1.208670823378593,-0.38366062583765476,-1.1740574558592156,1474.7252747252746,-1.0,90.03434537711225,1.4438262760373506,
2023-08-15 12:56:02.819000,8.265060240963855,-0.6867469879518072,-5.46987951807229,-0.5419987737584304,8.946045370938075,-4.902513795217658,2.0,1.4351648351648352,696.7840735068913,1.3038867198881186,-0.4451955014276562,-0.886894703105879,1525.2747252747251,-1.0,90.03434537711225,1.4437750790261523,
2023-08-15 12:56:02.827000,8.289156626506024,-0.6987951807228916,-5.46987951807229,-0.598405885959534,8.928877988963825,-4.912323727774371,2.0,1.4366300366300364,696.0734319224887,1.2738185420430037,-0.6432026105704792,-0.6166307324747968,1572.8937728937728,-1.0,90.03434537711225,1.443720752447683,
2023-08-15 12:56:02.835000,8.27710843373494,-0.6867469879518072,-5.481927710843374,-0.5910484365419988,8.997547516860822,-4.9074187614960145,2.0,1.4351648351648352,696.7840735068913,1.061593147252489,-0.19672513256803206,-0.6247887652234723,1613.9194139194137,-1.0,90.03434537711225,1.443663374085305,
2023-08-15 12:56:02.842000,8.265060240963855,-0.6987951807228916,-5.481927710843374,-0.5763335377069282,8.941140404659718,-4.86817903126916,2.0,1.4366300366300364,696.0734319224887,0.944350562321542,0.0020977798496585277,-0.9817609696404634,1647.6190476190475,-1.0,90.03434537711225,1.4436030227268952,
2023-08-15 12:56:02.850000,8.265060240963855,-0.710843373493976,-5.46987951807229,-0.6106683016554261,8.93868792152054,-4.873083997547517,2.0,1.4366300366300364,696.0734319224887,0.9759338033914112,-0.10593788240778515,-0.8640522114095913,1671.7948717948716,-1.0,90.03434537711225,1.443539778053993,
2023-08-15 12:56:02.858000,8.265060240963855,-0.7228915662650602,-5.457831325301205,-0.645003065603924,8.943592887798896,-4.797057020232986,2.0,1.4366300366300364,696.0734319224887,0.9174290542509168,-0.3808635860381095,-0.6561389196433781,1686.4468864468863,-1.0,90.03434537711225,1.4434737210876798,
2023-08-15 12:56:02.865000,8.25301204819277,-0.710843373493976,-5.433734939759036,-0.5935009196811771,8.92152053954629,-4.892703862660944,2.0,1.4351648351648352,696.7840735068913,1.0733640230755797,-0.2699143406561397,-0.7845696637725068,1693.040293040293,-1.0,90.03434537711225,1.443404933667304,
2023-08-15 12:56:02.873000,8.240963855421688,-0.710843373493976,-5.445783132530121,-0.5616186388718577,8.960760269773145,-4.824034334763948,2.0,1.4366300366300364,696.0734319224887,1.2756832352427006,-0.25219975525901783,-0.7288619544315593,1690.10989010989,-1.0,90.03434537711225,1.4433334978891943,
2023-08-15 12:56:02.881000,8.240963855421688,-0.6987951807228916,-5.457831325301205,-0.5763335377069282,8.923973022685468,-4.826486817903127,2.0,1.4366300366300364,696.0734319224887,1.2022609405046314,-0.05127906299166698,-0.5071965503175809,1679.120879120879,-1.0,90.03434537711225,1.4432594964742342,
2023-08-15 12:56:02.888000,8.240963855421688,-0.710843373493976,-5.421686746987952,-0.6842427958307786,8.990190067443287,-4.860821581851624,2.0,1.4366300366300364,696.0734319224887,1.3255637783345975,0.05547462269098577,-0.7301439310063516,1657.8754578754579,-1.0,90.03434537711225,1.4431830132339596,
2023-08-15 12:56:02.896000,8.265060240963855,-0.710843373493976,-5.445783132530121,-0.6425505824647455,8.958307786633966,-4.83629675045984,2.0,1.4351648351648352,696.7840735068913,1.4334828972670586,-0.005827166249052237,-0.5239787891148526,1624.9084249084249,-1.0,90.03434537711225,1.4431041325690745,
2023-08-15 12:56:02.904000,8.27710843373494,-0.6987951807228916,-5.445783132530121,-0.598405885959534,8.997547516860822,-4.806866952789699,2.0,1.4366300366300364,696.0734319224887,1.3587786259541985,-0.2954373288269915,-0.8096264786434361,1586.080586080586,-1.0,90.03434537711225,1.4430229392047702,
2023-08-15 12:56:02.911000,8.240963855421688,-0.6987951807228916,-5.409638554216868,-0.6082158185162476,8.965665236051501,-4.828939301042305,2.0,1.4366300366300364,696.0734319224887,1.3735796282267925,-0.4468271079773914,-0.5729269856068995,1542.8571428571427,-1.0,90.03434537711225,1.4429395183970963,
2023-08-15 12:56:02.919000,8.25301204819277,-0.710843373493976,-5.409638554216868,-0.5935009196811771,8.975475168608215,-4.833844267320662,2.0,1.4380952380952383,695.3642384105959,1.5257852106520582,-0.4894819649204591,-0.47596293922265603,1497.4358974358972,-1.0,90.03434537711225,1.4428539561408007,
2023-08-15 12:56:02.927000,8.289156626506024,-0.6987951807228916,-5.421686746987952,-0.6033108522378908,8.931330472103005,-4.855916615573268,2.0,1.4380952380952383,695.3642384105959,1.3558650428296724,-0.37923197948837434,-0.38051395606316696,1452.014652014652,-1.0,90.03434537711225,1.4427663391881644,
2023-08-15 12:56:02.934000,8.301204819277109,-0.6987951807228916,-5.409638554216868,-0.5763335377069282,8.975475168608215,-4.765174739423666,2.0,1.4380952380952383,695.3642384105959,1.5397704096497864,-0.5447235009614831,-0.6050929433016718,1407.3260073260071,-1.0,90.03434537711225,1.442676755107737,
2023-08-15 12:56:02.942000,8.27710843373494,-0.6867469879518072,-5.409638554216868,-0.5616186388718577,8.990190067443287,-4.860821581851624,2.0,1.4366300366300364,696.0734319224887,1.753860497639996,-0.6641804090670714,-0.3688596235650599,1364.102564102564,-1.0,90.03434537711225,1.4425852918207724,
2023-08-15 12:56:02.949000,8.313253012048193,-0.6867469879518072,-5.421686746987952,-0.5419987737584304,8.955855303494788,-4.828939301042305,2.0,1.4366300366300364,696.0734319224887,1.5817260066429708,-0.30860672454985205,-0.6686090554163506,1322.3443223443223,-1.0,90.03434537711225,1.44249203724412,
2023-08-15 12:56:02.957000,8.349397590361447,-0.6867469879518072,-5.433734939759036,-0.5640711220110362,8.997547516860822,-4.848559166155733,2.0,1.4366300366300364,696.0734319224887,1.5939630557659812,-0.871744070858342,-0.8896917429054256,1285.7142857142856,-1.0,90.03434537711225,1.4423970793353516,
2023-08-15 12:56:02.965000,8.349397590361447,-0.6987951807228916,-5.409638554216868,-0.568976088289393,9.022072348252605,-4.789699570815451,2.0,1.4366300366300364,696.0734319224887,1.5324281801759798,-0.5771225453062182,-0.608589243051104,1252.014652014652,-1.0,90.03434537711225,1.4423005063773964,
2023-08-15 12:56:02.972000,8.349397590361447,-0.6626506024096386,-5.445783132530121,-0.5836909871244634,9.04659717964439,-4.9000613120784795,2.0,1.4366300366300364,696.0734319224887,1.545714119223821,-0.6818949944641916,-0.5265427422644371,1221.9780219780218,-1.0,90.03434537711225,1.44220240696627,
2023-08-15 12:56:02.980000,8.325301204819278,-0.6626506024096386,-5.46987951807229,-0.5861434702636419,9.053954629061925,-4.843654199877376,2.0,1.4366300366300364,696.0734319224887,1.7398752986422679,-0.31490006409882937,-0.534933861663073,1197.069597069597,-1.0,90.03434537711225,1.4421028699889127,
2023-08-15 12:56:02.988000,8.325301204819278,-0.6506024096385542,-5.433734939759036,-0.5714285714285714,9.044144696505212,-4.865726548129981,2.0,1.4366300366300364,696.0734319224887,1.539886952974769,0.0651477186644143,-0.8765223471825659,1176.5567765567764,658.75244140625,91.08125636986937,1.4420019846117058,
2023-08-15 12:56:02.995000,8.337349397590362,-0.6506024096385542,-5.481927710843374,-0.510116492949111,9.022072348252605,-4.912323727774371,2.0,1.4366300366300364,696.0734319224887,1.415185595245031,-0.01200396247304872,-0.7912126332964279,1156.0439560439559,-1.0,91.08125636986937,1.4418998402580994,
2023-08-15 12:56:03.003000,8.325301204819278,-0.674698795180723,-5.481927710843374,-0.5616186388718577,8.997547516860822,-4.9074187614960145,2.0,1.4366300366300364,696.0734319224887,1.5344094167006574,0.04778276324223494,-1.0256978031583235,1140.6593406593406,-1.0,91.08125636986937,1.4417965264571666,
2023-08-15 12:56:03.011000,8.301204819277109,-0.674698795180723,-5.46987951807229,-0.6204782342121398,9.009809932556713,-4.873083997547517,2.0,1.4366300366300364,696.0734319224887,1.7288036827690676,-0.04848202319212169,-1.0594953674028325,1130.4029304029302,-1.0,91.08125636986937,1.4416921329781547,
2023-08-15 12:56:03.018000,8.301204819277109,-0.6626506024096386,-5.481927710843374,-0.5052115266707541,8.990190067443287,-4.890251379521765,2.0,1.4366300366300364,696.0734319224887,1.584639589767497,0.07248994813822088,-0.8788532136821857,1130.4029304029302,-1.0,91.08125636986937,1.4415867498034873,
2023-08-15 12:56:03.026000,8.301204819277109,-0.6506024096385542,-5.481927710843374,-0.5591661557326794,8.936235438381361,-4.902513795217658,2.0,1.4366300366300364,696.0734319224887,1.2434007342229498,0.03845929724375067,-0.9469145154711257,1136.9963369963368,-1.0,91.08125636986937,1.4414804671101018,
2023-08-15 12:56:03.034000,8.289156626506024,-0.6626506024096386,-5.46987951807229,-0.5469037400367872,8.997547516860822,-4.887798896382587,2.0,1.4366300366300364,696.0734319224887,1.2113513198531538,0.29905017190140437,-0.6771167181399685,1148.7179487179487,-1.0,91.08125636986937,1.4413733753763727,
2023-08-15 12:56:03.041000,8.228915662650603,-0.6626506024096386,-5.481927710843374,-0.5027590435315757,8.960760269773145,-4.855916615573268,2.0,1.4366300366300364,696.0734319224887,0.8126566050929452,0.14544606957636508,-0.6872559874133208,1164.102564102564,-1.0,91.08125636986937,1.441265565198633,
2023-08-15 12:56:03.049000,8.240963855421688,-0.6867469879518072,-5.46987951807229,-0.5248313917841815,8.904353157572041,-4.9074187614960145,2.0,1.4351648351648352,696.7840735068913,0.797855602820346,0.14707767612610026,-0.6789814113396654,1182.4175824175823,-1.0,91.08125636986937,1.4411571271252204,
2023-08-15 12:56:03.057000,8.228915662650603,-0.6987951807228916,-5.445783132530121,-0.5370938074800735,8.93868792152054,-4.853464132434089,2.0,1.4366300366300364,696.0734319224887,1.3650719655031776,0.3927510051861774,-0.6698910319911424,1205.128205128205,-1.0,91.08125636986937,1.441048151558768,
2023-08-15 12:56:03.064000,8.204819277108435,-0.710843373493976,-5.46987951807229,-0.6033108522378908,8.865113427345186,-4.8412017167381975,2.0,1.4351648351648352,696.7840735068913,1.1023833109958618,0.34636676184371595,-0.7734980478993064,1227.8388278388277,-1.0,91.08125636986937,1.4409387290894207,
2023-08-15 12:56:03.072000,8.216867469879519,-0.710843373493976,-5.46987951807229,-0.598405885959534,8.870018393623543,-4.902513795217658,2.0,1.4351648351648352,696.7840735068913,1.1311695122661822,-0.02086125517160965,-0.5357496649379401,1249.8168498168498,-1.0,91.08125636986937,1.44082895005147,
2023-08-15 12:56:03.080000,8.204819277108435,-0.710843373493976,-5.46987951807229,-0.6180257510729613,8.887185775597793,-4.787247087676272,2.0,1.4366300366300364,696.0734319224887,0.8868947031058769,-0.13775421012761427,-0.7442456733290601,1269.5970695970695,-1.0,91.08125636986937,1.4407189040983444,
2023-08-15 12:56:03.087000,8.228915662650603,-0.6987951807228916,-5.457831325301205,-0.6033108522378908,8.946045370938075,-4.853464132434089,2.0,1.4366300366300364,696.0734319224887,0.8440067595128474,-0.22702639706310856,-0.7823553405978674,1290.10989010989,-1.0,91.08125636986937,1.440608681087591,
2023-08-15 12:56:03.095000,8.27710843373494,-0.6867469879518072,-5.421686746987952,-0.6204782342121398,8.963212752912323,-4.917228694052728,2.0,1.4366300366300364,696.0734319224887,1.0929433016723948,-0.4210710331565762,-0.5743255055066712,1312.087912087912,-1.0,91.08125636986937,1.440498370953322,
2023-08-15 12:56:03.103000,8.301204819277109,-0.6987951807228916,-5.421686746987952,-0.5665236051502146,8.950950337216431,-4.838749233599018,2.0,1.4366300366300364,696.0734319224887,0.9120680613017914,-0.20604859856651633,-0.36652875706543886,1331.8681318681317,-1.0,91.08125636986937,1.44038806319672,
2023-08-15 12:56:03.110000,8.265060240963855,-0.6867469879518072,-5.421686746987952,-0.568976088289393,8.970570202329858,-4.824034334763948,2.0,1.4351648351648352,696.7840735068913,1.0401491754559735,-0.3442689819940557,-0.511858283316823,1351.6483516483515,-1.0,91.08125636986937,1.440277846967075,
2023-08-15 12:56:03.118000,8.27710843373494,-0.6867469879518072,-5.409638554216868,-0.5861434702636419,8.973022685469036,-4.873083997547517,2.0,1.4351648351648352,696.7840735068913,0.8907406328302532,-0.6824777110890975,-0.0904376201853044,1368.4981684981683,-1.0,91.08125636986937,1.440167810485055,
2023-08-15 12:56:03.126000,8.289156626506024,-0.6987951807228916,-5.433734939759036,-0.6131207847946045,9.041692213366032,-4.83629675045984,2.0,1.4351648351648352,696.7840735068913,1.0931763883223602,-0.3155993240487144,-0.17551424742147861,1382.4175824175823,-1.0,91.08125636986937,1.4400580407530228,
2023-08-15 12:56:03.133000,8.301204819277109,-0.710843373493976,-5.421686746987952,-0.5787860208461066,9.01471489883507,-4.735744941753525,2.0,1.4351648351648352,696.7840735068913,0.9138162111765039,-0.5169861896159903,-0.2746926169803627,1390.4761904761904,-1.0,91.08125636986937,1.4399486239333121,
2023-08-15 12:56:03.141000,8.313253012048193,-0.6987951807228916,-5.433734939759036,-0.6376456161863887,8.980380134886571,-4.83629675045984,2.0,1.4351648351648352,696.7840735068913,1.252840743546415,-0.1517394091253424,-0.035429170794241974,1395.6043956043954,-1.0,91.08125636986937,1.4398396451237025,
2023-08-15 12:56:03.149000,8.337349397590362,-0.6987951807228916,-5.409638554216868,-0.5959534028203556,9.039239730226853,-4.784794604537094,2.0,1.4351648351648352,696.7840735068913,0.9811782530155593,-0.25942544140784357,-0.594487500728395,1396.3369963369962,-1.0,91.08125636986937,1.439731188286165,
2023-08-15 12:56:03.156000,8.337349397590362,-0.674698795180723,-5.397590361445784,-0.5419987737584304,9.036787247087675,-4.804414469650521,2.0,1.4366300366300364,696.0734319224887,1.2305809684750317,-0.2896101625779375,-0.11199813530680036,1391.2087912087911,-1.0,91.08125636986937,1.4396233361590065,
2023-08-15 12:56:03.164000,8.337349397590362,-0.674698795180723,-5.397590361445784,-0.5861434702636419,9.04659717964439,-4.801961986511342,2.0,1.4351648351648352,696.7840735068913,1.138511741739994,-0.1548860788998302,-0.3985781714352305,1380.2197802197802,-1.0,91.08125636986937,1.4395161708054147,
2023-08-15 12:56:03.172000,8.361445783132531,-0.674698795180723,-5.421686746987952,-0.6474555487431024,9.049049662783569,-4.819129368485592,2.0,1.4351648351648352,696.7840735068913,1.4429229065905256,-0.01794767204708353,-0.8506497290367695,1364.8351648351647,-1.0,91.08125636986937,1.439409773351743,
2023-08-15 12:56:03.179000,8.337349397590362,-0.674698795180723,-5.421686746987952,-0.5321888412017167,9.031882280809318,-4.792152053954629,2.0,1.4351648351648352,696.7840735068913,1.426373754443212,-0.35638948779208696,-0.9471476021210882,1349.4505494505493,-1.0,91.08125636986937,1.439304223320848,
2023-08-15 12:56:03.187000,8.337349397590362,-0.674698795180723,-5.433734939759036,-0.6302881667688535,8.975475168608215,-4.82158185162477,2.0,1.4351648351648352,696.7840735068913,1.268341005768894,-0.09440009323465978,-0.7842200337975642,1334.065934065934,-1.0,91.08125636986937,1.4391995989464588,
2023-08-15 12:56:03.195000,8.325301204819278,-0.674698795180723,-5.409638554216868,-0.5640711220110362,8.987737584304108,-4.811771919068057,2.0,1.4351648351648352,696.7840735068913,1.4171668317697121,0.11875764815570147,-0.6081230697511792,1315.7509157509157,-1.0,91.08125636986937,1.4390959770280725,
2023-08-15 12:56:03.202000,8.289156626506024,-0.6867469879518072,-5.421686746987952,-0.5836909871244634,8.995095033721643,-4.806866952789699,2.0,1.4351648351648352,696.7840735068913,1.7481498747159245,0.14940854262572048,-0.7985548627702345,1296.7032967032967,-1.0,91.08125636986937,1.4389934327847125,
2023-08-15 12:56:03.210000,8.265060240963855,-0.6626506024096386,-5.421686746987952,-0.627835683629675,8.985285101164928,-4.814224402207235,2.0,1.4351648351648352,696.7840735068913,1.844414661150283,-0.005943709574034809,-1.1386282850649727,1277.6556776556777,-1.0,91.08125636986937,1.4388920397079876,
2023-08-15 12:56:03.218000,8.25301204819277,-0.6506024096385542,-5.445783132530121,-0.5959534028203556,8.958307786633966,-4.784794604537094,2.0,1.4351648351648352,696.7840735068913,2.0456849833925745,-0.003612843074412873,-1.2964279470893298,1261.5384615384614,-1.0,91.08125636986937,1.4387918694149617,
2023-08-15 12:56:03.225000,8.27710843373494,-0.6626506024096386,-5.433734939759036,-0.5738810545677498,8.965665236051501,-4.887798896382587,2.0,1.4351648351648352,696.7840735068913,2.107802575607484,-0.17003671114736846,-1.0543674611036664,1243.956043956044,-1.0,91.08125636986937,1.4386929915013467,
2023-08-15 12:56:03.233000,8.265060240963855,-0.6626506024096386,-5.433734939759036,-0.568976088289393,8.909258123850398,-4.851011649294911,2.0,1.4351648351648352,696.7840735068913,2.2913583124526533,0.16863819124759666,-1.1652001631606541,1231.5018315018315,-1.0,91.08125636986937,1.4385954733955668,
2023-08-15 12:56:03.241000,8.240963855421688,-0.6506024096385542,-5.433734939759036,-0.5787860208461066,8.933782955242183,-4.887798896382587,2.0,1.4336996336996337,697.4961676034748,1.9841501078025732,-0.04556844006759558,-1.2275508420255232,1221.9780219780218,-1.0,91.08125636986937,1.4384993789308271,
2023-08-15 12:56:03.248000,8.265060240963855,-0.6385542168674699,-5.46987951807229,-0.4904966278356836,8.889638258736971,-4.8779889638258735,2.0,1.4351648351648352,696.7840735068913,2.3051104248004184,-0.5646524095332444,-1.1686964629100867,1213.9194139194137,-1.0,91.08125636986937,1.438404768356365,
2023-08-15 12:56:03.256000,8.240963855421688,-0.6385542168674699,-5.46987951807229,-0.5444512568976088,8.909258123850398,-4.860821581851624,2.0,1.4351648351648352,696.7840735068913,2.150690519200515,-0.5898257677291537,-1.031874599382319,1208.058608058608,-1.0,91.08125636986937,1.4383116994618874,
2023-08-15 12:56:03.264000,8.228915662650603,-0.6385542168674699,-5.506024096385542,-0.5640711220110362,8.914163090128755,-4.858369098712446,2.0,1.4351648351648352,696.7840735068913,1.9960375269506463,-0.40137521123477665,-1.0781422993998009,1206.5934065934066,-1.0,91.08125636986937,1.438220227992029,
2023-08-15 12:56:03.271000,8.265060240963855,-0.6385542168674699,-5.493975903614458,-0.5665236051502146,8.919068056407111,-4.875536480686695,2.0,1.4351648351648352,696.7840735068913,2.1790105471709085,-0.5986830604277146,-1.001223704912301,1207.3260073260074,-1.0,91.08125636986937,1.4381304074715267,
2023-08-15 12:56:03.279000,8.25301204819277,-0.6265060240963856,-5.506024096385542,-0.551808706315144,8.992642550582465,-4.904966278356836,2.0,1.4351648351648352,696.7840735068913,2.0264553347707,-0.48645183847095214,-0.9246547403997429,1209.5238095238094,-1.0,91.08125636986937,1.4380422881229364,
2023-08-15 12:56:03.287000,8.25301204819277,-0.6385542168674699,-5.493975903614458,-0.5346413243408952,8.958307786633966,-4.931943592887799,2.0,1.4351648351648352,696.7840735068913,1.9639881125808503,-0.6055591166015961,-1.2306975118000123,1215.3846153846152,-1.0,91.08125636986937,1.4379559168084488,
2023-08-15 12:56:03.294000,8.240963855421688,-0.6144578313253012,-5.481927710843374,-0.551808706315144,8.98283261802575,-4.919681177191906,2.0,1.4351648351648352,696.7840735068913,1.9191189324631432,-0.6765340015150626,-1.090728978497756,1220.5128205128203,-1.0,91.08125636986937,1.4378713373996785,
2023-08-15 12:56:03.302000,8.289156626506024,-0.6265060240963856,-5.481927710843374,-0.47332924586143466,8.992642550582465,-4.939301042305334,2.0,1.4351648351648352,696.7840735068913,1.7498980245906424,-0.7653400151506319,-1.1204475263679265,1227.8388278388277,-1.0,91.08125636986937,1.437788590662896,
2023-08-15 12:56:03.310000,8.289156626506024,-0.6385542168674699,-5.506024096385542,-0.5321888412017167,8.992642550582465,-4.855916615573268,2.0,1.4351648351648352,696.7840735068913,1.8601480100227255,-0.7031058796107454,-1.0889808286230414,1234.4322344322343,-1.0,91.08125636986937,1.4377077141528696,
2023-08-15 12:56:03.317000,8.289156626506024,-0.6385542168674699,-5.481927710843374,-0.5346413243408952,8.941140404659718,-4.941753525444512,2.0,1.4351648351648352,696.7840735068913,1.3430452770817543,-0.5020686440184138,-1.040265718780957,1238.095238095238,-1.0,91.08125636986937,1.4376287421158573,
2023-08-15 12:56:03.325000,8.313253012048193,-0.6626506024096386,-5.481927710843374,-0.5493562231759657,8.96811771919068,-4.892703862660944,2.0,1.4351648351648352,696.7840735068913,1.3211351319853135,-0.5020686440184138,-1.0217353301089689,1238.8278388278388,-1.0,91.08125636986937,1.4375517054022307,
2023-08-15 12:56:03.332000,8.27710843373494,-0.6626506024096386,-5.506024096385542,-0.5248313917841815,8.970570202329858,-4.9074187614960145,2.0,1.4351648351648352,696.7840735068913,1.5884855194918697,-0.5155876697162168,-0.9420196958219219,1240.2930402930401,-1.0,91.08125636986937,1.4374766318470047,
2023-08-15 12:56:03.340000,8.289156626506024,-0.6506024096385542,-5.493975903614458,-0.5493562231759657,8.995095033721643,-4.904966278356836,2.0,1.4351648351648352,696.7840735068913,1.6547986714060967,-0.21001107161587346,-0.954256744944934,1239.5604395604396,-1.0,91.08125636986937,1.4374035456778511,
2023-08-15 12:56:03.348000,8.325301204819278,-0.6506024096385542,-5.481927710843374,-0.5714285714285714,8.946045370938075,-4.843654199877376,2.0,1.4351648351648352,696.7840735068913,1.8904492745178045,-0.18017598042072205,-0.8896917429054261,1239.5604395604396,-1.0,91.08125636986937,1.4373324670379086,
2023-08-15 12:56:03.355000,8.289156626506024,-0.6385542168674699,-5.421686746987952,-0.5248313917841815,9.007357449417535,-4.8412017167381975,2.0,1.4351648351648352,696.7840735068913,2.1558184254996777,-0.41081522055824177,-1.1781364722335534,1240.2930402930401,-1.0,91.08125636986937,1.4372634124328616,
2023-08-15 12:56:03.363000,8.265060240963855,-0.6385542168674699,-5.385542168674699,-0.49294911097486205,8.948497854077253,-4.855916615573268,2.0,1.4351648351648352,696.7840735068913,2.038342753918768,-0.7772274342986998,-1.5109842083794642,1238.8278388278388,-1.0,91.08125636986937,1.437196395154619,
2023-08-15 12:56:03.371000,8.25301204819277,-0.6626506024096386,-5.373493975903615,-0.5003065603923973,8.941140404659718,-4.752912323727774,2.0,1.4366300366300364,696.0734319224887,2.150457432550549,-0.05559116601596661,-1.1392110016898773,1236.6300366300366,-1.0,91.08125636986937,1.437131425191469,
2023-08-15 12:56:03.378000,8.265060240963855,-0.674698795180723,-5.373493975903615,-0.5763335377069282,8.941140404659718,-4.782342121397915,2.0,1.4366300366300364,696.0734319224887,2.1857700600198133,-0.4679214497989627,-1.1541285472874538,1235.164835164835,-1.0,91.08125636986937,1.4370685092215632,
2023-08-15 12:56:03.386000,8.265060240963855,-0.674698795180723,-5.385542168674699,-0.5444512568976088,8.995095033721643,-4.806866952789699,2.0,1.4366300366300364,696.0734319224887,2.462910086824776,-0.35778800769185876,-1.2459646873725314,1234.4322344322343,-1.0,91.08125636986937,1.4370076502319777,
2023-08-15 12:56:03.394000,8.25301204819277,-0.6867469879518072,-5.397590361445784,-0.568976088289393,8.980380134886571,-4.809319435928877,2.0,1.4366300366300364,696.0734319224887,2.86043936833518,-0.1420663131519139,-1.2306975118000123,1236.6300366300366,-1.0,91.08125636986937,1.4369488476075902,
2023-08-15 12:56:03.401000,8.25301204819277,-0.674698795180723,-5.409638554216868,-0.5836909871244634,8.992642550582465,-4.797057020232986,2.0,1.4366300366300364,696.0734319224887,2.886894703105881,-0.020161995221722892,-1.4743896043354126,1241.7582417582416,-1.0,91.08125636986937,1.436892097127906,
2023-08-15 12:56:03.409000,8.27710843373494,-0.6987951807228916,-5.397590361445784,-0.5812385039852851,8.911710606989576,-4.806866952789699,2.0,1.4380952380952383,695.3642384105959,3.2491113571470214,-0.6893537672629789,-1.3033040032632135,1251.2820512820513,-1.0,91.08125636986937,1.4368373905877843,
2023-08-15 12:56:03.417000,8.25301204819277,-0.6987951807228916,-5.409638554216868,-0.5738810545677498,8.992642550582465,-4.784794604537094,2.0,1.4380952380952383,695.3642384105959,3.347940096730958,-1.1541285472874538,-1.1348988986655786,1265.2014652014652,-1.0,91.08125636986937,1.4367847172942667,
2023-08-15 12:56:03.424000,8.289156626506024,-0.6987951807228916,-5.409638554216868,-0.6106683016554261,8.955855303494788,-4.748007357449417,2.0,1.4380952380952383,695.3642384105959,3.111007517044458,-1.2623972961948609,-1.0307091661325094,1282.051282051282,-1.0,91.08125636986937,1.4367340636795531,
2023-08-15 12:56:03.432000,8.289156626506024,-0.6867469879518072,-5.397590361445784,-0.6376456161863887,8.980380134886571,-4.801961986511342,2.0,1.4380952380952383,695.3642384105959,3.148534467688366,-1.2939805372647284,-1.019521006934327,1304.7619047619046,-1.0,91.08125636986937,1.4366854129633884,
2023-08-15 12:56:03.440000,8.27710843373494,-0.6987951807228916,-5.433734939759036,-0.6204782342121398,8.946045370938075,-4.828939301042305,2.0,1.4380952380952383,695.3642384105959,3.061826233902455,-0.8395781131635688,-0.8238447642911254,1331.8681318681317,-1.0,91.08125636986937,1.4366387452158502,
2023-08-15 12:56:03.447000,8.301204819277109,-0.7349397590361446,-5.457831325301205,-0.5861434702636419,8.960760269773145,-4.851011649294911,2.0,1.4395604395604398,694.6564885496182,2.7903968300215576,-1.0316415127323586,-0.9501777285705948,1361.904761904762,-1.0,91.08125636986937,1.4365940370434644,
2023-08-15 12:56:03.455000,8.289156626506024,-0.746987951807229,-5.445783132530121,-0.6008583690987124,8.965665236051501,-4.865726548129981,2.0,1.4395604395604398,694.6564885496182,2.846454169337453,-0.7767612609987764,-0.5865625546296838,1395.6043956043954,-1.0,91.08125636986937,1.4365512631505666,
2023-08-15 12:56:03.463000,8.27710843373494,-0.746987951807229,-5.46987951807229,-0.6866952789699571,8.948497854077253,-4.9000613120784795,2.0,1.4380952380952383,695.3642384105959,2.6536915098187768,-0.5122079132917673,-0.8180175980420719,1435.164835164835,-1.0,91.08125636986937,1.4365103960155952,
2023-08-15 12:56:03.470000,8.25301204819277,-0.7710843373493976,-5.457831325301205,-0.7063151440833844,8.987737584304108,-4.956468424279583,2.0,1.4395604395604398,694.6564885496182,2.65881941611794,-0.8148709282675828,-1.016141250509878,1477.6556776556777,-1.0,91.08125636986937,1.4364714051226126,
2023-08-15 12:56:03.478000,8.27710843373494,-0.7951807228915663,-5.481927710843374,-0.6548129981606376,8.98283261802575,-4.927038626609442,2.0,1.4395604395604398,694.6564885496182,2.237515296311402,-1.0558825243284196,-1.1808169687081183,1520.14652014652,-1.0,91.08125636986937,1.436434257962389,
2023-08-15 12:56:03.486000,8.289156626506024,-0.7951807228915663,-5.506024096385542,-0.640098099325567,8.990190067443287,-4.892703862660944,2.0,1.4395604395604398,694.6564885496182,1.8046733873317387,-0.7609113688013514,-1.237923197948838,1563.3699633699632,-1.0,91.08125636986937,1.4363989202335354,
2023-08-15 12:56:03.493000,8.301204819277109,-0.7710843373493976,-5.518072289156627,-0.6229307173513182,8.973022685469036,-4.909871244635193,2.0,1.4395604395604398,694.6564885496182,1.586970456267117,-0.3903035953615763,-0.8036827690694004,1606.5934065934066,-1.0,91.08125636986937,1.4363653555617495,
2023-08-15 12:56:03.501000,8.27710843373494,-0.783132530120482,-5.506024096385542,-0.6474555487431024,8.987737584304108,-4.9074187614960145,2.0,1.4410256410256412,693.950177935943,1.160654973486393,-0.43598857875415103,-1.1685799195851063,1648.3516483516482,-1.0,91.08125636986937,1.436333525684611,
2023-08-15 12:56:03.509000,8.27710843373494,-0.7590361445783133,-5.493975903614458,-0.6425505824647455,9.0,-4.941753525444512,2.0,1.4395604395604398,694.6564885496182,0.9816444263154827,-0.20651477186644143,-1.3473573801060534,1680.5860805860805,-1.0,91.08125636986937,1.4363033911358318,
2023-08-15 12:56:03.516000,8.289156626506024,-0.783132530120482,-5.518072289156627,-0.6891477621091354,8.92152053954629,-4.954015941140405,2.0,1.4410256410256412,693.950177935943,0.7570654390769751,-0.6194277722743434,-1.007400501136297,1705.4945054945053,-1.0,91.08125636986937,1.4362749114801927,
2023-08-15 12:56:03.524000,8.301204819277109,-0.7710843373493976,-5.481927710843374,-0.645003065603924,8.950950337216431,-4.9000613120784795,2.0,1.4410256410256412,693.950177935943,0.7014742730610103,-0.3869238389371234,-0.7588135889516928,1719.4139194139193,-1.0,91.08125636986937,1.4362480449591288,
2023-08-15 12:56:03.532000,8.265060240963855,-0.7710843373493976,-5.457831325301205,-0.6057633353770693,8.95340282035561,-4.843654199877376,2.0,1.4410256410256412,693.950177935943,0.418623623331976,-0.5076627236175061,-1.0473748616048006,1723.8095238095236,-1.0,91.08125636986937,1.4362227488068902,
2023-08-15 12:56:03.539000,8.265060240963855,-0.7590361445783133,-5.481927710843374,-0.6916002452483139,8.987737584304108,-4.851011649294911,2.0,1.4410256410256412,693.950177935943,0.18611968999475512,-0.4436804382029036,-0.8585746751354802,1718.6813186813185,-1.0,91.08125636986937,1.4361989795005303,
2023-08-15 12:56:03.547000,8.25301204819277,-0.7710843373493976,-5.481927710843374,-0.6695278969957081,8.960760269773145,-4.8779889638258735,2.0,1.4424908424908425,693.2453021838496,0.3661791270904972,-0.36454752054076117,-0.9930656721636276,1704.0293040293038,-1.0,91.08125636986937,1.4361766929777695,
2023-08-15 12:56:03.555000,8.27710843373494,-0.7710843373493976,-5.445783132530121,-0.657265481299816,8.96811771919068,-4.902513795217658,2.0,1.4424908424908425,693.2453021838496,-0.004312103024297024,-0.1752811607715165,-0.9576365013693835,1676.1904761904761,-1.0,91.08125636986937,1.4361558453491392,
2023-08-15 12:56:03.562000,8.289156626506024,-0.7590361445783133,-5.445783132530121,-0.6253832004904966,8.997547516860822,-4.848559166155733,2.0,1.4424908424908425,693.2453021838496,-0.07866674436221562,0.16595769477303224,-1.0335062059320559,1636.6300366300366,-1.0,91.08125636986937,1.436136393190214,
2023-08-15 12:56:03.570000,8.289156626506024,-0.7590361445783133,-5.445783132530121,-0.6817903126916002,8.955855303494788,-4.816676885346413,2.0,1.4424908424908425,693.2453021838496,-0.03076743779499897,-0.2590758114328993,-0.5918070042538323,1595.6043956043954,-1.0,91.08125636986937,1.4361182933088286,
2023-08-15 12:56:03.578000,8.289156626506024,-0.7590361445783133,-5.421686746987952,-0.7014101778050276,8.985285101164928,-4.83629675045984,2.0,1.4424908424908425,693.2453021838496,0.03274867431967927,-0.26583532428180345,-0.8563603519608409,1553.113553113553,-1.0,91.08125636986937,1.4361015029691833,
2023-08-15 12:56:03.585000,8.289156626506024,-0.7349397590361446,-5.421686746987952,-0.6621704475781729,8.985285101164928,-4.855916615573268,2.0,1.4424908424908425,693.2453021838496,-0.17796165724608268,-0.015500262222480757,-0.9084552182273763,1508.4249084249084,-1.0,91.08125636986937,1.4360859801138492,
2023-08-15 12:56:03.593000,8.289156626506024,-0.7349397590361446,-5.409638554216868,-0.615573267933783,8.995095033721643,-4.863274064990803,2.0,1.4424908424908425,693.2453021838496,0.07365538138803271,0.38785618553697354,-1.0790746459996512,1464.4688644688645,-1.0,91.08125636986937,1.4360716835825582,
2023-08-15 12:56:03.601000,8.301204819277109,-0.7349397590361446,-5.385542168674699,-0.6695278969957081,9.01471489883507,-4.851011649294911,2.0,1.4424908424908425,693.2453021838496,0.061418332265018846,0.39403298176097007,-1.0674203135015436,1421.245421245421,-1.0,91.08125636986937,1.4360585737845517,
2023-08-15 12:56:03.608000,8.289156626506024,-0.7228915662650602,-5.385542168674699,-0.640098099325567,8.997547516860822,-4.86817903126916,2.0,1.4424908424908425,693.2453021838496,-0.11537789173125026,-0.08799021036070162,-1.164267816560807,1380.952380952381,-1.0,91.08125636986937,1.4360466123824982,
2023-08-15 12:56:03.616000,8.289156626506024,-0.7228915662650602,-5.421686746987952,-0.6302881667688535,8.975475168608215,-4.794604537093807,2.0,1.4424908424908425,693.2453021838496,-0.12563370432958643,0.0749373579628219,-1.2587844531204477,1344.3223443223442,-1.0,91.08125636986937,1.4360357625317852,
2023-08-15 12:56:03.624000,8.289156626506024,-0.6987951807228916,-5.409638554216868,-0.640098099325567,8.98283261802575,-4.799509503372164,2.0,1.4424908424908425,693.2453021838496,-0.13332556377833554,0.18728512324456695,-1.0032049414369804,1312.8205128205127,-1.0,91.08125636986937,1.4360259890423783,
2023-08-15 12:56:03.631000,8.301204819277109,-0.7228915662650602,-5.397590361445784,-0.5885959534028203,9.012262415695892,-4.848559166155733,2.0,1.443956043956044,692.5418569254185,0.5781714352310483,0.35953615756657475,-1.0681195734514304,1283.5164835164835,-1.0,91.08125636986937,1.4360172586012898,
2023-08-15 12:56:03.639000,8.301204819277109,-0.6987951807228916,-5.421686746987952,-0.5910484365419988,8.93868792152054,-4.82158185162477,2.0,1.443956043956044,692.5418569254185,0.47712837247246787,-0.18903327311928123,-0.9928325855136655,1258.6080586080586,666.412353515625,90.03434537711225,1.4360095408661384,
2023-08-15 12:56:03.647000,8.27710843373494,-0.674698795180723,-5.433734939759036,-0.5836909871244634,8.941140404659718,-4.740649908031882,2.0,1.443956043956044,692.5418569254185,0.7125458889342106,-0.016432608822329185,-0.9652118174931539,1239.5604395604396,-1.0,90.03434537711225,1.4360028077560072,
2023-08-15 12:56:03.654000,8.289156626506024,-0.6506024096385542,-5.445783132530121,-0.551808706315144,8.973022685469036,-4.833844267320662,2.0,1.443956043956044,692.5418569254185,0.5634869762834326,-0.37923197948837434,-1.1035487442456737,1225.6410256410256,-1.0,90.03434537711225,1.4359970336813863,
2023-08-15 12:56:03.662000,8.27710843373494,-0.6385542168674699,-5.421686746987952,-0.5591661557326794,8.98283261802575,-4.831391784181483,2.0,1.4424908424908425,693.2453021838496,0.7964570829205768,-0.24800419555969905,-0.842724782938057,1210.2564102564102,-1.0,90.03434537711225,1.435992196115642,
2023-08-15 12:56:03.670000,8.313253012048193,-0.6265060240963856,-5.457831325301205,-0.5812385039852851,8.980380134886571,-4.855916615573268,2.0,1.443956043956044,692.5418569254185,0.6780490647398179,-0.12015616805547498,-0.8419089796631898,1202.197802197802,-1.0,90.03434537711225,1.435988275205393,
2023-08-15 12:56:03.677000,8.265060240963855,-0.6144578313253012,-5.457831325301205,-0.510116492949111,9.036787247087675,-4.88289393010423,2.0,1.443956043956044,692.5418569254185,1.1071615873200873,0.024241011596060846,-0.9472641454460695,1199.2673992673992,-1.0,90.03434537711225,1.4359852537897921,
2023-08-15 12:56:03.685000,8.265060240963855,-0.6024096385542169,-5.481927710843374,-0.4659717964438994,8.970570202329858,-4.828939301042305,2.0,1.443956043956044,692.5418569254185,1.2439834508478516,-0.4429811782530151,-0.7022900763358778,1200.7326007326008,-1.0,90.03434537711225,1.435983118071091,
2023-08-15 12:56:03.692000,8.265060240963855,-0.6024096385542169,-5.46987951807229,-0.5248313917841815,8.914163090128755,-4.88289393010423,2.0,1.4454212454212458,691.8398378104408,0.8775712371073935,-0.14136705320202714,-1.0258143464833056,1205.8608058608058,-1.0,90.03434537711225,1.4359818572171206,
2023-08-15 12:56:03.700000,8.27710843373494,-0.5903614457831325,-5.445783132530121,-0.5125689760882893,9.007357449417535,-4.8779889638258735,2.0,1.4454212454212458,691.8398378104408,1.2311636850999352,0.1562845987996037,-0.9789639298409191,1212.4542124542124,-1.0,90.03434537711225,1.4359814635098793,
2023-08-15 12:56:03.708000,8.265060240963855,-0.5783132530120483,-5.445783132530121,-0.49540159411404044,8.943592887798896,-4.895156345800122,2.0,1.4454212454212458,691.8398378104408,1.1213798729677746,-0.20348464541693448,-1.3155410523862252,1220.5128205128203,-1.0,90.03434537711225,1.4359819329705454,
2023-08-15 12:56:03.715000,8.27710843373494,-0.5903614457831325,-5.518072289156627,-0.5052115266707541,8.904353157572041,-4.924586143470264,2.0,1.4454212454212458,691.8398378104408,1.1664821397354468,0.0621175922149056,-1.0242992832585511,1228.5714285714284,-1.0,90.03434537711225,1.4359832649506923,
2023-08-15 12:56:03.723000,8.25301204819277,-0.5783132530120483,-5.506024096385542,-0.4537093807480073,8.990190067443287,-4.927038626609442,2.0,1.4454212454212458,691.8398378104408,1.4247421478934785,-0.11036652875706562,-1.011246430860671,1239.5604395604396,-1.0,90.03434537711225,1.435985462165069,
2023-08-15 12:56:03.731000,8.25301204819277,-0.5903614457831325,-5.506024096385542,-0.47332924586143466,9.004904966278357,-4.941753525444512,2.0,1.4454212454212458,691.8398378104408,1.4370957403414706,0.11677641163102377,-1.290134607540353,1256.4102564102564,-1.0,90.03434537711225,1.4359885307077889,
2023-08-15 12:56:03.738000,8.265060240963855,-0.5903614457831325,-5.493975903614458,-0.4904966278356836,8.977927651747393,-4.931943592887799,2.0,1.4454212454212458,691.8398378104408,1.7817143523104715,0.007225686148825746,-1.3214847619602583,1276.1904761904761,-1.0,90.03434537711225,1.4359924800518133,
2023-08-15 12:56:03.746000,8.301204819277109,-0.5783132530120483,-5.506024096385542,-0.48559166155732675,8.973022685469036,-4.887798896382587,2.0,1.4468864468864473,691.139240506329,1.331274401258669,-0.47223355282326235,-1.3065672163626834,1300.3663003663003,-1.0,90.03434537711225,1.4359973230315706,
2023-08-15 12:56:03.754000,8.265060240963855,-0.5903614457831325,-5.506024096385542,-0.5616186388718577,8.899448191293684,-4.917228694052728,2.0,1.4468864468864473,691.139240506329,1.5555037585222296,-0.10826874890740709,-1.5685566109201097,1325.2747252747251,-1.0,90.03434537711225,1.4360030767592937,
2023-08-15 12:56:03.761000,8.265060240963855,-0.6144578313253012,-5.518072289156627,-0.510116492949111,8.928877988963825,-4.9000613120784795,2.0,1.4468864468864473,691.139240506329,1.5341763300506974,-0.20802983509119577,-1.6298583998601477,1346.5201465201465,-1.0,90.03434537711225,1.4360097625789696,
2023-08-15 12:56:03.769000,8.265060240963855,-0.5783132530120483,-5.481927710843374,-0.39975475168608215,8.95340282035561,-4.922133660331085,2.0,1.4468864468864473,691.139240506329,1.5764815570188209,-0.0825126740865919,-1.52485286405221,1367.7655677655678,-1.0,90.03434537711225,1.4360174050580208,
2023-08-15 12:56:03.777000,8.265060240963855,-0.5783132530120483,-5.481927710843374,-0.5052115266707541,8.931330472103005,-4.865726548129981,2.0,1.4468864468864473,691.139240506329,1.5567857350970213,-0.3686265369150974,-1.5867373696171558,1385.3479853479853,-1.0,90.03434537711225,1.4360260319130926,
2023-08-15 12:56:03.784000,8.265060240963855,-0.6024096385542169,-5.46987951807229,-0.5150214592274678,8.914163090128755,-4.9368485591661555,2.0,1.4468864468864473,691.139240506329,1.6897616689004145,-0.026571878095682785,-1.403764349396888,1400.0,-1.0,90.03434537711225,1.4360356739196398,
2023-08-15 12:56:03.792000,8.25301204819277,-0.6024096385542169,-5.481927710843374,-0.510116492949111,8.919068056407111,-4.912323727774371,2.0,1.4468864468864473,691.139240506329,1.5296311403764344,0.035545714119224546,-1.4346483305168687,1409.5238095238094,-1.0,90.03434537711225,1.4360463648056927,
2023-08-15 12:56:03.800000,8.240963855421688,-0.6144578313253012,-5.457831325301205,-0.5248313917841815,8.948497854077253,-4.833844267320662,2.0,1.4483516483516488,690.4400606980272,2.0716741448633513,-0.39263446186119655,-1.4052794126216415,1414.6520146520145,-1.0,90.03434537711225,1.4360581415880822,
2023-08-15 12:56:03.807000,8.240963855421688,-0.6144578313253012,-5.457831325301205,-0.48313917841814835,8.977927651747393,-4.880441446965052,2.0,1.4483516483516488,690.4400606980272,2.031000524444963,-0.2847153429287337,-1.4482838995396534,1416.117216117216,-1.0,90.03434537711225,1.4360710444034235,
2023-08-15 12:56:03.815000,8.265060240963855,-0.6024096385542169,-5.445783132530121,-0.5297363580625383,8.90680564071122,-4.855916615573268,2.0,1.4468864468864473,691.139240506329,2.3243400734222943,-0.18903327311928123,-1.478235534059788,1411.7216117216117,-1.0,90.03434537711225,1.436085116008279,
2023-08-15 12:56:03.823000,8.301204819277109,-0.6265060240963856,-5.421686746987952,-0.4537093807480073,8.990190067443287,-4.853464132434089,2.0,1.4483516483516488,690.4400606980272,2.188450556494375,-0.41652584348231486,-1.3414136705320199,1403.6630036630036,-1.0,90.03434537711225,1.436100401619471,
2023-08-15 12:56:03.830000,8.325301204819278,-0.6144578313253012,-5.433734939759036,-0.5052115266707541,8.975475168608215,-4.860821581851624,2.0,1.4483516483516488,690.4400606980272,2.298467455276499,-0.4747975059728459,-1.5393042363498644,1393.4065934065934,-1.0,90.03434537711225,1.4361169490952155,
2023-08-15 12:56:03.838000,8.289156626506024,-0.6024096385542169,-5.433734939759036,-0.5150214592274678,9.034334763948497,-4.816676885346413,2.0,1.4483516483516488,690.4400606980272,2.5752578521065215,-0.503583707243168,-1.367169745352836,1380.952380952381,-1.0,90.03434537711225,1.4361348087874963,
2023-08-15 12:56:03.846000,8.301204819277109,-0.6024096385542169,-5.409638554216868,-0.5248313917841815,9.004904966278357,-4.8706315144083385,2.0,1.4483516483516488,690.4400606980272,2.603927510051861,-0.6050929433016727,-1.5779966202435771,1366.3003663003662,-1.0,90.03434537711225,1.436154032892619,
2023-08-15 12:56:03.853000,8.325301204819278,-0.6265060240963856,-5.409638554216868,-0.5076640098099325,9.026977314530962,-4.801961986511342,2.0,1.44981684981685,689.7422940879231,2.8908571761552357,-0.5668667327078838,-1.5913991026163958,1350.18315018315,-1.0,90.03434537711225,1.4361746752489772,
2023-08-15 12:56:03.861000,8.289156626506024,-0.6144578313253012,-5.397590361445784,-0.5248313917841815,8.973022685469036,-4.801961986511342,2.0,1.44981684981685,689.7422940879231,3.2825592914165855,-0.5602237631839639,-1.3594778859040835,1333.3333333333333,-1.0,90.03434537711225,1.4361967916177336,
2023-08-15 12:56:03.869000,8.301204819277109,-0.6144578313253012,-5.421686746987952,-0.5370938074800735,9.012262415695892,-4.814224402207235,2.0,1.44981684981685,689.7422940879231,3.31950352543558,-0.3114037643493973,-1.677291533127439,1315.7509157509157,-1.0,90.03434537711225,1.4362204399920726,
2023-08-15 12:56:03.876000,8.289156626506024,-0.6144578313253012,-5.433734939759036,-0.5297363580625383,8.958307786633966,-4.863274064990803,2.0,1.44981684981685,689.7422940879231,3.280811141541868,-0.30790746459996526,-1.6577122545306202,1301.098901098901,-1.0,90.03434537711225,1.436245679391116,
2023-08-15 12:56:03.884000,8.301204819277109,-0.6265060240963856,-5.397590361445784,-0.49294911097486205,8.975475168608215,-4.873083997547517,2.0,1.44981684981685,689.7422940879231,3.549093875648274,-0.4875007283957814,-1.9736612085542806,1288.6446886446886,-1.0,90.03434537711225,1.436272569209477,
2023-08-15 12:56:03.892000,8.289156626506024,-0.6385542168674699,-5.421686746987952,-0.5665236051502146,8.992642550582465,-4.8706315144083385,2.0,1.44981684981685,689.7422940879231,3.661907814229938,-0.35883689761668974,-1.995338267000756,1279.120879120879,-1.0,90.03434537711225,1.436301169932626,
2023-08-15 12:56:03.899000,8.337349397590362,-0.6626506024096386,-5.433734939759036,-0.5959534028203556,9.02942979767014,-4.846106683016554,2.0,1.44981684981685,689.7422940879231,3.8967426140667776,-0.35242701474272986,-2.1558184254996786,1271.7948717948716,-1.0,90.03434537711225,1.4363315428302619,
2023-08-15 12:56:03.907000,8.289156626506024,-0.6626506024096386,-5.481927710843374,-0.615573267933783,9.019619865113427,-4.83629675045984,2.0,1.44981684981685,689.7422940879231,3.9166715226385405,-0.4075520074587731,-2.160713245148886,1268.8644688644688,-1.0,90.03434537711225,1.4363637492254202,
2023-08-15 12:56:03.915000,8.265060240963855,-0.6626506024096386,-5.481927710843374,-0.6204782342121398,8.926425505824646,-4.860821581851624,2.0,1.44981684981685,689.7422940879231,4.057805489190607,-0.4186236233319734,-2.243925179185363,1264.4688644688645,-1.0,90.03434537711225,1.4363978502534984,
2023-08-15 12:56:03.922000,8.25301204819277,-0.6626506024096386,-5.481927710843374,-0.5419987737584304,8.970570202329858,-4.838749233599018,2.0,1.4512820512820515,689.0459363957597,4.442048831653168,-0.4765456558475619,-2.141367053202026,1262.2710622710622,-1.0,90.03434537711225,1.4364339066195975,
2023-08-15 12:56:03.930000,8.289156626506024,-0.6626506024096386,-5.457831325301205,-0.551808706315144,8.936235438381361,-4.858369098712446,2.0,1.4512820512820515,689.0459363957597,4.259425441407842,-0.366412213740458,-2.55777635335936,1257.8754578754579,-1.0,90.03434537711225,1.4364719788478815,
2023-08-15 12:56:03.938000,8.289156626506024,-0.6626506024096386,-5.457831325301205,-0.5836909871244634,8.950950337216431,-4.855916615573268,2.0,1.4512820512820515,689.0459363957597,4.38202901928792,-0.19521006934327773,-2.405221140959151,1254.9450549450548,-1.0,90.03434537711225,1.4365121271108787,
2023-08-15 12:56:03.945000,8.25301204819277,-0.6626506024096386,-5.433734939759036,-0.5174739423666462,8.904353157572041,-4.9074187614960145,2.0,1.4512820512820515,689.0459363957597,4.321659576947727,-0.45405279412621713,-2.5912242876289255,1253.4798534798533,-1.0,90.03434537711225,1.4365544105357306,
2023-08-15 12:56:03.953000,8.25301204819277,-0.6385542168674699,-5.46987951807229,-0.49294911097486205,8.93868792152054,-4.890251379521765,2.0,1.4512820512820515,689.0459363957597,4.766971621700365,-0.604976399976692,-2.422702639706312,1254.212454212454,-1.0,90.03434537711225,1.4365988869714188,
2023-08-15 12:56:03.961000,8.265060240963855,-0.6265060240963856,-5.481927710843374,-0.5469037400367872,8.931330472103005,-4.897608828939301,2.0,1.4512820512820515,689.0459363957597,4.657770526193113,-0.5230464425150042,-2.3796981527883,1254.9450549450548,-1.0,90.03434537711225,1.4366456132179228,
2023-08-15 12:56:03.968000,8.265060240963855,-0.6506024096385542,-5.493975903614458,-0.5272838749233598,8.941140404659718,-4.895156345800122,2.0,1.4512820512820515,689.0459363957597,4.701940446360935,-0.858225045160539,-2.5675659926577676,1254.212454212454,-1.0,90.03434537711225,1.4366946442774127,
2023-08-15 12:56:03.976000,8.265060240963855,-0.6626506024096386,-5.518072289156627,-0.6376456161863887,8.941140404659718,-4.919681177191906,2.0,1.4512820512820515,689.0459363957597,4.4244507895810266,-1.2649612493444446,-2.69063574383777,1253.4798534798533,-1.0,90.03434537711225,1.4367460331732511,
2023-08-15 12:56:03.984000,8.27710843373494,-0.6506024096385542,-5.481927710843374,-0.598405885959534,8.970570202329858,-4.924586143470264,2.0,1.4512820512820515,689.0459363957597,4.347415651768542,-0.9518093351203313,-2.476079482547636,1255.6776556776556,-1.0,90.03434537711225,1.4367998311638157,
2023-08-15 12:56:03.991000,8.25301204819277,-0.6506024096385542,-5.481927710843374,-0.5346413243408952,9.009809932556713,-4.9368485591661555,2.0,1.452747252747253,688.3509833585475,4.379115436163391,-0.9588019346191953,-2.430977215779969,1259.3406593406592,-1.0,90.03434537711225,1.4368560870501756,
2023-08-15 12:56:03.999000,8.265060240963855,-0.6506024096385542,-5.518072289156627,-0.5174739423666462,8.977927651747393,-4.9442060085836905,2.0,1.452747252747253,688.3509833585475,4.287512382728277,-0.7603286521764472,-2.278305460054778,1266.6666666666665,-1.0,90.03434537711225,1.4369148474768827,
2023-08-15 12:56:04.007000,8.265060240963855,-0.6506024096385542,-5.518072289156627,-0.568976088289393,8.941140404659718,-4.9589209074187615,2.0,1.452747252747253,688.3509833585475,4.5775887186061395,-0.8213973544665235,-2.4920459180700454,1274.7252747252746,-1.0,90.03434537711225,1.4369761568208002,
2023-08-15 12:56:04.014000,8.265060240963855,-0.674698795180723,-5.46987951807229,-0.551808706315144,9.009809932556713,-4.885346413243409,2.0,1.452747252747253,688.3509833585475,4.333313909445835,-0.7450614766039282,-2.6599848493677554,1280.5860805860805,-1.0,90.03434537711225,1.4370400565646424,
2023-08-15 12:56:04.022000,8.240963855421688,-0.6506024096385542,-5.445783132530121,-0.6057633353770693,8.950950337216431,-4.887798896382587,2.0,1.452747252747253,688.3509833585475,4.516520016316063,-0.8671988811840808,-2.629450498222717,1284.2490842490843,-1.0,90.03434537711225,1.4371065851388465,
2023-08-15 12:56:04.030000,8.240963855421688,-0.674698795180723,-5.457831325301205,-0.5910484365419988,8.955855303494788,-4.892703862660944,2.0,1.452747252747253,688.3509833585475,4.470718489598506,-0.7755958277489663,-2.614183322650198,1284.2490842490843,-1.0,90.03434537711225,1.4371757782323242,
2023-08-15 12:56:04.037000,8.25301204819277,-0.6626506024096386,-5.457831325301205,-0.551808706315144,8.95340282035561,-4.895156345800122,2.0,1.4542124542124544,687.6574307304785,4.180642153720643,-0.27177903385583657,-2.7363207272303507,1283.5164835164835,-1.0,90.03434537711225,1.437247668131732,
2023-08-15 12:56:04.045000,8.25301204819277,-0.6867469879518072,-5.445783132530121,-0.6057633353770693,8.970570202329858,-4.855916615573268,2.0,1.452747252747253,688.3509833585475,4.440184138453468,-0.5160538430161419,-2.7210535516578314,1284.9816849816848,-1.0,90.03434537711225,1.4373222841272086,
2023-08-15 12:56:04.053000,8.240963855421688,-0.710843373493976,-5.46987951807229,-0.5763335377069282,8.980380134886571,-4.885346413243409,2.0,1.4542124542124544,687.6574307304785,4.104306275858048,-0.5160538430161419,-2.430977215779969,1285.7142857142856,-1.0,90.03434537711225,1.4373996524052894,
2023-08-15 12:56:04.060000,8.240963855421688,-0.7228915662650602,-5.445783132530121,-0.6229307173513182,8.926425505824646,-4.828939301042305,2.0,1.4542124542124544,687.6574307304785,4.333313909445835,-0.8366645300390426,-2.6752520249402743,1284.9816849816848,-1.0,90.03434537711225,1.4374797954292686,
2023-08-15 12:56:04.068000,8.25301204819277,-0.7349397590361446,-5.409638554216868,-0.6793378295524218,8.970570202329858,-4.82158185162477,2.0,1.4542124542124544,687.6574307304785,4.653924596468735,-1.279412621642096,-2.461511566925007,1284.9816849816848,-1.0,90.03434537711225,1.4375627323869036,
2023-08-15 12:56:04.075000,8.301204819277109,-0.7228915662650602,-5.433734939759036,-0.5935009196811771,8.941140404659718,-4.853464132434089,2.0,1.4542124542124544,687.6574307304785,4.867665054484002,-1.3404813239321725,-2.690519200512793,1290.8424908424909,-1.0,90.03434537711225,1.4376484786680679,
2023-08-15 12:56:04.083000,8.301204819277109,-0.6987951807228916,-5.421686746987952,-0.5640711220110362,8.975475168608215,-4.794604537093807,2.0,1.4542124542124544,687.6574307304785,4.852397878911483,-1.3862828506497296,-2.24777110890974,1301.8315018315018,-1.0,90.03434537711225,1.4377370458132968,
2023-08-15 12:56:04.091000,8.301204819277109,-0.6987951807228916,-5.421686746987952,-0.5935009196811771,8.941140404659718,-4.851011649294911,2.0,1.4542124542124544,687.6574307304785,4.776062001048888,-1.3404813239321725,-2.1867024066196636,1322.3443223443223,-1.0,90.03434537711225,1.4378284414753548,
2023-08-15 12:56:04.098000,8.265060240963855,-0.7228915662650602,-5.409638554216868,-0.5763335377069282,8.960760269773145,-4.792152053954629,2.0,1.4542124542124544,687.6574307304785,4.821863527766445,-0.8519317056115617,-2.1714352310471443,1351.6483516483515,-1.0,90.03434537711225,1.4379226693937766,
2023-08-15 12:56:04.106000,8.265060240963855,-0.7349397590361446,-5.445783132530121,-0.6670754138565297,8.896995708154506,-4.890251379521765,2.0,1.4542124542124544,687.6574307304785,4.653924596468735,-0.8213973544665235,-2.095099353184549,1390.4761904761904,-1.0,90.03434537711225,1.4380197293822485,
2023-08-15 12:56:04.114000,8.27710843373494,-0.7710843373493976,-5.481927710843374,-0.6302881667688535,8.960760269773145,-4.924586143470264,2.0,1.4556776556776558,686.9652742828383,4.424916962880949,-0.8671988811840808,-2.07983217761203,1438.095238095238,-1.0,90.03434537711225,1.4381196177865139,
2023-08-15 12:56:04.121000,8.25301204819277,-0.7710843373493976,-5.46987951807229,-0.7283874923359902,8.943592887798896,-4.912323727774371,2.0,1.4542124542124544,687.6574307304785,4.440184138453468,-0.8213973544665235,-2.4004428646349307,1487.179487179487,-1.0,90.03434537711225,1.438222327464357,
2023-08-15 12:56:04.129000,8.228915662650603,-0.8072289156626506,-5.518072289156627,-0.7406499080318822,8.923973022685468,-4.885346413243409,2.0,1.4556776556776558,686.9652742828383,4.027970397995452,-0.7603286521764472,-2.125633704329587,1538.4615384615383,-1.0,90.03434537711225,1.4383278478842707,
2023-08-15 12:56:04.137000,8.228915662650603,-0.819277108433735,-5.530120481927711,-0.7431023911710607,8.923973022685468,-4.912323727774371,2.0,1.4556776556776558,686.9652742828383,3.7989627644076664,-0.7603286521764472,-2.461511566925007,1592.6739926739926,-1.0,90.03434537711225,1.4384361650295174,
2023-08-15 12:56:04.144000,8.240963855421688,-0.8313253012048193,-5.518072289156627,-0.7529123237277743,8.941140404659718,-4.9368485591661555,2.0,1.4556776556776558,686.9652742828383,3.1577413903618647,-0.6992599498863709,-2.095099353184549,1648.3516483516482,-1.0,90.03434537711225,1.438547261066194,
2023-08-15 12:56:04.152000,8.240963855421688,-0.8674698795180723,-5.530120481927711,-0.7970570202329859,8.960760269773145,-4.946658491722869,2.0,1.4556776556776558,686.9652742828383,3.1577413903618647,-0.6992599498863709,-2.095099353184549,1700.3663003663003,-1.0,90.03434537711225,1.4386611144448933,
2023-08-15 12:56:04.160000,8.240963855421688,-0.8915662650602411,-5.530120481927711,-0.8559166155732679,8.96811771919068,-4.912323727774371,2.0,1.4556776556776558,686.9652742828383,2.882932230056521,-0.8366645300390426,-1.7744886661616484,1743.5897435897434,-1.0,90.03434537711225,1.4387776999778066,
2023-08-15 12:56:04.167000,8.240963855421688,-0.9156626506024097,-5.518072289156627,-0.8730839975475169,8.901900674432863,-4.9368485591661555,2.0,1.457142857142857,686.2745098039215,2.3027795583007964,-0.2259775071382793,-1.7744886661616484,1780.2197802197802,-1.0,90.03434537711225,1.438896988925489,
2023-08-15 12:56:04.175000,8.25301204819277,-0.9156626506024097,-5.530120481927711,-0.8068669527896996,8.923973022685468,-4.865726548129981,2.0,1.4556776556776558,686.9652742828383,2.07377192471301,-0.6839927743138517,-1.530213857001343,1805.8608058608058,-1.0,90.03434537711225,1.4390189495853387,
2023-08-15 12:56:04.183000,8.289156626506024,-0.8915662650602411,-5.493975903614458,-0.7602697731453096,8.926425505824646,-4.887798896382587,2.0,1.4556776556776558,686.9652742828383,1.6004894819649185,-0.6839927743138517,-1.3317405745585948,1819.7802197802196,-1.0,90.03434537711225,1.4391435469753182,
2023-08-15 12:56:04.190000,8.240963855421688,-0.9036144578313253,-5.457831325301205,-0.851011649294911,8.941140404659718,-4.86817903126916,2.0,1.457142857142857,686.2745098039215,1.2951459705145367,-0.7755958277489663,-0.9653283608181369,1819.7802197802196,-1.0,90.03434537711225,1.439270742421362,
2023-08-15 12:56:04.198000,8.240963855421688,-0.9518072289156627,-5.46987951807229,-0.9049662783568363,8.946045370938075,-4.887798896382587,2.0,1.457142857142857,686.2745098039215,1.1424742147893459,-0.6687255987413327,-0.5989161470776789,1810.2564102564102,-1.0,90.03434537711225,1.4394004946274315,
2023-08-15 12:56:04.206000,8.265060240963855,-0.9518072289156627,-5.46987951807229,-0.8902513795217657,9.041692213366032,-4.897608828939301,2.0,1.457142857142857,686.2745098039215,0.5623215430336207,0.0640988287395833,-0.33937416234485446,1794.139194139194,-1.0,90.03434537711225,1.439532759873444,
2023-08-15 12:56:04.213000,8.27710843373494,-0.9759036144578314,-5.493975903614458,-0.8313917841814837,8.997547516860822,-4.922133660331085,2.0,1.457142857142857,686.2745098039215,-0.0483654798671426,-0.25651185828331746,-0.27830546005477813,1772.161172161172,-1.0,90.03434537711225,1.4396674921520656,
2023-08-15 12:56:04.221000,8.301204819277109,-0.9879518072289157,-5.46987951807229,-0.86817903126916,8.977927651747393,-4.833844267320662,2.0,1.457142857142857,686.2745098039215,-0.17050288444729525,-0.36338208729095106,-0.0034962997494346402,1744.3223443223442,-1.0,90.03434537711225,1.439804642785675,
2023-08-15 12:56:04.229000,8.325301204819278,-0.9759036144578314,-5.421686746987952,-0.8362967504598405,8.958307786633966,-4.782342121397915,2.0,1.457142857142857,686.2745098039215,-0.5063807470427151,-0.07330575141308847,0.1339082804032371,1711.3553113553112,-1.0,90.03434537711225,1.439944160151856,
2023-08-15 12:56:04.236000,8.289156626506024,-0.9759036144578314,-5.349397590361446,-0.8804414469650521,8.95340282035561,-4.750459840588595,2.0,1.457142857142857,686.2745098039215,-1.4987471592564554,0.384709515762484,0.16444263154827526,1673.9926739926739,-1.0,90.03434537711225,1.4400859903257124,
2023-08-15 12:56:04.244000,8.265060240963855,-1.0120481927710845,-5.36144578313253,-0.8927038626609441,8.914163090128755,-4.858369098712446,2.0,1.457142857142857,686.2745098039215,-1.8040906707068372,0.7053202027853848,0.5461220208612524,1632.2344322344322,-1.0,90.03434537711225,1.4402300772323824,
2023-08-15 12:56:04.252000,8.27710843373494,-1.0240963855421688,-5.385542168674699,-0.9368485591661557,8.95340282035561,-4.838749233599018,2.0,1.457142857142857,686.2745098039215,-2.3384418157450053,1.1938698211059955,1.2026105704795729,1590.4761904761904,-1.0,90.03434537711225,1.4403763628016155,
2023-08-15 12:56:04.259000,8.25301204819277,-0.9879518072289157,-5.397590361445784,-0.956468424279583,8.862660944206008,-4.858369098712446,2.0,1.4586080586080585,685.5851330989452,-3.1476021210885166,1.7282209661441634,1.2026105704795729,1550.9157509157508,-1.0,90.03434537711225,1.4405247871235933,
2023-08-15 12:56:04.267000,8.204819277108435,-1.0602409638554218,-5.421686746987952,-0.9687308399754752,8.919068056407111,-4.855916615573268,2.0,1.4586080586080585,685.5851330989452,-3.5445486859740125,1.3160072256861481,1.7980304178078172,1512.8205128205127,-1.0,90.03434537711225,1.4406752890978654,
2023-08-15 12:56:04.275000,8.228915662650603,-1.0602409638554218,-5.409638554216868,-0.9908031882280809,8.93868792152054,-4.826486817903127,2.0,1.457142857142857,686.2745098039215,-4.24683876230989,1.0106637142357664,1.58428995979255,1479.8534798534797,-1.0,90.03434537711225,1.440827806661467,
2023-08-15 12:56:04.282000,8.265060240963855,-1.0481927710843375,-5.397590361445784,-1.0055180870631515,8.992642550582465,-4.838749233599018,2.0,1.457142857142857,686.2745098039215,-4.552182273760272,0.35417516461744586,1.935434997960489,1450.5494505494505,-1.0,90.03434537711225,1.440982276914512,
2023-08-15 12:56:04.290000,8.265060240963855,-1.036144578313253,-5.385542168674699,-0.9196811771919068,8.990190067443287,-4.779889638258736,2.0,1.457142857142857,686.2745098039215,-5.5445486859740125,-0.4855194918711037,2.5308548452887334,1422.7106227106226,-1.0,90.03434537711225,1.4411386356147753,
2023-08-15 12:56:04.298000,8.265060240963855,-1.0,-5.373493975903615,-0.9000613120784794,8.977927651747393,-4.792152053954629,2.0,1.457142857142857,686.2745098039215,-6.063632655439662,-0.7755958277489663,2.7598624788765194,1397.8021978021977,-1.0,90.03434537711225,1.4412968164197761,
2023-08-15 12:56:04.305000,8.27710843373494,-0.9277108433734941,-5.373493975903615,-0.8461066830165542,9.024524831391783,-4.833844267320662,2.0,1.4586080586080585,685.5851330989452,-6.6590525027679055,-0.9130004079016381,3.187343394907054,1377.2893772893772,651.092529296875,92.15280056245606,1.4414567515979633,
2023-08-15 12:56:04.313000,8.313253012048193,-0.819277108433735,-5.445783132530121,-0.7185775597792765,9.022072348252605,-4.9074187614960145,2.0,1.4586080586080585,685.5851330989452,-7.223937998951111,-1.9359011712604166,3.6453586620826264,1362.6373626373625,-1.0,92.15280056245606,1.4416183731563874,
2023-08-15 12:56:04.321000,8.361445783132531,-0.746987951807229,-5.493975903614458,-0.6204782342121398,9.120171673819742,-4.873083997547517,2.0,1.4586080586080585,685.5851330989452,-7.865159372996914,-2.699259949886371,3.401083852922321,1349.4505494505493,-1.0,92.15280056245606,1.4417816130506296,
2023-08-15 12:56:04.328000,8.373493975903616,-0.6987951807228916,-5.481927710843374,-0.568976088289393,9.110361741263029,-4.924586143470264,2.0,1.457142857142857,686.2745098039215,-8.185770060019815,-2.958801934619195,3.614824310937588,1337.7289377289376,-1.0,92.15280056245606,1.4419464024072126,
2023-08-15 12:56:04.336000,8.3855421686747,-0.6626506024096386,-5.421686746987952,-0.4782342121397915,9.080931943592887,-4.848559166155733,2.0,1.4586080586080585,685.5851330989452,-8.506380747042714,-2.8977332323291187,3.706427364372703,1331.135531135531,-1.0,92.15280056245606,1.4421126716891501,
2023-08-15 12:56:04.344000,8.373493975903616,-0.6024096385542169,-5.445783132530121,-0.4782342121397915,9.063764561618639,-4.904966278356836,2.0,1.4586080586080585,685.5851330989452,-8.75065555620302,-2.027504224695531,3.538488433074993,1328.937728937729,-1.0,92.15280056245606,1.442280351207211,
2023-08-15 12:56:04.351000,8.373493975903616,-0.5903614457831325,-5.493975903614458,-0.5199264255058246,8.997547516860822,-4.895156345800122,2.0,1.4586080586080585,685.5851330989452,-9.315541052386227,-1.2030767437795007,3.75222889109026,1333.3333333333333,-1.0,92.15280056245606,1.4424493717990543,
2023-08-15 12:56:04.359000,8.289156626506024,-0.6024096385542169,-5.530120481927711,-0.5493562231759657,9.009809932556713,-4.971183323114653,2.0,1.4586080586080585,685.5851330989452,-9.300273876813707,-0.05803857584056938,3.7216945399452217,1343.5897435897434,-1.0,92.15280056245606,1.4426196649076126,
2023-08-15 12:56:04.367000,8.27710843373494,-0.6385542168674699,-5.55421686746988,-0.5665236051502146,8.977927651747393,-4.978540772532188,2.0,1.4586080586080585,685.5851330989452,-9.727754792844241,0.30837363789988864,3.7216945399452217,1355.3113553113553,-1.0,92.15280056245606,1.4427911617395899,
2023-08-15 12:56:04.374000,8.25301204819277,-0.6987951807228916,-5.566265060240964,-0.6768853464132434,8.92152053954629,-5.042305334150828,2.0,1.4586080586080585,685.5851330989452,-10.063632655439662,0.3389079890449268,3.8438319445253746,1370.6959706959706,-1.0,92.15280056245606,1.4429637938925253,
2023-08-15 12:56:04.382000,8.216867469879519,-0.783132530120482,-5.602409638554217,-0.6965052115266707,8.870018393623543,-4.998160637645616,2.0,1.4586080586080585,685.5851330989452,-10.552182273760272,1.300740050113629,4.103373929258199,1385.3479853479853,-1.0,92.15280056245606,1.4431374934126358,
2023-08-15 12:56:04.390000,8.180722891566266,-0.9036144578313253,-5.55421686746988,-0.8657265481299815,8.81115879828326,-4.919681177191906,2.0,1.4586080586080585,685.5851330989452,-10.430044869180119,2.0793660043121025,4.698793776586443,1400.0,-1.0,92.15280056245606,1.443312192457069,
2023-08-15 12:56:04.397000,8.108433734939759,-1.0240963855421688,-5.506024096385542,-0.9417535254445125,8.78172900061312,-4.922133660331085,2.0,1.4586080586080585,685.5851330989452,-11.132334945515996,2.4915797447701173,5.385816677349802,1416.8498168498168,-1.0,92.15280056245606,1.4434878238621855,
2023-08-15 12:56:04.405000,8.072289156626507,-1.0963855421686748,-5.493975903614458,-1.0374003678724708,8.73513182096873,-4.890251379521765,2.0,1.4586080586080585,685.5851330989452,-11.712487617271723,3.6213507371365297,6.179709807120794,1435.8974358974358,-1.0,92.15280056245606,1.4436643216698204,
2023-08-15 12:56:04.413000,8.036144578313253,-1.1566265060240966,-5.506024096385542,-1.0987124463519313,8.737584304107909,-4.9442060085836905,2.0,1.4586080586080585,685.5851330989452,-12.445312044752638,3.728220966144163,6.820931181166595,1452.7472527472526,-1.0,92.15280056245606,1.443841620663247,
2023-08-15 12:56:04.420000,8.036144578313253,-1.2048192771084338,-5.493975903614458,-1.1575720416922133,8.700797057020232,-4.887798896382587,2.0,1.4586080586080585,685.5851330989452,-13.117067769943478,3.1938698211059955,7.675893013227665,1469.5970695970695,-1.0,92.15280056245606,1.4440196559997875,
2023-08-15 12:56:04.428000,8.036144578313253,-1.2530120481927711,-5.433734939759036,-1.1060698957694666,8.725321888412017,-4.8706315144083385,2.0,1.457142857142857,686.2745098039215,-13.117067769943478,3.1938698211059955,7.675893013227665,1483.5164835164835,-1.0,92.15280056245606,1.4441983637492535,
2023-08-15 12:56:04.436000,8.036144578313253,-1.2650602409638554,-5.397590361445784,-1.2581238503985284,8.725321888412017,-4.838749233599018,2.0,1.4586080586080585,685.5851330989452,-13.651418914981646,2.6442515004953084,8.210244158265832,1496.7032967032967,-1.0,92.15280056245606,1.444377680897625,
2023-08-15 12:56:04.443000,8.072289156626507,-1.2530120481927711,-5.36144578313253,-1.1747394236664623,8.747394236664622,-4.787247087676272,2.0,1.4586080586080585,685.5851330989452,-13.910960899714471,2.186236233319736,8.836198356739114,1503.2967032967033,-1.0,92.15280056245606,1.4445575452737236,
2023-08-15 12:56:04.451000,8.108433734939759,-1.216867469879518,-5.313253012048193,-1.1624770079705702,8.774371551195586,-4.730839975475169,2.0,1.4586080586080585,685.5851330989452,-14.75065555620302,2.1404347066021785,9.58428995979255,1506.9597069597069,-1.0,92.15280056245606,1.4447378956768593,
2023-08-15 12:56:04.458000,8.132530120481928,-1.1927710843373494,-5.289156626506024,-1.155119558553035,8.862660944206008,-4.6817903126916,2.0,1.4586080586080585,685.5851330989452,-15.315541052386227,1.4228774546937817,10.286580036128427,1505.4945054945053,-1.0,92.15280056245606,1.4449186714699238,
2023-08-15 12:56:04.466000,8.19277108433735,-1.144578313253012,-5.313253012048193,-1.0177805027590434,8.909258123850398,-4.703862660944206,2.0,1.4586080586080585,685.5851330989452,-14.91859448750073,0.7511217295029421,10.591923547578808,1501.8315018315018,-1.0,92.15280056245606,1.4450998126562218,
2023-08-15 12:56:04.474000,8.25301204819277,-1.108433734939759,-5.289156626506024,-0.9981606376456161,9.012262415695892,-4.738197424892704,2.0,1.4586080586080585,685.5851330989452,-15.376609754676302,0.44577821805256035,10.881999883456672,1496.7032967032967,-1.0,92.15280056245606,1.4452812603710894,
2023-08-15 12:56:04.481000,8.301204819277109,-1.0481927710843375,-5.265060240963856,-0.9466584917228693,9.002452483139178,-4.77498467198038,2.0,1.4586080586080585,685.5851330989452,-15.452945632538897,0.5221140959151558,11.263679272769648,1487.179487179487,-1.0,92.15280056245606,1.4454629573333506,
2023-08-15 12:56:04.489000,8.421686746987952,-0.9879518072289157,-5.325301204819278,-0.8976088289393009,9.071122011036174,-4.733292458614347,2.0,1.4600732600732604,684.8971399899648,-15.819357846279356,0.07936600431210238,10.72932812773148,1475.4578754578754,-1.0,92.15280056245606,1.4456448477666086,
2023-08-15 12:56:04.497000,8.46987951807229,-0.9397590361445783,-5.27710843373494,-0.7651747394236664,9.23298589822195,-4.745554874310239,2.0,1.4600732600732604,684.8971399899648,-16.017831128722104,-0.10384010255812663,10.591923547578808,1462.2710622710622,-1.0,92.15280056245606,1.4458268773873983,
2023-08-15 12:56:04.504000,8.542168674698795,-0.8674698795180723,-5.325301204819278,-0.6646229307173512,9.296750459840588,-4.671980380134887,2.0,1.4600732600732604,684.8971399899648,-16.04836547986714,-0.6381912475962945,10.194976982693312,1449.084249084249,-1.0,92.15280056245606,1.446008993460568,
2023-08-15 12:56:04.512000,8.566265060240964,-0.819277108433735,-5.325301204819278,-0.7014101778050276,9.277130594727161,-4.770079705702023,2.0,1.4600732600732604,684.8971399899648,-16.643785327195385,-0.027504224695531213,10.118641104830717,1435.8974358974358,-1.0,92.15280056245606,1.4461911443255921,
2023-08-15 12:56:04.520000,8.614457831325302,-0.783132530120482,-5.385542168674699,-0.7112201103617413,9.284488044144696,-4.792152053954629,2.0,1.4600732600732604,684.8971399899648,-17.346075403531263,0.30837363789988864,10.042305226968121,1424.1758241758241,-1.0,92.15280056245606,1.4463732793771977,
2023-08-15 12:56:04.527000,8.626506024096386,-0.7710843373493976,-5.385542168674699,-0.6817903126916002,9.313917841814837,-4.794604537093807,2.0,1.4600732600732604,684.8971399899648,-17.25447235009615,0.7053202027853848,9.813297593380335,1416.8498168498168,-1.0,92.15280056245606,1.4465553490428429,
2023-08-15 12:56:04.535000,8.590361445783133,-0.746987951807229,-5.433734939759036,-0.6646229307173512,9.26241569589209,-4.9000613120784795,2.0,1.4600732600732604,684.8971399899648,-17.4529456325389,1.5908163859914917,9.782763242235298,1406.5934065934066,-1.0,92.15280056245606,1.4467373047574312,
2023-08-15 12:56:04.543000,8.518072289156628,-0.746987951807229,-5.433734939759036,-0.5910484365419988,9.210913549969343,-4.86817903126916,2.0,1.4600732600732604,684.8971399899648,-17.89569372414195,2.0488316531670643,9.492686906357434,1398.5347985347985,-1.0,92.15280056245606,1.4469190989356886,
2023-08-15 12:56:04.550000,8.46987951807229,-0.7228915662650602,-5.481927710843374,-0.6253832004904966,9.16922133660331,-4.887798896382587,2.0,1.4600732600732604,684.8971399899648,-18.23157158673737,2.247304935609812,8.866732707884152,1387.5457875457876,-1.0,92.15280056245606,1.4471006849426005,
2023-08-15 12:56:04.558000,8.421686746987952,-0.7349397590361446,-5.506024096385542,-0.627835683629675,9.068669527896995,-4.892703862660944,2.0,1.4600732600732604,684.8971399899648,-18.659052502767906,2.583182798205232,8.851465532311632,1379.4871794871794,-1.0,92.15280056245606,1.447282017062328,
2023-08-15 12:56:04.566000,8.361445783132531,-0.7349397590361446,-5.506024096385542,-0.627835683629675,9.017167381974248,-4.9736358062538315,2.0,1.4600732600732604,684.8971399899648,-19.26973952566867,2.94959501194569,8.500320494143693,1372.8937728937728,-1.0,92.15280056245606,1.4474630504659989,
2023-08-15 12:56:04.573000,8.289156626506024,-0.746987951807229,-5.518072289156627,-0.6499080318822807,8.987737584304108,-4.927038626609442,2.0,1.461538461538462,684.2105263157894,-20.07889983101218,3.0259308898082855,9.004137288036823,1368.4981684981683,-1.0,92.15280056245606,1.4476437411787804,
2023-08-15 12:56:04.581000,8.265060240963855,-0.746987951807229,-5.506024096385542,-0.5885959534028203,8.909258123850398,-4.9515634580012255,2.0,1.4600732600732604,684.8971399899648,-20.24683876230989,2.934327836373171,9.04993881475438,1362.6373626373625,-1.0,92.15280056245606,1.447824046539287,
2023-08-15 12:56:04.589000,8.216867469879519,-0.746987951807229,-5.493975903614458,-0.6548129981606376,8.818516247700797,-4.887798896382587,2.0,1.4600732600732604,684.8971399899648,-21.08653341879844,3.1175339432434,9.156809043762015,1358.974358974359,-1.0,92.15280056245606,1.4480039252037504,
2023-08-15 12:56:04.596000,8.168674698795181,-0.7349397590361446,-5.530120481927711,-0.5714285714285714,8.850398528510116,-4.922133660331085,2.0,1.4600732600732604,684.8971399899648,-21.23920517452363,3.0717324165258426,10.301847211700945,1358.2417582417581,-1.0,92.15280056245606,1.4481833360635894,
2023-08-15 12:56:04.604000,8.084337349397591,-0.746987951807229,-5.518072289156627,-0.6940527283874923,8.678724708767627,-4.954015941140405,2.0,1.4600732600732604,684.8971399899648,-22.017831128722104,2.796923256220499,10.714060952158961,1358.2417582417581,-1.0,92.15280056245606,1.4483622387085704,
2023-08-15 12:56:04.612000,8.024096385542169,-0.7590361445783133,-5.506024096385542,-0.6523605150214592,8.722869405272839,-4.887798896382587,2.0,1.4600732600732604,684.8971399899648,-22.506380747042716,2.6595186760678273,11.141541868189496,1359.7069597069597,-1.0,92.15280056245606,1.4485405938211677,
2023-08-15 12:56:04.619000,8.060240963855422,-0.7590361445783133,-5.506024096385542,-0.6646229307173512,8.730226854690374,-4.895156345800122,2.0,1.4600732600732604,684.8971399899648,-23.04073189208088,2.2167705844647743,11.965969349105526,1360.4395604395604,-1.0,92.15280056245606,1.4487183622006008,
2023-08-15 12:56:04.627000,8.048192771084338,-0.7590361445783133,-5.493975903614458,-0.6499080318822807,8.816063764561617,-4.927038626609442,2.0,1.4600732600732604,684.8971399899648,-23.819357846279356,1.5908163859914917,12.22551133383835,1360.4395604395604,-1.0,92.15280056245606,1.4488955048056462,
2023-08-15 12:56:04.635000,8.072289156626507,-0.7590361445783133,-5.46987951807229,-0.627835683629675,8.78172900061312,-4.873083997547517,2.0,1.4600732600732604,684.8971399899648,-24.139968533302255,1.1938698211059955,13.156809043762014,1358.2417582417581,-1.0,92.15280056245606,1.4490719832198156,
2023-08-15 12:56:04.642000,8.108433734939759,-0.7590361445783133,-5.481927710843374,-0.6376456161863887,8.774371551195586,-4.887798896382587,2.0,1.461538461538462,684.2105263157894,-24.597983800477827,0.9953965386632474,13.58428995979255,1353.113553113553,-1.0,92.15280056245606,1.4492477596259907,
2023-08-15 12:56:04.650000,8.132530120481928,-0.746987951807229,-5.433734939759036,-0.6253832004904966,8.820968730839976,-4.892703862660944,2.0,1.4600732600732604,684.8971399899648,-25.08653341879844,0.8579919585105756,14.759862478876519,1346.5201465201465,-1.0,92.15280056245606,1.4494227977339678,
2023-08-15 12:56:04.658000,8.156626506024097,-0.7590361445783133,-5.433734939759036,-0.640098099325567,8.789086450030656,-4.895156345800122,2.0,1.4600732600732604,684.8971399899648,-25.468212808111417,0.8732591340830947,15.355282326204762,1340.6593406593406,-1.0,92.15280056245606,1.4495970622722676,
2023-08-15 12:56:04.665000,8.180722891566266,-0.7349397590361446,-5.445783132530121,-0.5959534028203556,8.84304107909258,-4.924586143470264,2.0,1.461538461538462,684.2105263157894,-25.7735563195618,0.384709515762484,15.614824310937587,1337.7289377289376,-1.0,92.15280056245606,1.449770517957526,
2023-08-15 12:56:04.673000,8.240963855421688,-0.7228915662650602,-5.433734939759036,-0.6008583690987124,8.909258123850398,-4.851011649294911,2.0,1.4600732600732604,684.8971399899648,-25.666686090554165,0.35417516461744586,15.996503700250564,1337.7289377289376,-1.0,92.15280056245606,1.4499431304343897,
2023-08-15 12:56:04.681000,8.25301204819277,-0.710843373493976,-5.409638554216868,-0.6008583690987124,8.92152053954629,-4.799509503372164,2.0,1.4600732600732604,684.8971399899648,-26.063632655439662,0.46104539362507946,16.36291591399102,1336.9963369963368,-1.0,92.15280056245606,1.450114865846668,
2023-08-15 12:56:04.688000,8.301204819277109,-0.6987951807228916,-5.385542168674699,-0.5836909871244634,9.034334763948497,-4.784794604537094,2.0,1.4600732600732604,684.8971399899648,-26.185770060019813,0.20150340889225504,16.59192354757881,1337.7289377289376,-1.0,92.15280056245606,1.4502856903068109,
2023-08-15 12:56:04.696000,8.325301204819278,-0.6626506024096386,-5.36144578313253,-0.5885959534028203,9.026977314530962,-4.76026977314531,2.0,1.4600732600732604,684.8971399899648,-26.53691509818775,0.735854553930423,16.51558766971621,1340.6593406593406,-1.0,92.15280056245606,1.4504555698928883,
