Shimmer_F5D4_Timestamp_FormattedUnix_CAL,Shimmer_F5D4_Accel_LN_X_CAL,Shimmer_F5D4_Accel_LN_Y_CAL,Shimmer_F5D4_Accel_LN_Z_CAL,Shimmer_F5D4_Accel_WR_X_CAL,Shimmer_F5D4_Accel_WR_Y_CAL,Shimmer_F5D4_Accel_WR_Z_CAL,Shimmer_F5D4_GSR_Range_CAL,Shimmer_F5D4_GSR_Skin_Conductance_CAL,Shimmer_F5D4_GSR_Skin_Resistance_CAL,Shimmer_F5D4_Gyro_X_CAL,Shimmer_F5D4_Gyro_Y_CAL,Shimmer_F5D4_Gyro_Z_CAL,Shimmer_F5D4_PPG_A13_CAL,Shimmer_F5D4_PPG_IBI_CAL,Shimmer_F5D4_PPGtoHR_CAL,Shimmer_F5D4_GSR_Skin_Conductance_LPF_CAL,
yyyy/mm/dd hh:mm:ss.000,m/(s^2),m/(s^2),m/(s^2),m/(s^2),m/(s^2),m/(s^2),no_units,uS,kOhms,deg/s,deg/s,deg/s,mV,ms,BPM,uS,
2023-08-10 16:53:06.689000,9.771084337349398,0.4819277108433735,1.0602409638554218,0.6327406499080318,10.3635806253832,1.8172900061312078,2.0,2.460805860805861,406.3709437332539,-0.5230464425150042,-0.19264611619369584,0.18588660334479346,1397.069597069597,-1.0,-1.0,2.4627161118486898,
2023-08-10 16:53:06.697000,9.74698795180723,0.45783132530120485,1.0481927710843375,0.6891477621091354,10.336603310852237,1.78295524218271,2.0,2.45934065934066,406.61304736371756,-0.13938581667734945,-0.5266592855894171,0.3715401200396248,1405.8608058608058,-1.0,-1.0,2.4626974307772365,
2023-08-10 16:53:06.704000,9.734939759036145,0.5060240963855422,1.0481927710843375,0.6646229307173512,10.329245861434702,1.73635806253832,2.0,2.45934065934066,406.61304736371756,-0.2934560923023138,-0.20033797564244493,0.24753802225977525,1413.9194139194137,-1.0,-1.0,2.462678573621851,
2023-08-10 16:53:06.712000,9.771084337349398,0.49397590361445787,1.0481927710843375,0.6891477621091354,10.343960760269773,1.807480073574494,2.0,2.45934065934066,406.61304736371756,-0.447060194627353,-0.47269972612318567,0.004312103024299194,1421.9780219780218,-1.0,-1.0,2.4626595498850388,
2023-08-10 16:53:06.720000,9.74698795180723,0.49397590361445787,1.0120481927710845,0.703862660944206,10.321888412017167,1.7927651747394235,2.0,2.45934065934066,406.61304736371756,0.02330866499621242,-0.31816327719829796,0.29671930540178326,1429.3040293040292,-1.0,-1.0,2.4626403685298146,
2023-08-10 16:53:06.727000,9.759036144578314,0.46987951807228917,1.0,0.733292458614347,10.309625996321275,1.7976701410177804,2.0,2.45934065934066,406.61304736371756,0.050579803041780225,-0.34788182506846854,0.279820523279529,1435.8974358974358,-1.0,-1.0,2.4626210379603273,
2023-08-10 16:53:06.735000,9.771084337349398,0.46987951807228917,1.0481927710843375,0.645003065603924,10.380748007357449,1.6995708154506437,2.0,2.45934065934066,406.61304736371756,-0.18122487034555132,-0.19451080939339271,-0.04230522696812521,1440.2930402930401,-1.0,-1.0,2.4626015660044476,
2023-08-10 16:53:06.743000,9.771084337349398,0.45783132530120485,1.036144578313253,0.6744328632740649,10.339055793991415,1.7976701410177804,2.0,2.45934065934066,406.61304736371756,-0.12120505798030425,0.07983217761202745,0.3097721577996621,1444.6886446886447,-1.0,-1.0,2.4625819598983933,
2023-08-10 16:53:06.750000,9.759036144578314,0.49397590361445787,1.0240963855421688,0.7014101778050276,10.339055793991415,1.7927651747394235,2.0,2.45934065934066,406.61304736371756,0.1214381446302659,0.10955072548219803,0.09428354990967895,1448.3516483516482,-1.0,-1.0,2.462562226273416,
2023-08-10 16:53:06.758000,9.734939759036145,0.5060240963855422,1.036144578313253,0.7185775597792765,10.356223175965665,1.78295524218271,2.0,2.45934065934066,406.61304736371756,-0.352310471417749,0.04556844006759558,0.001631606549734748,1451.2820512820513,-1.0,-1.0,2.4625423711446444,
2023-08-10 16:53:06.766000,9.759036144578314,0.4819277108433735,1.0240963855421688,0.7161250766400981,10.272838749233598,1.7706928264868178,2.0,2.45934065934066,406.61304736371756,0.10873492220733044,-0.003263213099470364,0.24415826583532407,1453.4798534798533,-1.0,-1.0,2.462522399902091,
2023-08-10 16:53:06.773000,9.734939759036145,0.46987951807228917,1.0120481927710845,0.6965052115266707,10.326793378295523,1.7731453096259961,2.0,2.45934065934066,406.61304736371756,-0.06025289901520874,0.07039216828856061,0.20826292174115743,1454.9450549450548,-1.0,-1.0,2.4625023173038696,
2023-08-10 16:53:06.781000,9.72289156626506,0.4819277108433735,1.036144578313253,0.7185775597792765,10.294911097486205,1.8148375229920293,2.0,2.457875457875458,406.8554396423249,-0.4405337684284141,0.0651477186644143,0.44927451780199285,1455.6776556776556,-1.0,-1.0,2.4624821274716844,
2023-08-10 16:53:06.789000,9.759036144578314,0.4819277108433735,1.036144578313253,0.7063151440833844,10.31698344573881,1.7290006131207847,2.0,2.45934065934066,406.61304736371756,-0.2699143406561397,0.1988229124176906,0.11048307208204645,1454.212454212454,-1.0,-1.0,2.4624618333958948,
2023-08-10 16:53:06.796000,9.783132530120483,0.49397590361445787,1.0240963855421688,0.6989576946658491,10.390557939914162,1.78295524218271,2.0,2.45934065934066,406.61304736371756,-0.13122778392867526,0.11561097838121367,0.19905599906765356,1453.4798534798533,-1.0,-1.0,2.4624414373560466,
2023-08-10 16:53:06.804000,9.74698795180723,0.5060240963855422,1.0240963855421688,0.7112201103617413,10.339055793991415,1.7510729613733904,2.0,2.45934065934066,406.61304736371756,-0.34566750189382917,0.27632422353009783,0.135772973602937,1452.7472527472526,-1.0,-1.0,2.4624209414477125,
2023-08-10 16:53:06.812000,9.74698795180723,0.49397590361445787,1.0,0.7112201103617413,10.34886572654813,1.7755977927651747,2.0,2.45934065934066,406.61304736371756,-0.2693316240312338,-0.049880543091895206,0.1177087582308722,1452.014652014652,-1.0,-1.0,2.4624003471286557,
2023-08-10 16:53:06.819000,9.759036144578314,0.5060240963855422,1.0120481927710845,0.745554874310239,10.341508277130593,1.7927651747394235,2.0,2.45934065934066,406.61304736371756,-0.08379465066138284,0.054425732766156504,-0.007924946098712067,1450.5494505494505,-1.0,-1.0,2.4623796552252126,
2023-08-10 16:53:06.827000,9.74698795180723,0.49397590361445787,1.036144578313253,0.7504598405885959,10.343960760269773,1.8025751072961373,2.0,2.45934065934066,406.61304736371756,0.007458772798787419,0.09754676300914931,-0.1332090204533534,1445.4212454212454,-1.0,-1.0,2.462358865940997,
2023-08-10 16:53:06.834000,9.759036144578314,0.4819277108433735,1.0481927710843375,0.7063151440833844,10.292458614347026,1.78295524218271,2.0,2.45934065934066,406.61304736371756,0.006526426198938992,0.09405046325971728,-0.1332090204533534,1438.095238095238,-1.0,-1.0,2.4623379788679363,
2023-08-10 16:53:06.842000,9.74698795180723,0.5180722891566265,1.0240963855421688,0.7381974248927038,10.267933782955241,1.7731453096259961,2.0,2.457875457875458,406.8554396423249,0.17399918419672555,-0.04661732999242484,0.01934619194685617,1430.7692307692307,-1.0,-1.0,2.4623169925417123,
2023-08-10 16:53:06.850000,9.74698795180723,0.5180722891566265,1.0240963855421688,0.6621704475781729,10.370938074800735,1.8001226241569588,2.0,2.45934065934066,406.61304736371756,0.0961482431093758,-0.02191014509643891,0.32317464017248393,1426.3736263736262,-1.0,-1.0,2.462295904031957,
2023-08-10 16:53:06.857000,9.771084337349398,0.49397590361445787,1.0240963855421688,0.7504598405885959,10.299816063764561,1.8172900061312078,2.0,2.45934065934066,406.61304736371756,0.35464133791737096,-0.08321193403647865,-0.1545364489248877,1424.1758241758241,-1.0,-1.0,2.462274710326816,
2023-08-10 16:53:06.865000,9.74698795180723,0.49397590361445787,1.036144578313253,0.640098099325567,10.28755364806867,1.7706928264868178,2.0,2.45934065934066,406.61304736371756,-0.32305809684750353,0.06899364838878884,-0.09498280985956527,1419.7802197802198,-1.0,-1.0,2.462253408806586,
2023-08-10 16:53:06.873000,9.74698795180723,0.5060240963855422,1.0602409638554218,0.7014101778050276,10.321888412017167,1.7584304107909257,2.0,2.457875457875458,406.8554396423249,0.07773439776236893,-0.12913000407901673,0.10279121263329649,1413.1868131868132,-1.0,-1.0,2.4622319958581804,
2023-08-10 16:53:06.880000,9.734939759036145,0.49397590361445787,1.0481927710843375,0.7259350091968118,10.31698344573881,1.7805027590435314,2.0,2.457875457875458,406.8554396423249,0.5204824893654223,-0.033914107569489364,0.025289901520890546,1408.7912087912086,-1.0,-1.0,2.462210466474694,
2023-08-10 16:53:06.888000,9.74698795180723,0.5180722891566265,1.0602409638554218,0.7381974248927038,10.343960760269773,1.7952176578786019,2.0,2.45934065934066,406.61304736371756,0.19381154944350595,-0.212108851465532,-0.052677582891440054,1406.5934065934066,-1.0,-1.0,2.462188814698619,
2023-08-10 16:53:06.896000,9.74698795180723,0.5060240963855422,1.0602409638554218,0.7161250766400981,10.307173513182097,1.7731453096259961,2.0,2.457875457875458,406.8554396423249,-0.083678107336402,-0.052327952916496244,0.06934327836373178,1404.3956043956043,-1.0,-1.0,2.4621670350500136,
2023-08-10 16:53:06.903000,9.771084337349398,0.5060240963855422,1.0481927710843375,0.6916002452483139,10.329245861434702,1.7388105456774983,2.0,2.45934065934066,406.61304736371756,-0.6172134490997023,-0.12924654740399757,-0.06876056173882629,1399.2673992673992,-1.0,-1.0,2.4621451220604653,
2023-08-10 16:53:06.911000,9.795180722891567,0.5060240963855422,1.036144578313253,0.6646229307173512,10.341508277130593,1.7584304107909257,2.0,2.45934065934066,406.61304736371756,-0.7510051861779612,-0.1582658353242814,0.010721985898257782,1394.8717948717947,-1.0,-1.0,2.4621230697763985,
2023-08-10 16:53:06.919000,9.783132530120483,0.4819277108433735,1.0,0.7676272225628449,10.314530962599632,1.8025751072961373,2.0,2.45934065934066,406.61304736371756,-0.5009032107686037,-0.1582658353242814,0.07365538138803097,1392.6739926739926,-1.0,-1.0,2.4621008718607844,
2023-08-10 16:53:06.926000,9.759036144578314,0.49397590361445787,1.036144578313253,0.745554874310239,10.31698344573881,1.8172900061312078,2.0,2.45934065934066,406.61304736371756,-0.38902161878678365,0.006642969523919828,-0.04941436979197012,1391.2087912087911,-1.0,-1.0,2.4620785212385887,
2023-08-10 16:53:06.934000,9.771084337349398,0.45783132530120485,1.0240963855421688,0.6499080318822807,10.358675659104843,1.7510729613733904,2.0,2.457875457875458,406.8554396423249,-0.5070800069926001,-0.37760037293863913,0.28821164267816574,1391.2087912087911,-1.0,-1.0,2.462056010622758,
2023-08-10 16:53:06.942000,9.74698795180723,0.4819277108433735,1.0,0.7136725935009196,10.28755364806867,1.7927651747394235,2.0,2.457875457875458,406.8554396423249,-0.06235067886486727,0.0779674844123306,0.01095507254821989,1392.6739926739926,-1.0,-1.0,2.4620333325147414,
2023-08-10 16:53:06.949000,9.74698795180723,0.5060240963855422,1.0240963855421688,0.6866952789699571,10.373390557939913,1.7633353770692826,2.0,2.457875457875458,406.8554396423249,-0.01538371889749992,0.12062234135539832,0.10407318920808831,1394.139194139194,-1.0,-1.0,2.462010479102282,
2023-08-10 16:53:06.957000,9.759036144578314,0.49397590361445787,1.036144578313253,0.6866952789699571,10.304721030042918,1.7706928264868178,2.0,2.457875457875458,406.8554396423249,-0.3837771691626356,0.25453062175863805,0.47060194627352714,1394.8717948717947,-1.0,-1.0,2.461987441804522,
2023-08-10 16:53:06.965000,9.771084337349398,0.5060240963855422,1.0240963855421688,0.7234825260576333,10.346413243408952,1.7903126916002452,2.0,2.457875457875458,406.8554396423249,0.3062758580502301,-0.14451372297651666,0.4527708175514249,1394.139194139194,-1.0,-1.0,2.461964211835217,
2023-08-10 16:53:06.972000,9.771084337349398,0.4819277108433735,1.0481927710843375,0.6008583690987124,10.346413243408952,1.858982219497241,2.0,2.45934065934066,406.61304736371756,0.22690985373812772,0.2988170852514427,0.32643785327195385,1393.4065934065934,-1.0,-1.0,2.4619407802043503,
2023-08-10 16:53:06.980000,9.74698795180723,0.5060240963855422,1.0602409638554218,0.6621704475781729,10.321888412017167,1.812385039852851,2.0,2.45934065934066,406.61304736371756,-0.1438144630266299,0.40685274750888634,0.4920459180700427,1395.6043956043954,-1.0,-1.0,2.461917137824491,
2023-08-10 16:53:06.988000,9.74698795180723,0.5060240963855422,1.072289156626506,0.6646229307173512,10.319435928877988,1.7584304107909257,2.0,2.45934065934066,406.61304736371756,0.04067362041839003,-0.23588368976166948,0.31932871044810895,1397.8021978021977,-1.0,-1.0,2.4618932761104775,
2023-08-10 16:53:06.995000,9.759036144578314,0.49397590361445787,1.036144578313253,0.6866952789699571,10.34886572654813,1.8344573881054567,2.0,2.457875457875458,406.8554396423249,-0.2961365887768782,-0.3228250101975401,0.3155993240487152,1397.8021978021977,-1.0,-1.0,2.4618691865624243,
2023-08-10 16:53:07.003000,9.74698795180723,0.5060240963855422,1.0,0.6817903126916002,10.351318209687308,1.7854077253218883,2.0,2.457875457875458,406.8554396423249,-0.23471825651185765,-0.20942835499096754,0.5728104422819181,1399.2673992673992,-1.0,-1.0,2.4618448603149727,
2023-08-10 16:53:07.011000,9.74698795180723,0.4819277108433735,1.0240963855421688,0.6548129981606376,10.324340895156345,1.7976701410177804,2.0,2.45934065934066,406.61304736371756,-0.18542043004486836,-0.3911193986364439,-0.009440009323465979,1400.7326007326005,-1.0,-1.0,2.461820288107873,
2023-08-10 16:53:07.018000,9.771084337349398,0.46987951807228917,1.0481927710843375,0.6842427958307786,10.3635806253832,1.7633353770692826,2.0,2.457875457875458,406.8554396423249,-0.258609638132976,-0.2660684109317634,0.160829788473865,1400.7326007326005,-1.0,-1.0,2.4617954612744315,
2023-08-10 16:53:07.026000,9.771084337349398,0.45783132530120485,1.0,0.6376456161863887,10.341508277130593,1.731453096259963,2.0,2.45934065934066,406.61304736371756,-0.13344210710331636,-0.04859856651710253,-0.05687314259075841,1400.0,-1.0,-1.0,2.461770371358871,
2023-08-10 16:53:07.034000,9.74698795180723,0.4819277108433735,1.0481927710843375,0.6989576946658491,10.329245861434702,1.7854077253218883,2.0,2.45934065934066,406.61304736371756,-0.052677582891440485,0.0451022667676705,-0.0406736204183909,1402.9304029304028,-1.0,-1.0,2.4617450101221476,
2023-08-10 16:53:07.041000,9.759036144578314,0.4819277108433735,1.036144578313253,0.6989576946658491,10.309625996321275,1.8172900061312078,2.0,2.457875457875458,406.8554396423249,0.008973836023541765,0.21537206456500235,0.23366936658702883,1406.5934065934066,-1.0,-1.0,2.461719370109904,
2023-08-10 16:53:07.049000,9.734939759036145,0.46987951807228917,1.0481927710843375,0.6425505824647455,10.294911097486205,1.8148375229920293,2.0,2.457875457875458,406.8554396423249,-0.2180525610395668,1.1654332498083647E-4,0.18507080006992585,1408.7912087912086,-1.0,-1.0,2.4616934437448643,
2023-08-10 16:53:07.057000,9.74698795180723,0.46987951807228917,1.0481927710843375,0.7185775597792765,10.307173513182097,1.765787860208461,2.0,2.457875457875458,406.8554396423249,0.19893945574267316,0.08997144688537932,0.39554804498572355,1408.7912087912086,-1.0,-1.0,2.461667223297552,
2023-08-10 16:53:07.064000,9.734939759036145,0.4819277108433735,1.036144578313253,0.6376456161863887,10.339055793991415,1.8172900061312078,2.0,2.457875457875458,406.8554396423249,-0.07563661791270866,0.1052386224578984,0.40475496765922697,1403.6630036630036,-1.0,-1.0,2.4616407013812673,
2023-08-10 16:53:07.072000,9.759036144578314,0.49397590361445787,1.0481927710843375,0.6499080318822807,10.370938074800735,1.7952176578786019,2.0,2.457875457875458,406.8554396423249,0.12749839752928155,0.12190431793019099,0.24625604568498347,1399.2673992673992,-1.0,-1.0,2.4616138709881907,
2023-08-10 16:53:07.080000,9.74698795180723,0.5060240963855422,1.0602409638554218,0.657265481299816,10.309625996321275,1.7976701410177804,2.0,2.457875457875458,406.8554396423249,0.1438144630266299,0.15418681894994518,0.05780548919060684,1397.069597069597,-1.0,-1.0,2.461586725524345,
2023-08-10 16:53:07.087000,9.72289156626506,0.46987951807228917,1.0602409638554218,0.6425505824647455,10.309625996321275,1.7854077253218883,2.0,2.457875457875458,406.8554396423249,0.3730551832643778,0.09544898315948905,0.5899423110541345,1394.8717948717947,-1.0,-1.0,2.461559258843273,
2023-08-10 16:53:07.095000,9.734939759036145,0.46987951807228917,1.072289156626506,0.6842427958307786,10.34886572654813,1.836909871244635,2.0,2.457875457875458,406.8554396423249,-0.11642678165608127,-0.5299224986888874,0.4303944991550609,1391.2087912087911,-1.0,-1.0,2.461531465736169,
2023-08-10 16:53:07.103000,9.74698795180723,0.49397590361445787,1.036144578313253,0.6376456161863887,10.28510116492949,1.7731453096259961,2.0,2.457875457875458,406.8554396423249,0.06852747508886375,-0.27947089330458563,0.33133267292115853,1388.278388278388,-1.0,-1.0,2.4615033414374436,
2023-08-10 16:53:07.110000,9.734939759036145,0.4819277108433735,1.0602409638554218,0.6719803801348866,10.334150827713058,1.7339055793991416,2.0,2.457875457875458,406.8554396423249,0.06817784511392125,-0.276906940155002,0.3238739001223703,1385.3479853479853,-1.0,-1.0,2.4614748812326552,
2023-08-10 16:53:07.118000,9.771084337349398,0.4819277108433735,1.036144578313253,0.6229307173513182,10.339055793991415,1.7633353770692826,2.0,2.457875457875458,406.8554396423249,0.08379465066138284,-0.38016432608822276,-0.15290484237515337,1385.3479853479853,-1.0,-1.0,2.4614460809777863,
2023-08-10 16:53:07.126000,9.819277108433736,0.4819277108433735,1.036144578313253,0.6670754138565297,10.368485591661557,1.7878602084610666,2.0,2.457875457875458,406.8554396423249,0.03671114736903465,-0.4075520074587731,-0.1545364489248877,1386.080586080586,-1.0,-1.0,2.4614169375818324,
2023-08-10 16:53:07.133000,9.795180722891567,0.4819277108433735,1.0602409638554218,0.6940527283874923,10.366033108522378,1.8197424892703862,2.0,2.457875457875458,406.8554396423249,0.008158032748674174,0.25266592855894116,-0.3827282792378068,1386.080586080586,-1.0,-1.0,2.461387448504447,
2023-08-10 16:53:07.141000,9.783132530120483,0.46987951807228917,1.0602409638554218,0.6719803801348866,10.297363580625383,1.8050275904353157,2.0,2.457875457875458,406.8554396423249,-0.47957578229706893,0.12959617737894008,-0.2096614416409301,1381.6849816849815,-1.0,-1.0,2.461357611355526,
2023-08-10 16:53:07.149000,9.771084337349398,0.46987951807228917,1.0481927710843375,0.6327406499080318,10.346413243408952,1.8099325567136726,2.0,2.457875457875458,406.8554396423249,-0.3531262746926166,0.6485636035196081,0.019812365246780383,1372.8937728937728,-1.0,-1.0,2.461327424405818,
2023-08-10 16:53:07.156000,9.74698795180723,0.4819277108433735,1.0481927710843375,0.6768853464132434,10.294911097486205,1.8001226241569588,2.0,2.457875457875458,406.8554396423249,-0.3326146494959495,0.8568265252607655,-0.1629275683235244,1367.7655677655678,-1.0,-1.0,2.4612968866027023,
2023-08-10 16:53:07.164000,9.72289156626506,0.4819277108433735,1.0602409638554218,0.7063151440833844,10.339055793991415,1.7706928264868178,2.0,2.457875457875458,406.8554396423249,-0.3893712487617279,0.6223413553988696,-0.3446186119689995,1368.4981684981683,-1.0,-1.0,2.46126599758375,
2023-08-10 16:53:07.172000,9.710843373493976,0.5060240963855422,1.0,0.6965052115266707,10.339055793991415,1.7927651747394235,2.0,2.457875457875458,406.8554396423249,-0.20266884214206687,0.48342171202144346,-0.8427247829380574,1371.4285714285713,-1.0,-1.0,2.461234757688027,
2023-08-10 16:53:07.179000,9.74698795180723,0.49397590361445787,1.0120481927710845,0.6891477621091354,10.353770692826487,1.7927651747394235,2.0,2.457875457875458,406.8554396423249,-0.04941436979197012,0.007691859448750828,-0.6831769710389838,1372.8937728937728,-1.0,-1.0,2.461203168423021,
2023-08-10 16:53:07.187000,9.74698795180723,0.49397590361445787,1.0120481927710845,0.7308399754751685,10.326793378295523,1.753525444512569,2.0,2.457875457875458,406.8554396423249,-0.07889983101217903,-0.03659460404405381,-0.6471650836198355,1373.6263736263736,-1.0,-1.0,2.4611712319462837,
2023-08-10 16:53:07.195000,9.771084337349398,0.5060240963855422,1.0120481927710845,0.7185775597792765,10.309625996321275,1.7584304107909257,2.0,2.457875457875458,406.8554396423249,0.16269448167356187,0.36256628401608343,-0.381446302663015,1373.6263736263736,-1.0,-1.0,2.4611389506487957,
2023-08-10 16:53:07.202000,9.74698795180723,0.5180722891566265,1.036144578313253,0.7283874923359902,10.321888412017167,1.7878602084610666,2.0,2.457875457875458,406.8554396423249,0.3267874832468972,-0.37783345958860254,-0.08764058038575825,1375.091575091575,-1.0,-1.0,2.4611063281070598,
2023-08-10 16:53:07.210000,9.72289156626506,0.49397590361445787,1.036144578313253,0.6548129981606376,10.321888412017167,1.7608828939301042,2.0,2.457875457875458,406.8554396423249,0.09451663655964061,-0.6251383951984149,-0.3304003263213101,1378.7545787545787,-1.0,-1.0,2.4610733685572908,
2023-08-10 16:53:07.217000,9.734939759036145,0.5060240963855422,1.036144578313253,0.6670754138565297,10.336603310852237,1.7461679950950337,2.0,2.457875457875458,406.8554396423249,0.3227084668725593,-0.9134665812015614,-0.008041489423693338,1384.6153846153845,-1.0,-1.0,2.461040076471381,
2023-08-10 16:53:07.225000,9.759036144578314,0.5060240963855422,1.0,0.6670754138565297,10.383200490496627,1.719190680564071,2.0,2.457875457875458,406.8554396423249,0.39916088806013555,-0.9113688013519029,0.2677000174814986,1389.0109890109889,-1.0,-1.0,2.461006457043819,
2023-08-10 16:53:07.233000,9.759036144578314,0.49397590361445787,1.0240963855421688,0.7529123237277743,10.30226854690374,1.7633353770692826,2.0,2.457875457875458,406.8554396423249,0.3059262280752876,-1.1668317697103894,0.1118815919818191,1394.139194139194,-1.0,-1.0,2.4609725161838214,
2023-08-10 16:53:07.240000,9.783132530120483,0.4819277108433735,1.0120481927710845,0.7136725935009196,10.346413243408952,1.7633353770692826,2.0,2.456410256410256,407.098121085595,0.24602295903502136,-0.6710564652409529,0.018297302022026906,1398.5347985347985,-1.0,-1.0,2.4609382605054133,
2023-08-10 16:53:07.248000,9.795180722891567,0.4819277108433735,1.036144578313253,0.6744328632740649,10.380748007357449,1.7755977927651747,2.0,2.456410256410256,407.098121085595,0.3074412913000402,-0.22434590058854412,0.32037760037293866,1403.6630036630036,-1.0,-1.0,2.4609036972807137,
2023-08-10 16:53:07.256000,9.795180722891567,0.49397590361445787,1.0602409638554218,0.6866952789699571,10.37829552421827,1.7878602084610666,2.0,2.456410256410256,407.098121085595,0.019812365246780383,0.053959559466231426,0.1778451139211001,1410.2564102564102,-1.0,-1.0,2.4608688342866714,
2023-08-10 16:53:07.263000,9.74698795180723,0.4819277108433735,1.0602409638554218,0.7136725935009196,10.321888412017167,1.778050275904353,2.0,2.457875457875458,406.8554396423249,-0.4653574966493791,-0.3990443447351547,0.18716857991958524,1418.3150183150183,-1.0,-1.0,2.4608336792954977,
2023-08-10 16:53:07.271000,9.710843373493976,0.4819277108433735,1.036144578313253,0.6744328632740649,10.282648681790311,1.7878602084610666,2.0,2.457875457875458,406.8554396423249,-0.550783753860497,-0.2977681953266134,-0.01631606549734878,1427.8388278388277,-1.0,-1.0,2.460798240614712,
2023-08-10 16:53:07.279000,9.72289156626506,0.4819277108433735,1.0481927710843375,0.6008583690987124,10.299816063764561,1.8148375229920293,2.0,2.456410256410256,407.098121085595,-0.22364664063865736,-0.8238447642911246,-0.2487034555095858,1440.2930402930401,827.2705078125,72.52766710934041,2.46076252808282,
2023-08-10 16:53:07.286000,9.74698795180723,0.4819277108433735,1.0240963855421688,0.6916002452483139,10.346413243408952,1.748620478234212,2.0,2.457875457875458,406.8554396423249,-0.17563079074646074,-0.2949711555270664,0.04335411689295491,1454.9450549450548,-1.0,72.52766710934041,2.4607265515701506,
2023-08-10 16:53:07.294000,9.759036144578314,0.45783132530120485,1.0240963855421688,0.6744328632740649,10.395462906192519,1.824647455548743,2.0,2.456410256410256,407.098121085595,-0.0363615173940904,-0.4112813938581668,-0.38435988578754154,1471.062271062271,-1.0,72.52766710934041,2.4606903209534083,
2023-08-10 16:53:07.302000,9.795180722891567,0.4819277108433735,1.0240963855421688,0.6253832004904966,10.33169834457388,1.7608828939301042,2.0,2.457875457875458,406.8554396423249,-0.02051162519666714,-0.45009032107686,-0.612085542800536,1486.4468864468863,-1.0,72.52766710934041,2.460653847071469,
2023-08-10 16:53:07.309000,9.759036144578314,0.4819277108433735,1.0120481927710845,0.6965052115266707,10.319435928877988,1.8025751072961373,2.0,2.457875457875458,406.8554396423249,0.23751529631140295,-0.4268981994056284,-0.15127323582541818,1503.2967032967033,-1.0,72.52766710934041,2.460617141134702,
2023-08-10 16:53:07.317000,9.734939759036145,0.5060240963855422,1.0,0.6499080318822807,10.326793378295523,1.7461679950950337,2.0,2.456410256410256,407.098121085595,0.5385467047374867,-0.28343336635394273,-0.28902744595303287,1520.8791208791208,-1.0,72.52766710934041,2.4605802147993754,
2023-08-10 16:53:07.325000,9.759036144578314,0.49397590361445787,1.0240963855421688,0.7087676272225628,10.321888412017167,1.78295524218271,2.0,2.457875457875458,406.8554396423249,0.565468212808112,0.17772857059611927,-0.31944525377309024,1535.5311355311355,-1.0,72.52766710934041,2.460543079678936,
2023-08-10 16:53:07.332000,9.795180722891567,0.46987951807228917,1.036144578313253,0.6916002452483139,10.361128142244022,1.7706928264868178,2.0,2.457875457875458,406.8554396423249,0.8054309189441177,0.34590058854379085,-0.15115669250043692,1547.2527472527472,-1.0,72.52766710934041,2.4605057477331926,
2023-08-10 16:53:07.340000,9.771084337349398,0.46987951807228917,1.0481927710843375,0.7308399754751685,10.33169834457388,1.765787860208461,2.0,2.456410256410256,407.098121085595,0.5087116135423335,0.4358720354291702,-0.15138977915039903,1554.5787545787546,-1.0,72.52766710934041,2.4604682317612525,
2023-08-10 16:53:07.348000,9.759036144578314,0.4819277108433735,1.0481927710843375,0.7161250766400981,10.290006131207848,1.8050275904353157,2.0,2.456410256410256,407.098121085595,0.4591807004253826,0.20127032224229335,-0.16537497814812674,1558.2417582417581,-1.0,72.52766710934041,2.460430544418712,
2023-08-10 16:53:07.355000,9.74698795180723,0.49397590361445787,1.036144578313253,0.7063151440833844,10.383200490496627,1.7976701410177804,2.0,2.457875457875458,406.8554396423249,-0.06118524561505717,-0.3042946215255524,-0.560806479808869,1558.2417582417581,-1.0,72.52766710934041,2.4603926981132993,
2023-08-10 16:53:07.363000,9.759036144578314,0.49397590361445787,1.0240963855421688,0.7087676272225628,10.361128142244022,1.7682403433476395,2.0,2.456410256410256,407.098121085595,0.12353592447992617,-0.381213216013052,-0.20161995221723675,1557.5091575091574,-1.0,72.52766710934041,2.460354705917938,
2023-08-10 16:53:07.371000,9.734939759036145,0.5060240963855422,1.0120481927710845,0.6376456161863887,10.341508277130593,1.7584304107909257,2.0,2.457875457875458,406.8554396423249,-0.01281976574791631,-0.24345900588543773,-0.22795874366295654,1555.311355311355,-1.0,72.52766710934041,2.460316581112617,
2023-08-10 16:53:07.378000,9.783132530120483,0.5060240963855422,1.0120481927710845,0.703862660944206,10.34886572654813,1.7755977927651747,2.0,2.456410256410256,407.098121085595,0.2657187809568209,-0.01794767204708353,-0.3285356331216128,1550.18315018315,-1.0,72.52766710934041,2.460278337572768,
2023-08-10 16:53:07.386000,9.771084337349398,0.5301204819277109,1.0120481927710845,0.7283874923359902,10.353770692826487,1.7461679950950337,2.0,2.456410256410256,407.098121085595,0.2646698910319916,-0.020977798496590483,-0.3220092069226734,1542.1245421245421,-1.0,72.52766710934041,2.4602399897025258,
2023-08-10 16:53:07.394000,9.759036144578314,0.5180722891566265,1.036144578313253,0.7014101778050276,10.282648681790311,1.73635806253832,2.0,2.454945054945055,407.34109221128017,-0.06817784511392125,0.3920517452362924,-0.3766680263387916,1531.135531135531,-1.0,72.52766710934041,2.4602015509274318,
2023-08-10 16:53:07.401000,9.759036144578314,0.5060240963855422,1.0481927710843375,0.7112201103617413,10.277743715511955,1.8320049049662783,2.0,2.456410256410256,407.098121085595,-0.004661732999242137,0.35778800769185876,-0.034729910844356525,1519.4139194139193,-1.0,72.52766710934041,2.4601630341529415,
2023-08-10 16:53:07.409000,9.771084337349398,0.5180722891566265,1.036144578313253,0.703862660944206,10.314530962599632,1.7903126916002452,2.0,2.456410256410256,407.098121085595,-0.27912126332964315,0.1719014043470653,-0.03193287104481081,1506.227106227106,-1.0,72.52766710934041,2.460124452574176,
2023-08-10 16:53:07.417000,9.734939759036145,0.5180722891566265,1.0843373493975905,0.703862660944206,10.299816063764561,1.8221949724095645,2.0,2.456410256410256,407.098121085595,-0.4781772623972954,0.07994872093700829,0.3223588368976168,1492.3076923076922,-1.0,72.52766710934041,2.4600858196766895,
2023-08-10 16:53:07.424000,9.74698795180723,0.49397590361445787,1.036144578313253,0.7308399754751685,10.388105456774984,1.78295524218271,2.0,2.456410256410256,407.098121085595,-0.565002039508187,-0.33669366587028743,0.32107686032282495,1480.5860805860805,-1.0,72.52766710934041,2.4600471487472024,
2023-08-10 16:53:07.432000,9.734939759036145,0.5180722891566265,0.9879518072289157,0.745554874310239,10.341508277130593,1.807480073574494,2.0,2.456410256410256,407.098121085595,-0.13192704387856202,-0.3709574034147193,0.38156284598799584,1468.131868131868,-1.0,72.52766710934041,2.460008452384823,
2023-08-10 16:53:07.440000,9.759036144578314,0.5060240963855422,1.0240963855421688,0.7014101778050276,10.366033108522378,1.7805027590435314,2.0,2.456410256410256,407.098121085595,-0.17609696404638409,0.07050871161354318,0.1497581726006643,1458.6080586080584,-1.0,72.52766710934041,2.4599697425380156,
2023-08-10 16:53:07.447000,9.783132530120483,0.5060240963855422,1.0240963855421688,0.6180257510729613,10.312078479460453,1.8099325567136726,2.0,2.456410256410256,407.098121085595,-0.26525260765689584,0.14474680962647835,0.2558125983334303,1450.5494505494505,-1.0,72.52766710934041,2.459931030963492,
2023-08-10 16:53:07.455000,9.795180722891567,0.4819277108433735,1.0240963855421688,0.6425505824647455,10.297363580625383,1.7682403433476395,2.0,2.456410256410256,407.098121085595,-0.3525435580677124,0.20430044869180033,0.17423227084668724,1443.956043956044,-1.0,72.52766710934041,2.4598923296519133,
2023-08-10 16:53:07.463000,9.771084337349398,0.4819277108433735,1.0120481927710845,0.6670754138565297,10.343960760269773,1.8001226241569588,2.0,2.456410256410256,407.098121085595,-0.39601421828564776,0.05046325971679939,0.29322300565235127,1437.3626373626373,-1.0,72.52766710934041,2.45985365073022,
2023-08-10 16:53:07.470000,9.72289156626506,0.49397590361445787,1.036144578313253,0.6916002452483139,10.28755364806867,1.8025751072961373,2.0,2.456410256410256,407.098121085595,0.13041198065380769,-0.26700075753161184,-0.09381737660975473,1431.5018315018315,-1.0,72.52766710934041,2.459815005944748,
2023-08-10 16:53:07.478000,9.72289156626506,0.4819277108433735,1.0240963855421688,0.6646229307173512,10.356223175965665,1.78295524218271,2.0,2.456410256410256,407.098121085595,0.34345317871918807,-0.27410990035545674,-0.15884855194918732,1425.6410256410256,-1.0,72.52766710934041,2.4597764066383823,
2023-08-10 16:53:07.486000,9.759036144578314,0.49397590361445787,1.036144578313253,0.6670754138565297,10.312078479460453,1.7682403433476395,2.0,2.456410256410256,407.098121085595,0.35906998426665143,-0.21875182098945356,-0.35895344094167014,1420.5128205128203,-1.0,72.52766710934041,2.4597378632713505,
2023-08-10 16:53:07.493000,9.771084337349398,0.5060240963855422,1.0240963855421688,0.6817903126916002,10.304721030042918,1.7927651747394235,2.0,2.456410256410256,407.098121085595,0.1764465940213266,-0.24264320261057015,-0.1614125050987705,1413.1868131868132,-1.0,72.52766710934041,2.459699385926626,
2023-08-10 16:53:07.501000,9.734939759036145,0.5060240963855422,1.0120481927710845,0.7161250766400981,10.366033108522378,1.7952176578786019,2.0,2.456410256410256,407.098121085595,-0.036944234018996325,-0.40650311753394386,0.06351611211467867,1404.3956043956043,-1.0,72.52766710934041,2.4596609847130426,
2023-08-10 16:53:07.509000,9.759036144578314,0.5301204819277109,1.0120481927710845,0.7112201103617413,10.41017780502759,1.7706928264868178,2.0,2.456410256410256,407.098121085595,0.4378532719538496,-0.33704329584522996,-0.24544024241011586,1398.5347985347985,-1.0,72.52766710934041,2.459622669257094,
2023-08-10 16:53:07.516000,9.783132530120483,0.49397590361445787,1.0240963855421688,0.7014101778050276,10.388105456774984,1.7437155119558552,2.0,2.456410256410256,407.098121085595,0.1934619194685617,-0.07027562496357977,-0.10873492220733044,1396.3369963369962,-1.0,72.52766710934041,2.4595844486893133,
2023-08-10 16:53:07.524000,9.74698795180723,0.5060240963855422,1.036144578313253,0.7357449417535254,10.351318209687308,1.8197424892703862,2.0,2.456410256410256,407.098121085595,0.08577588718606226,-0.19043179301905475,0.22539479051337338,1393.4065934065934,-1.0,72.52766710934041,2.4595463316326254,
2023-08-10 16:53:07.532000,9.74698795180723,0.5180722891566265,1.0240963855421688,0.7259350091968118,10.28755364806867,1.7952176578786019,2.0,2.456410256410256,407.098121085595,0.2552298817085248,-0.18635277664471853,0.07050871161354232,1392.6739926739926,-1.0,72.52766710934041,2.4595083261927675,
2023-08-10 16:53:07.539000,9.759036144578314,0.49397590361445787,1.0240963855421688,0.6842427958307786,10.321888412017167,1.8295524218270998,2.0,2.456410256410256,407.098121085595,0.08635860381096644,-0.19835673911776724,-0.23856418623623307,1393.4065934065934,-1.0,72.52766710934041,2.459470439950796,
2023-08-10 16:53:07.547000,9.783132530120483,0.49397590361445787,1.036144578313253,0.7210300429184548,10.37829552421827,1.8001226241569588,2.0,2.454945054945055,407.34109221128017,-0.31396771749898095,-0.07050871161354318,-0.19148068294388446,1394.8717948717947,-1.0,72.52766710934041,2.4594326794998995,
2023-08-10 16:53:07.555000,9.771084337349398,0.49397590361445787,1.0120481927710845,0.6646229307173512,10.39301042305334,1.7952176578786019,2.0,2.454945054945055,407.34109221128017,0.09661441640930088,0.011304702523163701,0.17819474389604348,1400.7326007326005,-1.0,72.52766710934041,2.459395050932582,
2023-08-10 16:53:07.562000,9.783132530120483,0.5060240963855422,1.036144578313253,0.7504598405885959,10.373390557939913,1.7461679950950337,2.0,2.454945054945055,407.34109221128017,-0.3632655439659685,-0.07761785443738635,0.1928792028436571,1410.2564102564102,-1.0,72.52766710934041,2.459357559663557,
2023-08-10 16:53:07.570000,9.759036144578314,0.5180722891566265,1.0240963855421688,0.6842427958307786,10.351318209687308,1.7805027590435314,2.0,2.456410256410256,407.098121085595,-0.2852980595536396,-0.10477244915797505,0.19217994289377077,1420.5128205128203,-1.0,72.52766710934041,2.459320209970233,
2023-08-10 16:53:07.578000,9.759036144578314,0.49397590361445787,1.0602409638554218,0.6744328632740649,10.343960760269773,1.807480073574494,2.0,2.454945054945055,407.34109221128017,-0.17679622399627085,-0.1495250859507013,0.22341355398869525,1430.7692307692307,-1.0,72.52766710934041,2.4592830059754225,
2023-08-10 16:53:07.585000,9.771084337349398,0.4819277108433735,1.0240963855421688,0.6793378295524218,10.282648681790311,1.778050275904353,2.0,2.456410256410256,407.098121085595,-0.5735097022318053,-0.008857292698560929,0.29858399860148016,1439.5604395604394,-1.0,72.52766710934041,2.459245951225897,
2023-08-10 16:53:07.593000,9.74698795180723,0.46987951807228917,1.0120481927710845,0.6131207847946045,10.336603310852237,1.78295524218271,2.0,2.454945054945055,407.34109221128017,-0.4039391643843602,-0.18926635976924464,0.34018996561971904,1446.153846153846,-1.0,72.52766710934041,2.4592090486612554,
2023-08-10 16:53:07.600000,9.74698795180723,0.45783132530120485,1.0240963855421688,0.7185775597792765,10.34886572654813,1.841814837522992,2.0,2.454945054945055,407.34109221128017,-0.03414719421945104,-0.21770293106462255,0.26012470135772947,1451.2820512820513,-1.0,72.52766710934041,2.4591723006543016,
2023-08-10 16:53:07.608000,9.734939759036145,0.49397590361445787,1.036144578313253,0.7210300429184548,10.346413243408952,1.7805027590435314,2.0,2.456410256410256,407.098121085595,0.17807820057106177,-0.09067070683526607,0.3644309772157799,1455.6776556776556,-1.0,72.52766710934041,2.459135708491218,
2023-08-10 16:53:07.616000,9.771084337349398,0.4819277108433735,1.036144578313253,0.7112201103617413,10.292458614347026,1.8442673206621703,2.0,2.454945054945055,407.34109221128017,-0.17563079074646074,-0.10535516578287923,0.05547462269098533,1454.9450549450548,-1.0,72.52766710934041,2.4590992733290262,
2023-08-10 16:53:07.623000,9.74698795180723,0.4819277108433735,1.036144578313253,0.6965052115266707,10.33169834457388,1.748620478234212,2.0,2.454945054945055,407.34109221128017,0.08554280053609885,-0.2419439426606834,-0.022842491696288207,1452.014652014652,-1.0,72.52766710934041,2.4590629957837065,
2023-08-10 16:53:07.631000,9.734939759036145,0.49397590361445787,1.0120481927710845,0.6916002452483139,10.307173513182097,1.7755977927651747,2.0,2.456410256410256,407.098121085595,-0.160829788473865,-0.22854146028786118,0.17469844414661145,1448.3516483516482,-1.0,72.52766710934041,2.4590268754158835,
2023-08-10 16:53:07.639000,9.74698795180723,0.4819277108433735,1.036144578313253,0.703862660944206,10.366033108522378,1.7608828939301042,2.0,2.454945054945055,407.34109221128017,0.20721403181632816,-0.38237864926286386,0.004312103024299194,1443.956043956044,-1.0,72.52766710934041,2.458990911693794,
2023-08-10 16:53:07.646000,9.759036144578314,0.4819277108433735,0.9879518072289157,0.703862660944206,10.34886572654813,1.719190680564071,2.0,2.454945054945055,407.34109221128017,0.4358720354291702,0.18413845347007743,-0.13484062700308858,1440.2930402930401,-1.0,72.52766710934041,2.458955103586774,
2023-08-10 16:53:07.654000,9.783132530120483,0.4819277108433735,0.9879518072289157,0.7136725935009196,10.341508277130593,1.7927651747394235,2.0,2.454945054945055,407.34109221128017,0.2366994930365371,0.04382029019287956,-0.25627877163335494,1437.3626373626373,-1.0,72.52766710934041,2.458919449056251,
2023-08-10 16:53:07.662000,9.783132530120483,0.49397590361445787,1.0,0.6695278969957081,10.31698344573881,1.7854077253218883,2.0,2.454945054945055,407.34109221128017,0.2813355865042825,0.456616747275799,-0.08554280053609929,1434.4322344322343,-1.0,72.52766710934041,2.458883945531209,
2023-08-10 16:53:07.669000,9.771084337349398,0.5060240963855422,1.0120481927710845,0.6646229307173512,10.304721030042918,1.7755977927651747,2.0,2.454945054945055,407.34109221128017,0.2797039799545473,0.4497406911019175,-0.08332847736145906,1433.6996336996335,-1.0,72.52766710934041,2.4588485899271815,
2023-08-10 16:53:07.677000,9.734939759036145,0.49397590361445787,1.0120481927710845,0.7259350091968118,10.324340895156345,1.7633353770692826,2.0,2.454945054945055,407.34109221128017,-0.13495717032806898,0.30837363789988864,-0.3725890099644545,1432.9670329670328,-1.0,72.52766710934041,2.4588133786666138,
2023-08-10 16:53:07.685000,9.759036144578314,0.49397590361445787,1.0120481927710845,0.7259350091968118,10.34886572654813,1.7706928264868178,2.0,2.454945054945055,407.34109221128017,-0.1052386224578984,0.47514713594778846,-0.03228250101975418,1432.2344322344322,-1.0,72.52766710934041,2.45877830770053,
2023-08-10 16:53:07.692000,9.783132530120483,0.5060240963855422,1.0602409638554218,0.7308399754751685,10.388105456774984,1.824647455548743,2.0,2.456410256410256,407.098121085595,0.07855020103723478,0.3936833517860258,0.09171959676009576,1431.5018315018315,-1.0,72.52766710934041,2.45874337253145,
2023-08-10 16:53:07.700000,9.771084337349398,0.49397590361445787,1.036144578313253,0.7381974248927038,10.339055793991415,1.8099325567136726,2.0,2.4534798534798536,407.5843535383696,-0.30720820465007853,-0.12913000407901673,-0.3052269681254004,1425.6410256410256,-1.0,72.52766710934041,2.458708568730161,
2023-08-10 16:53:07.708000,9.759036144578314,0.5060240963855422,1.0240963855421688,0.6768853464132434,10.312078479460453,1.8221949724095645,2.0,2.454945054945055,407.34109221128017,-0.35126158149291975,-0.08565934386107969,0.20301847211700938,1419.7802197802198,-1.0,72.52766710934041,2.458673891505664,
2023-08-10 16:53:07.715000,9.74698795180723,0.5060240963855422,1.0120481927710845,0.6965052115266707,10.304721030042918,1.7633353770692826,2.0,2.454945054945055,407.34109221128017,-0.289260532602995,-0.23856418623623393,0.26373754443214276,1416.8498168498168,-1.0,72.52766710934041,2.458639335560184,
2023-08-10 16:53:07.723000,9.771084337349398,0.49397590361445787,0.9879518072289157,0.6548129981606376,10.324340895156345,1.7339055793991416,2.0,2.454945054945055,407.34109221128017,0.13752112347765258,-0.3618670240661967,0.15418681894994474,1414.6520146520145,-1.0,72.52766710934041,2.458604895153159,
2023-08-10 16:53:07.731000,9.771084337349398,0.4819277108433735,1.0,0.6719803801348866,10.358675659104843,1.7510729613733904,2.0,2.454945054945055,407.34109221128017,-0.1529048423751525,-0.2540644484587147,0.03239904434473502,1413.9194139194137,-1.0,72.52766710934041,2.458570563742392,
2023-08-10 16:53:07.738000,9.783132530120483,0.49397590361445787,1.036144578313253,0.6744328632740649,10.353770692826487,1.7878602084610666,2.0,2.454945054945055,407.34109221128017,0.215605151214964,-0.07097488491346653,0.2015034088922559,1410.989010989011,-1.0,72.52766710934041,2.4585363345044033,
2023-08-10 16:53:07.746000,9.783132530120483,0.46987951807228917,1.0602409638554218,0.7259350091968118,10.383200490496627,1.7952176578786019,2.0,2.454945054945055,407.34109221128017,0.167356214672804,0.18821746984441537,0.061534875590000544,1407.3260073260071,-1.0,72.52766710934041,2.458502200362842,
2023-08-10 16:53:07.754000,9.783132530120483,0.4819277108433735,1.0481927710843375,0.6965052115266707,10.307173513182097,1.7608828939301042,2.0,2.454945054945055,407.34109221128017,-0.1396189033273111,0.1574500320494138,-0.15104014917545608,1404.3956043956043,-1.0,72.52766710934041,2.4584681540176185,
2023-08-10 16:53:07.761000,9.74698795180723,0.49397590361445787,1.036144578313253,0.7283874923359902,10.304721030042918,1.7854077253218883,2.0,2.454945054945055,407.34109221128017,-0.16758930132276742,-0.07132451488840903,0.2776062001048888,1402.197802197802,-1.0,72.52766710934041,2.4584341879746585,
2023-08-10 16:53:07.769000,9.759036144578314,0.49397590361445787,1.0481927710843375,0.645003065603924,10.30226854690374,1.7952176578786019,2.0,2.454945054945055,407.34109221128017,-0.27527533360526857,-0.17667968067129,0.22900763358778625,1400.0,-1.0,72.52766710934041,2.458400294576206,
2023-08-10 16:53:07.777000,9.759036144578314,0.46987951807228917,1.0240963855421688,0.657265481299816,10.312078479460453,1.7388105456774983,2.0,2.454945054945055,407.34109221128017,-0.05803857584056938,-0.22049997086416956,-0.2906590525027681,1399.2673992673992,-1.0,72.52766710934041,2.4583664660316447,
2023-08-10 16:53:07.784000,9.74698795180723,0.46987951807228917,1.0120481927710845,0.6695278969957081,10.373390557939913,1.7706928264868178,2.0,2.454945054945055,407.34109221128017,-0.19486043936833522,-0.3397237923197944,-0.07377192471301224,1400.7326007326005,-1.0,72.52766710934041,2.458332694448725,
2023-08-10 16:53:07.792000,9.783132530120483,0.4819277108433735,1.0,0.6474555487431024,10.33169834457388,1.7731453096259961,2.0,2.454945054945055,407.34109221128017,0.10920109550725551,-0.1984732824427481,-0.10092651943359965,1401.4652014652013,-1.0,72.52766710934041,2.458298971865136,
2023-08-10 16:53:07.800000,9.759036144578314,0.49397590361445787,1.0120481927710845,0.7553648068669527,10.346413243408952,1.7290006131207847,2.0,2.454945054945055,407.34109221128017,-0.33587786259541985,-0.33203193287104527,0.2207330575141308,1402.197802197802,-1.0,72.52766710934041,2.458265290738238,
2023-08-10 16:53:07.807000,9.72289156626506,0.4819277108433735,1.0,0.640098099325567,10.326793378295523,1.7265481299816063,2.0,2.454945054945055,407.34109221128017,0.04789930656721578,0.11502826175630776,0.2200337975642445,1401.4652014652013,-1.0,72.52766710934041,2.458231643451982,
2023-08-10 16:53:07.815000,9.74698795180723,0.49397590361445787,1.0,0.6499080318822807,10.388105456774984,1.7339055793991416,2.0,2.454945054945055,407.34109221128017,0.13705495017772923,0.5294563253889641,-0.14754384942602405,1400.0,-1.0,72.52766710934041,2.4581980219279567,
2023-08-10 16:53:07.823000,9.795180722891567,0.5060240963855422,1.036144578313253,0.6695278969957081,10.292458614347026,1.7265481299816063,2.0,2.454945054945055,407.34109221128017,0.5467047374861609,0.4955422178194747,-0.2681661907814228,1396.3369963369962,-1.0,72.52766710934041,2.458164418607492,
2023-08-10 16:53:07.830000,9.771084337349398,0.4819277108433735,1.0120481927710845,0.6719803801348866,10.366033108522378,1.8148375229920293,2.0,2.454945054945055,407.34109221128017,0.22178194743896051,0.6000815803274864,0.0692267350387505,1391.9413919413919,-1.0,72.52766710934041,2.4581308259580563,
2023-08-10 16:53:07.838000,9.759036144578314,0.5060240963855422,1.0240963855421688,0.6499080318822807,10.361128142244022,1.753525444512569,2.0,2.454945054945055,407.34109221128017,0.06794475846395957,0.26140667793252126,-0.13122778392867526,1389.0109890109889,-1.0,72.52766710934041,2.4580972360835407,
2023-08-10 16:53:07.846000,9.74698795180723,0.5060240963855422,1.0,0.7210300429184548,10.3635806253832,1.7927651747394235,2.0,2.454945054945055,407.34109221128017,0.02214323174640232,0.2764407668550787,0.09731367635918677,1389.0109890109889,-1.0,72.52766710934041,2.4580636412475165,
2023-08-10 16:53:07.853000,9.74698795180723,0.5060240963855422,1.036144578313253,0.6817903126916002,10.304721030042918,1.7584304107909257,2.0,2.4534798534798536,407.5843535383696,-0.0983625662840169,0.3513781248179006,-0.025872618145795594,1389.7435897435896,-1.0,72.52766710934041,2.4580300339035475,
2023-08-10 16:53:07.861000,9.74698795180723,0.5060240963855422,1.0120481927710845,0.7161250766400981,10.368485591661557,1.7805027590435314,2.0,2.454945054945055,407.34109221128017,-0.004778276324222974,0.18169104364547464,-0.4206048598566515,1391.9413919413919,-1.0,72.52766710934041,2.457996406690392,
2023-08-10 16:53:07.869000,9.74698795180723,0.5180722891566265,1.0602409638554218,0.7014101778050276,10.321888412017167,1.8270999386879214,2.0,2.454945054945055,407.34109221128017,-0.09311811665986884,0.08915564361051173,0.1459122428762893,1393.4065934065934,-1.0,72.52766710934041,2.4579627528148444,
2023-08-10 16:53:07.876000,9.771084337349398,0.5180722891566265,1.036144578313253,0.6965052115266707,10.351318209687308,1.7706928264868178,2.0,2.454945054945055,407.34109221128017,-0.3996270613600606,-0.10838529223238792,0.021560515121496402,1392.6739926739926,-1.0,72.52766710934041,2.4579290661169777,
2023-08-10 16:53:07.884000,9.771084337349398,0.49397590361445787,1.0481927710843375,0.7259350091968118,10.358675659104843,1.8050275904353157,2.0,2.454945054945055,407.34109221128017,-0.31909562379814643,-0.2753918769302494,0.15919818192413027,1390.4761904761904,-1.0,72.52766710934041,2.457895340643919,
2023-08-10 16:53:07.892000,9.74698795180723,0.5180722891566265,1.036144578313253,0.6866952789699571,10.361128142244022,1.8001226241569588,2.0,2.454945054945055,407.34109221128017,-0.2510343220092077,-0.0587378357904544,0.1577996620243576,1386.8131868131868,-1.0,72.52766710934041,2.457861570222403,
2023-08-10 16:53:07.899000,9.771084337349398,0.4819277108433735,1.036144578313253,0.7381974248927038,10.361128142244022,1.8442673206621703,2.0,2.454945054945055,407.34109221128017,-0.36909271021502243,-0.45580094400093313,0.064215372064565,1383.150183150183,-1.0,72.52766710934041,2.4578277485551476,
2023-08-10 16:53:07.907000,9.771084337349398,0.4819277108433735,1.0240963855421688,0.6866952789699571,10.319435928877988,1.765787860208461,2.0,2.454945054945055,407.34109221128017,-0.5493852339607254,-0.008973836023541765,-0.22621059378824096,1378.021978021978,-1.0,72.52766710934041,2.457793869737066,
2023-08-10 16:53:07.915000,9.74698795180723,0.4819277108433735,0.9879518072289157,0.6916002452483139,10.34886572654813,1.7878602084610666,2.0,2.454945054945055,407.34109221128017,-0.12167123128022758,-0.19206339956878993,-0.01165433249810621,1375.091575091575,-1.0,72.52766710934041,2.457759928278062,
2023-08-10 16:53:07.922000,9.795180722891567,0.4819277108433735,0.9759036144578314,0.6327406499080318,10.334150827713058,1.7265481299816063,2.0,2.454945054945055,407.34109221128017,-0.30895635452479453,0.2061651418914989,-0.04242177029310648,1372.8937728937728,-1.0,72.52766710934041,2.4577259191250973,
2023-08-10 16:53:07.930000,9.807228915662652,0.49397590361445787,1.0120481927710845,0.6719803801348866,10.304721030042918,1.765787860208461,2.0,2.454945054945055,407.34109221128017,-0.1571004020744713,0.8151040149175462,0.18705203659460398,1369.9633699633698,-1.0,72.52766710934041,2.457691837683468,
2023-08-10 16:53:07.938000,9.807228915662652,0.4819277108433735,1.0120481927710845,0.6523605150214592,10.353770692826487,1.78295524218271,2.0,2.454945054945055,407.34109221128017,-0.0055940795990905645,0.9626478643435699,0.2153720645650019,1364.8351648351647,-1.0,72.52766710934041,2.4576576798372605,
2023-08-10 16:53:07.945000,9.74698795180723,0.46987951807228917,1.0120481927710845,0.6719803801348866,10.33169834457388,1.8025751072961373,2.0,2.454945054945055,407.34109221128017,-0.008857292698560929,0.9534409416700664,0.2154886078899832,1360.4395604395604,-1.0,72.52766710934041,2.4576234419689555,
2023-08-10 16:53:07.953000,9.72289156626506,0.46987951807228917,1.0481927710843375,0.6916002452483139,10.297363580625383,1.8467198038013488,2.0,2.454945054945055,407.34109221128017,-0.2530155585338854,0.718722685158207,0.07610279121263332,1358.974358974359,-1.0,72.52766710934041,2.4575891214360004,
2023-08-10 16:53:07.961000,9.72289156626506,0.45783132530120485,1.0240963855421688,0.6916002452483139,10.346413243408952,1.8197424892703862,2.0,2.4534798534798536,407.5843535383696,-0.342287745469378,0.684575490938756,0.030068177845113953,1361.904761904762,-1.0,72.52766710934041,2.457554716521335,
2023-08-10 16:53:07.968000,9.74698795180723,0.44578313253012053,1.0120481927710845,0.7357449417535254,10.366033108522378,1.7878602084610666,2.0,2.454945054945055,407.34109221128017,0.22283083736378978,0.13262630382844878,0.2161878678398695,1367.032967032967,-1.0,72.52766710934041,2.457520225469127,
2023-08-10 16:53:07.976000,9.72289156626506,0.46987951807228917,1.0120481927710845,0.6351931330472103,10.353770692826487,1.7878602084610666,2.0,2.4534798534798536,407.5843535383696,0.422469553056348,0.3604685041664232,0.23285356331216123,1373.6263736263736,-1.0,72.52766710934041,2.45748564692468,
2023-08-10 16:53:07.983000,9.72289156626506,0.4819277108433735,1.0602409638554218,0.6768853464132434,10.319435928877988,1.78295524218271,2.0,2.4534798534798536,407.5843535383696,0.4215372064564995,-0.06654623856418607,-0.11794184488083431,1380.952380952381,-1.0,72.52766710934041,2.457450979526085,
2023-08-10 16:53:07.991000,9.74698795180723,0.4819277108433735,1.0120481927710845,0.6302881667688535,10.299816063764561,1.7412630288166768,2.0,2.454945054945055,407.34109221128017,0.6162811024998539,-0.107802575607482,-0.2510343220092069,1388.278388278388,-1.0,72.52766710934041,2.4574162219146354,
2023-08-10 16:53:07.999000,9.734939759036145,0.46987951807228917,1.0,0.6842427958307786,10.358675659104843,1.78295524218271,2.0,2.454945054945055,407.34109221128017,0.6277023483479984,-0.4436804382029019,-0.20115377891731254,1396.3369963369962,-1.0,72.52766710934041,2.4573813736566583,
2023-08-10 16:53:08.006000,9.795180722891567,0.46987951807228917,1.0,0.7014101778050276,10.346413243408952,1.7952176578786019,2.0,2.4534798534798536,407.5843535383696,0.6822446244391358,-0.6555562030184722,0.07738476778742512,1401.4652014652013,-1.0,72.52766710934041,2.457346434896612,
2023-08-10 16:53:08.014000,9.783132530120483,0.5060240963855422,1.0481927710843375,0.7185775597792765,10.351318209687308,1.7854077253218883,2.0,2.4534798534798536,407.5843535383696,0.3398403356447752,-0.5291066954140199,-0.14801002272594826,1406.5934065934066,-1.0,72.52766710934041,2.4573114068202186,
2023-08-10 16:53:08.022000,9.807228915662652,0.49397590361445787,1.0481927710843375,0.7651747394236664,10.385652973635805,1.7927651747394235,2.0,2.4534798534798536,407.5843535383696,0.30569314142532417,0.09882873958394024,-0.34555095856884793,1410.2564102564102,-1.0,72.52766710934041,2.4572762909940744,
2023-08-10 16:53:08.029000,9.795180722891567,0.49397590361445787,1.072289156626506,0.6695278969957081,10.336603310852237,1.7952176578786019,2.0,2.4534798534798536,407.5843535383696,-0.23262047666219912,0.4633762601247014,-0.3265543965969347,1409.5238095238094,-1.0,72.52766710934041,2.457241088911622,
2023-08-10 16:53:08.037000,9.819277108433736,0.4819277108433735,1.072289156626506,0.7700797057020232,10.34886572654813,1.7682403433476395,2.0,2.4534798534798536,407.5843535383696,0.027970397995454557,0.2160713245148891,-0.141367053202028,1406.5934065934066,-1.0,72.52766710934041,2.4572058024847254,
2023-08-10 16:53:08.045000,9.807228915662652,0.4819277108433735,1.0602409638554218,0.6695278969957081,10.400367872470877,1.8001226241569588,2.0,2.4534798534798536,407.5843535383696,-0.33879144571994596,0.41407843365771213,-0.1254006176796226,1402.9304029304028,-1.0,72.52766710934041,2.4571704340403384,
2023-08-10 16:53:08.052000,9.74698795180723,0.49397590361445787,1.036144578313253,0.6768853464132434,10.30226854690374,1.7682403433476395,2.0,2.454945054945055,407.34109221128017,-0.5801526717557252,0.24544024241011544,-0.015849892197424567,1399.2673992673992,-1.0,72.52766710934041,2.4571349863149705,
2023-08-10 16:53:08.060000,9.710843373493976,0.4819277108433735,1.0240963855421688,0.6351931330472103,10.334150827713058,1.7854077253218883,2.0,2.4534798534798536,407.5843535383696,-0.4855194918711037,0.25965852805780526,-0.02960200454518974,1394.8717948717947,-1.0,72.52766710934041,2.4570994629396754,
2023-08-10 16:53:08.068000,9.710843373493976,0.4819277108433735,1.0240963855421688,0.6744328632740649,10.321888412017167,1.719190680564071,2.0,2.4534798534798536,407.5843535383696,-0.5258434823145512,0.06071907231513382,-0.3164151273235824,1389.7435897435896,-1.0,72.52766710934041,2.457063868009858,
2023-08-10 16:53:08.075000,9.74698795180723,0.49397590361445787,1.0,0.7357449417535254,10.370938074800735,1.753525444512569,2.0,2.4534798534798536,407.5843535383696,-0.5221140959151558,0.21455626129013475,-0.7535691393275448,1385.3479853479853,-1.0,72.52766710934041,2.457028205549097,
2023-08-10 16:53:08.083000,9.759036144578314,0.4819277108433735,0.9879518072289157,0.6719803801348866,10.351318209687308,1.7412630288166768,2.0,2.4534798534798536,407.5843535383696,-0.18099178369558963,0.41314608705786365,-0.8220966144164095,1381.6849816849815,-1.0,72.52766710934041,2.4569924799540943,
2023-08-10 16:53:08.091000,9.734939759036145,0.4819277108433735,0.9879518072289157,0.6793378295524218,10.339055793991415,1.7903126916002452,2.0,2.454945054945055,407.34109221128017,0.09661441640930088,0.3661791270904963,-0.5860963813297592,1378.7545787545787,-1.0,72.52766710934041,2.456956695979982,
2023-08-10 16:53:08.098000,9.734939759036145,0.4819277108433735,0.9879518072289157,0.7234825260576333,10.28510116492949,1.7805027590435314,2.0,2.4534798534798536,407.5843535383696,0.5112755666919172,0.25802692150807005,-0.5309713886137172,1377.2893772893772,-1.0,72.52766710934041,2.4569208592166403,
2023-08-10 16:53:08.106000,9.734939759036145,0.5060240963855422,1.036144578313253,0.733292458614347,10.24095646842428,1.824647455548743,2.0,2.454945054945055,407.34109221128017,0.46104539362507946,-0.022026688421421484,-0.14148359652700884,1376.5567765567764,-1.0,72.52766710934041,2.4568849756503375,
2023-08-10 16:53:08.114000,9.72289156626506,0.49397590361445787,1.0481927710843375,0.703862660944206,10.30226854690374,1.7952176578786019,2.0,2.4534798534798536,407.5843535383696,0.4888992482955532,-0.14544606957636508,0.21385700134024843,1376.5567765567764,-1.0,72.52766710934041,2.456849051612621,
2023-08-10 16:53:08.121000,9.734939759036145,0.5060240963855422,1.0240963855421688,0.6965052115266707,10.326793378295523,1.8467198038013488,2.0,2.4534798534798536,407.5843535383696,0.7455276499038515,-0.8633529514597045,-0.10523862245789883,1377.2893772893772,-1.0,72.52766710934041,2.456813093797771,
2023-08-10 16:53:08.129000,9.74698795180723,0.5180722891566265,1.0240963855421688,0.6670754138565297,10.336603310852237,1.73635806253832,2.0,2.454945054945055,407.34109221128017,0.6949478468620712,-1.1491171843132693,0.15465299224986895,1380.952380952381,-1.0,72.52766710934041,2.456777108717222,
2023-08-10 16:53:08.137000,9.74698795180723,0.5180722891566265,1.0481927710843375,0.7259350091968118,10.277743715511955,1.8172900061312078,2.0,2.4534798534798536,407.5843535383696,0.6749023949653292,-1.3260299516345209,0.2598916147077678,1384.6153846153845,865.570068359375,69.3184782991926,2.4567411036286186,
2023-08-10 16:53:08.144000,9.771084337349398,0.5060240963855422,1.0120481927710845,0.7087676272225628,10.383200490496627,1.748620478234212,2.0,2.4534798534798536,407.5843535383696,0.3493968882932229,-1.0995862711963165,0.19462735271837311,1391.2087912087911,-1.0,69.3184782991926,2.456705086092946,
2023-08-10 16:53:08.152000,9.783132530120483,0.49397590361445787,1.0,0.7406499080318822,10.28755364806867,1.7437155119558552,2.0,2.454945054945055,407.34109221128017,0.1905483363440356,-0.9520424217702929,0.5127906299166716,1397.8021978021977,-1.0,69.3184782991926,2.456669063426919,
2023-08-10 16:53:08.160000,9.783132530120483,0.5060240963855422,1.0,0.7357449417535254,10.358675659104843,1.7706928264868178,2.0,2.452014652014652,407.8279055870929,-0.19521006934327773,-0.7557834625021859,0.2501019754093584,1402.9304029304028,-1.0,69.3184782991926,2.4566330436303705,
2023-08-10 16:53:08.167000,9.771084337349398,0.49397590361445787,1.0120481927710845,0.6351931330472103,10.30226854690374,1.7388105456774983,2.0,2.4534798534798536,407.5843535383696,-0.1962589592681087,-0.6966959967367873,0.15593496882466032,1410.989010989011,-1.0,69.3184782991926,2.4565970349073702,
2023-08-10 16:53:08.175000,9.771084337349398,0.49397590361445787,0.9879518072289157,0.6253832004904966,10.370938074800735,1.7461679950950337,2.0,2.4534798534798536,407.5843535383696,-0.24357554921041857,-0.4412330283782991,0.183206106870229,1424.1758241758241,-1.0,69.3184782991926,2.4565610454709743,
2023-08-10 16:53:08.183000,9.771084337349398,0.5060240963855422,1.0240963855421688,0.6965052115266707,10.309625996321275,1.812385039852851,2.0,2.4534798534798536,407.5843535383696,-0.5028844472932813,-0.21921799428937688,0.14532952625138382,1443.2234432234432,-1.0,69.3184782991926,2.456525084013619,
2023-08-10 16:53:08.190000,9.759036144578314,0.49397590361445787,1.0,0.6719803801348866,10.370938074800735,1.8025751072961373,2.0,2.4534798534798536,407.5843535383696,-0.49950469086883015,-0.13985198997727452,0.09358428995979262,1463.003663003663,-1.0,69.3184782991926,2.4564891587707307,
2023-08-10 16:53:08.198000,9.734939759036145,0.45783132530120485,1.0,0.598405885959534,10.304721030042918,1.706928264868179,2.0,2.4534798534798536,407.5843535383696,-0.05360992949128891,0.09125342346017198,0.07295612143814464,1484.2490842490843,-1.0,69.3184782991926,2.4564532780245814,
2023-08-10 16:53:08.206000,9.734939759036145,0.49397590361445787,1.0120481927710845,0.6548129981606376,10.380748007357449,1.7755977927651747,2.0,2.4534798534798536,407.5843535383696,-0.05197832294155373,0.033564477594545124,0.10022725948371289,1502.5641025641025,-1.0,69.3184782991926,2.4564174500458287,
2023-08-10 16:53:08.213000,9.771084337349398,0.4819277108433735,1.0120481927710845,0.640098099325567,10.321888412017167,1.7854077253218883,2.0,2.4534798534798536,407.5843535383696,0.1341413670532014,0.15395373229998177,-0.0689936483887884,1520.8791208791208,-1.0,69.3184782991926,2.456381682646719,
2023-08-10 16:53:08.221000,9.74698795180723,0.4819277108433735,1.0,0.7014101778050276,10.312078479460453,1.841814837522992,2.0,2.4534798534798536,407.5843535383696,0.1339082804032397,0.14940854262572048,-0.07085834158848568,1535.5311355311355,-1.0,69.3184782991926,2.45634598410581,
2023-08-10 16:53:08.229000,9.759036144578314,0.46987951807228917,1.0,0.7063151440833844,10.326793378295523,1.7437155119558552,2.0,2.4534798534798536,407.5843535383696,0.15069051920051313,0.18845055649437706,0.25033506205932055,1543.5897435897434,-1.0,69.3184782991926,2.456310362617637,
2023-08-10 16:53:08.236000,9.72289156626506,0.46987951807228917,1.0120481927710845,0.6891477621091354,10.30226854690374,1.7755977927651747,2.0,2.4534798534798536,407.5843535383696,0.42748091603053434,0.2271429403880894,0.12843074412913,1548.7179487179485,-1.0,69.3184782991926,2.4562748263050653,
2023-08-10 16:53:08.244000,9.72289156626506,0.49397590361445787,1.0240963855421688,0.6793378295524218,10.314530962599632,1.748620478234212,2.0,2.4534798534798536,407.5843535383696,0.5030009906182622,0.049763999766912634,-0.08530971388613719,1552.3809523809523,-1.0,69.3184782991926,2.4562393836205434,
2023-08-10 16:53:08.252000,9.771084337349398,0.4819277108433735,1.036144578313253,0.7014101778050276,10.366033108522378,1.7388105456774983,2.0,2.4534798534798536,407.5843535383696,0.6080065264261989,-0.351611211467864,-0.3286521764465941,1553.113553113553,-1.0,69.3184782991926,2.4562040428346443,
2023-08-10 16:53:08.259000,9.795180722891567,0.49397590361445787,1.0120481927710845,0.6989576946658491,10.366033108522378,1.7339055793991416,2.0,2.4534798534798536,407.5843535383696,0.46838762309888776,0.07785094108734976,-0.4761960258726181,1554.5787545787546,-1.0,69.3184782991926,2.4561688120177796,
2023-08-10 16:53:08.267000,9.783132530120483,0.5301204819277109,0.9397590361445783,0.7283874923359902,10.321888412017167,1.765787860208461,2.0,2.4534798534798536,407.5843535383696,-0.191480682943884,0.13973544665229368,-0.10453936250801252,1552.3809523809523,-1.0,69.3184782991926,2.4561336990225677,
2023-08-10 16:53:08.275000,9.771084337349398,0.5180722891566265,0.9879518072289157,0.7112201103617413,10.312078479460453,1.731453096259963,2.0,2.4534798534798536,407.5843535383696,0.1117650486568374,-0.260357788007692,-0.2851815162286579,1547.2527472527472,-1.0,69.3184782991926,2.4560987114669697,
2023-08-10 16:53:08.282000,9.759036144578314,0.5180722891566265,1.0,0.7676272225628449,10.343960760269773,1.7854077253218883,2.0,2.4534798534798536,407.5843535383696,-2.3308664996167294E-4,0.21350737136530548,-0.3132684575490937,1539.194139194139,-1.0,69.3184782991926,2.4560638567182984,
2023-08-10 16:53:08.290000,9.771084337349398,0.5421686746987953,1.0120481927710845,0.733292458614347,10.324340895156345,1.7878602084610666,2.0,2.4534798534798536,407.5843535383696,0.12003962473049413,0.6338791445719949,-0.09859565293397814,1526.7399267399267,-1.0,69.3184782991926,2.4560291418782167,
2023-08-10 16:53:08.298000,9.807228915662652,0.5180722891566265,1.0,0.733292458614347,10.373390557939913,1.78295524218271,2.0,2.452014652014652,407.8279055870929,-0.508361983567391,0.856476895285823,0.025056814870928437,1514.2857142857142,-1.0,69.3184782991926,2.4559945737688262,
2023-08-10 16:53:08.305000,9.783132530120483,0.49397590361445787,1.036144578313253,0.6916002452483139,10.329245861434702,1.7731453096259961,2.0,2.4534798534798536,407.5843535383696,-0.352310471417749,1.2137987296777584,0.1139793718314785,1501.8315018315018,-1.0,69.3184782991926,2.4559601584272754,
2023-08-10 16:53:08.313000,9.759036144578314,0.5060240963855422,1.0481927710843375,0.6965052115266707,10.309625996321275,1.7976701410177804,2.0,2.452014652014652,407.8279055870929,-0.48738418507080056,0.2702639706310822,0.2920575724025407,1485.7142857142856,-1.0,69.3184782991926,2.455925901514807,
2023-08-10 16:53:08.321000,9.734939759036145,0.5060240963855422,1.0240963855421688,0.6768853464132434,10.33169834457388,1.7755977927651747,2.0,2.452014652014652,407.8279055870929,-0.23774838296136636,0.05151214964162865,0.5333022551133382,1471.7948717948716,-1.0,69.3184782991926,2.45589180879638,
2023-08-10 16:53:08.328000,9.72289156626506,0.5180722891566265,1.0481927710843375,0.7259350091968118,10.314530962599632,1.8172900061312078,2.0,2.452014652014652,407.8279055870929,-0.24718839228483144,0.15605151214964202,0.847969232562205,1457.142857142857,-1.0,69.3184782991926,2.4558578850762456,
2023-08-10 16:53:08.336000,9.74698795180723,0.5060240963855422,1.0240963855421688,0.7112201103617413,10.33169834457388,1.824647455548743,2.0,2.452014652014652,407.8279055870929,0.049064739817027615,-0.10314084260823987,0.2897267059029192,1444.6886446886447,-1.0,69.3184782991926,2.455824134221441,
2023-08-10 16:53:08.343000,9.74698795180723,0.5301204819277109,1.0120481927710845,0.7357449417535254,10.390557939914162,1.78295524218271,2.0,2.452014652014652,407.8279055870929,-0.006176796223996482,-0.2063982285414606,0.46978614299865956,1435.8974358974358,-1.0,69.3184782991926,2.455790559641555,
2023-08-10 16:53:08.351000,9.771084337349398,0.49397590361445787,1.0120481927710845,0.6768853464132434,10.34886572654813,1.8050275904353157,2.0,2.4534798534798536,407.5843535383696,-0.2921741157275211,-0.506613833692675,0.4499737777518792,1427.8388278388277,-1.0,69.3184782991926,2.4557571642769074,
2023-08-10 16:53:08.359000,9.783132530120483,0.5060240963855422,1.0120481927710845,0.6646229307173512,10.370938074800735,1.7584304107909257,2.0,2.452014652014652,407.8279055870929,-0.11829147485577812,-0.6077734397762372,0.4912301147951751,1421.9780219780218,-1.0,69.3184782991926,2.4557239510805946,
2023-08-10 16:53:08.366000,9.759036144578314,0.4819277108433735,1.0120481927710845,0.6866952789699571,10.366033108522378,1.7927651747394235,2.0,2.4534798534798536,407.5843535383696,-0.010721985898257782,-0.635627294446711,0.37643493968882946,1416.8498168498168,-1.0,69.3184782991926,2.4556909225886634,
2023-08-10 16:53:08.374000,9.771084337349398,0.46987951807228917,0.9879518072289157,0.7112201103617413,10.304721030042918,1.7682403433476395,2.0,2.452014652014652,407.8279055870929,-0.024707184895985928,-0.3279529164967073,0.21933453761435817,1413.9194139194137,-1.0,69.3184782991926,2.4556580808802857,
2023-08-10 16:53:08.382000,9.759036144578314,0.45783132530120485,1.0,0.6204782342121398,10.383200490496627,1.7240956468424278,2.0,2.452014652014652,407.8279055870929,0.20465007866674456,-0.021560515121496402,0.1395023600023307,1414.6520146520145,-1.0,69.3184782991926,2.4556254280671066,
2023-08-10 16:53:08.389000,9.771084337349398,0.4819277108433735,1.0120481927710845,0.6499080318822807,10.299816063764561,1.8001226241569588,2.0,2.452014652014652,407.8279055870929,0.2664180409067077,-0.2348347998368385,-0.1390361867024065,1416.8498168498168,-1.0,69.3184782991926,2.455592965239168,
2023-08-10 16:53:08.397000,9.783132530120483,0.5060240963855422,1.0,0.6695278969957081,10.297363580625383,1.7903126916002452,2.0,2.4534798534798536,407.5843535383696,0.2666511275566693,-0.06479808868947004,-0.07959909096206534,1416.117216117216,-1.0,69.3184782991926,2.4555606924993882,
2023-08-10 16:53:08.405000,9.74698795180723,0.49397590361445787,0.9879518072289157,0.7847946045370937,10.370938074800735,1.7731453096259961,2.0,2.452014652014652,407.8279055870929,0.46279354349979546,-0.01503408892255741,0.14684458947613774,1413.9194139194137,-1.0,69.3184782991926,2.4555286099475597,
2023-08-10 16:53:08.412000,9.74698795180723,0.49397590361445787,1.0,0.7406499080318822,10.307173513182097,1.8050275904353157,2.0,2.452014652014652,407.8279055870929,0.5052153137929033,0.2478876522347182,-0.022842491696288207,1414.6520146520145,-1.0,69.3184782991926,2.455496717718026,
2023-08-10 16:53:08.420000,9.771084337349398,0.49397590361445787,1.0240963855421688,0.657265481299816,10.346413243408952,1.7878602084610666,2.0,2.452014652014652,407.8279055870929,0.46885379639881114,0.09521589650952737,-0.11491171843132691,1413.1868131868132,-1.0,69.3184782991926,2.4554650153899,
2023-08-10 16:53:08.428000,9.771084337349398,0.5060240963855422,1.036144578313253,0.6768853464132434,10.319435928877988,1.78295524218271,2.0,2.4534798534798536,407.5843535383696,0.2632713711322181,0.27888817667968147,0.11700949828098588,1410.989010989011,-1.0,69.3184782991926,2.455433501502979,
2023-08-10 16:53:08.435000,9.759036144578314,0.5060240963855422,1.0240963855421688,0.6817903126916002,10.294911097486205,1.7755977927651747,2.0,2.452014652014652,407.8279055870929,-0.04836547986714086,0.2748091603053435,0.22504516053843,1410.989010989011,-1.0,69.3184782991926,2.455402174585179,
2023-08-10 16:53:08.443000,9.783132530120483,0.5180722891566265,1.0481927710843375,0.7308399754751685,10.366033108522378,1.7927651747394235,2.0,2.452014652014652,407.8279055870929,-0.35440825126740927,0.5605733931589064,0.2258609638132976,1412.4542124542124,-1.0,69.3184782991926,2.455371032706031,
2023-08-10 16:53:08.451000,9.771084337349398,0.5180722891566265,1.036144578313253,0.6866952789699571,10.282648681790311,1.7461679950950337,2.0,2.452014652014652,407.8279055870929,-0.13938581667734945,0.11467863178136525,0.43866907522871634,1413.9194139194137,-1.0,69.3184782991926,2.4553400725392414,
2023-08-10 16:53:08.458000,9.759036144578314,0.5060240963855422,1.0602409638554218,0.7798896382587369,10.312078479460453,1.7731453096259961,2.0,2.452014652014652,407.8279055870929,-0.26257211118233137,0.03915855719363742,0.7117300856593438,1416.117216117216,-1.0,69.3184782991926,2.455309290323138,
2023-08-10 16:53:08.466000,9.759036144578314,0.49397590361445787,1.036144578313253,0.7308399754751685,10.373390557939913,1.7805027590435314,2.0,2.452014652014652,407.8279055870929,-0.7061360060602524,-0.6154652992249863,0.5698968591573916,1414.6520146520145,-1.0,69.3184782991926,2.4552786818723122,
2023-08-10 16:53:08.474000,9.74698795180723,0.4819277108433735,1.0120481927710845,0.6548129981606376,10.33169834457388,1.7461679950950337,2.0,2.452014652014652,407.8279055870929,-0.7344560340306512,-0.7471592564535866,0.4605792203251557,1411.7216117216117,-1.0,69.3184782991926,2.455248243048871,
2023-08-10 16:53:08.481000,9.771084337349398,0.46987951807228917,1.0240963855421688,0.6670754138565297,10.366033108522378,1.765787860208461,2.0,2.452014652014652,407.8279055870929,-0.23949653283608235,-0.6970456267117298,0.10488899248295545,1410.2564102564102,-1.0,69.3184782991926,2.455217969710299,
2023-08-10 16:53:08.489000,9.783132530120483,0.49397590361445787,1.0240963855421688,0.6744328632740649,10.304721030042918,1.8050275904353157,2.0,2.452014652014652,407.8279055870929,-0.464192063399569,-0.4794592389720881,0.2857642328535634,1410.989010989011,-1.0,69.3184782991926,2.4551878572378922,
2023-08-10 16:53:08.497000,9.771084337349398,0.45783132530120485,1.0,0.645003065603924,10.346413243408952,1.7461679950950337,2.0,2.452014652014652,407.8279055870929,-0.4580152671755725,-0.47689528582250446,0.2805197832294158,1416.117216117216,-1.0,69.3184782991926,2.4551579005588993,
2023-08-10 16:53:08.504000,9.759036144578314,0.4819277108433735,1.0,0.6351931330472103,10.390557939914162,1.7706928264868178,2.0,2.452014652014652,407.8279055870929,-0.04102325039333428,-0.33715983917021075,0.4447293281277315,1420.5128205128203,-1.0,69.3184782991926,2.455128094169646,
2023-08-10 16:53:08.512000,9.734939759036145,0.45783132530120485,1.0,0.7234825260576333,10.361128142244022,1.7584304107909257,2.0,2.452014652014652,407.8279055870929,0.21851873433949015,-0.29135831245265353,0.15138977915039903,1424.9084249084249,-1.0,69.3184782991926,2.455098431701734,
2023-08-10 16:53:08.520000,9.759036144578314,0.46987951807228917,1.0240963855421688,0.5959534028203556,10.339055793991415,1.7854077253218883,2.0,2.452014652014652,407.8279055870929,0.036944234018996325,0.24310937591049522,0.1174756715809101,1430.7692307692307,-1.0,69.3184782991926,2.455068906014286,
2023-08-10 16:53:08.527000,9.74698795180723,0.46987951807228917,1.0120481927710845,0.6768853464132434,10.361128142244022,1.7903126916002452,2.0,2.452014652014652,407.8279055870929,0.11444554513140184,0.19532661266825857,0.1611794184488084,1435.164835164835,-1.0,69.3184782991926,2.4550395097081696,
2023-08-10 16:53:08.535000,9.74698795180723,0.4819277108433735,1.0,0.6646229307173512,10.370938074800735,1.7412630288166768,2.0,2.452014652014652,407.8279055870929,0.4348231455043409,-0.06677932521414773,0.22236466406386554,1440.2930402930401,-1.0,69.3184782991926,2.455010235606914,
2023-08-10 16:53:08.543000,9.734939759036145,0.4819277108433735,0.9759036144578314,0.6842427958307786,10.319435928877988,1.7706928264868178,2.0,2.452014652014652,407.8279055870929,0.2044169920167829,-0.18949944641920632,-0.20663131519142225,1443.956043956044,-1.0,69.3184782991926,2.454981076713916,
2023-08-10 16:53:08.550000,9.74698795180723,0.4819277108433735,0.9759036144578314,0.7259350091968118,10.353770692826487,1.7290006131207847,2.0,2.452014652014652,407.8279055870929,-0.11712604160596629,-0.051861779616572894,0.18973253306916843,1442.4908424908424,-1.0,69.3184782991926,2.4549520252920374,
2023-08-10 16:53:08.558000,9.734939759036145,0.4819277108433735,1.0,0.6768853464132434,10.326793378295523,1.7584304107909257,2.0,2.452014652014652,407.8279055870929,-0.04230522696812521,-0.2807528698793783,-0.10360701590816408,1438.095238095238,-1.0,69.3184782991926,2.4549230734195158,
2023-08-10 16:53:08.566000,9.771084337349398,0.46987951807228917,1.0,0.5787860208461066,10.370938074800735,1.753525444512569,2.0,2.452014652014652,407.8279055870929,-0.11759221490589136,-0.06456500203950837,0.03554571411922368,1432.2344322344322,-1.0,69.3184782991926,2.454894212984598,
2023-08-10 16:53:08.573000,9.734939759036145,0.49397590361445787,0.9759036144578314,0.7357449417535254,10.356223175965665,1.7265481299816063,2.0,2.452014652014652,407.8279055870929,-0.2263271371132218,-0.2018530388671993,0.34170502884447296,1427.8388278388277,-1.0,69.3184782991926,2.4548654352926533,
2023-08-10 16:53:08.581000,9.771084337349398,0.4819277108433735,0.9879518072289157,0.7087676272225628,10.28755364806867,1.6995708154506437,2.0,2.452014652014652,407.8279055870929,-0.08938873026047514,-0.231455043412389,0.1722510343220091,1423.4432234432234,-1.0,69.3184782991926,2.4548367320454108,
2023-08-10 16:53:08.589000,9.783132530120483,0.4819277108433735,1.0,0.6768853464132434,10.324340895156345,1.765787860208461,2.0,2.452014652014652,407.8279055870929,-0.2885612726531082,-0.13903618670240694,0.019579278596818277,1419.047619047619,-1.0,69.3184782991926,2.4548080953033815,
2023-08-10 16:53:08.596000,9.795180722891567,0.4819277108433735,1.0,0.7087676272225628,10.368485591661557,1.7706928264868178,2.0,2.452014652014652,407.8279055870929,-0.046500786667444005,0.13693840685274666,-0.22294738068877104,1416.117216117216,-1.0,69.3184782991926,2.4547795170280873,
2023-08-10 16:53:08.604000,9.759036144578314,0.46987951807228917,1.0120481927710845,0.6499080318822807,10.353770692826487,1.7388105456774983,2.0,2.4505494505494503,408.07174887892376,-0.3088398111998137,-0.018064215372064367,0.3306334129712722,1412.4542124542124,-1.0,69.3184782991926,2.4547509891171386,
2023-08-10 16:53:08.612000,9.771084337349398,0.4819277108433735,0.9759036144578314,0.6940527283874923,10.290006131207848,1.731453096259963,2.0,2.452014652014652,407.8279055870929,-0.2305226968125406,0.3469494784686201,-0.06712895518909155,1412.4542124542124,-1.0,69.3184782991926,2.4547225029466926,
2023-08-10 16:53:08.619000,9.759036144578314,0.4819277108433735,1.0,0.6523605150214592,10.353770692826487,1.7240956468424278,2.0,2.4505494505494503,408.07174887892376,-0.47176737952333725,0.17574733407144158,0.01223704912301126,1412.4542124542124,-1.0,69.3184782991926,2.454694049827054,
2023-08-10 16:53:08.627000,9.783132530120483,0.5060240963855422,1.0240963855421688,0.7087676272225628,10.329245861434702,1.6922133660331085,2.0,2.452014652014652,407.8279055870929,-0.3626828273410643,-0.04009090379348585,0.287162752753336,1413.1868131868132,-1.0,69.3184782991926,2.454665621069489,
2023-08-10 16:53:08.635000,9.759036144578314,0.5060240963855422,1.0240963855421688,0.7283874923359902,10.373390557939913,1.7682403433476395,2.0,2.4505494505494503,408.07174887892376,-0.2829671930540177,0.3706077734397768,0.3609346774663483,1413.9194139194137,-1.0,69.3184782991926,2.4546372079829757,
2023-08-10 16:53:08.642000,9.734939759036145,0.4819277108433735,1.0481927710843375,0.6033108522378908,10.329245861434702,1.8099325567136726,2.0,2.452014652014652,407.8279055870929,-0.26676767088165015,-0.12248703455509517,0.11502826175630776,1414.6520146520145,-1.0,69.3184782991926,2.4546088019398953,
2023-08-10 16:53:08.650000,9.734939759036145,0.49397590361445787,1.036144578313253,0.657265481299816,10.267933782955241,1.78295524218271,2.0,2.452014652014652,407.8279055870929,-0.2478876522347182,-0.10920109550725551,0.1139793718314785,1413.9194139194137,-1.0,69.3184782991926,2.4545803943714946,
2023-08-10 16:53:08.658000,9.734939759036145,0.4819277108433735,1.0,0.6744328632740649,10.282648681790311,1.7878602084610666,2.0,2.4505494505494503,408.07174887892376,-0.212108851465532,-0.24439135248528618,0.2034846454169336,1409.5238095238094,-1.0,69.3184782991926,2.4545519773248055,
2023-08-10 16:53:08.665000,9.74698795180723,0.46987951807228917,1.0120481927710845,0.6670754138565297,10.24095646842428,1.7339055793991416,2.0,2.452014652014652,407.8279055870929,-0.1628110249985427,-0.1505739758755323,-0.10558825243284178,1405.128205128205,-1.0,69.3184782991926,2.4545235425434018,
2023-08-10 16:53:08.673000,9.74698795180723,0.44578313253012053,0.9879518072289157,0.6670754138565297,10.31698344573881,1.7142857142857142,2.0,2.452014652014652,407.8279055870929,-0.29671930540178243,-0.3138511741739983,-0.09043762018530353,1397.069597069597,-1.0,69.3184782991926,2.4544950819185867,
2023-08-10 16:53:08.681000,9.771084337349398,0.45783132530120485,1.0,0.6989576946658491,10.339055793991415,1.706928264868179,2.0,2.452014652014652,407.8279055870929,0.2574442048831659,-0.12470135772973627,0.1994056290425965,1388.278388278388,-1.0,69.3184782991926,2.4544665880439864,
2023-08-10 16:53:08.688000,9.807228915662652,0.4819277108433735,1.0120481927710845,0.6817903126916002,10.353770692826487,1.8025751072961373,2.0,2.452014652014652,407.8279055870929,-0.06596352193928014,0.12306975118000109,0.026804964745644023,1386.080586080586,-1.0,69.3184782991926,2.454438053786447,
2023-08-10 16:53:08.696000,9.771084337349398,0.49397590361445787,0.9879518072289157,0.6548129981606376,10.370938074800735,1.7608828939301042,2.0,2.452014652014652,407.8279055870929,0.30033214847619527,-0.3167647572985262,-0.019812365246780383,1389.0109890109889,-1.0,69.3184782991926,2.454409472314068,
2023-08-10 16:53:08.704000,9.734939759036145,0.4819277108433735,1.0120481927710845,0.6646229307173512,10.341508277130593,1.7461679950950337,2.0,2.452014652014652,407.8279055870929,-0.021793601771458074,-0.49426024124468204,-0.06514771866441342,1390.4761904761904,-1.0,69.3184782991926,2.4543808371234395,
2023-08-10 16:53:08.711000,9.783132530120483,0.49397590361445787,0.9759036144578314,0.6327406499080318,10.31698344573881,1.7044757817290006,2.0,2.452014652014652,407.8279055870929,0.2510343220092077,-0.0025639531495836093,-0.05209486626653457,1389.0109890109889,-1.0,69.3184782991926,2.4543521420660377,
2023-08-10 16:53:08.719000,9.807228915662652,0.49397590361445787,0.9759036144578314,0.6695278969957081,10.373390557939913,1.706928264868179,2.0,2.4505494505494503,408.07174887892376,0.0023308664996219363,0.13460754035312647,-0.24905308548452917,1386.8131868131868,-1.0,69.3184782991926,2.454323381373705,
2023-08-10 16:53:08.726000,9.819277108433736,0.5060240963855422,1.0,0.703862660944206,10.30226854690374,1.7878602084610666,2.0,2.452014652014652,407.8279055870929,-0.04556844006759558,0.2695647106811954,-0.10815220558242539,1384.6153846153845,-1.0,69.3184782991926,2.4542945491905233,
2023-08-10 16:53:08.734000,9.759036144578314,0.4819277108433735,0.963855421686747,0.7185775597792765,10.307173513182097,1.7290006131207847,2.0,2.452014652014652,407.8279055870929,0.07808402773731143,0.265136064331915,-0.28972670590291966,1383.150183150183,-1.0,69.3184782991926,2.454265640016825,
2023-08-10 16:53:08.742000,9.771084337349398,0.49397590361445787,0.9879518072289157,0.6768853464132434,10.358675659104843,1.7167381974248925,2.0,2.452014652014652,407.8279055870929,0.06118524561505717,0.33785909912009754,-0.08915564361051216,1381.6849816849815,-1.0,69.3184782991926,2.4542366492561767,
2023-08-10 16:53:08.749000,9.734939759036145,0.49397590361445787,0.9759036144578314,0.6621704475781729,10.34886572654813,1.7044757817290006,2.0,2.4505494505494503,408.07174887892376,-0.15127323582541732,0.4877338150457431,0.08064798088689461,1380.952380952381,-1.0,69.3184782991926,2.4542075727782886,
2023-08-10 16:53:08.757000,9.734939759036145,0.5180722891566265,1.0120481927710845,0.6866952789699571,10.329245861434702,1.7339055793991416,2.0,2.452014652014652,407.8279055870929,-0.5303886719888126,0.5773556319561799,0.15651768544956582,1380.2197802197802,-1.0,69.3184782991926,2.4541784064460224,
2023-08-10 16:53:08.765000,9.74698795180723,0.49397590361445787,1.0120481927710845,0.6695278969957081,10.346413243408952,1.8221949724095645,2.0,2.452014652014652,407.8279055870929,-0.29823436862653674,0.25383136180875304,0.32177612027271174,1380.2197802197802,-1.0,69.3184782991926,2.4541491465544047,
2023-08-10 16:53:08.772000,9.759036144578314,0.46987951807228917,1.0,0.6916002452483139,10.339055793991415,1.7903126916002452,2.0,2.4505494505494503,408.07174887892376,-0.2970689353767267,0.2516170386341119,0.32107686032282495,1379.4871794871794,-1.0,69.3184782991926,2.4541197903724847,
2023-08-10 16:53:08.780000,9.771084337349398,0.46987951807228917,1.036144578313253,0.6229307173513182,10.341508277130593,1.702023298589822,2.0,2.4505494505494503,408.07174887892376,-0.6173299924246831,0.2943884389021622,0.47269972612318656,1379.4871794871794,-1.0,69.3184782991926,2.4540903356662027,
2023-08-10 16:53:08.788000,9.759036144578314,0.45783132530120485,1.0240963855421688,0.6744328632740649,10.356223175965665,1.778050275904353,2.0,2.4505494505494503,408.07174887892376,-0.3533593613425783,0.13798729677757768,0.3443855253190374,1380.952380952381,-1.0,69.3184782991926,2.4540607805732906,
2023-08-10 16:53:08.795000,9.783132530120483,0.46987951807228917,1.036144578313253,0.7185775597792765,10.34886572654813,1.7755977927651747,2.0,2.4505494505494503,408.07174887892376,-0.3824951925878447,0.18029252374570287,0.21863527766447186,1381.6849816849815,-1.0,69.3184782991926,2.454031123580311,
2023-08-10 16:53:08.803000,9.759036144578314,0.46987951807228917,1.0240963855421688,0.6474555487431024,10.314530962599632,1.7878602084610666,2.0,2.4505494505494503,408.07174887892376,-0.27166249053085395,0.04009090379348585,0.13938581667734987,1383.8827838827838,-1.0,69.3184782991926,2.454001363074102,
2023-08-10 16:53:08.811000,9.771084337349398,0.45783132530120485,1.0120481927710845,0.6621704475781729,10.375843041079092,1.719190680564071,2.0,2.4505494505494503,408.07174887892376,-0.24136122603577922,-0.06957636501369302,0.20057106229240748,1383.150183150183,-1.0,69.3184782991926,2.453971497415868,
2023-08-10 16:53:08.818000,9.74698795180723,0.46987951807228917,1.0,0.7259350091968118,10.304721030042918,1.7559779276517473,2.0,2.4505494505494503,408.07174887892376,0.09696404638424339,-0.15978089854903574,-0.18145795699551298,1383.150183150183,-1.0,69.3184782991926,2.45394152589179,
2023-08-10 16:53:08.826000,9.74698795180723,0.4819277108433735,1.0120481927710845,0.7210300429184548,10.272838749233598,1.731453096259963,2.0,2.4505494505494503,408.07174887892376,-0.009323465998484274,-0.2308723267874831,-0.09008799021036103,1383.8827838827838,-1.0,69.3184782991926,2.453911448186197,
2023-08-10 16:53:08.834000,9.734939759036145,0.46987951807228917,1.0120481927710845,0.6817903126916002,10.326793378295523,1.7682403433476395,2.0,2.4505494505494503,408.07174887892376,-0.050579803041780225,-0.3321484761960261,-0.10721985898257652,1385.3479853479853,-1.0,69.3184782991926,2.453881264414896,
2023-08-10 16:53:08.841000,9.734939759036145,0.46987951807228917,0.963855421686747,0.6793378295524218,10.290006131207848,1.719190680564071,2.0,2.4505494505494503,408.07174887892376,-0.18553697336985095,-0.18751820989452864,-0.5033506205932056,1386.080586080586,-1.0,69.3184782991926,2.453850975087009,
2023-08-10 16:53:08.849000,9.771084337349398,0.4819277108433735,1.0,0.6670754138565297,10.309625996321275,1.6676885346413242,2.0,2.4505494505494503,408.07174887892376,0.015267175572519083,-0.6571878095682073,-0.33308082279587453,1384.6153846153845,-1.0,69.3184782991926,2.4538205806765463,
2023-08-10 16:53:08.857000,9.759036144578314,0.46987951807228917,1.0,0.7283874923359902,10.388105456774984,1.7976701410177804,2.0,2.4505494505494503,408.07174887892376,-0.07586970456267034,-0.023891381621118337,-0.6356272944467105,1383.8827838827838,-1.0,69.3184782991926,2.4537900825635295,
2023-08-10 16:53:08.864000,9.771084337349398,0.4819277108433735,0.9759036144578314,0.6866952789699571,10.397915389331697,1.6824034334763946,2.0,2.4505494505494503,408.07174887892376,0.2907755958277493,0.13192704387856202,-0.6772332614649494,1382.4175824175823,-1.0,69.3184782991926,2.4537594824980324,
2023-08-10 16:53:08.872000,9.759036144578314,0.49397590361445787,1.0,0.6523605150214592,10.28510116492949,1.812385039852851,2.0,2.4505494505494503,408.07174887892376,-0.32177612027271085,0.22422935726356327,-0.2482372822096616,1383.150183150183,-1.0,69.3184782991926,2.4537287821669405,
2023-08-10 16:53:08.880000,9.72289156626506,0.4819277108433735,0.9879518072289157,0.7283874923359902,10.314530962599632,1.7584304107909257,2.0,2.4505494505494503,408.07174887892376,-0.16700658469786148,0.19299574616863835,0.2428762892605327,1385.3479853479853,-1.0,69.3184782991926,2.4536979841305344,
2023-08-10 16:53:08.887000,9.759036144578314,0.49397590361445787,1.0120481927710845,0.6989576946658491,10.28755364806867,1.7927651747394235,2.0,2.4505494505494503,408.07174887892376,-0.22947380688771132,-0.17539770409649733,-0.06456500203950837,1383.8827838827838,-1.0,69.3184782991926,2.45366709174022,
2023-08-10 16:53:08.895000,9.795180722891567,0.4819277108433735,1.0240963855421688,0.6376456161863887,10.329245861434702,1.7755977927651747,2.0,2.4505494505494503,408.07174887892376,-0.1687547345725775,0.09894528290892109,0.2420604859856651,1380.952380952381,-1.0,69.3184782991926,2.453636108176297,
2023-08-10 16:53:08.903000,9.783132530120483,0.49397590361445787,0.9879518072289157,0.6768853464132434,10.314530962599632,1.7044757817290006,2.0,2.4505494505494503,408.07174887892376,-0.5202494027154589,-0.1157275217061945,-0.003263213099469496,1377.2893772893772,-1.0,69.3184782991926,2.453605036959917,
2023-08-10 16:53:08.910000,9.771084337349398,0.4819277108433735,0.963855421686747,0.6916002452483139,10.319435928877988,1.7339055793991416,2.0,2.4505494505494503,408.07174887892376,-0.6257211118233208,-0.026455334770700212,0.36326554396596933,1377.2893772893772,-1.0,69.3184782991926,2.4535738819018245,
2023-08-10 16:53:08.918000,9.759036144578314,0.4819277108433735,0.9759036144578314,0.5885959534028203,10.39301042305334,1.706928264868179,2.0,2.4505494505494503,408.07174887892376,0.04685041664238651,-0.07190723151331495,0.236233319736612,1378.021978021978,-1.0,69.3184782991926,2.4535426471197237,
2023-08-10 16:53:08.926000,9.807228915662652,0.46987951807228917,1.0120481927710845,0.6523605150214592,10.319435928877988,1.7559779276517473,2.0,2.4490842490842493,408.3158839365839,-0.183206106870229,0.2785385467047372,0.05069634636676193,1377.2893772893772,-1.0,69.3184782991926,2.4535113374432393,
2023-08-10 16:53:08.933000,9.807228915662652,0.46987951807228917,1.036144578313253,0.5959534028203556,10.395462906192519,1.7903126916002452,2.0,2.4505494505494503,408.07174887892376,-0.229706893537673,0.2781889167297947,0.049530913116951396,1376.5567765567764,-1.0,69.3184782991926,2.4534799578699817,
2023-08-10 16:53:08.941000,9.771084337349398,0.45783132530120485,1.0,0.6842427958307786,10.346413243408952,1.7412630288166768,2.0,2.4505494505494503,408.07174887892376,-0.2441582658353245,0.2977681953266134,0.1875182098945282,1376.5567765567764,-1.0,69.3184782991926,2.4534485134436306,
2023-08-10 16:53:08.949000,9.74698795180723,0.46987951807228917,1.036144578313253,0.7063151440833844,10.334150827713058,1.807480073574494,2.0,2.4505494505494503,408.07174887892376,-0.028320027970398804,0.37946506613833775,0.15675077209952792,1378.021978021978,-1.0,69.3184782991926,2.4534170093393803,
2023-08-10 16:53:08.956000,9.771084337349398,0.49397590361445787,1.072289156626506,0.6842427958307786,10.375843041079092,1.8099325567136726,2.0,2.4505494505494503,408.07174887892376,0.14008507662723618,0.3689761668900416,-0.02645533477070108,1379.4871794871794,-1.0,69.3184782991926,2.453385450879017,
2023-08-10 16:53:08.964000,9.783132530120483,0.4819277108433735,1.0481927710843375,0.645003065603924,10.400367872470877,1.7240956468424278,2.0,2.4505494505494503,408.07174887892376,-0.12213740458015267,-0.024823728220966765,0.004428646349280464,1382.4175824175823,-1.0,69.3184782991926,2.453353843510838,
2023-08-10 16:53:08.972000,9.759036144578314,0.4819277108433735,1.0120481927710845,0.6744328632740649,10.34886572654813,1.7805027590435314,2.0,2.4505494505494503,408.07174887892376,-0.19987180234252158,-0.12575024765456555,-0.2858807761785447,1386.8131868131868,-1.0,69.3184782991926,2.4533221927894093,
2023-08-10 16:53:08.979000,9.74698795180723,0.46987951807228917,1.0,0.6499080318822807,10.321888412017167,1.748620478234212,2.0,2.4490842490842493,408.3158839365839,-0.30324573160072316,-0.0010488899248292638,-0.29776819532661253,1391.2087912087911,-1.0,69.3184782991926,2.453290504355258,
2023-08-10 16:53:08.987000,9.72289156626506,0.4819277108433735,0.9759036144578314,0.6597179644389944,10.253218884120171,1.7461679950950337,2.0,2.4505494505494503,408.07174887892376,0.17586387739642242,-0.028203484645416232,-0.3399568789697569,1394.139194139194,-1.0,69.3184782991926,2.4532587834220476,
2023-08-10 16:53:08.995000,9.74698795180723,0.49397590361445787,0.9879518072289157,0.6106683016554261,10.324340895156345,1.7461679950950337,2.0,2.4505494505494503,408.07174887892376,0.11700949828098545,-0.3942660684109317,-0.5982168871277895,1397.069597069597,-1.0,69.3184782991926,2.4532270351771652,
2023-08-10 16:53:09.002000,9.783132530120483,0.4819277108433735,0.9879518072289157,0.6842427958307786,10.346413243408952,1.6971183323114654,2.0,2.4505494505494503,408.07174887892376,0.39601421828564776,0.1276149408542624,-0.5043995105180348,1398.5347985347985,-1.0,69.3184782991926,2.4531952652867632,
2023-08-10 16:53:09.010000,9.783132530120483,0.49397590361445787,0.9759036144578314,0.7014101778050276,10.375843041079092,1.753525444512569,2.0,2.4505494505494503,408.07174887892376,0.18448808344501993,0.7040382262105939,-0.4872676417458189,1396.3369963369962,-1.0,69.3184782991926,2.4531634794184147,
2023-08-10 16:53:09.018000,9.771084337349398,0.5060240963855422,1.0,0.6768853464132434,10.339055793991415,1.7093807480073573,2.0,2.4505494505494503,408.07174887892376,0.09719713303420506,0.007225686148825746,-0.6513606433191538,1392.6739926739926,-1.0,69.3184782991926,2.4531316832223786,
2023-08-10 16:53:09.025000,9.759036144578314,0.49397590361445787,1.0120481927710845,0.6916002452483139,10.373390557939913,1.8050275904353157,2.0,2.4505494505494503,408.07174887892376,0.20651477186644143,0.04941436979197012,-0.08309539071149695,1387.5457875457876,-1.0,69.3184782991926,2.4530998823137686,
2023-08-10 16:53:09.033000,9.74698795180723,0.4819277108433735,0.9879518072289157,0.6842427958307786,10.33169834457388,1.660331085223789,2.0,2.4505494505494503,408.07174887892376,-0.005827166249052237,0.12656605092943313,0.1281976574791679,1383.8827838827838,857.91015625,69.93739328400683,2.453068082255747,
2023-08-10 16:53:09.041000,9.72289156626506,0.49397590361445787,0.9879518072289157,0.6842427958307786,10.319435928877988,1.7118332311465358,2.0,2.4505494505494503,408.07174887892376,-0.09847910960899774,0.23646640638657368,0.18530388671988796,1378.021978021978,-1.0,69.93739328400683,2.4530362885438834,
2023-08-10 16:53:09.048000,9.759036144578314,0.49397590361445787,1.0,0.7136725935009196,10.275291232372776,1.7559779276517473,2.0,2.4505494505494503,408.07174887892376,-0.09684750305926255,0.2368160363615179,0.18227376027038059,1372.161172161172,-1.0,69.93739328400683,2.4530045065917827,
2023-08-10 16:53:09.056000,9.783132530120483,0.5060240963855422,0.9879518072289157,0.7014101778050276,10.299816063764561,1.7682403433476395,2.0,2.4505494505494503,408.07174887892376,-0.18961598974418717,-0.17353301089680048,0.3320319328710449,1367.7655677655678,-1.0,69.93739328400683,2.4529727417180847,
2023-08-10 16:53:09.064000,9.807228915662652,0.49397590361445787,0.9759036144578314,0.6695278969957081,10.339055793991415,1.78295524218271,2.0,2.4490842490842493,408.3158839365839,-0.31408426082396174,0.013402482372822228,0.35930307091661307,1364.8351648351647,-1.0,69.93739328400683,2.452940999134968,
2023-08-10 16:53:09.071000,9.783132530120483,0.45783132530120485,0.9879518072289157,0.640098099325567,10.373390557939913,1.7584304107909257,2.0,2.452014652014652,407.8279055870929,-0.17737894062117676,0.1074529456325395,0.5694306858574674,1364.8351648351647,-1.0,69.93739328400683,2.4529092834455106,
2023-08-10 16:53:09.079000,9.771084337349398,0.46987951807228917,1.0,0.6768853464132434,10.341508277130593,1.7437155119558552,2.0,2.4490842490842493,408.3158839365839,-0.25581259833343073,0.30615931472524927,0.8673154245090612,1364.102564102564,-1.0,69.93739328400683,2.4528775995485383,
2023-08-10 16:53:09.087000,9.74698795180723,0.44578313253012053,1.0,0.615573267933783,10.297363580625383,1.7633353770692826,2.0,2.4490842490842493,408.3158839365839,-0.16572460812307055,0.36711147369034475,0.6098712196258957,1364.8351648351647,-1.0,69.93739328400683,2.452845952701216,
2023-08-10 16:53:09.094000,9.759036144578314,0.45783132530120485,1.0240963855421688,0.6989576946658491,10.294911097486205,1.778050275904353,2.0,2.4490842490842493,408.3158839365839,-0.10430627585804997,0.39857817143523133,0.5369150981877511,1369.230769230769,-1.0,69.93739328400683,2.452814347391752,
2023-08-10 16:53:09.102000,9.734939759036145,0.44578313253012053,1.0240963855421688,0.5763335377069282,10.321888412017167,1.753525444512569,2.0,2.4505494505494503,408.07174887892376,-0.056523512615815036,0.21572169453994486,0.7867839869471475,1377.2893772893772,-1.0,69.93739328400683,2.45278278775812,
2023-08-10 16:53:09.109000,9.734939759036145,0.45783132530120485,1.0120481927710845,0.6989576946658491,10.309625996321275,1.7755977927651747,2.0,2.4505494505494503,408.07174887892376,-0.1128139385816684,0.14031816327719787,0.4548685974010838,1391.9413919413919,-1.0,69.93739328400683,2.452751277619052,
2023-08-10 16:53:09.117000,9.72289156626506,0.45783132530120485,1.0120481927710845,0.6548129981606376,10.236051502145923,1.7927651747394235,2.0,2.4505494505494503,408.07174887892376,0.18215721694539974,-0.07400501136297348,0.35732183439193516,1405.8608058608058,-1.0,69.93739328400683,2.4527198210681256,
2023-08-10 16:53:09.125000,9.734939759036145,0.4819277108433735,1.0120481927710845,0.6719803801348866,10.361128142244022,1.7608828939301042,2.0,2.4505494505494503,408.07174887892376,0.01713186877221594,-0.36396480391585523,0.1715517743721228,1421.9780219780218,-1.0,69.93739328400683,2.452688421982099,
2023-08-10 16:53:09.132000,9.771084337349398,0.45783132530120485,1.0120481927710845,0.703862660944206,10.405272838749234,1.7559779276517473,2.0,2.4505494505494503,408.07174887892376,0.11491171843132691,-0.4892488782704974,-0.21374045801526717,1440.2930402930401,-1.0,69.93739328400683,2.4526570840582194,
2023-08-10 16:53:09.140000,9.771084337349398,0.45783132530120485,1.0,0.6057633353770693,10.326793378295523,1.7265481299816063,2.0,2.4490842490842493,408.3158839365839,-0.18530388671988754,-0.17306683759687713,-0.15138977915039925,1457.8754578754579,-1.0,69.93739328400683,2.452625811241512,
2023-08-10 16:53:09.148000,9.771084337349398,0.45783132530120485,0.9759036144578314,0.6695278969957081,10.402820355610055,1.702023298589822,2.0,2.4505494505494503,408.07174887892376,-0.10162577938348553,0.215605151214964,-0.2260940504632597,1471.062271062271,-1.0,69.93739328400683,2.452594606289593,
2023-08-10 16:53:09.155000,9.771084337349398,0.43373493975903615,1.0,0.6351931330472103,10.312078479460453,1.7388105456774983,2.0,2.4505494505494503,408.07174887892376,0.10115960608356218,0.3433366353942073,-0.04113979371831468,1479.8534798534797,-1.0,69.93739328400683,2.452563471727598,
2023-08-10 16:53:09.163000,9.759036144578314,0.4819277108433735,1.0481927710843375,0.6891477621091354,10.30226854690374,1.7559779276517473,2.0,2.4490842490842493,408.3158839365839,0.53027212866383,0.5626711730085667,0.14486335295145983,1487.9120879120878,-1.0,69.93739328400683,2.452532410804311,
2023-08-10 16:53:09.171000,9.783132530120483,0.46987951807228917,1.0240963855421688,0.7259350091968118,10.356223175965665,1.753525444512569,2.0,2.4505494505494503,408.07174887892376,0.43412388555445414,0.17096905774721688,0.14428063632655433,1491.5750915750914,-1.0,69.93739328400683,2.452501425602833,
2023-08-10 16:53:09.178000,9.759036144578314,0.4819277108433735,0.9879518072289157,0.6474555487431024,10.368485591661557,1.7755977927651747,2.0,2.4505494505494503,408.07174887892376,0.14020161995221703,0.05733931589068263,0.23460171318687725,1493.7728937728937,-1.0,69.93739328400683,2.452470517999113,
2023-08-10 16:53:09.186000,9.734939759036145,0.46987951807228917,0.9759036144578314,0.6891477621091354,10.245861434702636,1.753525444512569,2.0,2.4505494505494503,408.07174887892376,0.03135015441990576,-0.3589534409416706,0.15651768544956582,1496.7032967032967,-1.0,69.93739328400683,2.452439690621602,
2023-08-10 16:53:09.194000,9.759036144578314,0.45783132530120485,1.0,0.6229307173513182,10.339055793991415,1.78295524218271,2.0,2.4505494505494503,408.07174887892376,-0.06339956878969827,-0.1139793718314785,-0.028086941320435828,1498.9010989010987,-1.0,69.93739328400683,2.452408945915856,
2023-08-10 16:53:09.201000,9.795180722891567,0.4819277108433735,0.9879518072289157,0.7161250766400981,10.329245861434702,1.7633353770692826,2.0,2.4490842490842493,408.3158839365839,0.16316065497348695,0.29765165200163085,-0.16584115144805073,1499.6336996336995,-1.0,69.93739328400683,2.4523782861607235,
2023-08-10 16:53:09.209000,9.795180722891567,0.4819277108433735,1.0120481927710845,0.7014101778050276,10.388105456774984,1.7142857142857142,2.0,2.4505494505494503,408.07174887892376,-0.0666627818891669,0.38727346891206765,-0.058388205815511886,1496.7032967032967,-1.0,69.93739328400683,2.452347712992791,
2023-08-10 16:53:09.217000,9.771084337349398,0.4819277108433735,1.0120481927710845,0.703862660944206,10.336603310852237,1.7461679950950337,2.0,2.4505494505494503,408.07174887892376,-0.20313501544199022,0.7352718373055188,0.2316881300623507,1490.8424908424906,-1.0,69.93739328400683,2.4523172278448877,
2023-08-10 16:53:09.224000,9.771084337349398,0.4819277108433735,1.0120481927710845,0.6768853464132434,10.361128142244022,1.7805027590435314,2.0,2.4505494505494503,408.07174887892376,-0.5050987704679207,0.4097663306334125,0.2739933570304761,1487.9120879120878,-1.0,69.93739328400683,2.452286832489387,
2023-08-10 16:53:09.232000,9.734939759036145,0.46987951807228917,0.9879518072289157,0.6744328632740649,10.299816063764561,1.8148375229920293,2.0,2.4490842490842493,408.3158839365839,-0.7741973078491928,0.48365479867140687,0.17854437387098643,1479.8534798534797,-1.0,69.93739328400683,2.4522565281413735,
2023-08-10 16:53:09.240000,9.734939759036145,0.46987951807228917,1.0120481927710845,0.6253832004904966,10.307173513182097,1.7854077253218883,2.0,2.447619047619048,408.56031128404663,-0.8731425907581138,0.26723384418157525,0.3915855719363673,1471.062271062271,-1.0,69.93739328400683,2.452226315968531,
2023-08-10 16:53:09.247000,9.698795180722891,0.46987951807228917,1.0120481927710845,0.7357449417535254,10.290006131207848,1.7633353770692826,2.0,2.4490842490842493,408.3158839365839,-0.5874949012295317,-0.038808927218693175,0.3272536565468212,1463.7362637362637,-1.0,69.93739328400683,2.4521961964423933,
2023-08-10 16:53:09.255000,9.72289156626506,0.46987951807228917,1.0,0.6817903126916002,10.319435928877988,1.7805027590435314,2.0,2.4490842490842493,408.3158839365839,-0.5934386108035665,-0.11479517510634608,-0.043587203542917015,1457.142857142857,-1.0,69.93739328400683,2.4521661693185686,
2023-08-10 16:53:09.263000,9.759036144578314,0.44578313253012053,0.9759036144578314,0.6425505824647455,10.341508277130593,1.7854077253218883,2.0,2.4490842490842493,408.3158839365839,-0.3389079890449268,-0.010022725948371029,0.22772565701299466,1451.2820512820513,-1.0,69.93739328400683,2.452136234668662,
2023-08-10 16:53:09.270000,9.771084337349398,0.44578313253012053,0.9879518072289157,0.6548129981606376,10.361128142244022,1.765787860208461,2.0,2.4490842490842493,408.3158839365839,-0.30103140842608206,-0.2997494318512911,0.26676767088165015,1447.6190476190475,-1.0,69.93739328400683,2.4521063924362294,
2023-08-10 16:53:09.278000,9.771084337349398,0.43373493975903615,1.0120481927710845,0.6106683016554261,10.343960760269773,1.8099325567136726,2.0,2.4490842490842493,408.3158839365839,-0.024124468271080012,-0.14404754967659159,-0.08868947031058795,1441.0256410256409,-1.0,69.93739328400683,2.4520766424502543,
2023-08-10 16:53:09.286000,9.783132530120483,0.43373493975903615,1.0,0.6253832004904966,10.339055793991415,1.7437155119558552,2.0,2.4490842490842493,408.3158839365839,0.16141250509877092,-0.17574733407144158,-0.10698677233261464,1435.8974358974358,-1.0,69.93739328400683,2.4520469844381836,
2023-08-10 16:53:09.293000,9.783132530120483,0.44578313253012053,1.0240963855421688,0.6376456161863887,10.334150827713058,1.7559779276517473,2.0,2.4490842490842493,408.3158839365839,0.3294679797214617,0.13227667385350453,-0.15593496882466054,1430.03663003663,-1.0,69.93739328400683,2.4520174180385297,
2023-08-10 16:53:09.301000,9.759036144578314,0.43373493975903615,1.036144578313253,0.5935009196811771,10.336603310852237,1.719190680564071,2.0,2.4490842490842493,408.3158839365839,0.6498455800944007,-0.27632422353009783,0.010838529223238837,1422.7106227106226,-1.0,69.93739328400683,2.451987942812925,
2023-08-10 16:53:09.309000,9.74698795180723,0.45783132530120485,1.0120481927710845,0.6866952789699571,10.31698344573881,1.7633353770692826,2.0,2.4490842490842493,408.3158839365839,0.6881883340131688,-0.4968241943942657,-0.4639589767496067,1416.8498168498168,-1.0,69.93739328400683,2.451958558257656,
2023-08-10 16:53:09.316000,9.783132530120483,0.46987951807228917,1.0,0.6548129981606376,10.343960760269773,1.7976701410177804,2.0,2.4490842490842493,408.3158839365839,0.6815453644892491,-0.544840044286464,-0.7207039216828856,1411.7216117216117,-1.0,69.93739328400683,2.451929263814598,
2023-08-10 16:53:09.324000,9.795180722891567,0.45783132530120485,1.0120481927710845,0.640098099325567,10.341508277130593,1.8025751072961373,2.0,2.4490842490842493,408.3158839365839,0.6738535050404982,-0.5384301614125059,-0.7145271254588893,1405.128205128205,-1.0,69.93739328400683,2.4519000588815527,
2023-08-10 16:53:09.332000,9.734939759036145,0.43373493975903615,0.963855421686747,0.6646229307173512,10.336603310852237,1.7142857142857142,2.0,2.4490842490842493,408.3158839365839,0.22527824718839254,-0.28937707592797585,-0.6454169337451199,1398.5347985347985,-1.0,69.93739328400683,2.4518709428219334,
2023-08-10 16:53:09.339000,9.734939759036145,0.43373493975903615,0.963855421686747,0.6597179644389944,10.277743715511955,1.6971183323114654,2.0,2.4490842490842493,408.3158839365839,0.024241011596060846,-0.17877746052094853,-0.2537148184837713,1394.139194139194,-1.0,69.93739328400683,2.4518419149738264,
2023-08-10 16:53:09.347000,9.72289156626506,0.44578313253012053,1.0,0.6425505824647455,10.321888412017167,1.7510729613733904,2.0,2.4490842490842493,408.3158839365839,-0.1272653108793199,0.1885670998193579,-0.6324806246722219,1392.6739926739926,-1.0,69.93739328400683,2.4518129746583757,
2023-08-10 16:53:09.355000,9.759036144578314,0.46987951807228917,1.0120481927710845,0.7087676272225628,10.34886572654813,1.73635806253832,2.0,2.4490842490842493,408.3158839365839,0.3173474739234304,-0.11945690810558822,-0.6557892896684343,1391.9413919413919,-1.0,69.93739328400683,2.451784121187518,
2023-08-10 16:53:09.362000,9.759036144578314,0.46987951807228917,1.0120481927710845,0.6523605150214592,10.368485591661557,1.7388105456774983,2.0,2.4490842490842493,408.3158839365839,-0.03752695064390224,0.13740458015267176,-0.5263096556144746,1391.9413919413919,-1.0,69.93739328400683,2.45175535387105,
2023-08-10 16:53:09.370000,9.759036144578314,0.46987951807228917,1.0,0.6940527283874923,10.28510116492949,1.753525444512569,2.0,2.4490842490842493,408.3158839365839,0.22224812073888384,0.1471942194510811,-0.41267991375793944,1391.2087912087911,-1.0,69.93739328400683,2.4517266720230495,
2023-08-10 16:53:09.378000,9.72289156626506,0.46987951807228917,0.9879518072289157,0.6253832004904966,10.31698344573881,1.7388105456774983,2.0,2.4490842490842493,408.3158839365839,0.03810966726880642,0.15663422877454622,-0.4228191830312918,1393.4065934065934,-1.0,69.93739328400683,2.4516980749676502,
2023-08-10 16:53:09.385000,9.783132530120483,0.46987951807228917,1.0120481927710845,0.6523605150214592,10.351318209687308,1.7437155119558552,2.0,2.447619047619048,408.56031128404663,0.03845929724375067,0.04615115669249976,-0.25080123535924476,1395.6043956043954,-1.0,69.93739328400683,2.4516695620442044,
2023-08-10 16:53:09.393000,9.795180722891567,0.46987951807228917,1.0120481927710845,0.6082158185162476,10.3635806253832,1.8025751072961373,2.0,2.4490842490842493,408.3158839365839,0.5749082221315771,0.36629567041547717,-0.3249227900471999,1396.3369963369962,-1.0,69.93739328400683,2.4516411325770355,
2023-08-10 16:53:09.401000,9.771084337349398,0.46987951807228917,0.9759036144578314,0.6302881667688535,10.282648681790311,1.7167381974248925,2.0,2.4490842490842493,408.3158839365839,0.22224812073888384,0.2548802517335823,-0.3547578812423518,1397.069597069597,-1.0,69.93739328400683,2.4516127857747887,
2023-08-10 16:53:09.408000,9.771084337349398,0.4819277108433735,1.0481927710843375,0.6670754138565297,10.358675659104843,1.7731453096259961,2.0,2.4490842490842493,408.3158839365839,0.3913524852864056,0.3287687197715749,0.07412155468795519,1397.8021978021977,-1.0,69.93739328400683,2.4515845208372418,
2023-08-10 16:53:09.416000,9.771084337349398,0.4819277108433735,1.0,0.6351931330472103,10.356223175965665,1.6922133660331085,2.0,2.4490842490842493,408.3158839365839,0.13320902045335295,-0.025056814870928437,0.07400501136297435,1400.0,-1.0,69.93739328400683,2.4515563369917808,
2023-08-10 16:53:09.424000,9.771084337349398,0.46987951807228917,1.0,0.6180257510729613,10.267933782955241,1.7388105456774983,2.0,2.4490842490842493,408.3158839365839,0.12167123128022758,-0.37422061651418964,-0.06479808868947047,1403.6630036630036,-1.0,69.93739328400683,2.4515282334946704,
2023-08-10 16:53:09.431000,9.771084337349398,0.45783132530120485,0.9879518072289157,0.6376456161863887,10.314530962599632,1.706928264868179,2.0,2.4490842490842493,408.3158839365839,0.18635277664471853,0.07202377483829579,0.23949653283608194,1411.7216117216117,-1.0,69.93739328400683,2.4515002096319036,
2023-08-10 16:53:09.439000,9.783132530120483,0.45783132530120485,1.0,0.6499080318822807,10.346413243408952,1.7584304107909257,2.0,2.4490842490842493,408.3158839365839,0.3864576656372001,0.04300448691801197,0.100460346133675,1419.7802197802198,-1.0,69.93739328400683,2.4514722647197753,
2023-08-10 16:53:09.447000,9.74698795180723,0.43373493975903615,0.9879518072289157,0.5959534028203556,10.27038626609442,1.7584304107909257,2.0,2.4490842490842493,408.3158839365839,0.017831128722102692,-0.03158324106986743,-0.09777984965911098,1425.6410256410256,-1.0,69.93739328400683,2.4514443981051937,
2023-08-10 16:53:09.454000,9.74698795180723,0.44578313253012053,0.9879518072289157,0.615573267933783,10.3635806253832,1.778050275904353,2.0,2.4490842490842493,408.3158839365839,0.12295320785502026,-0.21024415826583512,0.07190723151331495,1430.7692307692307,-1.0,69.93739328400683,2.451416609165785,
2023-08-10 16:53:09.462000,9.734939759036145,0.45783132530120485,1.0,0.6474555487431024,10.275291232372776,1.7461679950950337,2.0,2.4490842490842493,408.3158839365839,0.3815628459879962,-0.2534817318338088,0.058737835790455266,1434.4322344322343,-1.0,69.93739328400683,2.4513888973098936,
2023-08-10 16:53:09.470000,9.734939759036145,0.45783132530120485,1.0,0.6204782342121398,10.309625996321275,1.7118332311465358,2.0,2.4490842490842493,408.3158839365839,0.5609230231338507,0.08472699726123126,-0.28809509935318445,1435.164835164835,-1.0,69.93739328400683,2.4513612619765204,
2023-08-10 16:53:09.477000,9.759036144578314,0.46987951807228917,0.9879518072289157,0.703862660944206,10.375843041079092,1.7044757817290006,2.0,2.4490842490842493,408.3158839365839,0.38435988578754154,-0.5464716508361974,-0.43482314550434137,1432.2344322344322,-1.0,69.93739328400683,2.4513337026352393,
2023-08-10 16:53:09.485000,9.771084337349398,0.46987951807228917,0.9879518072289157,0.6057633353770693,10.33169834457388,1.6824034334763946,2.0,2.4490842490842493,408.3158839365839,-0.1117650486568374,0.12376901112988785,-0.7338733174057457,1427.106227106227,-1.0,69.93739328400683,2.4513062187862302,
2023-08-10 16:53:09.492000,9.783132530120483,0.46987951807228917,0.9759036144578314,0.6866952789699571,10.34886572654813,1.748620478234212,2.0,2.4490842490842493,408.3158839365839,-0.1729502942718963,0.4228191830312922,-0.3920517452362915,1422.7106227106226,-1.0,69.93739328400683,2.4512788099603835,
2023-08-10 16:53:09.500000,9.783132530120483,0.49397590361445787,1.0,0.7112201103617413,10.34886572654813,1.7682403433476395,2.0,2.447619047619048,408.56031128404663,-0.02167705844647724,0.32422353009731364,-0.5246780490647398,1419.7802197802198,-1.0,69.93739328400683,2.4512514761775135,
2023-08-10 16:53:09.508000,9.783132530120483,0.49397590361445787,1.036144578313253,0.7087676272225628,10.339055793991415,1.7240956468424278,2.0,2.447619047619048,408.56031128404663,0.18949944641920632,0.42480041955596987,-0.2898432492279005,1415.3846153846152,-1.0,69.93739328400683,2.4512242169291274,
2023-08-10 16:53:09.515000,9.771084337349398,0.46987951807228917,0.9759036144578314,0.657265481299816,10.351318209687308,1.778050275904353,2.0,2.4490842490842493,408.3158839365839,0.29532078550201063,0.4950760445195497,-0.3760853097138861,1410.2564102564102,-1.0,69.93739328400683,2.451197031143841,
2023-08-10 16:53:09.523000,9.771084337349398,0.45783132530120485,0.9879518072289157,0.6523605150214592,10.309625996321275,1.706928264868179,2.0,2.447619047619048,408.56031128404663,-0.1931122894936192,0.42771400268049603,-0.3722393799895111,1404.3956043956043,-1.0,69.93739328400683,2.451169918558352,
2023-08-10 16:53:09.531000,9.795180722891567,0.46987951807228917,0.9759036144578314,0.6621704475781729,10.375843041079092,1.7044757817290006,2.0,2.4490842490842493,408.3158839365839,0.3131519142241133,0.4412330283782991,-0.38389371248761733,1400.7326007326005,-1.0,69.93739328400683,2.4511428783454843,
2023-08-10 16:53:09.538000,9.783132530120483,0.49397590361445787,1.0,0.6719803801348866,10.385652973635805,1.7437155119558552,2.0,2.447619047619048,408.56031128404663,0.19019870636909308,0.8206980945166368,-0.2118757648155703,1395.6043956043954,-1.0,69.93739328400683,2.451115909147915,
2023-08-10 16:53:09.546000,9.795180722891567,0.4819277108433735,1.036144578313253,0.6351931330472103,10.380748007357449,1.7706928264868178,2.0,2.447619047619048,408.56031128404663,0.10115960608356218,0.7830546005477537,-0.25441407843365765,1389.7435897435896,-1.0,69.93739328400683,2.451089010060021,
2023-08-10 16:53:09.554000,9.74698795180723,0.46987951807228917,1.0120481927710845,0.6499080318822807,10.297363580625383,1.8050275904353157,2.0,2.4490842490842493,408.3158839365839,0.20954489831594839,0.39356680846104497,-0.3609346774663483,1384.6153846153845,-1.0,69.93739328400683,2.4510621800300383,
2023-08-10 16:53:09.561000,9.74698795180723,0.45783132530120485,1.0240963855421688,0.6744328632740649,10.353770692826487,1.753525444512569,2.0,2.447619047619048,408.56031128404663,0.3452013285939041,0.16071324514888416,-0.3414719421945108,1382.4175824175823,-1.0,69.93739328400683,2.4510354183168745,
2023-08-10 16:53:09.569000,9.74698795180723,0.45783132530120485,1.0481927710843375,0.657265481299816,10.31698344573881,1.765787860208461,2.0,2.4490842490842493,408.3158839365839,0.40405570770934107,0.5690810558825249,-0.049530913116951396,1381.6849816849815,-1.0,69.93739328400683,2.451008724068039,
2023-08-10 16:53:09.577000,9.710843373493976,0.45783132530120485,1.036144578313253,0.6425505824647455,10.321888412017167,1.7755977927651747,2.0,2.447619047619048,408.56031128404663,0.38552531903735165,0.6553231163685105,-0.018297302022026906,1378.7545787545787,-1.0,69.93739328400683,2.4509820962858573,
2023-08-10 16:53:09.584000,9.734939759036145,0.4819277108433735,1.0,0.6204782342121398,10.353770692826487,1.8221949724095645,2.0,2.4490842490842493,408.3158839365839,0.15255521240021,0.20546588194161217,-0.09183614008507661,1375.8241758241757,-1.0,69.93739328400683,2.4509555338631843,
2023-08-10 16:53:09.592000,9.74698795180723,0.46987951807228917,1.0240963855421688,0.6719803801348866,10.272838749233598,1.7755977927651747,2.0,2.447619047619048,408.56031128404663,0.3956645883107052,-0.3175805605733938,0.10873492220733044,1375.091575091575,-1.0,69.93739328400683,2.450929035091765,
2023-08-10 16:53:09.600000,9.771084337349398,0.49397590361445787,1.0481927710843375,0.6719803801348866,10.353770692826487,1.7608828939301042,2.0,2.447619047619048,408.56031128404663,0.3911193986364439,-0.31688130062350706,0.10815220558242539,1375.091575091575,-1.0,69.93739328400683,2.4509025982232884,
2023-08-10 16:53:09.607000,9.759036144578314,0.4819277108433735,1.036144578313253,0.7063151440833844,10.361128142244022,1.7559779276517473,2.0,2.4490842490842493,408.3158839365839,0.2510343220092077,-0.3446186119689999,-0.23017306683759678,1375.8241758241757,-1.0,69.93739328400683,2.4508762213644477,
2023-08-10 16:53:09.615000,9.771084337349398,0.46987951807228917,1.0240963855421688,0.6916002452483139,10.405272838749234,1.719190680564071,2.0,2.4490842490842493,408.3158839365839,0.17108560107219944,-0.15954781189907408,-0.19532661266825943,1378.021978021978,-1.0,69.93739328400683,2.450849902934511,
2023-08-10 16:53:09.623000,9.795180722891567,0.46987951807228917,1.0240963855421688,0.6523605150214592,10.334150827713058,1.748620478234212,2.0,2.447619047619048,408.56031128404663,0.19917254239263485,-0.3547578812423518,0.03472991084435609,1380.2197802197802,-1.0,69.93739328400683,2.4508236417372955,
2023-08-10 16:53:09.630000,9.74698795180723,0.4819277108433735,1.0120481927710845,0.6891477621091354,10.336603310852237,1.7437155119558552,2.0,2.447619047619048,408.56031128404663,-0.034380280869412715,-0.06118524561505717,0.21781947438960425,1384.6153846153845,-1.0,69.93739328400683,2.4507974355582345,
2023-08-10 16:53:09.638000,9.771084337349398,0.46987951807228917,1.0240963855421688,0.703862660944206,10.309625996321275,1.78295524218271,2.0,2.447619047619048,408.56031128404663,0.19264611619369584,-4.661732999250815E-4,0.3405395955946624,1388.278388278388,-1.0,69.93739328400683,2.450771281623663,
2023-08-10 16:53:09.646000,9.771084337349398,0.45783132530120485,1.0120481927710845,0.7259350091968118,10.30226854690374,1.765787860208461,2.0,2.447619047619048,408.56031128404663,-0.11584406503117535,-0.12027271138045581,0.18810092651943366,1390.4761904761904,-1.0,69.93739328400683,2.450745177023607,
2023-08-10 16:53:09.653000,9.759036144578314,0.4819277108433735,1.0120481927710845,0.6548129981606376,10.299816063764561,1.7878602084610666,2.0,2.4490842490842493,408.3158839365839,0.2498688887593959,-0.10547170910786008,-0.14824310937591037,1389.7435897435896,-1.0,69.93739328400683,2.4507191187469246,
2023-08-10 16:53:09.661000,9.783132530120483,0.4819277108433735,1.0481927710843375,0.6817903126916002,10.373390557939913,1.731453096259963,2.0,2.447619047619048,408.56031128404663,0.20068760561738744,-0.04486918011770882,-0.2835499096789232,1386.080586080586,-1.0,69.93739328400683,2.450693104598162,
2023-08-10 16:53:09.669000,9.759036144578314,0.4819277108433735,1.0120481927710845,0.6621704475781729,10.326793378295523,1.7903126916002452,2.0,2.4490842490842493,408.3158839365839,-0.09218577006002042,-0.32165957694773,-0.23390245323699094,1385.3479853479853,-1.0,69.93739328400683,2.4506671318307442,
2023-08-10 16:53:09.676000,9.74698795180723,0.46987951807228917,1.0240963855421688,0.6425505824647455,10.319435928877988,1.7118332311465358,2.0,2.447619047619048,408.56031128404663,0.5335353417633003,-0.2597750713827861,0.2558125983334303,1387.5457875457876,-1.0,69.93739328400683,2.45064119764499,
2023-08-10 16:53:09.684000,9.771084337349398,0.45783132530120485,1.0120481927710845,0.7112201103617413,10.395462906192519,1.8099325567136726,2.0,2.4490842490842493,408.3158839365839,0.37480333313909386,-0.03169978439484827,-0.1741157275217064,1391.2087912087911,-1.0,69.93739328400683,2.4506152996525503,
2023-08-10 16:53:09.692000,9.759036144578314,0.44578313253012053,1.0,0.6793378295524218,10.356223175965665,1.7878602084610666,2.0,2.447619047619048,408.56031128404663,0.26723384418157525,0.22656022376318347,-0.17108560107219858,1391.9413919413919,-1.0,69.93739328400683,2.4505894349011874,
2023-08-10 16:53:09.699000,9.783132530120483,0.46987951807228917,1.0240963855421688,0.5910484365419988,10.307173513182097,1.8295524218270998,2.0,2.4461538461538463,408.80503144654085,0.2954373288269915,-0.3091894411747562,-0.27620768020511616,1391.2087912087911,-1.0,69.93739328400683,2.450563600903562,
2023-08-10 16:53:09.707000,9.759036144578314,0.4819277108433735,1.0,0.6891477621091354,10.388105456774984,1.7510729613733904,2.0,2.447619047619048,408.56031128404663,0.6010139269273348,0.1786609171959677,-0.42666511275566676,1392.6739926739926,-1.0,69.93739328400683,2.450537794525068,
2023-08-10 16:53:09.715000,9.771084337349398,0.46987951807228917,1.0,0.6646229307173512,10.3635806253832,1.7118332311465358,2.0,2.447619047619048,408.56031128404663,0.30639240137521095,0.43237573567973814,-0.4236349863061589,1394.8717948717947,-1.0,69.93739328400683,2.450512011959308,
2023-08-10 16:53:09.722000,9.74698795180723,0.45783132530120485,1.0240963855421688,0.645003065603924,10.324340895156345,1.7412630288166768,2.0,2.447619047619048,408.56031128404663,0.4282967193054019,0.5657012994580737,-0.008274576073655443,1394.8717948717947,-1.0,69.93739328400683,2.4504862497560946,
2023-08-10 16:53:09.730000,9.734939759036145,0.45783132530120485,1.0120481927710845,0.6916002452483139,10.267933782955241,1.7388105456774983,2.0,2.447619047619048,408.56031128404663,0.27259483713070415,0.4852864052211403,-0.45253773090146276,1395.6043956043954,-1.0,69.93739328400683,2.4504605043744583,
2023-08-10 16:53:09.738000,9.771084337349398,0.4819277108433735,1.0120481927710845,0.7087676272225628,10.299816063764561,1.7510729613733904,2.0,2.447619047619048,408.56031128404663,0.621525552124002,0.63551075112173,-0.49542567449449304,1394.139194139194,-1.0,69.93739328400683,2.4504347721941073,
2023-08-10 16:53:09.745000,9.795180722891567,0.49397590361445787,0.9759036144578314,0.7210300429184548,10.373390557939913,1.7755977927651747,2.0,2.447619047619048,408.56031128404663,0.29695239205174584,0.7540353126274699,-0.6309655614474684,1391.2087912087911,-1.0,69.93739328400683,2.4504090495275337,
2023-08-10 16:53:09.753000,9.771084337349398,0.49397590361445787,1.0240963855421688,0.6204782342121398,10.343960760269773,1.7952176578786019,2.0,2.447619047619048,408.56031128404663,0.20371773206689614,1.1470194044636088,-0.29065905250276763,1385.3479853479853,-1.0,69.93739328400683,2.450383332632734,
2023-08-10 16:53:09.761000,9.759036144578314,0.49397590361445787,1.0240963855421688,0.6817903126916002,10.31698344573881,1.8148375229920293,2.0,2.447619047619048,408.56031128404663,0.36909271021502243,0.9427189557718086,-0.07377192471301224,1378.7545787545787,-1.0,69.93739328400683,2.4503576177265063,
