Shimmer_F5D4_Timestamp_FormattedUnix_CAL,Shimmer_F5D4_Accel_LN_X_CAL,Shimmer_F5D4_Accel_LN_Y_CAL,Shimmer_F5D4_Accel_LN_Z_CAL,Shimmer_F5D4_Accel_WR_X_CAL,Shimmer_F5D4_Accel_WR_Y_CAL,Shimmer_F5D4_Accel_WR_Z_CAL,Shimmer_F5D4_GSR_Range_CAL,Shimmer_F5D4_GSR_Skin_Conductance_CAL,Shimmer_F5D4_GSR_Skin_Resistance_CAL,Shimmer_F5D4_Gyro_X_CAL,Shimmer_F5D4_Gyro_Y_CAL,Shimmer_F5D4_Gyro_Z_CAL,Shimmer_F5D4_PPG_A13_CAL,Shimmer_F5D4_PPG_IBI_CAL,Shimmer_F5D4_PPGtoHR_CAL,Shimmer_F5D4_GSR_Skin_Conductance_LPF_CAL,
yyyy/mm/dd hh:mm:ss.000,m/(s^2),m/(s^2),m/(s^2),m/(s^2),m/(s^2),m/(s^2),no_units,uS,kOhms,deg/s,deg/s,deg/s,mV,ms,BPM,uS,
2023-08-11 20:04:39.214000,-8.265060240963855,0.1927710843373494,-5.228915662650603,0.3163703249540159,-8.106069895769465,-4.88289393010423,3.0,0.7838827838827839,1275.7009345794393,0.1471942194510811,0.07144105821339161,0.1713186877221607,1402.197802197802,-1.0,97.91235059760956,0.786941420717769,
2023-08-11 20:04:39.222000,-8.27710843373494,0.18072289156626506,-5.27710843373494,0.27713059472716123,-8.128142244022072,-4.895156345800122,3.0,0.7843267843267844,1274.9787715822247,0.17761202727113842,-0.003962473049355383,0.0010488899248296977,1401.4652014652013,-1.0,97.91235059760956,0.7869140720799032,
2023-08-11 20:04:39.229000,-8.313253012048193,0.16867469879518074,-5.253012048192772,0.3261802575107296,-8.118332311465359,-4.902513795217658,3.0,0.7843267843267844,1274.9787715822247,0.08565934386107969,-0.2765573101800595,-0.12038925470543665,1399.2673992673992,-1.0,97.91235059760956,0.7868867883791588,
2023-08-11 20:04:39.237000,-8.25301204819277,0.16867469879518074,-5.265060240963856,0.23789086450030655,-8.14530962599632,-4.904966278356836,3.0,0.7843267843267844,1274.9787715822247,0.08530971388613719,-0.2746926169803627,-0.11887419148068273,1395.6043956043954,-1.0,97.91235059760956,0.786859570579043,
2023-08-11 20:04:39.245000,-8.289156626506024,0.18072289156626506,-5.27710843373494,0.2869405272838749,-8.118332311465359,-4.912323727774371,3.0,0.7843267843267844,1274.9787715822247,-0.17574733407144158,-0.15092360585047482,0.00396247304935625,1388.278388278388,-1.0,97.91235059760956,0.786832419543845,
2023-08-11 20:04:39.252000,-8.27710843373494,0.16867469879518074,-5.240963855421687,0.2893930104230533,-8.030042918454935,-4.892703862660944,3.0,0.7843267843267844,1274.9787715822247,0.14544606957636508,0.21595478118990652,-0.18180758697045635,1382.4175824175823,-1.0,97.91235059760956,0.7868053360398843,
2023-08-11 20:04:39.260000,-8.301204819277109,0.14457831325301207,-5.265060240963856,0.2893930104230533,-8.059472716125077,-4.917228694052728,3.0,0.7838827838827839,1275.7009345794393,0.005360992949128891,0.19660858924305122,0.017481498747159315,1376.5567765567764,-1.0,97.91235059760956,0.7867783207369959,
2023-08-11 20:04:39.268000,-8.301204819277109,0.1927710843373494,-5.240963855421687,0.30656039239730226,-8.157572041692212,-4.971183323114653,3.0,0.7838827838827839,1275.7009345794393,0.0816968708117243,0.02540644484587095,0.07948254763708408,1372.161172161172,-1.0,-1.0,0.7867513740609874,
2023-08-11 20:04:39.275000,-8.289156626506024,0.1566265060240964,-5.265060240963856,0.2844880441446965,-8.106069895769465,-4.922133660331085,3.0,0.7843267843267844,1274.9787715822247,-0.10430627585804997,0.006060252899015646,-0.3182798205232797,1367.7655677655678,-1.0,-1.0,0.7867244961738125,
2023-08-11 20:04:39.283000,-8.301204819277109,0.16867469879518074,-5.289156626506024,0.269773145309626,-8.128142244022072,-4.919681177191906,3.0,0.7843267843267844,1274.9787715822247,0.24567332906007885,0.4307441291300047,-0.01025581259833357,1364.8351648351647,-1.0,-1.0,0.7866976872623099,
2023-08-11 20:04:39.291000,-8.289156626506024,0.16867469879518074,-5.27710843373494,0.26241569589209074,-8.135499693439607,-4.9000613120784795,3.0,0.7838827838827839,1275.7009345794393,-0.061418332265018846,0.24439135248528618,0.09812947963405393,1361.904761904762,-1.0,-1.0,0.7866709475609467,
2023-08-11 20:04:39.298000,-8.313253012048193,0.16867469879518074,-5.253012048192772,0.1912936848559166,-8.123237277743716,-4.892703862660944,3.0,0.7843267843267844,1274.9787715822247,0.030068177845113085,0.31816327719829796,0.20569896859157383,1363.3699633699632,-1.0,-1.0,0.7866442770665435,
2023-08-11 20:04:39.306000,-8.325301204819278,0.16867469879518074,-5.265060240963856,0.2820355610055181,-8.120784794604537,-4.904966278356836,3.0,0.7843267843267844,1274.9787715822247,0.04615115669249976,-0.05209486626653457,0.141367053202028,1364.8351648351647,-1.0,-1.0,0.7866176756688882,
2023-08-11 20:04:39.314000,-8.313253012048193,0.18072289156626506,-5.253012048192772,0.29675045984058857,-8.137952176578786,-4.885346413243409,3.0,0.7838827838827839,1275.7009345794393,-0.18472117009498334,-0.08262921741157274,-0.1659576947730318,1369.9633699633698,-1.0,-1.0,0.7865911433133331,
2023-08-11 20:04:39.321000,-8.301204819277109,0.1566265060240964,-5.253012048192772,0.23543838136112813,-8.108522378908644,-4.9294911097486205,3.0,0.7838827838827839,1275.7009345794393,3.496299749425094E-4,-0.12854728745411081,-0.3023133850008743,1378.021978021978,-1.0,-1.0,0.7865646797167043,
2023-08-11 20:04:39.329000,-8.27710843373494,0.16867469879518074,-5.253012048192772,0.22317596566523604,-8.120784794604537,-4.904966278356836,3.0,0.7838827838827839,1275.7009345794393,-0.013868655672745575,0.08554280053609885,0.021327428471534297,1386.080586080586,-1.0,-1.0,0.7865382844886378,
2023-08-11 20:04:39.337000,-8.289156626506024,0.1566265060240964,-5.253012048192772,0.26241569589209074,-8.120784794604537,-4.890251379521765,3.0,0.7838827838827839,1275.7009345794393,-0.22854146028786118,-0.12924654740399757,-0.1450964396014217,1392.6739926739926,-1.0,-1.0,0.7865119572532598,
2023-08-11 20:04:39.344000,-8.27710843373494,0.16867469879518074,-5.240963855421687,0.2795830778663397,-8.088902513795217,-4.863274064990803,3.0,0.7838827838827839,1275.7009345794393,0.0451022667676705,-0.7390012237049125,0.08612551716100478,1397.069597069597,-1.0,-1.0,0.7864856975048602,
2023-08-11 20:04:39.352000,-8.289156626506024,0.16867469879518074,-5.253012048192772,0.27467811158798283,-8.091354996934395,-4.9074187614960145,3.0,0.7838827838827839,1275.7009345794393,-0.2778392867548505,-0.49391061126973956,-0.06339956878969741,1401.4652014652013,-1.0,-1.0,0.7864595046130455,
2023-08-11 20:04:39.360000,-8.289156626506024,0.1566265060240964,-5.27710843373494,0.24279583077866337,-8.120784794604537,-4.922133660331085,3.0,0.7838827838827839,1275.7009345794393,-0.07808402773731143,-0.5976341705028836,0.07528698793776573,1405.8608058608058,-1.0,-1.0,0.786433377828094,
2023-08-11 20:04:39.367000,-8.289156626506024,0.1566265060240964,-5.240963855421687,0.18148375229920294,-8.17964438994482,-4.873083997547517,3.0,0.7834387834387834,1276.4239161235478,0.04335411689295448,-0.19719130586795713,-0.18378882349513448,1408.7912087912086,-1.0,-1.0,0.7864073162865313,
2023-08-11 20:04:39.375000,-8.313253012048193,0.18072289156626506,-5.253012048192772,0.29675045984058857,-8.162477007970569,-4.9074187614960145,3.0,0.7834387834387834,1276.4239161235478,0.14882582600081629,-0.1505739758755323,0.03100052444496238,1410.989010989011,-1.0,-1.0,0.7863813190064016,
2023-08-11 20:04:39.383000,-8.289156626506024,0.18072289156626506,-5.253012048192772,0.2820355610055181,-8.150214592274677,-4.9294911097486205,3.0,0.7834387834387834,1276.4239161235478,-0.08064798088689504,-0.02587261814579603,-0.07668550783753879,1410.989010989011,-1.0,-1.0,0.7863553848510838,
2023-08-11 20:04:39.390000,-8.289156626506024,0.1566265060240964,-5.27710843373494,0.25260576333537704,-8.118332311465359,-4.919681177191906,3.0,0.7838827838827839,1275.7009345794393,-0.047316589942311596,0.2354175164617444,0.12202086125517139,1409.5238095238094,-1.0,-1.0,0.7863295123859589,
2023-08-11 20:04:39.398000,-8.289156626506024,0.16867469879518074,-5.253012048192772,0.2599632127529123,-8.172286940527284,-4.897608828939301,3.0,0.7834387834387834,1276.4239161235478,0.0023308664996219363,-0.04125633704329595,0.07388846803799308,1407.3260073260071,-1.0,-1.0,0.7863037000539527,
2023-08-11 20:04:39.406000,-8.27710843373494,0.1566265060240964,-5.240963855421687,0.24279583077866337,-8.177191906805641,-4.865726548129981,3.0,0.7838827838827839,1275.7009345794393,0.0051279062991672186,-0.08577588718606226,0.18029252374570245,1405.128205128205,-1.0,-1.0,0.7862779462019132,
2023-08-11 20:04:39.413000,-8.27710843373494,0.16867469879518074,-5.253012048192772,0.27467811158798283,-8.199264255058246,-4.941753525444512,3.0,0.7834387834387834,1276.4239161235478,0.08239613076161106,-0.11269739525668582,-0.07808402773731143,1400.7326007326005,-1.0,-1.0,0.786252249075628,
2023-08-11 20:04:39.421000,-8.313253012048193,0.16867469879518074,-5.265060240963856,0.22562844880441446,-8.081545064377682,-4.897608828939301,3.0,0.7834387834387834,1276.4239161235478,0.02167705844647724,0.22702639706310856,0.07773439776236805,1396.3369963369962,-1.0,-1.0,0.7862266069749363,
2023-08-11 20:04:39.429000,-8.301204819277109,0.1566265060240964,-5.265060240963856,0.25260576333537704,-8.118332311465359,-4.890251379521765,3.0,0.7838827838827839,1275.7009345794393,0.022026688421421484,-0.031816327719829104,0.2152555212400211,1387.5457875457876,-1.0,-1.0,0.786201017940904,
2023-08-11 20:04:39.436000,-8.289156626506024,0.16867469879518074,-5.240963855421687,0.2869405272838749,-8.157572041692212,-4.902513795217658,3.0,0.7834387834387834,1276.4239161235478,0.11467863178136525,-0.03158324106986743,-0.04591807004253852,1379.4871794871794,-1.0,-1.0,0.7861754800606685,
2023-08-11 20:04:39.444000,-8.313253012048193,0.16867469879518074,-5.265060240963856,0.26486817903126914,-8.118332311465359,-4.912323727774371,3.0,0.7834387834387834,1276.4239161235478,-0.1602470718489591,-0.18635277664471853,0.10803566225744411,1374.3589743589744,-1.0,-1.0,0.7861499914746487,
2023-08-11 20:04:39.452000,-8.301204819277109,0.1566265060240964,-5.240963855421687,0.2893930104230533,-8.11587982832618,-4.954015941140405,3.0,0.7834387834387834,1276.4239161235478,-0.1006934327836371,-0.30697511800011684,-0.04545189674261387,1371.4285714285713,-1.0,-1.0,0.7861245499368684,
2023-08-11 20:04:39.459000,-8.301204819277109,0.16867469879518074,-5.289156626506024,0.2550582464745555,-8.169834457388106,-4.890251379521765,3.0,0.7834387834387834,1276.4239161235478,-0.2988170852514427,-0.3368102091952683,-0.0916030534351145,1369.230769230769,-1.0,-1.0,0.78609915312042,
2023-08-11 20:04:39.467000,-8.325301204819278,0.16867469879518074,-5.301204819277109,0.2329858982219497,-8.120784794604537,-4.922133660331085,3.0,0.7834387834387834,1276.4239161235478,-0.3435697220441707,-0.22865800361284375,0.28914398927801416,1367.7655677655678,-1.0,-1.0,0.7860737987527839,
2023-08-11 20:04:39.475000,-8.313253012048193,0.1566265060240964,-5.27710843373494,0.21091354996934394,-8.152667075413856,-4.954015941140405,3.0,0.7834387834387834,1276.4239161235478,-0.3710739467397001,-0.19789056581784217,0.21269156809043746,1367.032967032967,-1.0,-1.0,0.786048484474587,
2023-08-11 20:04:39.482000,-8.301204819277109,0.14457831325301207,-5.253012048192772,0.2158185162477008,-8.133047210300429,-4.946658491722869,3.0,0.7834387834387834,1276.4239161235478,-0.15197249577530408,-0.25791037818308926,-0.0012819765747918046,1367.032967032967,-1.0,-1.0,0.7860232078478068,
2023-08-11 20:04:39.490000,-8.301204819277109,0.1566265060240964,-5.253012048192772,0.2035561005518087,-8.110974862047822,-4.895156345800122,3.0,0.7834387834387834,1276.4239161235478,-0.212108851465532,-0.8363149000640984,0.1692209078725017,1367.7655677655678,-1.0,-1.0,0.7859979663641686,
2023-08-11 20:04:39.498000,-8.289156626506024,0.1566265060240964,-5.228915662650603,0.2844880441446965,-8.11587982832618,-4.917228694052728,3.0,0.782994782994783,1277.1477176070314,-0.6672105355165784,-0.8139385816677344,0.398811258085193,1364.8351648351647,-1.0,-1.0,0.7859727574537373,
2023-08-11 20:04:39.505000,-8.27710843373494,0.14457831325301207,-5.253012048192772,0.2820355610055181,-8.113427345187002,-4.843654199877376,3.0,0.7834387834387834,1276.4239161235478,-0.8447060194627359,-1.083969465648855,0.2446244391352487,1364.8351648351647,-1.0,-1.0,0.785947578344437,
2023-08-11 20:04:39.513000,-8.240963855421688,0.14457831325301207,-5.204819277108434,0.25015328019619865,-8.108522378908644,-4.848559166155733,3.0,0.7834387834387834,1276.4239161235478,-0.8384126799137587,-1.0739467397004838,0.2427597459355514,1367.032967032967,-1.0,-1.0,0.7859224261985207,
2023-08-11 20:04:39.521000,-8.240963855421688,0.18072289156626506,-5.204819277108434,0.2329858982219497,-8.054567749846719,-4.828939301042305,3.0,0.7825507825507827,1277.8723404255318,-1.001456791562263,-1.2178777460520946,0.5012528407435466,1365.5677655677655,-1.0,-1.0,0.7858972982808097,
2023-08-11 20:04:39.528000,-8.228915662650603,0.16867469879518074,-5.240963855421687,0.2158185162477008,-8.06928264868179,-4.838749233599018,3.0,0.782994782994783,1277.1477176070314,-1.0694015500262226,-0.7466930831536616,0.40557077093409455,1364.8351648351647,-1.0,-1.0,0.7858721916694911,
2023-08-11 20:04:39.536000,-8.25301204819277,0.16867469879518074,-5.240963855421687,0.2869405272838749,-8.057020232985899,-4.9074187614960145,3.0,0.782994782994783,1277.1477176070314,-0.7874832468970342,-0.6325971679972022,0.5380805314375621,1367.032967032967,-1.0,-1.0,0.7858471033509542,
2023-08-11 20:04:39.544000,-8.265060240963855,0.18072289156626506,-5.253012048192772,0.26486817903126914,-8.025137952176578,-4.9147762109135495,3.0,0.7834387834387834,1276.4239161235478,-1.040382262105937,-0.9297826466989098,0.22830837363789994,1368.4981684981683,-1.0,-1.0,0.7858220302390191,
2023-08-11 20:04:39.551000,-8.289156626506024,0.20481927710843376,-5.265060240963856,0.33108522378908645,-8.113427345187002,-4.860821581851624,3.0,0.782994782994783,1277.1477176070314,-0.8338674902394974,-1.1649670765106925,0.30359536157566563,1371.4285714285713,-1.0,-1.0,0.7857969692151892,
2023-08-11 20:04:39.559000,-8.325301204819278,0.22891566265060243,-5.228915662650603,0.2893930104230533,-8.101164929491109,-4.853464132434089,3.0,0.782994782994783,1277.1477176070314,-0.8433074995629625,-0.7879494201969576,0.4527708175514249,1373.6263736263736,-1.0,-1.0,0.7857719171585101,
2023-08-11 20:04:39.566000,-8.313253012048193,0.22891566265060243,-5.240963855421687,0.3408951563458001,-8.150214592274677,-4.909871244635193,3.0,0.782994782994783,1277.1477176070314,-0.8850300099061817,-0.5363323815628456,0.4970572810442282,1374.3589743589744,-1.0,-1.0,0.7857468707947792,
2023-08-11 20:04:39.574000,-8.301204819277109,0.26506024096385544,-5.253012048192772,0.3801348865726548,-8.123237277743716,-4.9368485591661555,3.0,0.782994782994783,1277.1477176070314,-0.49635802109434235,-0.573742788881767,0.32422353009731364,1374.3589743589744,-1.0,-1.0,0.7857218269825721,
2023-08-11 20:04:39.582000,-8.301204819277109,0.24096385542168675,-5.265060240963856,0.33108522378908645,-8.162477007970569,-4.934396076026977,3.0,0.782994782994783,1277.1477176070314,-0.7510051861779612,-0.9030942252782479,0.16933745119748256,1374.3589743589744,-1.0,-1.0,0.7856967825628399,
2023-08-11 20:04:39.589000,-8.313253012048193,0.21686746987951808,-5.240963855421687,0.2918454935622317,-8.135499693439607,-4.863274064990803,3.0,0.782994782994783,1277.1477176070314,-0.3796981527882994,-0.5880776178544377,0.4448458714527128,1375.091575091575,-1.0,-1.0,0.7856717343789866,
2023-08-11 20:04:39.597000,-8.325301204819278,0.24096385542168675,-5.240963855421687,0.23053341508277128,-8.13059472716125,-4.895156345800122,3.0,0.782994782994783,1277.1477176070314,-0.604859856651711,-0.8266418040906699,0.426781656080648,1375.091575091575,-1.0,-1.0,0.7856466794147593,
2023-08-11 20:04:39.605000,-8.325301204819278,0.21686746987951808,-5.228915662650603,0.3041079092581238,-8.155119558553034,-4.912323727774371,3.0,0.782994782994783,1277.1477176070314,-0.26163976458248295,-0.6387739642211987,0.40720237748382976,1374.3589743589744,-1.0,-1.0,0.7856216145167185,
2023-08-11 20:04:39.612000,-8.313253012048193,0.20481927710843376,-5.240963855421687,0.34580012262415694,-8.157572041692212,-4.873083997547517,3.0,0.782994782994783,1277.1477176070314,-0.18227376027038059,-0.7388846803799316,0.4506730377017655,1372.8937728937728,-1.0,-1.0,0.7855965365639355,
2023-08-11 20:04:39.620000,-8.313253012048193,0.1566265060240964,-5.216867469879518,0.2035561005518087,-8.133047210300429,-4.794604537093807,3.0,0.782994782994783,1277.1477176070314,0.16922090787250085,-1.1762717790338562,0.2629217411572752,1370.6959706959706,-1.0,-1.0,0.7855714426062379,
2023-08-11 20:04:39.628000,-8.313253012048193,0.14457831325301207,-5.216867469879518,0.2599632127529123,-8.162477007970569,-4.843654199877376,3.0,0.782994782994783,1277.1477176070314,0.20045451896742578,-0.7996037526950638,0.5659343861080358,1368.4981684981683,-1.0,-1.0,0.7855463297258083,
2023-08-11 20:04:39.635000,-8.313253012048193,0.1566265060240964,-5.253012048192772,0.22808093194359289,-8.13059472716125,-4.875536480686695,3.0,0.782994782994783,1277.1477176070314,0.32224229357263595,-0.7480916030534351,0.19392809276848677,1367.032967032967,-1.0,-1.0,0.7855211950481578,
2023-08-11 20:04:39.643000,-8.325301204819278,0.14457831325301207,-5.216867469879518,0.23543838136112813,-8.199264255058246,-4.86817903126916,3.0,0.782994782994783,1277.1477176070314,-0.06071907231513382,-0.7236175048074126,0.2838995396538661,1364.8351648351647,-1.0,-1.0,0.7854960357531734,
2023-08-11 20:04:39.651000,-8.349397590361447,0.16867469879518074,-5.228915662650603,0.2795830778663397,-8.150214592274677,-4.8779889638258735,3.0,0.7825507825507827,1277.8723404255318,0.20045451896742578,-0.503117533943243,0.5563778334595886,1364.8351648351647,-1.0,-1.0,0.7854708490862449,
2023-08-11 20:04:39.658000,-8.313253012048193,0.16867469879518074,-5.27710843373494,0.2673206621704476,-8.164929491109747,-4.895156345800122,3.0,0.7825507825507827,1277.8723404255318,0.36874308024007996,-0.30079832177612037,0.32515587669716206,1368.4981684981683,-1.0,-1.0,0.7854456322201777,
2023-08-11 20:04:39.666000,-8.313253012048193,0.16867469879518074,-5.240963855421687,0.2550582464745555,-8.110974862047822,-4.885346413243409,3.0,0.7825507825507827,1277.8723404255318,-0.015150632247538248,-0.14171668317697136,0.5668667327078842,1376.5567765567764,-1.0,-1.0,0.7854203822445996,
2023-08-11 20:04:39.674000,-8.301204819277109,0.18072289156626506,-5.228915662650603,0.30901287553648066,-8.081545064377682,-4.9074187614960145,3.0,0.7821067821067821,1278.5977859778598,0.13775421012761427,-0.12167123128022758,0.4414661150282616,1386.8131868131868,-1.0,-1.0,0.7853950963143804,
2023-08-11 20:04:39.681000,-8.301204819277109,0.18072289156626506,-5.253012048192772,0.2673206621704476,-8.120784794604537,-4.887798896382587,3.0,0.7825507825507827,1277.8723404255318,0.0010488899248292638,-0.3158324106986778,0.2861138628285063,1399.2673992673992,-1.0,-1.0,0.7853697717873898,
2023-08-11 20:04:39.689000,-8.289156626506024,0.18072289156626506,-5.253012048192772,0.269773145309626,-8.17964438994482,-4.8706315144083385,3.0,0.7821067821067821,1278.5977859778598,0.03251558766971586,-0.3415884855194912,0.2673503875065552,1414.6520146520145,-1.0,-1.0,0.7853444061818404,
2023-08-11 20:04:39.697000,-8.325301204819278,0.18072289156626506,-5.253012048192772,0.29429797670141017,-8.182096873083998,-4.88289393010423,3.0,0.7825507825507827,1277.8723404255318,0.10955072548219803,-0.36711147369034475,0.3250393333721812,1431.5018315018315,-1.0,-1.0,0.7853189969196483,
2023-08-11 20:04:39.704000,-8.325301204819278,0.18072289156626506,-5.253012048192772,0.2795830778663397,-8.120784794604537,-4.8779889638258735,3.0,0.7825507825507827,1277.8723404255318,0.15756657537439464,-0.2544140784336572,0.02960200454518974,1446.8864468864467,-1.0,-1.0,0.7852935414743237,
2023-08-11 20:04:39.712000,-8.325301204819278,0.1927710843373494,-5.253012048192772,0.3531575720416922,-8.16002452483139,-4.875536480686695,3.0,0.7825507825507827,1277.8723404255318,0.18821746984441537,-0.06619660858924355,0.12108851465532297,1461.5384615384614,-1.0,-1.0,0.7852680375395289,
2023-08-11 20:04:39.720000,-8.289156626506024,0.18072289156626506,-5.240963855421687,0.2722256284488044,-8.128142244022072,-4.897608828939301,3.0,0.7825507825507827,1277.8723404255318,0.37387098653924544,0.04183905366820187,0.2707301439310064,1473.9926739926739,-1.0,-1.0,0.7852424828994771,
2023-08-11 20:04:39.727000,-8.313253012048193,0.18072289156626506,-5.216867469879518,0.2575107296137339,-8.133047210300429,-4.860821581851624,3.0,0.7825507825507827,1277.8723404255318,0.08111415418681839,0.3476487384185069,-0.11584406503117535,1483.5164835164835,-1.0,-1.0,0.7852168754377935,
2023-08-11 20:04:39.735000,-8.325301204819278,0.18072289156626506,-5.228915662650603,0.2722256284488044,-8.061925199264255,-4.851011649294911,3.0,0.7825507825507827,1277.8723404255318,0.09626478643435664,0.7421478934794002,-0.23600023308664989,1488.6446886446886,-1.0,-1.0,0.7851912131461108,
2023-08-11 20:04:39.743000,-8.325301204819278,0.18072289156626506,-5.228915662650603,0.2820355610055181,-8.13059472716125,-4.848559166155733,3.0,0.7825507825507827,1277.8723404255318,0.09684750305926255,0.49076394149525177,-0.15989744187401658,1489.3772893772893,-1.0,-1.0,0.7851654941324119,
2023-08-11 20:04:39.750000,-8.301204819277109,0.20481927710843376,-5.216867469879518,0.29429797670141017,-8.11587982832618,-4.82158185162477,3.0,0.7825507825507827,1277.8723404255318,0.11234776528174331,0.3333139094458362,0.07039216828856147,1487.9120879120878,-1.0,-1.0,0.7851397166291219,
2023-08-11 20:04:39.758000,-8.301204819277109,0.20481927710843376,-5.216867469879518,0.27713059472716123,-8.140404659717964,-4.792152053954629,3.0,0.7825507825507827,1277.8723404255318,-0.07179068818833412,0.3464833051686968,-0.3588368976166893,1483.5164835164835,-1.0,-1.0,0.7851138790009784,
2023-08-11 20:04:39.766000,-8.337349397590362,0.18072289156626506,-5.216867469879518,0.3261802575107296,-8.125689760882894,-4.819129368485592,3.0,0.7825507825507827,1277.8723404255318,-0.17656313734630918,0.37188975001456775,-0.3278363731717265,1476.1904761904761,-1.0,-1.0,0.7850879797526786,
2023-08-11 20:04:39.773000,-8.337349397590362,0.18072289156626506,-5.168674698795181,0.3041079092581238,-8.155119558553034,-4.860821581851624,3.0,0.7825507825507827,1277.8723404255318,-0.32911834974651744,0.5218810092651941,-0.2499854320843776,1467.3992673992673,-1.0,-1.0,0.7850620175363271,
2023-08-11 20:04:39.781000,-8.313253012048193,0.20481927710843376,-5.216867469879518,0.3139178418148375,-8.135499693439607,-4.833844267320662,3.0,0.7821067821067821,1278.5977859778598,-0.2970689353767267,0.4872676417458197,-0.004778276324223841,1459.3406593406592,-1.0,-1.0,0.7850359912974398,
2023-08-11 20:04:39.789000,-8.313253012048193,0.20481927710843376,-5.19277108433735,0.2893930104230533,-8.120784794604537,-4.851011649294911,3.0,0.7821067821067821,1278.5977859778598,-0.2952042421770298,0.4855194918711037,-0.005477536274109728,1449.8168498168498,-1.0,-1.0,0.785009899973601,
2023-08-11 20:04:39.796000,-8.301204819277109,0.22891566265060243,-5.19277108433735,0.3114653586756591,-8.167381974248926,-4.848559166155733,3.0,0.7825507825507827,1277.8723404255318,-0.30697511800011684,0.3162985839986011,-0.37270555328943533,1442.4908424908424,-1.0,-1.0,0.7849837423518812,
2023-08-11 20:04:39.804000,-8.337349397590362,0.24096385542168675,-5.19277108433735,0.3850398528510116,-8.167381974248926,-4.82158185162477,3.0,0.7821067821067821,1278.5977859778598,-0.3490472583182804,0.7877163335469959,-0.050463259716799824,1433.6996336996335,-1.0,-1.0,0.7849575176497963,
2023-08-11 20:04:39.812000,-8.337349397590362,0.24096385542168675,-5.204819277108434,0.3825873697118332,-8.172286940527284,-4.843654199877376,3.0,0.7821067821067821,1278.5977859778598,-0.19008216304411224,0.35755492104189707,-0.15896509527416816,1424.9084249084249,-1.0,-1.0,0.7849312252332964,
2023-08-11 20:04:39.819000,-8.337349397590362,0.24096385542168675,-5.204819277108434,0.4071122011036174,-8.157572041692212,-4.875536480686695,3.0,0.7821067821067821,1278.5977859778598,-0.5407610279121261,0.6625488025173363,-0.14346483305168697,1420.5128205128203,-1.0,-1.0,0.7849048644731916,
2023-08-11 20:04:39.827000,-8.337349397590362,0.22891566265060243,-5.204819277108434,0.3678724708767627,-8.164929491109747,-4.8779889638258735,3.0,0.7816627816627817,1279.324055666004,-0.13880310005244526,0.5370316415127324,-0.020278538546704597,1415.3846153846152,-1.0,-1.0,0.7848784350167333,
2023-08-11 20:04:39.835000,-8.337349397590362,0.22891566265060243,-5.228915662650603,0.35806253832004903,-8.221336603310851,-4.83629675045984,3.0,0.7816627816627817,1279.324055666004,-0.19952217236757736,0.5486859740108386,-0.15768311869937635,1413.1868131868132,-1.0,-1.0,0.784851936632715,
2023-08-11 20:04:39.842000,-8.289156626506024,0.21686746987951808,-5.228915662650603,0.3507050889025138,-8.164929491109747,-4.855916615573268,3.0,0.7821067821067821,1278.5977859778598,-0.043121030242992804,0.4396014218285639,-0.08239613076161063,1412.4542124542124,-1.0,-1.0,0.7848253691736946,
2023-08-11 20:04:39.850000,-8.301204819277109,0.24096385542168675,-5.240963855421687,0.37768240343347637,-8.123237277743716,-4.875536480686695,3.0,0.7821067821067821,1278.5977859778598,0.3572052910669546,0.6187285123244567,-0.05069634636676193,1413.9194139194137,-1.0,-1.0,0.7847987325796458,
2023-08-11 20:04:39.858000,-8.313253012048193,0.24096385542168675,-5.240963855421687,0.29429797670141017,-8.164929491109747,-4.922133660331085,3.0,0.7821067821067821,1278.5977859778598,0.3721228366645294,0.5217644659402133,-0.03542917079424284,1412.4542124542124,-1.0,-1.0,0.7847720269230658,
2023-08-11 20:04:39.865000,-8.301204819277109,0.20481927710843376,-5.228915662650603,0.3605150214592274,-8.13059472716125,-4.851011649294911,3.0,0.7821067821067821,1278.5977859778598,0.3565060311170678,0.6573043528931882,-0.2501019754093584,1410.2564102564102,-1.0,-1.0,0.7847452524219876,
2023-08-11 20:04:39.873000,-8.27710843373494,0.22891566265060243,-5.265060240963856,0.2820355610055181,-8.135499693439607,-4.8412017167381975,3.0,0.7821067821067821,1278.5977859778598,0.049880543091895206,0.27014742730610136,0.025289901520890546,1406.5934065934066,-1.0,-1.0,0.7847184094421044,
2023-08-11 20:04:39.881000,-8.301204819277109,0.20481927710843376,-5.265060240963856,0.3237277743715512,-8.096259963212752,-4.826486817903127,3.0,0.7821067821067821,1278.5977859778598,0.35545714119223853,0.13122778392867526,-0.5239787891148535,1401.4652014652013,-1.0,-1.0,0.7846914984985783,
2023-08-11 20:04:39.888000,-8.301204819277109,0.18072289156626506,-5.240963855421687,0.33353770692826484,-8.128142244022072,-4.860821581851624,3.0,0.7821067821067821,1278.5977859778598,0.5528815337101574,0.9537905716450089,-0.36489715051570454,1397.069597069597,-1.0,-1.0,0.7846645202575727,
2023-08-11 20:04:39.896000,-8.313253012048193,0.18072289156626506,-5.240963855421687,0.3016554261189454,-8.113427345187002,-4.88289393010423,3.0,0.7816627816627817,1279.324055666004,0.4588310704504401,0.3834275391876931,-0.16071324514888416,1394.139194139194,-1.0,-1.0,0.7846374756762887,
2023-08-11 20:04:39.904000,-8.289156626506024,0.18072289156626506,-5.253012048192772,0.2820355610055181,-8.103617412630287,-4.9074187614960145,3.0,0.7821067821067821,1278.5977859778598,0.45498514072606555,0.7597459355515412,-0.4808577588718607,1394.139194139194,-1.0,-1.0,0.7846103656956268,
2023-08-11 20:04:39.911000,-8.301204819277109,0.16867469879518074,-5.265060240963856,0.29675045984058857,-8.142857142857142,-4.895156345800122,3.0,0.7821067821067821,1278.5977859778598,0.7426140667793254,0.95600489481965,-0.3866907522871626,1394.139194139194,-1.0,-1.0,0.7845831912408983,
2023-08-11 20:04:39.919000,-8.265060240963855,0.18072289156626506,-5.253012048192772,0.2575107296137339,-8.093807480073574,-4.917228694052728,3.0,0.7816627816627817,1279.324055666004,0.7673212516753095,1.0717324165258428,-0.35487442456733304,1395.6043956043954,-1.0,-1.0,0.784555953530629,
2023-08-11 20:04:39.927000,-8.265060240963855,0.20481927710843376,-5.265060240963856,0.3016554261189454,-8.113427345187002,-4.9000613120784795,3.0,0.7816627816627817,1279.324055666004,0.5327195384884328,1.3234659984849373,-0.6420371773206691,1396.3369963369962,-1.0,-1.0,0.7845286539275492,
2023-08-11 20:04:39.934000,-8.27710843373494,0.1927710843373494,-5.289156626506024,0.24279583077866337,-8.081545064377682,-4.885346413243409,3.0,0.7816627816627817,1279.324055666004,0.3150166074238102,1.284773614591225,-0.8952858225045162,1398.5347985347985,-1.0,-1.0,0.7845012938965545,
2023-08-11 20:04:39.942000,-8.301204819277109,0.16867469879518074,-5.289156626506024,0.2844880441446965,-8.13059472716125,-4.892703862660944,3.0,0.7816627816627817,1279.324055666004,0.8313035370899138,1.3203193287104478,-0.4761960258726181,1400.7326007326005,-1.0,-1.0,0.7844738749939623,
2023-08-11 20:04:39.949000,-8.289156626506024,0.14457831325301207,-5.27710843373494,0.26241569589209074,-8.079092581238504,-4.9294911097486205,3.0,0.7816627816627817,1279.324055666004,0.7632422353009733,1.5098187751296541,-0.5034671639181864,1404.3956043956043,-1.0,-1.0,0.7844463988669338,
2023-08-11 20:04:39.957000,-8.313253012048193,0.16867469879518074,-5.313253012048193,0.2599632127529123,-8.133047210300429,-4.941753525444512,3.0,0.7816627816627817,1279.324055666004,0.4207214031816319,1.251325680321659,-0.45358662082629203,1406.5934065934066,-1.0,-1.0,0.784418867252553,
2023-08-11 20:04:39.965000,-8.301204819277109,0.14457831325301207,-5.301204819277109,0.2452483139178418,-8.09871244635193,-4.9662783568362965,3.0,0.7816627816627817,1279.324055666004,0.6764174581900818,1.088631198648097,-0.49635802109434146,1405.8608058608058,-1.0,-1.0,0.7843912819766038,
2023-08-11 20:04:39.972000,-8.301204819277109,0.14457831325301207,-5.265060240963856,0.29429797670141017,-8.118332311465359,-4.924586143470264,3.0,0.7816627816627817,1279.324055666004,0.5484528873608769,1.2782471883922841,-0.462443913524853,1402.9304029304028,-1.0,-1.0,0.7843636449520871,
2023-08-11 20:04:39.980000,-8.301204819277109,0.14457831325301207,-5.27710843373494,0.27467811158798283,-8.147762109135499,-4.909871244635193,3.0,0.7812187812187813,1280.0511508951406,0.7144105821339074,0.6718722685158205,-0.46151156692500456,1400.7326007326005,-1.0,-1.0,0.7843359581775213,
2023-08-11 20:04:39.988000,-8.289156626506024,0.18072289156626506,-5.216867469879518,0.3261802575107296,-8.066830165542612,-4.806866952789699,3.0,0.7812187812187813,1280.0511508951406,0.8004195559699313,0.4678049064739819,-0.3236408134724086,1400.0,-1.0,-1.0,0.7843082237245245,
2023-08-11 20:04:39.995000,-8.313253012048193,0.16867469879518074,-5.216867469879518,0.3114653586756591,-8.16002452483139,-4.804414469650521,3.0,0.7816627816627817,1279.324055666004,0.2624555678573505,0.21956762426431942,-0.29159139910261606,1401.4652014652013,-1.0,-1.0,0.7842804436935521,
2023-08-11 20:04:40.003000,-8.325301204819278,0.1566265060240964,-5.216867469879518,0.23543838136112813,-8.17964438994482,-4.797057020232986,3.0,0.7812187812187813,1280.0511508951406,0.5075461802925234,0.7823553405978669,0.16747275799778572,1401.4652014652013,-1.0,-1.0,0.7842526203501711,
2023-08-11 20:04:40.011000,-8.325301204819278,0.18072289156626506,-5.216867469879518,0.2599632127529123,-8.120784794604537,-4.917228694052728,3.0,0.7816627816627817,1279.324055666004,0.7019404463609353,1.0978381213216004,0.2256278771633355,1402.197802197802,-1.0,-1.0,0.7842247558559866,
2023-08-11 20:04:40.018000,-8.337349397590362,0.16867469879518074,-5.228915662650603,0.299202942979767,-8.11587982832618,-4.855916615573268,3.0,0.7816627816627817,1279.324055666004,0.4993881475438493,0.9534409416700647,0.34718256511858264,1402.197802197802,-1.0,-1.0,0.7841968522761007,
2023-08-11 20:04:40.026000,-8.325301204819278,0.18072289156626506,-5.216867469879518,0.30656039239730226,-8.177191906805641,-4.887798896382587,3.0,0.7816627816627817,1279.324055666004,0.6021793601771467,1.7573567973894297,0.17586387739642198,1400.7326007326005,-1.0,-1.0,0.7841689118843186,
2023-08-11 20:04:40.034000,-8.27710843373494,0.21686746987951808,-5.240963855421687,0.29429797670141017,-8.106069895769465,-4.860821581851624,3.0,0.7812187812187813,1280.0511508951406,1.056348697628343,1.4566750189382902,0.28156867315424505,1400.0,-1.0,-1.0,0.784140937021301,
2023-08-11 20:04:40.041000,-8.313253012048193,0.22891566265060243,-5.228915662650603,0.32127529123237275,-8.182096873083998,-4.826486817903127,3.0,0.7812187812187813,1280.0511508951406,1.15587669716217,0.9127673212516746,0.24905308548452917,1395.6043956043954,-1.0,-1.0,0.7841129299423428,
2023-08-11 20:04:40.049000,-8.301204819277109,0.21686746987951808,-5.228915662650603,0.3384426732066217,-8.128142244022072,-4.8706315144083385,3.0,0.7812187812187813,1280.0511508951406,1.7267059029194107,0.920808810675368,0.1562845987996037,1389.0109890109889,-1.0,-1.0,0.7840848927927888,
2023-08-11 20:04:40.057000,-8.325301204819278,0.21686746987951808,-5.216867469879518,0.3384426732066217,-8.135499693439607,-4.819129368485592,3.0,0.7812187812187813,1280.0511508951406,1.4257910378183096,0.21490589126507728,0.30615931472524927,1383.8827838827838,-1.0,-1.0,0.7840568278814034,
2023-08-11 20:04:40.064000,-8.337349397590362,0.20481927710843376,-5.204819277108434,0.3408951563458001,-8.199264255058246,-4.77498467198038,3.0,0.7812187812187813,1280.0511508951406,1.4150690519200517,0.2126915680904379,0.30242992832585514,1381.6849816849815,-1.0,-1.0,0.7840287376559828,
2023-08-11 20:04:40.072000,-8.349397590361447,0.20481927710843376,-5.216867469879518,0.30901287553648066,-8.277743715511955,-4.82158185162477,3.0,0.7812187812187813,1280.0511508951406,1.4957170328069451,0.684575490938756,0.36151739409125333,1382.4175824175823,-1.0,-1.0,0.7840006245515287,
2023-08-11 20:04:40.080000,-8.349397590361447,0.20481927710843376,-5.216867469879518,0.33108522378908645,-8.19435928877989,-4.846106683016554,3.0,0.7812187812187813,1280.0511508951406,1.500378765806189,1.1235941961424156,0.7524037060777343,1382.4175824175823,-1.0,-1.0,0.7839724909877342,
2023-08-11 20:04:40.087000,-8.373493975903616,0.20481927710843376,-5.240963855421687,0.3408951563458001,-8.22378908645003,-4.83629675045984,3.0,0.7812187812187813,1280.0511508951406,1.7941844880834452,1.3432783637317176,1.0048365479867143,1382.4175824175823,-1.0,-1.0,0.7839443393665374,
2023-08-11 20:04:40.095000,-8.349397590361447,0.22891566265060243,-5.265060240963856,0.31882280809319435,-8.169834457388106,-4.885346413243409,3.0,0.7812187812187813,1280.0511508951406,1.7058446477477993,1.624147776936075,1.3012062234135542,1380.2197802197802,-1.0,-1.0,0.7839161720697821,
2023-08-11 20:04:40.103000,-8.349397590361447,0.21686746987951808,-5.27710843373494,0.34580012262415694,-8.17964438994482,-4.83629675045984,3.0,0.7807747807747809,1280.7790730736422,2.349163801643261,1.808519317056116,1.749082221315774,1378.021978021978,-1.0,-1.0,0.7838879914570375,
2023-08-11 20:04:40.110000,-8.337349397590362,0.24096385542168675,-5.228915662650603,0.3948497854077253,-8.147762109135499,-4.902513795217658,3.0,0.7812187812187813,1280.0511508951406,2.0726064914632016,1.7623681603636143,1.9347357380106056,1375.8241758241757,-1.0,-1.0,0.7838597997143163,
2023-08-11 20:04:40.118000,-8.349397590361447,0.24096385542168675,-5.1807228915662655,0.3727774371551195,-8.218884120171673,-4.777437155119558,3.0,0.7812187812187813,1280.0511508951406,2.546122020861255,2.1149117184313266,1.873317405745586,1374.3589743589744,-1.0,-1.0,0.7838315989797494,
2023-08-11 20:04:40.126000,-8.349397590361447,0.21686746987951808,-5.265060240963856,0.3678724708767627,-8.19435928877989,-4.917228694052728,3.0,0.7816627816627817,1279.324055666004,2.402890274459531,2.219800710914281,2.026688421420663,1375.091575091575,-1.0,-1.0,0.7838033915010586,
2023-08-11 20:04:40.133000,-8.373493975903616,0.24096385542168675,-5.240963855421687,0.33353770692826484,-8.187001839362354,-4.902513795217658,3.0,0.7807747807747809,1280.7790730736422,2.3986947147602122,1.6388322358836882,1.7039799545481031,1373.6263736263736,-1.0,-1.0,0.7837751796447688,
2023-08-11 20:04:40.141000,-8.337349397590362,0.22891566265060243,-5.265060240963856,0.30656039239730226,-8.182096873083998,-4.927038626609442,3.0,0.7803307803307804,1281.5078236130867,2.0743546413379175,0.7562496358021092,1.7043295845230462,1372.8937728937728,-1.0,-1.0,0.7837469657572818,
2023-08-11 20:04:40.149000,-8.289156626506024,0.24096385542168675,-5.253012048192772,0.2869405272838749,-8.118332311465359,-4.897608828939301,3.0,0.7807747807747809,1280.7790730736422,2.0277373113454926,-0.041023250393332544,1.4614532952625139,1371.4285714285713,-1.0,-1.0,0.7837187518138246,
2023-08-11 20:04:40.156000,-8.240963855421688,0.24096385542168675,-5.289156626506024,0.37768240343347637,-8.079092581238504,-4.912323727774371,3.0,0.7807747807747809,1280.7790730736422,1.9501194569081046,-0.17539770409649733,1.4016665695472288,1370.6959706959706,-1.0,-1.0,0.7836905396737376,
2023-08-11 20:04:40.164000,-8.204819277108435,0.22891566265060243,-5.253012048192772,0.3948497854077253,-8.034947884733292,-4.931943592887799,3.0,0.7807747807747809,1280.7790730736422,1.459705145387799,-0.7352718373055188,1.1901404347066022,1371.4285714285713,-1.0,-1.0,0.7836623312391546,
2023-08-11 20:04:40.172000,-8.144578313253012,0.21686746987951808,-5.265060240963856,0.29675045984058857,-7.946658491722869,-4.865726548129981,3.0,0.7807747807747809,1280.7790730736422,0.9746518268166185,-1.382553464250334,1.148417924363382,1370.6959706959706,-1.0,-1.0,0.7836341283159156,
2023-08-11 20:04:40.179000,-8.168674698795181,0.22891566265060243,-5.253012048192772,0.2673206621704476,-7.9957081545064375,-4.9294911097486205,3.0,0.7812187812187813,1280.0511508951406,0.826525260765689,-1.5098187751296541,0.6522929899190022,1369.230769230769,-1.0,-1.0,0.7836059326133811,
2023-08-11 20:04:40.187000,-8.19277108433735,0.18072289156626506,-5.240963855421687,0.29429797670141017,-8.076640098099325,-4.887798896382587,3.0,0.7807747807747809,1280.7790730736422,0.437037468678982,-1.4679797214614523,0.6914515471126392,1368.4981684981683,-1.0,-1.0,0.7835777458937255,
2023-08-11 20:04:40.195000,-8.19277108433735,0.16867469879518074,-5.301204819277109,0.24034334763948498,-8.015328019619865,-4.939301042305334,3.0,0.7807747807747809,1280.7790730736422,-0.04288794359303113,-1.869704562671173,0.31816327719829884,1367.7655677655678,-1.0,-1.0,0.7835495698447423,
2023-08-11 20:04:40.202000,-8.240963855421688,0.14457831325301207,-5.313253012048193,0.24279583077866337,-8.113427345187002,-4.934396076026977,3.0,0.7807747807747809,1280.7790730736422,-0.13658877687780416,-1.9508187168579916,0.3603519608414428,1365.5677655677655,-1.0,-1.0,0.7835214059213986,
2023-08-11 20:04:40.210000,-8.27710843373494,0.12048192771084337,-5.337349397590362,0.18393623543838136,-8.113427345187002,-5.005518087063151,3.0,0.7807747807747809,1280.7790730736422,-0.20010488899248327,-2.01654915214731,0.585397121379873,1361.1721611721612,-1.0,-1.0,0.7834932554855487,
2023-08-11 20:04:40.218000,-8.27710843373494,0.08433734939759037,-5.325301204819278,0.1226241569589209,-8.118332311465359,-4.949110974862047,3.0,0.7807747807747809,1280.7790730736422,-0.2780723734048139,-1.9602587261814566,0.6067245498514071,1355.3113553113553,-1.0,-1.0,0.7834651198072298,
2023-08-11 20:04:40.225000,-8.265060240963855,0.07228915662650603,-5.337349397590362,0.18148375229920294,-8.11587982832618,-5.025137952176578,3.0,0.7807747807747809,1280.7790730736422,-0.5666336460579239,-1.8382378649262865,1.3344210710331563,1351.6483516483515,-1.0,-1.0,0.783437000066315,
2023-08-11 20:04:40.233000,-8.228915662650603,0.08433734939759037,-5.337349397590362,0.1618638871857756,-8.110974862047822,-5.012875536480687,3.0,0.7807747807747809,1280.7790730736422,-1.1580910203368093,-1.5802109434182148,1.4140201619952213,1349.4505494505493,-1.0,-1.0,0.78340889735455,
2023-08-11 20:04:40.241000,-8.228915662650603,0.0963855421686747,-5.313253012048193,0.16922133660331085,-8.042305334150827,-4.9736358062538315,3.0,0.7803307803307804,1281.5078236130867,-0.9823436862653676,-1.158207563661792,1.4003845929724372,1350.9157509157508,-1.0,-1.0,0.783380812678007,
2023-08-11 20:04:40.248000,-8.204819277108435,0.08433734939759037,-5.301204819277109,0.20600858369098712,-7.9957081545064375,-4.946658491722869,3.0,0.7803307803307804,1281.5078236130867,-0.6246722218984915,-0.907289784977565,1.0814055124992714,1355.3113553113553,-1.0,-1.0,0.7833527466719369,
2023-08-11 20:04:40.256000,-8.156626506024097,0.12048192771084337,-5.27710843373494,0.3016554261189454,-7.949110974862047,-4.885346413243409,3.0,0.7807747807747809,1280.7790730736422,-0.33273119282093205,-0.12295320785502026,0.6588194161179419,1361.1721611721612,-1.0,-1.0,0.7833246997413899,
2023-08-11 20:04:40.264000,-8.168674698795181,0.10843373493975904,-5.216867469879518,0.19619865113427343,-8.039852851011648,-4.865726548129981,3.0,0.7807747807747809,1280.7790730736422,0.5090612435172761,0.35289318804265496,0.16164559174873216,1369.230769230769,-1.0,-1.0,0.7832966724790328,
2023-08-11 20:04:40.271000,-8.156626506024097,0.13253012048192772,-5.228915662650603,0.19619865113427343,-7.946658491722869,-4.9074187614960145,3.0,0.7803307803307804,1281.5078236130867,0.5037002505681472,1.5731018005943715,-0.10127614940854215,1375.8241758241757,-1.0,-1.0,0.7832686655404152,
2023-08-11 20:04:40.279000,-8.19277108433735,0.14457831325301207,-5.289156626506024,0.22808093194359289,-8.034947884733292,-5.012875536480687,3.0,0.7803307803307804,1281.5078236130867,-0.05069634636676106,1.9277431385117425,-0.5907581143290019,1380.952380952381,-1.0,-1.0,0.7832406793606455,
2023-08-11 20:04:40.287000,-8.240963855421688,0.1566265060240964,-5.397590361445784,0.24034334763948498,-8.020232985898222,-5.137952176578786,3.0,0.77988677988678,1282.2374039282663,-0.7397004836547975,0.9664937940679461,0.03496299749431863,1376.5567765567764,-1.0,-1.0,0.7832127141377814,
2023-08-11 20:04:40.294000,-8.27710843373494,0.18072289156626506,-5.518072289156627,0.2795830778663397,-8.113427345187002,-5.174739423666462,3.0,0.77988677988678,1282.2374039282663,-1.084901812248705,-0.7781597808985482,-0.13565643027795551,1361.1721611721612,-1.0,-1.0,0.7831847699651786,
2023-08-11 20:04:40.302000,-8.325301204819278,0.1566265060240964,-5.530120481927711,0.269773145309626,-8.147762109135499,-5.142857142857142,3.0,0.77988677988678,1282.2374039282663,-1.078608472699726,-1.4116892954956006,0.12330283782996321,1336.263736263736,-1.0,-1.0,0.7831568467937636,
2023-08-11 20:04:40.310000,-8.313253012048193,0.16867469879518074,-5.421686746987952,0.2599632127529123,-8.118332311465359,-5.034947884733292,3.0,0.7803307803307804,1281.5078236130867,-1.3006235067886482,-1.3527183730551846,-0.3211934036478058,1306.227106227106,-1.0,-1.0,0.7831289444260239,
2023-08-11 20:04:40.317000,-8.25301204819277,0.21686746987951808,-5.313253012048193,0.29675045984058857,-8.08399754751686,-4.912323727774371,3.0,0.7803307803307804,1281.5078236130867,-0.5589417866091713,-1.403764349396888,-0.778043237573568,1280.5860805860805,-1.0,-1.0,0.7831010626698591,
2023-08-11 20:04:40.325000,-8.228915662650603,0.2530120481927711,-5.144578313253012,0.3948497854077253,-8.00797057020233,-4.711220110361741,3.0,0.7803307803307804,1281.5078236130867,0.14486335295145916,-0.5690810558825249,-1.0199871802342515,1263.003663003663,-1.0,-1.0,0.7830732013650575,
2023-08-11 20:04:40.332000,-8.168674698795181,0.26506024096385544,-5.096385542168675,0.3629675045984059,-8.005518087063152,-4.745554874310239,3.0,0.7803307803307804,1281.5078236130867,-0.07132451488840903,1.1291882757415062,-1.4443214264902977,1254.212454212454,-1.0,-1.0,0.7830453602508867,
2023-08-11 20:04:40.340000,-8.168674698795181,0.2530120481927711,-5.072289156626506,0.34580012262415694,-7.983445738810545,-4.6695278969957075,3.0,0.77988677988678,1282.2374039282663,-0.07225686148825747,1.1214964162927572,-1.4354641337917369,1252.014652014652,-1.0,-1.0,0.7830175389727009,
2023-08-11 20:04:40.348000,-8.168674698795181,0.21686746987951808,-5.0361445783132535,0.34334763948497854,-8.010423053341508,-4.689147762109135,3.0,0.7803307803307804,1281.5078236130867,0.29159139910261517,1.49385233960725,-1.22941553522522,1254.212454212454,-1.0,-1.0,0.7829897369395298,
2023-08-11 20:04:40.355000,-8.228915662650603,0.22891566265060243,-5.072289156626506,0.3605150214592274,-8.096259963212752,-4.721030042918454,3.0,0.7803307803307804,1281.5078236130867,0.30359536157566563,3.4006176796224,-1.1758056057339317,1259.3406593406592,-1.0,-1.0,0.7829619534586701,
2023-08-11 20:04:40.363000,-8.313253012048193,0.27710843373493976,-5.19277108433735,0.30901287553648066,-8.123237277743716,-4.927038626609442,3.0,0.77988677988678,1282.2374039282663,-0.038109667268808156,5.141891498164443,-1.138977915039916,1269.5970695970695,-1.0,-1.0,0.782934187902093,
2023-08-11 20:04:40.371000,-8.349397590361447,0.2530120481927711,-5.313253012048193,0.35806253832004903,-8.164929491109747,-4.980993255671367,3.0,0.77988677988678,1282.2374039282663,-0.22306392401375144,6.8382961365887756,-0.7959909096206516,1282.7838827838827,-1.0,-1.0,0.7829064394260048,
2023-08-11 20:04:40.378000,-8.337349397590362,0.28915662650602414,-5.289156626506024,0.3654199877375843,-8.17964438994482,-4.8412017167381975,3.0,0.77988677988678,1282.2374039282663,-0.1772623972961942,7.036769419031524,-1.3456092302313385,1295.970695970696,-1.0,-1.0,0.7828787069568959,
2023-08-11 20:04:40.386000,-8.301204819277109,0.22891566265060243,-5.156626506024097,0.3531575720416922,-8.150214592274677,-4.750459840588595,3.0,0.77988677988678,1282.2374039282663,0.005943709574034809,7.723792319794883,-2.292174115727522,1309.89010989011,-1.0,-1.0,0.7828509893368719,
2023-08-11 20:04:40.394000,-8.265060240963855,0.22891566265060243,-5.144578313253012,0.3629675045984059,-8.147762109135499,-4.689147762109135,3.0,0.77988677988678,1282.2374039282663,0.784569663772508,9.357380106054425,-2.3837771691626366,1317.9487179487178,-1.0,-1.0,0.7828232853303946,
2023-08-11 20:04:40.401000,-8.313253012048193,0.16867469879518074,-5.265060240963856,0.24279583077866337,-8.157572041692212,-4.96137339055794,3.0,0.7803307803307804,1281.5078236130867,0.6776994347648745,11.143639648039157,-2.5211817493153084,1326.007326007326,-1.0,-1.0,0.7827955936311976,
2023-08-11 20:04:40.409000,-8.337349397590362,0.13253012048192772,-5.373493975903615,0.26486817903126914,-8.157572041692212,-5.133047210300429,3.0,0.7803307803307804,1281.5078236130867,0.769302488199989,11.540586212924653,-2.292174115727522,1332.6007326007325,-1.0,-1.0,0.7827679130186866,
2023-08-11 20:04:40.417000,-8.337349397590362,0.14457831325301207,-5.578313253012048,0.24770079705702022,-8.142857142857142,-5.187001839362354,3.0,0.7807747807747809,1280.7790730736422,0.784569663772508,10.853563312161295,-2.8112580851931708,1337.7289377289376,-1.0,-1.0,0.7827402423871247,
2023-08-11 20:04:40.424000,-8.301204819277109,0.24096385542168675,-5.590361445783133,0.3948497854077253,-8.174739423666463,-5.187001839362354,3.0,0.7807747807747809,1280.7790730736422,0.7540353126274699,7.311578579336867,-2.628051978322942,1342.1245421245421,-1.0,-1.0,0.782712580765389,
2023-08-11 20:04:40.432000,-8.421686746987952,0.24096385542168675,-5.481927710843374,0.2820355610055181,-8.280196198651133,-5.081545064377682,3.0,0.7812187812187813,1280.0511508951406,0.17388264087174474,5.067303770176562,-2.887593963055766,1346.5201465201465,-1.0,-1.0,0.7826849273484707,
2023-08-11 20:04:40.440000,-8.44578313253012,0.21686746987951808,-5.325301204819278,0.269773145309626,-8.31698344573881,-4.895156345800122,3.0,0.7807747807747809,1280.7790730736422,1.3647223355282332,4.990967892313967,-2.9181283142008043,1350.9157509157508,-1.0,-1.0,0.7826572815197447,
2023-08-11 20:04:40.447000,-8.3855421686747,0.3132530120481928,-5.373493975903615,0.47087676272225626,-8.213979153893316,-5.049662783568363,3.0,0.7803307803307804,1281.5078236130867,2.2044169920167827,5.968067128955188,-1.9410290775595829,1354.5787545787546,-1.0,-1.0,0.7826296428746242,
2023-08-11 20:04:40.455000,-8.349397590361447,0.44578313253012053,-5.397590361445784,0.48068669527896996,-8.150214592274677,-4.988350705088902,3.0,0.7803307803307804,1281.5078236130867,2.1280811141541873,9.082570945749081,-2.124235184429812,1358.974358974359,-1.0,-1.0,0.7826020109048517,
2023-08-11 20:04:40.463000,-8.313253012048193,0.43373493975903615,-5.325301204819278,0.5248313917841815,-8.120784794604537,-4.9074187614960145,3.0,0.7807747807747809,1280.7790730736422,2.6318979080473173,12.76196025872618,-2.551716100460346,1359.7069597069597,-1.0,-1.0,0.7825743849810252,
2023-08-11 20:04:40.470000,-8.289156626506024,0.42168674698795183,-5.289156626506024,0.6817903126916002,-8.272838749233598,-4.949110974862047,3.0,0.7803307803307804,1281.5078236130867,3.196783404230523,16.41081522055824,-3.559349688246606,1354.5787545787546,-1.0,-1.0,0.7825467646542288,
2023-08-11 20:04:40.478000,-8.216867469879519,0.27710843373493976,-5.096385542168675,0.2207234825260576,-7.9662783568362965,-4.799509503372164,3.0,0.77988677988678,1282.2374039282663,2.5860963813297597,19.4184488083445,-3.1624031233611096,1347.985347985348,-1.0,-1.0,0.7825191495423057,
2023-08-11 20:04:40.486000,-8.204819277108435,-0.07228915662650603,-5.216867469879518,-0.02207234825260576,-8.174739423666463,-4.919681177191906,3.0,0.7803307803307804,1281.5078236130867,3.6547986714060956,21.479517510634576,-4.4601130470252315,1340.6593406593406,-1.0,-1.0,0.7824915390353938,
2023-08-11 20:04:40.493000,-8.180722891566266,-0.08433734939759037,-5.301204819277109,-0.019619865113427344,-8.025137952176578,-4.963825873697118,3.0,0.77988677988678,1282.2374039282663,3.0135772973602943,19.708525144222364,-2.872326787483247,1333.3333333333333,-1.0,-1.0,0.7824639325760817,
2023-08-11 20:04:40.501000,-8.108433734939759,0.0963855421686747,-5.325301204819278,0.22808093194359289,-7.900061312078479,-4.978540772532188,3.0,0.7794427794427795,1282.9678154371973,3.0899131752228897,17.632189266359767,-1.9257619019870638,1325.2747252747251,-1.0,-1.0,0.7824363296830492,
2023-08-11 20:04:40.509000,-8.084337349397591,0.16867469879518074,-5.421686746987952,0.21827099938687922,-7.88289393010423,-5.06928264868179,3.0,0.7794427794427795,1282.9678154371973,3.2731192820931185,16.868830487733813,-2.170036711147369,1320.8791208791208,-1.0,-1.0,0.7824087296549114,
2023-08-11 20:04:40.516000,-8.084337349397591,0.16867469879518074,-5.614457831325302,0.24279583077866337,-7.971183323114653,-5.356223175965665,3.0,0.778998778998779,1283.6990595611285,3.4410582133908285,18.136006060252896,-1.8952275508420255,1318.6813186813185,-1.0,-1.0,0.7823811316991043,
2023-08-11 20:04:40.524000,-8.084337349397591,0.10843373493975904,-5.72289156626506,0.20846106683016552,-7.9515634580012255,-5.388105456774984,3.0,0.7794427794427795,1282.9678154371973,3.8685391294213627,16.365013693840684,-1.620418390536682,1325.2747252747251,-1.0,-1.0,0.7823535349313759,
2023-08-11 20:04:40.532000,-8.168674698795181,0.12048192771084337,-5.734939759036145,0.24770079705702022,-8.061925199264255,-5.400367872470876,3.0,0.7794427794427795,1282.9678154371973,3.8685391294213627,15.845929724375035,-1.1318687722160714,1337.7289377289376,-1.0,-1.0,0.7823259385127239,
2023-08-11 20:04:40.539000,-8.204819277108435,0.08433734939759037,-5.759036144578314,0.1520539546290619,-8.027590435315757,-5.380748007357449,3.0,0.7794427794427795,1282.9678154371973,3.853271953848844,15.464250335062058,-0.9333954897733233,1354.5787545787546,-1.0,-1.0,0.7822983418173336,
2023-08-11 20:04:40.547000,-8.228915662650603,0.10843373493975904,-5.783132530120482,0.1103617412630288,-8.015328019619865,-5.471489883507051,3.0,0.7794427794427795,1282.9678154371973,3.6242643202610574,15.296311403764348,-0.5517161004603461,1376.5567765567764,-1.0,-1.0,0.7822707443020923,
2023-08-11 20:04:40.555000,-8.216867469879519,0.10843373493975904,-5.807228915662651,0.2207234825260576,-8.064377682403434,-5.451870018393623,3.0,0.7794427794427795,1282.9678154371973,4.173882640871745,15.357380106054425,-0.2921741157275218,1400.0,-1.0,-1.0,0.7822431455143088,
2023-08-11 20:04:40.562000,-8.156626506024097,0.14457831325301207,-5.759036144578314,0.24034334763948498,-7.985898221949724,-5.449417535254445,3.0,0.778998778998779,1283.6990595611285,3.9754093584289967,15.158906823611677,0.22690985373812708,1424.9084249084249,-1.0,-1.0,0.7822155450988674,
2023-08-11 20:04:40.570000,-8.156626506024097,0.12048192771084337,-5.819277108433735,0.20846106683016552,-7.946658491722869,-5.515634580012262,3.0,0.778998778998779,1283.6990595611285,3.9754093584289967,16.288677815978087,0.211642678165608,1448.3516483516482,-1.0,-1.0,0.7821879426555265,
2023-08-11 20:04:40.578000,-8.072289156626507,0.13253012048192772,-5.867469879518072,0.19865113427345185,-7.885346413243409,-5.464132434089516,3.0,0.778998778998779,1283.6990595611285,3.2425849309480803,14.349746518268164,0.24217702931064616,1473.9926739926739,-1.0,-1.0,0.7821603377230699,
2023-08-11 20:04:40.585000,-8.0,0.13253012048192772,-5.903614457831326,0.269773145309626,-7.770079705702023,-5.542611894543224,3.0,0.7794427794427795,1282.9678154371973,2.784569663772508,11.174173999184196,-0.09370083328477367,1497.4358974358972,-1.0,-1.0,0.782132730060577,
2023-08-11 20:04:40.593000,-7.927710843373494,0.14457831325301207,-5.855421686746988,0.20110361741263028,-7.6695278969957075,-5.486204782342121,3.0,0.7785547785547786,1284.4311377245508,1.9906765340015156,8.74669308315366,-0.5517161004603461,1517.9487179487178,-1.0,-1.0,0.7821051196406152,
2023-08-11 20:04:40.601000,-7.9397590361445785,0.1566265060240964,-5.891566265060241,0.2158185162477008,-7.752912323727774,-5.535254445125689,3.0,0.778998778998779,1283.6990595611285,1.7006001981236532,5.93753277781015,-0.5517161004603461,1542.8571428571427,-1.0,-1.0,0.782077506524705,
2023-08-11 20:04:40.608000,-7.9397590361445785,0.14457831325301207,-5.819277108433735,0.26486817903126914,-7.6989576946658485,-5.446965052115266,3.0,0.7794427794427795,1282.9678154371973,1.4410582133908287,3.036769419031524,-1.1471359477885905,1572.161172161172,-1.0,-1.0,0.7820498908029744,
2023-08-11 20:04:40.616000,-7.951807228915663,0.08433734939759037,-5.710843373493976,0.12017167381974249,-7.76026977314531,-5.383200490496628,3.0,0.7794427794427795,1282.9678154371973,1.4410582133908287,3.036769419031524,-1.1471359477885905,1602.9304029304028,-1.0,-1.0,0.7820222727664203,
2023-08-11 20:04:40.624000,-7.927710843373494,0.012048192771084338,-5.674698795180723,0.0956468424279583,-7.801961986511342,-5.258123850398528,3.0,0.7794427794427795,1282.9678154371973,1.334187984383195,1.754326670939921,-0.6127848027504225,1629.3040293040292,-1.0,-1.0,0.7819946529402735,
2023-08-11 20:04:40.631000,-7.9397590361445785,-0.024096385542168676,-5.566265060240964,0.14714898835070508,-7.755364806866952,-5.201716738197424,3.0,0.7794427794427795,1282.9678154371973,1.5326612668259432,0.39554804498572266,-0.337975642445079,1649.8168498168498,-1.0,-1.0,0.7819670319470671,
2023-08-11 20:04:40.639000,-7.927710843373494,-0.012048192771084338,-5.530120481927711,0.10545677498467197,-7.826486817903127,-5.211526670754139,3.0,0.778998778998779,1283.6990595611285,1.5326612668259432,0.5024182739933563,0.12003962473049348,1657.142857142857,-1.0,-1.0,0.7819394105078674,
2023-08-11 20:04:40.647000,-8.0,0.0,-5.578313253012048,0.01226241569589209,-7.865726548129981,-5.248313917841815,3.0,0.778998778998779,1283.6990595611285,1.0288444729328134,0.639822854146028,1.310879319386982,1649.8168498168498,-1.0,-1.0,0.7819117892936669,
2023-08-11 20:04:40.654000,-7.963855421686747,-0.012048192771084338,-5.650602409638554,0.1103617412630288,-7.799509503372164,-5.412630288166769,3.0,0.778998778998779,1283.6990595611285,0.2807528698793783,1.0520365946040433,2.0284365712953787,1624.9084249084249,-1.0,-1.0,0.781884168903697,
2023-08-11 20:04:40.662000,-7.9397590361445785,0.0,-5.746987951807229,0.08828939301042305,-7.716125076640098,-5.498467198038013,3.0,0.778998778998779,1283.6990595611285,-0.49787308431909494,0.3192121671231272,2.959734281219043,1583.150183150183,-1.0,-1.0,0.7818565500022218,
2023-08-11 20:04:40.670000,-7.891566265060241,0.0,-5.819277108433735,0.16922133660331085,-7.703862660944206,-5.476394849785407,3.0,0.7785547785547786,1284.4311377245508,-1.8413845347007742,-1.2685740924188573,3.127673212516753,1530.4029304029302,-1.0,-1.0,0.7818289333160048,
2023-08-11 20:04:40.677000,-7.891566265060241,0.03614457831325302,-5.83132530120482,0.14224402207234824,-7.62047823421214,-5.496014714898835,3.0,0.778998778998779,1283.6990595611285,-2.635277664471767,-4.444146611502827,3.127673212516753,1468.131868131868,-1.0,-1.0,0.7818013194819484,
2023-08-11 20:04:40.685000,-7.843373493975904,0.04819277108433735,-5.819277108433735,0.20110361741263028,-7.576333537706928,-5.486204782342121,3.0,0.778998778998779,1283.6990595611285,-3.24596468737253,-7.329642794708933,2.7612609987762946,1404.3956043956043,-1.0,-1.0,0.7817737091709913,
2023-08-11 20:04:40.692000,-7.855421686746988,0.060240963855421686,-5.783132530120482,0.16676885346413242,-7.608215818516247,-5.41017780502759,3.0,0.7785547785547786,1284.4311377245508,-4.1161936950061175,-10.70368859623565,2.623856418623623,1339.194139194139,-1.0,-1.0,0.7817461032431269,
2023-08-11 20:04:40.700000,-7.867469879518072,0.08433734939759037,-5.759036144578314,0.21336603310852237,-7.708767627222563,-5.432250153280196,3.0,0.7785547785547786,1284.4311377245508,-4.329934153021385,-14.03193287104481,2.394848785035837,1277.6556776556777,-1.0,-1.0,0.7817185024549401,
2023-08-11 20:04:40.708000,-7.91566265060241,0.08433734939759037,-5.795180722891566,0.12998160637645614,-7.716125076640098,-5.486204782342121,3.0,0.778998778998779,1283.6990595611285,-5.536041023250393,-17.05483363440359,2.7154594720587375,1226.3736263736264,-1.0,-1.0,0.7816909075718169,
2023-08-11 20:04:40.715000,-7.963855421686747,0.07228915662650603,-5.746987951807229,0.19374616799509503,-7.804414469650521,-5.412630288166769,3.0,0.7785547785547786,1284.4311377245508,-6.391002855311461,-21.03956645883107,2.6849251209136993,1184.6153846153845,-1.0,-1.0,0.7816633196290901,
2023-08-11 20:04:40.723000,-8.024096385542169,0.07228915662650603,-5.783132530120482,0.1618638871857756,-7.934396076026977,-5.434702636419375,3.0,0.7785547785547786,1284.4311377245508,-6.665812015616805,-23.818192413029543,2.639123594196142,1153.8461538461538,-1.0,-1.0,0.7816357396498422,
2023-08-11 20:04:40.731000,-8.084337349397591,0.04819277108433735,-5.734939759036145,0.1496014714898835,-7.868179031269159,-5.44206008583691,3.0,0.7785547785547786,1284.4311377245508,-7.978789114853446,-26.88689470310588,3.0666045102266764,1136.2637362637363,-1.0,-1.0,0.7816081683413467,
2023-08-11 20:04:40.738000,-8.132530120481928,0.07228915662650603,-5.686746987951808,0.22562844880441446,-7.9515634580012255,-5.238503985285101,3.0,0.7785547785547786,1284.4311377245508,-8.452071557601537,-27.772390886311985,3.036070159081638,1132.6007326007325,-1.0,-1.0,0.7815806063869642,
2023-08-11 20:04:40.746000,-8.19277108433735,0.07228915662650603,-5.662650602409639,0.16922133660331085,-8.03740036787247,-5.3071735131820965,3.0,0.7781107781107781,1285.1640513552068,-9.032224229357263,-27.39071149699901,3.34141367053202,1142.1245421245421,-1.0,-1.0,0.7815530544288127,
2023-08-11 20:04:40.754000,-8.204819277108435,0.13253012048192772,-5.542168674698796,0.20600858369098712,-8.076640098099325,-5.238503985285101,3.0,0.7785547785547786,1284.4311377245508,-9.184895985082454,-27.55865042829672,3.17347473923431,1165.5677655677655,-1.0,-1.0,0.7815255130609412,
2023-08-11 20:04:40.761000,-8.204819277108435,0.04819277108433735,-5.506024096385542,0.09809932556713671,-7.96137339055794,-5.064377682403433,3.0,0.7781107781107781,1285.1640513552068,-9.215430336227492,-26.428879435930305,3.371948021677058,1197.8021978021977,-1.0,-1.0,0.7814979829190902,
2023-08-11 20:04:40.769000,-8.19277108433735,0.21686746987951808,-5.385542168674699,0.35806253832004903,-8.005518087063152,-5.000613120784794,3.0,0.7781107781107781,1285.1640513552068,-8.22306392401375,-23.955596993182215,3.0055358079366,1232.2344322344322,-1.0,-1.0,0.7814704644075487,
2023-08-11 20:04:40.777000,-8.132530120481928,0.26506024096385544,-5.36144578313253,0.43654199877375843,-8.042305334150827,-4.9515634580012255,3.0,0.7785547785547786,1284.4311377245508,-8.177262397296193,-20.38307790921275,2.471184662898432,1271.062271062271,-1.0,-1.0,0.7814429576817263,
2023-08-11 20:04:40.784000,-8.180722891566266,0.30120481927710846,-5.325301204819278,0.2869405272838749,-7.988350705088902,-4.8779889638258735,3.0,0.7785547785547786,1284.4311377245508,-7.245964687372529,-19.619719130586795,3.371948021677058,1309.1575091575091,-1.0,-1.0,0.781415462928674,
2023-08-11 20:04:40.792000,-8.204819277108435,0.1927710843373494,-5.289156626506024,0.23789086450030655,-8.049662783568362,-4.917228694052728,3.0,0.7785547785547786,1284.4311377245508,-6.1161936950061175,-16.780024474098248,2.3795816094633175,1344.3223443223442,-1.0,-1.0,0.7813879803816085,
2023-08-11 20:04:40.800000,-8.180722891566266,0.3132530120481928,-5.19277108433735,0.41446965052115264,-7.9589209074187615,-4.855916615573268,3.0,0.778998778998779,1283.6990595611285,-4.986422702639706,-14.38307790921275,1.9521006934327836,1376.5567765567764,-1.0,-1.0,0.7813605103145315,
2023-08-11 20:04:40.807000,-8.204819277108435,0.26506024096385544,-5.19277108433735,0.30656039239730226,-7.998160637645616,-4.826486817903127,3.0,0.778998778998779,1283.6990595611285,-4.024590641571003,-11.329642794708933,1.1887419148068292,1405.128205128205,-1.0,-1.0,0.7813330531663194,
2023-08-11 20:04:40.815000,-8.228915662650603,0.21686746987951808,-5.19277108433735,0.3163703249540159,-7.993255671367259,-4.782342121397915,3.0,0.7785547785547786,1284.4311377245508,-3.07802575607482,-8.917429054250919,0.4711846628984324,1427.106227106227,-1.0,-1.0,0.7813056092716965,
2023-08-11 20:04:40.823000,-8.27710843373494,0.3132530120481928,-5.144578313253012,0.4438994481912937,-8.09871244635193,-4.797057020232986,3.0,0.7785547785547786,1284.4311377245508,-2.0703921682885604,-6.306742031350155,-0.5059145737427889,1445.4212454212454,-1.0,-1.0,0.7812781785929432,
2023-08-11 20:04:40.830000,-8.289156626506024,0.3493975903614458,-5.168674698795181,0.38749233599019006,-8.191906805640711,-4.765174739423666,3.0,0.7785547785547786,1284.4311377245508,-1.7955830079832171,-4.21513897791504,-0.7196550317580561,1459.3406593406592,-1.0,-1.0,0.7812507609849526,
2023-08-11 20:04:40.838000,-8.27710843373494,0.2530120481927711,-5.204819277108434,0.3237277743715512,-8.086450030656039,-4.917228694052728,3.0,0.7785547785547786,1284.4311377245508,-1.2917662140900872,-2.7189557718081705,-0.6433191538954607,1469.5970695970695,-1.0,-1.0,0.7812233561731423,
2023-08-11 20:04:40.846000,-8.313253012048193,0.3373493975903615,-5.289156626506024,0.45616186388718577,-8.201716738197424,-4.9147762109135495,3.0,0.7785547785547786,1284.4311377245508,-0.9558883514946674,-1.1311695122661858,-0.8723267874832469,1474.7252747252746,-1.0,-1.0,0.7811959636250998,
2023-08-11 20:04:40.853000,-8.337349397590362,0.30120481927710846,-5.313253012048193,0.33108522378908645,-8.211526670754138,-4.968730839975475,3.0,0.7785547785547786,1284.4311377245508,-0.7726822446244385,-0.26094050463259794,-0.1700367111473691,1476.1904761904761,-1.0,-1.0,0.7811685828387257,
2023-08-11 20:04:40.861000,-8.325301204819278,0.2530120481927711,-5.337349397590362,0.3114653586756591,-8.118332311465359,-5.005518087063151,3.0,0.7785547785547786,1284.4311377245508,-0.3757356797389423,-0.459413787075346,0.2727113804556843,1473.260073260073,-1.0,-1.0,0.7811412133230399,
2023-08-11 20:04:40.869000,-8.373493975903616,0.26506024096385544,-5.301204819277109,0.33108522378908645,-8.228694052728388,-4.956468424279583,3.0,0.7785547785547786,1284.4311377245508,-0.11619369500611786,-0.30674203135015515,0.7154594720587377,1467.3992673992673,-1.0,-1.0,0.7811138544525364,
2023-08-11 20:04:40.876000,-8.361445783132531,0.28915662650602414,-5.313253012048193,0.38749233599019006,-8.182096873083998,-4.917228694052728,3.0,0.7781107781107781,1285.1640513552068,-0.22306392401375144,-0.8563603519608421,1.4482838995396536,1462.2710622710622,-1.0,-1.0,0.7810865054718159,
2023-08-11 20:04:40.884000,-8.325301204819278,0.2530120481927711,-5.27710843373494,0.3139178418148375,-8.152667075413856,-4.9074187614960145,3.0,0.7785547785547786,1284.4311377245508,-0.13146087057863695,-1.360177145853972,1.4788182506846919,1456.4102564102564,-1.0,-1.0,0.7810591653519598,
2023-08-11 20:04:40.892000,-8.25301204819277,0.28915662650602414,-5.228915662650603,0.4218270999386879,-8.047210300429184,-4.801961986511342,3.0,0.7785547785547786,1284.4311377245508,-0.13146087057863695,-1.360177145853972,1.4788182506846919,1453.4798534798533,-1.0,-1.0,0.7810318329246815,
2023-08-11 20:04:40.899000,-8.228915662650603,0.30120481927710846,-5.204819277108434,0.45616186388718577,-8.020232985898222,-4.873083997547517,3.0,0.7776667776667777,1285.8978018840992,0.1128139385816684,-1.2991084435638955,1.4482838995396536,1448.3516483516482,-1.0,-1.0,0.7810045070490753,
2023-08-11 20:04:40.907000,-8.204819277108435,0.3132530120481928,-5.204819277108434,0.42427958307786634,-8.015328019619865,-4.814224402207235,3.0,0.7776667776667777,1285.8978018840992,0.4334246256045691,-0.5510168405104605,1.0208029835091195,1444.6886446886447,-1.0,-1.0,0.7809771863217588,
2023-08-11 20:04:40.915000,-8.180722891566266,0.3253012048192771,-5.228915662650603,0.45861434702636417,-8.005518087063152,-4.941753525444512,3.0,0.7781107781107781,1285.1640513552068,0.8303711904900654,0.38028086941320355,0.5933220674785851,1442.4908424908424,-1.0,-1.0,0.7809498690225813,
2023-08-11 20:04:40.922000,-8.168674698795181,0.26506024096385544,-5.253012048192772,0.299202942979767,-7.9147762109135495,-4.885346413243409,3.0,0.7781107781107781,1285.1640513552068,1.0441116485053326,1.006235067886486,-0.0020977798496591787,1440.2930402930401,-1.0,-1.0,0.7809225534010062,
2023-08-11 20:04:40.930000,-8.156626506024097,0.2530120481927711,-5.313253012048193,0.3531575720416922,-7.988350705088902,-4.885346413243409,3.0,0.7781107781107781,1285.1640513552068,0.952508595070218,1.2047083503292342,-0.7349222073305752,1438.095238095238,-1.0,-1.0,0.7808952375686586,
2023-08-11 20:04:40.938000,-8.19277108433735,0.20481927710843376,-5.301204819277109,0.3139178418148375,-8.000613120784795,-4.956468424279583,3.0,0.7781107781107781,1285.1640513552068,0.769302488199989,1.2963114037643486,-1.2234718256511858,1436.6300366300366,-1.0,-1.0,0.7808679195313568,
2023-08-11 20:04:40.945000,-8.216867469879519,0.20481927710843376,-5.325301204819278,0.3163703249540159,-8.030042918454935,-4.971183323114653,3.0,0.7781107781107781,1285.1640513552068,0.601363556902279,1.3573801060544248,-1.5593496882466056,1435.8974358974358,-1.0,-1.0,0.7808405971903549,
2023-08-11 20:04:40.953000,-8.228915662650603,0.20481927710843376,-5.421686746987952,0.3016554261189454,-8.030042918454935,-5.057020232985898,3.0,0.7781107781107781,1285.1640513552068,0.5555620301847218,1.0673037701765624,-1.803624497406911,1434.4322344322343,-1.0,-1.0,0.7808132683654673,
2023-08-11 20:04:40.961000,-8.27710843373494,0.20481927710843376,-5.409638554216868,0.26241569589209074,-8.074187614960147,-5.049662783568363,3.0,0.7781107781107781,1285.1640513552068,0.15861546529922566,1.1131052968941195,-1.421945108093934,1432.2344322344322,-1.0,-1.0,0.7807859309366751,
2023-08-11 20:04:40.968000,-8.27710843373494,0.20481927710843376,-5.445783132530121,0.3041079092581238,-8.135499693439607,-5.054567749846719,3.0,0.7781107781107781,1285.1640513552068,-0.45207155760153767,0.3497465182681654,-1.2234718256511858,1433.6996336996335,-1.0,-1.0,0.780758582570946,
2023-08-11 20:04:40.976000,-8.240963855421688,0.1927710843373494,-5.397590361445784,0.2820355610055181,-8.101164929491109,-5.017780502759043,3.0,0.7781107781107781,1285.1640513552068,-0.9100868247771102,-1.009032107686033,-1.1929374745061476,1436.6300366300366,-1.0,-1.0,0.7807312208968809,
2023-08-11 20:04:40.984000,-8.25301204819277,0.18072289156626506,-5.349397590361446,0.33108522378908645,-8.101164929491109,-5.037400367872471,3.0,0.7781107781107781,1285.1640513552068,-1.3681020919526827,-1.940329817609697,-0.7959909096206516,1442.4908424908424,-1.0,-1.0,0.7807038436484582,
2023-08-11 20:04:40.991000,-8.240963855421688,0.20481927710843376,-5.313253012048193,0.2795830778663397,-8.05211526670754,-4.97608828939301,3.0,0.7781107781107781,1285.1640513552068,-1.5055066721053545,-1.925062642037178,-0.9028611386282851,1449.8168498168498,-1.0,-1.0,0.7806764485326477,
2023-08-11 20:04:40.999000,-8.228915662650603,0.22891566265060243,-5.289156626506024,0.3114653586756591,-8.057020232985899,-4.919681177191906,3.0,0.7781107781107781,1285.1640513552068,-1.7345143056931407,-1.925062642037178,-1.1776702989336285,1457.8754578754579,-1.0,-1.0,0.7806490332468535,
2023-08-11 20:04:41.007000,-8.19277108433735,0.20481927710843376,-5.301204819277109,0.3408951563458001,-8.00797057020233,-4.963825873697118,3.0,0.7781107781107781,1285.1640513552068,-1.9635219392809269,-1.2991084435638955,-1.788357321834392,1467.3992673992673,-1.0,-1.0,0.7806215954968387,
2023-08-11 20:04:41.014000,-8.19277108433735,0.20481927710843376,-5.325301204819278,0.32127529123237275,-7.998160637645616,-4.88289393010423,3.0,0.7781107781107781,1285.1640513552068,-2.2383310995862704,-1.1006351611211476,-2.0478993065672166,1476.923076923077,-1.0,-1.0,0.7805941330150907,
2023-08-11 20:04:41.022000,-8.204819277108435,0.18072289156626506,-5.349397590361446,0.3384426732066217,-8.05211526670754,-4.97608828939301,3.0,0.7781107781107781,1285.1640513552068,-2.4215372064564993,-0.8868947031058804,-2.2311054134374455,1485.7142857142856,-1.0,-1.0,0.780566643579548,
2023-08-11 20:04:41.030000,-8.19277108433735,0.1927710843373494,-5.36144578313253,0.26486817903126914,-7.97608828939301,-4.9662783568362965,3.0,0.7781107781107781,1285.1640513552068,-2.4062700308839804,-1.0548336344035902,-2.6127848027504226,1493.7728937728937,-1.0,-1.0,0.78053912503265,
2023-08-11 20:04:41.037000,-8.240963855421688,0.21686746987951808,-5.36144578313253,0.3016554261189454,-8.012875536480687,-4.978540772532188,3.0,0.7781107781107781,1285.1640513552068,-2.161995221723675,-0.8868947031058804,-2.719655031758056,1504.0293040293038,-1.0,-1.0,0.7805115754393763,
2023-08-11 20:04:41.045000,-8.240963855421688,0.0963855421686747,-5.385542168674699,0.19865113427345185,-8.030042918454935,-4.97608828939301,3.0,0.7781107781107781,1285.1640513552068,-2.3146669774488657,-1.4823145504341246,-3.1318687722160714,1511.3553113553112,-1.0,-1.0,0.7804839929475885,
2023-08-11 20:04:41.053000,-8.25301204819277,0.18072289156626506,-5.349397590361446,0.42918454935622313,-8.128142244022072,-4.9589209074187615,3.0,0.7772227772227773,1286.6323907455012,-1.7955830079832171,-2.077734397762369,-3.360876405803858,1515.018315018315,-1.0,-1.0,0.7804563756799944,
2023-08-11 20:04:41.060000,-8.301204819277109,0.28915662650602414,-5.373493975903615,0.2869405272838749,-8.071735131820969,-4.9074187614960145,3.0,0.7776667776667777,1285.8978018840992,-2.1925295728687133,-2.993764932113514,-2.857059611910728,1516.4835164835163,-1.0,-1.0,0.7804287218817644,
2023-08-11 20:04:41.068000,-8.25301204819277,0.26506024096385544,-5.301204819277109,0.3261802575107296,-8.150214592274677,-4.848559166155733,3.0,0.7776667776667777,1285.8978018840992,-1.6429112522580263,-3.3601771458539718,-3.024998543208438,1516.4835164835163,-1.0,-1.0,0.7804010298659286,
2023-08-11 20:04:41.075000,-8.265060240963855,0.24096385542168675,-5.265060240963856,0.3359901900674433,-8.079092581238504,-4.814224402207235,3.0,0.7776667776667777,1285.8978018840992,-1.612376901112988,-3.6349863061593153,-2.5975176271779037,1512.8205128205127,-1.0,-1.0,0.7803732980530175,
2023-08-11 20:04:41.083000,-8.301204819277109,0.24096385542168675,-5.228915662650603,0.37522992029429797,-8.047210300429184,-4.838749233599018,3.0,0.7776667776667777,1285.8978018840992,-1.6734456034030643,-3.375444321426491,-2.4295786958801937,1505.4945054945053,-1.0,-1.0,0.7803455248607486,
2023-08-11 20:04:41.091000,-8.301204819277109,0.22891566265060243,-5.144578313253012,0.2599632127529123,-8.106069895769465,-4.74310239117106,3.0,0.7776667776667777,1285.8978018840992,-1.429170794242759,-2.06246722218985,-2.7807237340481326,1492.3076923076922,-1.0,-1.0,0.7803177088804041,
2023-08-11 20:04:41.098000,-8.289156626506024,0.16867469879518074,-5.216867469879518,0.29675045984058857,-8.09871244635193,-4.863274064990803,3.0,0.7776667776667777,1285.8978018840992,-0.7726822446244385,0.2428762892605318,-2.628051978322942,1476.923076923077,-1.0,-1.0,0.7802898490209864,
2023-08-11 20:04:41.106000,-8.301204819277109,0.24096385542168675,-5.253012048192772,0.39239730226854685,-8.147762109135499,-4.897608828939301,3.0,0.7776667776667777,1285.8978018840992,-0.8337509469145148,1.5100518617796157,-2.7654565584756137,1460.8058608058607,-1.0,-1.0,0.7802619443758965,
2023-08-11 20:04:41.114000,-8.325301204819278,0.1927710843373494,-5.301204819277109,0.2452483139178418,-8.096259963212752,-4.963825873697118,3.0,0.7776667776667777,1285.8978018840992,-0.5436746110366522,1.9069984266651119,-2.7654565584756137,1446.8864468864467,-1.0,-1.0,0.7802339942380849,
2023-08-11 20:04:41.121000,-8.301204819277109,0.30120481927710846,-5.313253012048193,0.3825873697118332,-8.034947884733292,-5.007970570202329,3.0,0.7776667776667777,1285.8978018840992,-0.05512499271604152,2.0902045335353407,-2.6585863294679797,1432.9670329670328,-1.0,-1.0,0.7802059981143296,
2023-08-11 20:04:41.129000,-8.289156626506024,0.27710843373493976,-5.325301204819278,0.33353770692826484,-8.110974862047822,-4.9736358062538315,3.0,0.7776667776667777,1285.8978018840992,-0.7116135423343621,2.3955480449857225,-2.7043878561855372,1420.5128205128203,-1.0,-1.0,0.7801779557385835,
2023-08-11 20:04:41.137000,-8.301204819277109,0.26506024096385544,-5.313253012048193,0.34825260576333533,-8.152667075413856,-4.983445738810546,3.0,0.7776667776667777,1285.8978018840992,-0.879552473632072,2.151273235825417,-2.475380222597751,1410.989010989011,-1.0,-1.0,0.7801498670843569,
2023-08-11 20:04:41.144000,-8.301204819277109,0.16867469879518074,-5.36144578313253,0.20600858369098712,-8.133047210300429,-4.946658491722869,3.0,0.7776667776667777,1285.8978018840992,-0.9558883514946674,1.8917312510925928,-2.551716100460346,1407.3260073260071,-1.0,-1.0,0.7801217323760955,
2023-08-11 20:04:41.152000,-8.325301204819278,0.21686746987951808,-5.313253012048193,0.4414469650521152,-8.110974862047822,-4.998160637645616,3.0,0.7776667776667777,1285.8978018840992,-0.3452013285939041,1.189441174756715,-2.4143115203076744,1404.3956043956043,-1.0,-1.0,0.7800935520995043,
2023-08-11 20:04:41.160000,-8.313253012048193,0.3132530120481928,-5.289156626506024,0.48068669527896996,-8.081545064377682,-4.96137339055794,3.0,0.7776667776667777,1285.8978018840992,-0.8490181224870339,0.7772274342986998,-2.460113047025232,1400.0,-1.0,-1.0,0.7800653270108094,
2023-08-11 20:04:41.167000,-8.27710843373494,0.22891566265060243,-5.301204819277109,0.2795830778663397,-8.108522378908644,-4.924586143470264,3.0,0.7776667776667777,1285.8978018840992,-0.8490181224870339,0.7772274342986998,-2.460113047025232,1397.069597069597,-1.0,-1.0,0.7800370581449135,
2023-08-11 20:04:41.175000,-8.27710843373494,0.22891566265060243,-5.289156626506024,0.30656039239730226,-8.071735131820969,-4.9442060085836905,3.0,0.7772227772227773,1286.6323907455012,-0.3452013285939041,0.7619602587261807,-2.0631664821397355,1394.8717948717947,-1.0,-1.0,0.7800087468224378,
2023-08-11 20:04:41.183000,-8.27710843373494,0.1927710843373494,-5.289156626506024,0.24034334763948498,-8.081545064377682,-4.892703862660944,3.0,0.7776667776667777,1285.8978018840992,-0.5894761377542095,0.0749373579628219,-1.9257619019870638,1392.6739926739926,-1.0,-1.0,0.7799803945063377,
2023-08-11 20:04:41.190000,-8.240963855421688,0.1927710843373494,-5.27710843373494,0.26241569589209074,-8.039852851011648,-4.875536480686695,3.0,0.7776667776667777,1285.8978018840992,0.601363556902279,0.5482198007109135,-2.170036711147369,1391.2087912087911,-1.0,-1.0,0.7799520030728377,
2023-08-11 20:04:41.198000,-8.240963855421688,0.20481927710843376,-5.265060240963856,0.3384426732066217,-8.09871244635193,-4.9662783568362965,3.0,0.7776667776667777,1285.8978018840992,0.9983101217877752,0.7619602587261807,-2.6127848027504226,1391.2087912087911,-1.0,-1.0,0.7799235749536134,
2023-08-11 20:04:41.206000,-8.240963855421688,0.20481927710843376,-5.301204819277109,0.3850398528510116,-8.093807480073574,-4.919681177191906,3.0,0.7767787767787767,1287.367819376965,0.9372414194976989,1.3268457549093868,-2.643319153895461,1389.7435897435896,-1.0,-1.0,0.7798951128513426,
2023-08-11 20:04:41.213000,-8.265060240963855,0.3614457831325301,-5.313253012048193,0.33353770692826484,-8.06928264868179,-5.012875536480687,3.0,0.7767787767787767,1287.367819376965,1.5937299691160194,1.4031816327719822,-2.628051978322942,1389.7435897435896,-1.0,-1.0,0.7798666195821361,
2023-08-11 20:04:41.221000,-8.265060240963855,0.20481927710843376,-5.349397590361446,0.2452483139178418,-8.103617412630287,-4.946658491722869,3.0,0.7772227772227773,1286.6323907455012,1.0441116485053326,1.3115785793368677,-2.628051978322942,1393.4065934065934,-1.0,-1.0,0.7798380978736115,
2023-08-11 20:04:41.229000,-8.27710843373494,0.20481927710843376,-5.385542168674699,0.34334763948497854,-8.086450030656039,-5.093807480073575,3.0,0.7772227772227773,1286.6323907455012,1.3952566866732714,2.1360060602528983,-3.055532894353476,1400.0,-1.0,-1.0,0.7798095507991099,
2023-08-11 20:04:41.236000,-8.265060240963855,0.14457831325301207,-5.421686746987952,0.19865113427345185,-8.09871244635193,-5.120784794604536,3.0,0.7772227772227773,1286.6323907455012,0.8303711904900654,2.7008915564361042,-3.101334421071033,1407.3260073260071,-1.0,-1.0,0.7797809817841921,
2023-08-11 20:04:41.244000,-8.301204819277109,0.24096385542168675,-5.373493975903615,0.2795830778663397,-8.133047210300429,-5.0030656039239725,3.0,0.7772227772227773,1286.6323907455012,1.0746459996503706,1.4031816327719822,-3.1624031233611096,1416.8498168498168,-1.0,-1.0,0.7797523943348369,
2023-08-11 20:04:41.252000,-8.27710843373494,0.21686746987951808,-5.289156626506024,0.33353770692826484,-8.157572041692212,-4.909871244635193,3.0,0.7772227772227773,1286.6323907455012,1.0746459996503706,0.7924946098712188,-3.2845405279412625,1427.8388278388277,-1.0,-1.0,0.7797237921797658,
2023-08-11 20:04:41.259000,-8.313253012048193,0.22891566265060243,-5.397590361445784,0.3850398528510116,-8.091354996934395,-5.012875536480687,3.0,0.7772227772227773,1286.6323907455012,0.7235009614824317,1.2963114037643486,-3.223471825651186,1437.3626373626373,-1.0,-1.0,0.7796951792622003,
2023-08-11 20:04:41.267000,-8.289156626506024,0.16867469879518074,-5.409638554216868,0.2550582464745555,-8.177191906805641,-5.054567749846719,3.0,0.7772227772227773,1286.6323907455012,0.2807528698793783,1.3573801060544248,-3.7120214439717967,1446.153846153846,-1.0,-1.0,0.7796665597304382,
2023-08-11 20:04:41.275000,-8.397590361445783,0.13253012048192772,-5.325301204819278,0.1520539546290619,-8.16002452483139,-4.909871244635193,3.0,0.7772227772227773,1286.6323907455012,0.6624322591923554,0.0749373579628219,-3.3456092302313385,1452.7472527472526,-1.0,-1.0,0.7796379379273135,
2023-08-11 20:04:41.282000,-8.27710843373494,0.18072289156626506,-5.289156626506024,0.3408951563458001,-8.088902513795217,-4.998160637645616,3.0,0.7772227772227773,1286.6323907455012,0.3723559233144928,0.7161587320086235,-4.185303886719888,1457.8754578754579,-1.0,-1.0,0.7796093183786343,
2023-08-11 20:04:41.290000,-8.301204819277109,0.18072289156626506,-5.313253012048193,0.23053341508277128,-8.06928264868179,-4.968730839975475,3.0,0.7772227772227773,1286.6323907455012,0.2044169920167829,1.387914457199463,-3.559349688246606,1460.8058608058607,-1.0,-1.0,0.7795807057807013,
2023-08-11 20:04:41.298000,-8.265060240963855,0.10843373493975904,-5.301204819277109,0.2329858982219497,-8.120784794604537,-5.005518087063151,3.0,0.7767787767787767,1287.367819376965,0.5555620301847218,1.387914457199463,-3.605151214964163,1460.8058608058607,-1.0,-1.0,0.7795521049869941,
2023-08-11 20:04:41.305000,-8.289156626506024,0.13253012048192772,-5.27710843373494,0.22808093194359289,-8.057020232985899,-4.941753525444512,3.0,0.7772227772227773,1286.6323907455012,0.41815745003205007,1.1436396480391577,-3.4982809859565296,1457.142857142857,-1.0,-1.0,0.7795235208448434,
2023-08-11 20:04:41.313000,-8.27710843373494,0.060240963855421686,-5.301204819277109,0.10300429184549356,-8.086450030656039,-4.954015941140405,3.0,0.7772227772227773,1286.6323907455012,0.3723559233144928,1.3421129304819057,-3.406677932521415,1452.014652014652,-1.0,-1.0,0.7794949583081966,
2023-08-11 20:04:41.321000,-8.228915662650603,0.03614457831325302,-5.253012048192772,0.134886572654813,-8.079092581238504,-4.9515634580012255,3.0,0.7767787767787767,1287.367819376965,0.05174523629159206,0.6245556785735089,-3.8036244974069113,1445.4212454212454,-1.0,-1.0,0.7794664227201489,
2023-08-11 20:04:41.328000,-8.27710843373494,0.07228915662650603,-5.240963855421687,0.16676885346413242,-8.13059472716125,-4.9000613120784795,3.0,0.7767787767787767,1287.367819376965,-0.6810791911893239,0.090204533535341,-3.4677466348114914,1441.0256410256409,-1.0,-1.0,0.7794379194887863,
2023-08-11 20:04:41.336000,-8.265060240963855,0.0,-5.228915662650603,0.07112201103617412,-8.071735131820969,-4.853464132434089,3.0,0.7772227772227773,1286.6323907455012,-1.2917662140900872,0.029135831245264657,-3.391410756948896,1436.6300366300366,-1.0,-1.0,0.7794094537625591,
2023-08-11 20:04:41.344000,-8.240963855421688,0.04819277108433735,-5.289156626506024,0.14469650521152666,-8.061925199264255,-4.988350705088902,3.0,0.7772227772227773,1286.6323907455012,-1.597109725540469,0.13600606025289824,-3.8494260241244684,1429.3040293040292,-1.0,-1.0,0.779381030860707,
2023-08-11 20:04:41.351000,-8.27710843373494,0.0963855421686747,-5.325301204819278,0.24034334763948498,-8.110974862047822,-4.9074187614960145,3.0,0.7772227772227773,1286.6323907455012,-2.0703921682885604,-0.825826000815804,-3.070800069925995,1420.5128205128203,-1.0,-1.0,0.7793526564055866,
2023-08-11 20:04:41.359000,-8.240963855421688,0.060240963855421686,-5.397590361445784,0.17412630288166767,-8.05211526670754,-4.971183323114653,3.0,0.7767787767787767,1287.367819376965,-2.4368043820290186,-1.176971038983743,-3.2998077035137814,1412.4542124542124,-1.0,-1.0,0.7793243360190416,
2023-08-11 20:04:41.367000,-8.240963855421688,0.0963855421686747,-5.373493975903615,0.17412630288166767,-8.06928264868179,-4.9736358062538315,3.0,0.7767787767787767,1287.367819376965,-3.0016898782122245,-3.009032107686033,-3.742555795116835,1408.058608058608,-1.0,-1.0,0.7792960752963044,
2023-08-11 20:04:41.374000,-8.240963855421688,0.10843373493975904,-5.253012048192772,0.2820355610055181,-8.113427345187002,-4.848559166155733,3.0,0.7767787767787767,1287.367819376965,-1.8566517102732933,-3.4670473748616053,-3.0860672454985143,1403.6630036630036,-1.0,-1.0,0.7792678797483151,
2023-08-11 20:04:41.382000,-8.240963855421688,0.27710843373493976,-5.1807228915662655,0.4438994481912937,-8.13059472716125,-4.828939301042305,3.0,0.7767787767787767,1287.367819376965,-1.6887127789755834,-3.6349863061593153,-2.8112580851931708,1400.0,-1.0,-1.0,0.7792397546368699,
2023-08-11 20:04:41.390000,-8.25301204819277,0.2530120481927711,-5.144578313253012,0.3629675045984059,-8.155119558553034,-4.765174739423666,3.0,0.7767787767787767,1287.367819376965,-1.0016898782122248,-3.7113221840219106,-2.643319153895461,1393.4065934065934,628.11279296875,95.52424448547275,0.7792117049794376,
2023-08-11 20:04:41.397000,-8.240963855421688,0.1927710843373494,-5.132530120481928,0.18638871857755976,-8.164929491109747,-4.735744941753525,3.0,0.7767787767787767,1287.367819376965,-0.5436746110366522,-4.016665695472293,-2.628051978322942,1385.3479853479853,-1.0,95.52424448547275,0.7791837356816914,
2023-08-11 20:04:41.405000,-8.240963855421688,0.04819277108433735,-5.204819277108434,0.10055180870631514,-8.123237277743716,-4.801961986511342,3.0,0.7767787767787767,1287.367819376965,0.21968416758930198,-2.673154245090613,-2.4295786958801937,1370.6959706959706,-1.0,95.52424448547275,0.7791558515211805,
2023-08-11 20:04:41.413000,-8.301204819277109,0.2530120481927711,-5.132530120481928,0.45861434702636417,-8.199264255058246,-4.794604537093807,3.0,0.7767787767787767,1287.367819376965,0.769302488199989,-1.4212458481440482,-2.0326321309946973,1353.8461538461538,-1.0,95.52424448547275,0.779128057131558,
2023-08-11 20:04:41.420000,-8.337349397590362,0.43373493975903615,-5.168674698795181,0.5787860208461066,-8.258123850398528,-4.843654199877376,3.0,0.7767787767787767,1287.367819376965,0.15861546529922566,-0.5052153137929033,-1.3303420546588194,1334.7985347985348,-1.0,95.52424448547275,0.7791003569874734,
2023-08-11 20:04:41.428000,-8.289156626506024,0.22891566265060243,-5.253012048192772,0.24034334763948498,-8.09871244635193,-4.838749233599018,3.0,0.7767787767787767,1287.367819376965,0.3723559233144928,1.4795175106345775,-1.3150748790863003,1318.6813186813185,-1.0,95.52424448547275,0.7790727553902566,
2023-08-11 20:04:41.436000,-8.265060240963855,0.16867469879518074,-5.313253012048193,0.269773145309626,-8.110974862047822,-5.039852851011649,3.0,0.7767787767787767,1287.367819376965,1.1204475263679279,2.8993648388788524,-1.9104947264145447,1306.9597069597069,-1.0,95.52424448547275,0.7790452565932456,
2023-08-11 20:04:41.443000,-8.289156626506024,0.1566265060240964,-5.36144578313253,0.20110361741263028,-8.086450030656039,-5.012875536480687,3.0,0.7767787767787767,1287.367819376965,1.1204475263679279,2.8993648388788524,-1.9104947264145447,1300.3663003663003,-1.0,95.52424448547275,0.7790178646302379,
2023-08-11 20:04:41.451000,-8.265060240963855,0.12048192771084337,-5.409638554216868,0.2207234825260576,-8.039852851011648,-5.015328019619865,3.0,0.7767787767787767,1287.367819376965,0.21968416758930198,3.4947846862070966,-1.3303420546588194,1300.3663003663003,-1.0,95.52424448547275,0.778990583176554,
2023-08-11 20:04:41.458000,-8.240963855421688,0.12048192771084337,-5.445783132530121,0.1765787860208461,-8.074187614960147,-5.11587982832618,3.0,0.7767787767787767,1287.367819376965,0.18914981644426382,3.5100518617796155,-2.0020977798496595,1304.7619047619046,-1.0,95.52424448547275,0.7789634158267562,
2023-08-11 20:04:41.466000,-8.228915662650603,0.07228915662650603,-5.493975903614458,0.17903126916002451,-8.064377682403434,-5.172286940527283,3.0,0.7767787767787767,1287.367819376965,0.06701241186411114,3.1283724724666384,-1.8646931996969873,1312.8205128205127,-1.0,95.52424448547275,0.7789363660652088,
2023-08-11 20:04:41.474000,-8.27710843373494,0.060240963855421686,-5.457831325301205,0.12752912323727775,-8.064377682403434,-5.079092581238504,3.0,0.7763347763347762,1288.104089219331,-0.7574150690519194,1.8153953732299974,-1.7272886195443156,1324.5421245421244,-1.0,95.52424448547275,0.7789094371103878,
2023-08-11 20:04:41.481000,-8.27710843373494,0.04819277108433735,-5.421686746987952,0.13243408951563457,-8.14530962599632,-5.054567749846719,3.0,0.7767787767787767,1287.367819376965,-1.1085601072198583,0.33447934269564633,-1.6356855661092011,1338.4615384615383,-1.0,95.52424448547275,0.7788826317604037,
2023-08-11 20:04:41.489000,-8.265060240963855,0.04819277108433735,-5.385542168674699,0.16676885346413242,-8.079092581238504,-5.027590435315757,3.0,0.7767787767787767,1287.367819376965,-1.429170794242759,-0.6120855428005368,-1.773090146261873,1353.8461538461538,-1.0,95.52424448547275,0.7788559525165172,
2023-08-11 20:04:41.497000,-8.265060240963855,0.024096385542168676,-5.36144578313253,0.09809932556713671,-8.137952176578786,-5.007970570202329,3.0,0.7763347763347762,1288.104089219331,-1.9177204125633698,-1.7113221840219108,-1.81889167297943,1369.9633699633698,-1.0,95.52424448547275,0.7788294017395189,
2023-08-11 20:04:41.504000,-8.240963855421688,0.03614457831325302,-5.349397590361446,0.15450643776824033,-8.076640098099325,-4.978540772532188,3.0,0.7767787767787767,1287.367819376965,-1.6887127789755834,-1.8334595886020635,-1.6814870928267585,1385.3479853479853,-1.0,95.52424448547275,0.7788029813603072,
2023-08-11 20:04:41.512000,-8.25301204819277,0.012048192771084338,-5.325301204819278,0.09809932556713671,-8.076640098099325,-4.9736358062538315,3.0,0.7758907758907758,1288.8412017167384,-1.978789114853446,-2.108268748907407,-1.6662199172542393,1395.6043956043954,-1.0,95.52424448547275,0.778776693007359,
2023-08-11 20:04:41.520000,-8.27710843373494,0.07228915662650603,-5.337349397590362,0.14714898835070508,-8.113427345187002,-4.983445738810546,3.0,0.7763347763347762,1288.104089219331,-2.116193695006118,-2.2456733290600788,-2.2616397645824837,1404.3956043956043,-1.0,95.52424448547275,0.7787505380073325,
2023-08-11 20:04:41.527000,-8.289156626506024,0.024096385542168676,-5.313253012048193,0.164316370324954,-8.110974862047822,-4.949110974862047,3.0,0.7763347763347762,1288.104089219331,-1.6887127789755834,-2.108268748907407,-2.246372589009965,1410.989010989011,-1.0,95.52424448547275,0.7787245173342702,
2023-08-11 20:04:41.535000,-8.265060240963855,0.060240963855421686,-5.313253012048193,0.15941140404659718,-8.14530962599632,-5.0030656039239725,3.0,0.7763347763347762,1288.104089219331,-1.8413845347007742,-1.9555969931822161,-2.6127848027504226,1413.1868131868132,-1.0,95.52424448547275,0.778698631623137,
2023-08-11 20:04:41.543000,-8.240963855421688,0.03614457831325302,-5.36144578313253,0.10545677498467197,-8.066830165542612,-5.012875536480687,3.0,0.7763347763347762,1288.104089219331,-1.2154303362274919,-1.6807878328768726,-2.7654565584756137,1413.1868131868132,-1.0,95.52424448547275,0.7786728811950289,
2023-08-11 20:04:41.550000,-8.289156626506024,0.10843373493975904,-5.313253012048193,0.19865113427345185,-8.137952176578786,-5.0324954015941135,3.0,0.7763347763347762,1288.104089219331,-1.0016898782122248,-1.9708641687547352,-2.9639298409183614,1409.5238095238094,-1.0,95.52424448547275,0.7786472660519936,
2023-08-11 20:04:41.558000,-8.240963855421688,0.04819277108433735,-5.349397590361446,0.08828939301042305,-8.108522378908644,-4.9515634580012255,3.0,0.7763347763347762,1288.104089219331,-1.6887127789755834,-2.093001573334888,-3.101334421071033,1402.9304029304028,-1.0,95.52424448547275,0.7786217857554011,
2023-08-11 20:04:41.566000,-8.228915662650603,0.060240963855421686,-5.349397590361446,0.19374616799509503,-7.990803188228081,-5.054567749846719,3.0,0.7763347763347762,1288.104089219331,-1.3833692675252018,-2.3983450847852694,-3.406677932521415,1397.069597069597,-1.0,95.52424448547275,0.7785964395823467,
2023-08-11 20:04:41.573000,-8.240963855421688,0.0963855421686747,-5.373493975903615,0.11281422440220723,-8.091354996934395,-5.0324954015941135,3.0,0.7763347763347762,1288.104089219331,-1.5665753743954307,-2.1846046267700023,-2.9486626653458425,1391.2087912087911,-1.0,95.52424448547275,0.7785712266728205,
2023-08-11 20:04:41.581000,-8.27710843373494,0.012048192771084338,-5.313253012048193,0.12017167381974249,-8.064377682403434,-4.983445738810546,3.0,0.7763347763347762,1288.104089219331,-1.4139036186702398,-2.993764932113514,-3.1166015966435525,1387.5457875457876,-1.0,95.52424448547275,0.778546146019053,
2023-08-11 20:04:41.589000,-8.25301204819277,0.060240963855421686,-5.313253012048193,0.2673206621704476,-8.106069895769465,-4.924586143470264,3.0,0.7763347763347762,1288.104089219331,-1.5055066721053545,-2.795291649670766,-3.3761435813763767,1384.6153846153845,-1.0,95.52424448547275,0.7785211963285091,
2023-08-11 20:04:41.596000,-8.301204819277109,0.03614457831325302,-5.289156626506024,0.07847946045370938,-8.125689760882894,-4.927038626609442,3.0,0.7763347763347762,1288.104089219331,-1.3681020919526827,-2.841093176388323,-3.223471825651186,1383.150183150183,-1.0,95.52424448547275,0.7784963760372264,
2023-08-11 20:04:41.604000,-8.265060240963855,0.04819277108433735,-5.216867469879518,0.14469650521152666,-8.118332311465359,-4.9074187614960145,3.0,0.7763347763347762,1288.104089219331,-0.9100868247771102,-4.352543558067712,-3.238739001223705,1386.080586080586,-1.0,95.52424448547275,0.7784716833241561,
2023-08-11 20:04:41.612000,-8.27710843373494,0.14457831325301207,-5.19277108433735,0.22562844880441446,-8.13059472716125,-4.880441446965052,3.0,0.7763347763347762,1288.104089219331,-1.9635219392809269,-3.604451955014277,-2.5364489248878272,1392.6739926739926,-1.0,95.52424448547275,0.7784471161264612,
2023-08-11 20:04:41.619000,-8.313253012048193,0.0,-5.204819277108434,0.1079092581238504,-8.096259963212752,-4.757817290006131,3.0,0.7763347763347762,1288.104089219331,-2.1925295728687133,-3.2991084435638953,-2.719655031758056,1402.197802197802,-1.0,95.52424448547275,0.7784226721557337,
2023-08-11 20:04:41.627000,-8.337349397590362,-0.03614457831325302,-5.19277108433735,0.07112201103617412,-8.206621704475781,-4.814224402207235,3.0,0.7763347763347762,1288.104089219331,-1.7497814812656598,-3.207505390128781,-2.170036711147369,1412.4542124542124,-1.0,95.52424448547275,0.7783983489150677,
2023-08-11 20:04:41.635000,-8.325301204819278,0.03614457831325302,-5.1807228915662655,0.134886572654813,-8.169834457388106,-4.890251379521765,3.0,0.7763347763347762,1288.104089219331,-1.9329875881358887,-3.2685740924188575,-2.673853505040499,1422.7106227106226,-1.0,95.52424448547275,0.7783741437169338,
2023-08-11 20:04:41.642000,-8.27710843373494,0.060240963855421686,-5.216867469879518,0.14469650521152666,-8.120784794604537,-4.8779889638258735,3.0,0.7758907758907758,1288.8412017167384,-2.1467280461511558,-2.1846046267700023,-2.170036711147369,1432.9670329670328,-1.0,95.52424448547275,0.7783500538405458,
2023-08-11 20:04:41.650000,-8.265060240963855,0.03614457831325302,-5.289156626506024,0.15695892090741875,-8.123237277743716,-4.934396076026977,3.0,0.7758907758907758,1288.8412017167384,-2.009323465998484,-1.8487267641745826,-2.4295786958801937,1443.956043956044,-1.0,95.52424448547275,0.7783260762427258,
2023-08-11 20:04:41.658000,-8.25301204819277,0.03614457831325302,-5.313253012048193,0.0956468424279583,-8.152667075413856,-4.9074187614960145,3.0,0.7758907758907758,1288.8412017167384,-1.8261173591282551,-0.5662840160829796,-2.505914573742789,1453.4798534798533,-1.0,95.52424448547275,0.7783022074283138,
2023-08-11 20:04:41.665000,-8.25301204819277,0.04819277108433735,-5.36144578313253,0.1496014714898835,-8.125689760882894,-5.0324954015941135,3.0,0.7754467754467754,1289.5791583166333,-2.0551249927160415,0.38028086941320355,-2.4295786958801937,1460.8058608058607,-1.0,95.52424448547275,0.7782784436180069,
2023-08-11 20:04:41.673000,-8.313253012048193,0.07228915662650603,-5.36144578313253,0.15941140404659718,-8.106069895769465,-5.020232985898222,3.0,0.7758907758907758,1288.8412017167384,-1.9329875881358887,-0.19987180234252158,-2.857059611910728,1467.3992673992673,-1.0,95.52424448547275,0.7782547809157624,
2023-08-11 20:04:41.681000,-8.27710843373494,0.07228915662650603,-5.349397590361446,0.15941140404659718,-8.106069895769465,-4.993255671367259,3.0,0.7758907758907758,1288.8412017167384,-1.9177204125633698,-0.4441466115028269,-2.5211817493153084,1470.3296703296703,-1.0,95.52424448547275,0.7782312157012239,
2023-08-11 20:04:41.688000,-8.301204819277109,0.07228915662650603,-5.325301204819278,0.1226241569589209,-8.079092581238504,-4.934396076026977,3.0,0.7758907758907758,1288.8412017167384,-2.131460870578637,-1.3143756191364147,-2.460113047025232,1471.062271062271,-1.0,95.52424448547275,0.7782077443516081,
2023-08-11 20:04:41.696000,-8.25301204819277,0.03614457831325302,-5.265060240963856,0.11281422440220723,-8.076640098099325,-4.892703862660944,3.0,0.7758907758907758,1288.8412017167384,-2.1467280461511558,-1.1159023366936667,-2.0020977798496595,1469.5970695970695,-1.0,95.52424448547275,0.7781843629956974,
2023-08-11 20:04:41.704000,-8.25301204819277,0.04819277108433735,-5.240963855421687,0.13733905579399142,-8.042305334150827,-4.851011649294911,3.0,0.7758907758907758,1288.8412017167384,-2.8032165957694763,-1.8181924130295444,-2.7654565584756137,1463.7362637362637,-1.0,95.52424448547275,0.778161067683104,
2023-08-11 20:04:41.711000,-8.204819277108435,0.04819277108433735,-5.228915662650603,0.17412630288166767,-7.9662783568362965,-4.855916615573268,3.0,0.7758907758907758,1288.8412017167384,-2.543674611036652,-1.89452829089214,-2.8265252607656897,1456.4102564102564,-1.0,95.52424448547275,0.7781378544039976,
2023-08-11 20:04:41.719000,-8.265060240963855,0.08433734939759037,-5.240963855421687,0.18393623543838136,-8.03740036787247,-4.855916615573268,3.0,0.7758907758907758,1288.8412017167384,-2.543674611036652,-1.89452829089214,-2.8265252607656897,1449.8168498168498,-1.0,95.52424448547275,0.7781147189697759,
2023-08-11 20:04:41.727000,-8.240963855421688,0.012048192771084338,-5.216867469879518,0.1226241569589209,-8.106069895769465,-4.875536480686695,3.0,0.7758907758907758,1288.8412017167384,-3.4749723209603163,-2.535749664937941,-3.605151214964163,1443.956043956044,-1.0,95.52424448547275,0.7780916571912537,
2023-08-11 20:04:41.734000,-8.301204819277109,0.060240963855421686,-5.253012048192772,0.13979153893316984,-8.128142244022072,-4.8779889638258735,3.0,0.7758907758907758,1288.8412017167384,-3.0016898782122245,-2.123535924479926,-3.2845405279412625,1437.3626373626373,-1.0,95.52424448547275,0.778068665024927,
2023-08-11 20:04:41.742000,-8.313253012048193,0.03614457831325302,-5.27710843373494,0.12017167381974249,-8.125689760882894,-4.941753525444512,3.0,0.7754467754467754,1289.5791583166333,-3.07802575607482,-2.627352718373056,-3.3761435813763767,1432.2344322344322,-1.0,95.52424448547275,0.7780457384420686,
2023-08-11 20:04:41.750000,-8.373493975903616,0.0,-5.240963855421687,0.10055180870631514,-8.250766400980993,-4.865726548129981,3.0,0.7754467754467754,1289.5791583166333,-3.24596468737253,-2.0472000466173306,-3.788357321834392,1429.3040293040292,-1.0,95.52424448547275,0.7780228732973233,
2023-08-11 20:04:41.757000,-8.373493975903616,0.08433734939759037,-5.265060240963856,0.2035561005518087,-8.245861434702636,-4.892703862660944,3.0,0.7758907758907758,1288.8412017167384,-3.41390361867024,-2.993764932113514,-3.757822970689354,1427.106227106227,-1.0,95.52424448547275,0.7780000653241769,
2023-08-11 20:04:41.765000,-8.349397590361447,0.060240963855421686,-5.289156626506024,0.1618638871857756,-8.196811771919068,-4.939301042305334,3.0,0.7758907758907758,1288.8412017167384,-3.9024532369908504,-3.6197191305867964,-3.7120214439717967,1426.3736263736262,-1.0,95.52424448547275,0.7779773104380767,
2023-08-11 20:04:41.773000,-8.337349397590362,0.012048192771084338,-5.253012048192772,0.06621704475781728,-8.201716738197424,-4.83629675045984,3.0,0.7754467754467754,1289.5791583166333,-4.23833109958627,-3.2991084435638953,-3.360876405803858,1430.03663003663,-1.0,95.52424448547275,0.7779546047725857,
2023-08-11 20:04:41.780000,-8.361445783132531,0.03614457831325302,-5.204819277108434,0.1765787860208461,-8.245861434702636,-4.824034334763948,3.0,0.7754467754467754,1289.5791583166333,-4.360468504166423,-3.2227725657013,-2.7349222073305754,1435.8974358974358,-1.0,95.52424448547275,0.7779319445452326,
2023-08-11 20:04:41.788000,-8.361445783132531,0.03614457831325302,-5.19277108433735,0.1496014714898835,-8.167381974248926,-4.853464132434089,3.0,0.7754467754467754,1289.5791583166333,-4.360468504166423,-3.7876580618845064,-2.841792436338209,1442.4908424908424,-1.0,95.52424448547275,0.7779093260297514,
2023-08-11 20:04:41.796000,-8.301204819277109,0.024096385542168676,-5.168674698795181,0.07112201103617412,-8.155119558553034,-4.794604537093807,3.0,0.7754467754467754,1289.5791583166333,-4.360468504166423,-3.8334595886020635,-3.101334421071033,1448.3516483516482,-1.0,95.52424448547275,0.7778867454202312,
2023-08-11 20:04:41.803000,-8.313253012048193,0.03614457831325302,-5.144578313253012,0.10300429184549356,-8.135499693439607,-4.721030042918454,3.0,0.7754467754467754,1289.5791583166333,-4.08565934386108,-3.940329817609697,-2.643319153895461,1451.2820512820513,-1.0,95.52424448547275,0.7778641988638713,
2023-08-11 20:04:41.811000,-8.373493975903616,0.12048192771084337,-5.096385542168675,0.29429797670141017,-8.199264255058246,-4.713672593500919,3.0,0.7754467754467754,1289.5791583166333,-4.070392168288561,-3.55865042829672,-2.719655031758056,1452.014652014652,-1.0,95.52424448547275,0.7778416827590392,
2023-08-11 20:04:41.819000,-8.361445783132531,0.0963855421686747,-5.072289156626506,0.17167381974248927,-8.20907418761496,-4.799509503372164,3.0,0.7750027750027749,1290.3179604697796,-3.9787891148534458,-3.024299283258552,-2.460113047025232,1447.6190476190475,-1.0,95.52424448547275,0.7778191937440475,
2023-08-11 20:04:41.826000,-8.313253012048193,0.10843373493975904,-5.144578313253012,0.22808093194359289,-8.133047210300429,-4.770079705702023,3.0,0.7750027750027749,1290.3179604697796,-3.5665753743954305,-2.077734397762369,-2.7501893829030943,1441.0256410256409,-1.0,95.52424448547275,0.7777967285469263,
2023-08-11 20:04:41.834000,-8.325301204819278,0.12048192771084337,-5.1807228915662655,0.19865113427345185,-8.13059472716125,-4.782342121397915,3.0,0.7754467754467754,1289.5791583166333,-3.016957053784744,-1.8334595886020635,-2.32270846687256,1435.164835164835,-1.0,-1.0,0.7777742839517624,
2023-08-11 20:04:41.841000,-8.373493975903616,0.08433734939759037,-5.19277108433735,0.18393623543838136,-8.14530962599632,-4.8412017167381975,3.0,0.7754467754467754,1289.5791583166333,-3.5207738476778734,-1.2380397412738193,-2.4295786958801937,1430.03663003663,-1.0,-1.0,0.7777518569446549,
2023-08-11 20:04:41.849000,-8.337349397590362,0.07228915662650603,-5.228915662650603,0.12752912323727775,-8.172286940527284,-4.875536480686695,3.0,0.7754467754467754,1289.5791583166333,-3.398636443097721,-1.0395664588310711,-2.4143115203076744,1426.3736263736262,-1.0,-1.0,0.7777294446027072,
2023-08-11 20:04:41.857000,-8.325301204819278,0.04819277108433735,-5.204819277108434,0.14469650521152666,-8.216431637032494,-4.8706315144083385,3.0,0.7754467754467754,1289.5791583166333,-4.039857817143522,-0.8716275275333613,-2.4448458714527126,1425.6410256410256,-1.0,-1.0,0.7777070439819057,
2023-08-11 20:04:41.864000,-8.289156626506024,0.04819277108433735,-5.240963855421687,0.17412630288166767,-8.13059472716125,-4.875536480686695,3.0,0.7754467754467754,1289.5791583166333,-4.329934153021385,-0.5968183672280177,-2.124235184429812,1423.4432234432234,-1.0,-1.0,0.7776846522703126,
2023-08-11 20:04:41.872000,-8.27710843373494,0.03614457831325302,-5.1807228915662655,0.16922133660331085,-8.09871244635193,-4.777437155119558,3.0,0.7754467754467754,1289.5791583166333,-4.5589417866091715,-1.2685740924188573,-2.2769069401550026,1421.9780219780218,-1.0,-1.0,0.7776622667911581,
2023-08-11 20:04:41.880000,-8.25301204819277,0.0,-5.1807228915662655,0.13243408951563457,-8.059472716125077,-4.770079705702023,3.0,0.7754467754467754,1289.5791583166333,-4.91008682477711,-1.5128489015791629,-2.124235184429812,1421.9780219780218,-1.0,-1.0,0.7776398851439511,
2023-08-11 20:04:41.887000,-8.27710843373494,0.024096385542168676,-5.144578313253012,0.12998160637645614,-8.049662783568362,-4.733292458614347,3.0,0.7750027750027749,1290.3179604697796,-5.016957053784743,-1.6197191305867964,-2.124235184429812,1426.3736263736262,-1.0,-1.0,0.777617505047045,
2023-08-11 20:04:41.895000,-8.265060240963855,0.024096385542168676,-5.144578313253012,0.13243408951563457,-8.06928264868179,-4.72838749233599,3.0,0.7750027750027749,1290.3179604697796,-5.154361633937415,-1.8181924130295444,-2.2311054134374455,1431.5018315018315,-1.0,-1.0,0.7775951240618337,
2023-08-11 20:04:41.903000,-8.265060240963855,0.012048192771084338,-5.132530120481928,0.09319435928877988,-8.093807480073574,-4.792152053954629,3.0,0.7750027750027749,1290.3179604697796,-5.123827282792377,-1.375444321426491,-2.4295786958801937,1436.6300366300366,-1.0,-1.0,0.7775727398593039,
2023-08-11 20:04:41.910000,-8.301204819277109,0.012048192771084338,-5.156626506024097,0.10300429184549356,-8.120784794604537,-4.792152053954629,3.0,0.7750027750027749,1290.3179604697796,-5.200163160654973,-1.3143756191364147,-2.5211817493153084,1439.5604395604394,-1.0,-1.0,0.7775503503366634,
2023-08-11 20:04:41.918000,-8.349397590361447,0.012048192771084338,-5.19277108433735,0.08828939301042305,-8.162477007970569,-4.809319435928877,3.0,0.7750027750027749,1290.3179604697796,-5.062758580502301,-0.8868947031058804,-2.475380222597751,1442.4908424908424,-1.0,-1.0,0.7775279534670646,
2023-08-11 20:04:41.926000,-8.349397590361447,0.0,-5.1807228915662655,0.08583690987124463,-8.236051502145923,-4.794604537093807,3.0,0.7750027750027749,1290.3179604697796,-5.368102091952682,-0.41361226035778875,-2.719655031758056,1445.4212454212454,-1.0,-1.0,0.7775055472979653,
2023-08-11 20:04:41.933000,-8.373493975903616,0.0,-5.204819277108434,0.06621704475781728,-8.182096873083998,-4.804414469650521,3.0,0.7750027750027749,1290.3179604697796,-5.3375677408076445,-0.07773439776236893,-2.2311054134374455,1447.6190476190475,-1.0,-1.0,0.77748312994893,
2023-08-11 20:04:41.941000,-8.397590361445783,-0.024096385542168676,-5.19277108433735,0.1079092581238504,-8.243408951563458,-4.8412017167381975,3.0,0.7750027750027749,1290.3179604697796,-5.948254763708408,0.13600606025289824,-2.4143115203076744,1446.8864468864467,-1.0,-1.0,0.777460699470216,
2023-08-11 20:04:41.949000,-8.373493975903616,-0.03614457831325302,-5.216867469879518,0.041692213366033105,-8.196811771919068,-4.922133660331085,3.0,0.7750027750027749,1290.3179604697796,-5.932987588135888,0.27341064040557,-2.475380222597751,1447.6190476190475,-1.0,-1.0,0.7774382538601233,
2023-08-11 20:04:41.956000,-8.373493975903616,-0.04819277108433735,-5.1807228915662655,0.0956468424279583,-8.25567136725935,-4.831391784181483,3.0,0.7750027750027749,1290.3179604697796,-5.734514305693141,0.39554804498572266,-2.139502360002331,1446.8864468864467,-1.0,-1.0,0.777415791070941,
2023-08-11 20:04:41.964000,-8.373493975903616,-0.03614457831325302,-5.19277108433735,0.014714898835070508,-8.169834457388106,-4.797057020232986,3.0,0.7750027750027749,1290.3179604697796,-5.642911252258026,0.27341064040557,-2.2005710622924073,1446.153846153846,-1.0,-1.0,0.7773933090247584,
2023-08-11 20:04:41.972000,-8.325301204819278,-0.024096385542168676,-5.19277108433735,0.06376456161863887,-8.125689760882894,-4.792152053954629,3.0,0.774114774114774,1291.7981072555206,-5.856651710273293,0.7772274342986998,-2.7807237340481326,1443.2234432234432,-1.0,-1.0,0.7773708056182719,
2023-08-11 20:04:41.979000,-8.301204819277109,0.0,-5.253012048192772,0.08338442673206621,-8.101164929491109,-4.922133660331085,3.0,0.7745587745587745,1291.0576096302666,-5.612376901112988,0.9451663655964097,-3.024998543208438,1438.8278388278388,-1.0,-1.0,0.777348278578023,
2023-08-11 20:04:41.987000,-8.289156626506024,-0.012048192771084338,-5.27710843373494,0.11771919068056406,-8.11587982832618,-4.9074187614960145,3.0,0.7750027750027749,1290.3179604697796,-5.856651710273293,1.3421129304819057,-3.605151214964163,1435.8974358974358,-1.0,-1.0,0.7773257258275139,
2023-08-11 20:04:41.995000,-8.301204819277109,0.024096385542168676,-5.325301204819278,0.09809932556713671,-8.125689760882894,-4.931943592887799,3.0,0.7745587745587745,1291.0576096302666,-5.856651710273293,1.3421129304819057,-3.605151214964163,1432.9670329670328,-1.0,-1.0,0.7773031457588517,
2023-08-11 20:04:42.002000,-8.313253012048193,0.0,-5.349397590361446,0.09809932556713671,-8.184549356223176,-4.97608828939301,3.0,0.7745587745587745,1291.0576096302666,-5.917720412563369,1.189441174756715,-3.941029077559583,1432.2344322344322,-1.0,-1.0,0.7772805366744953,
2023-08-11 20:04:42.010000,-8.325301204819278,0.0,-5.385542168674699,0.08828939301042305,-8.167381974248926,-5.054567749846719,3.0,0.7750027750027749,1290.3179604697796,-6.635277664471767,0.8077617854437379,-4.170036711147369,1432.2344322344322,-1.0,-1.0,0.7772578967837964,
2023-08-11 20:04:42.018000,-8.301204819277109,-0.012048192771084338,-5.373493975903615,0.09319435928877988,-8.125689760882894,-5.047210300429184,3.0,0.7750027750027749,1290.3179604697796,-7.123827282792377,0.029135831245264657,-4.750189382903094,1435.164835164835,-1.0,-1.0,0.7772352247544148,
2023-08-11 20:04:42.025000,-8.27710843373494,-0.04819277108433735,-5.349397590361446,-0.0269773145309626,-8.189454322501533,-4.941753525444512,3.0,0.7750027750027749,1290.3179604697796,-7.505506672105354,-0.825826000815804,-4.292174115727522,1441.0256410256409,-1.0,-1.0,0.7772125194235066,
2023-08-11 20:04:42.033000,-8.25301204819277,-0.07228915662650603,-5.27710843373494,0.06376456161863887,-8.081545064377682,-4.971183323114653,3.0,0.7745587745587745,1291.0576096302666,-8.497873084319094,-2.06246722218985,-4.444845871452713,1449.8168498168498,-1.0,-1.0,0.7771897796701334,
2023-08-11 20:04:42.041000,-8.25301204819277,-0.060240963855421686,-5.253012048192772,-0.014714898835070508,-8.064377682403434,-4.9368485591661555,3.0,0.7745587745587745,1291.0576096302666,-9.093292931647339,-2.444146611502827,-4.2311054134374455,1459.3406593406592,-1.0,-1.0,0.7771670045342867,
2023-08-11 20:04:42.048000,-8.25301204819277,-0.060240963855421686,-5.216867469879518,0.1103617412630288,-8.010423053341508,-4.833844267320662,3.0,0.7745587745587745,1291.0576096302666,-9.703979954548101,-4.031932871044812,-3.9257619019870638,1468.8644688644688,-1.0,-1.0,0.777144193028172,
2023-08-11 20:04:42.056000,-8.216867469879519,-0.04819277108433735,-5.144578313253012,0.007357449417535254,-8.044757817290005,-4.725935009196811,3.0,0.7745587745587745,1291.0576096302666,-10.268865450731308,-5.1769710389837424,-3.971563428704621,1476.923076923077,-1.0,-1.0,0.7771213442675713,
2023-08-11 20:04:42.064000,-8.265060240963855,-0.04819277108433735,-5.096385542168675,-0.007357449417535254,-8.093807480073574,-4.703862660944206,3.0,0.7745587745587745,1291.0576096302666,-10.787949420196957,-5.680787832876873,-4.063166482139736,1483.5164835164835,-1.0,-1.0,0.7770984573162272,
2023-08-11 20:04:42.071000,-8.289156626506024,-0.024096385542168676,-5.024096385542169,0.03923973022685469,-8.155119558553034,-4.657265481299816,3.0,0.7745587745587745,1291.0576096302666,-10.849018122487033,-6.2762076802051165,-3.360876405803858,1489.3772893772893,-1.0,-1.0,0.7770755310621213,
2023-08-11 20:04:42.079000,-8.313253012048193,0.0,-4.963855421686747,0.09319435928877988,-8.17964438994482,-4.571428571428571,3.0,0.7745587745587745,1291.0576096302666,-11.26123186294505,-6.8410931763883225,-2.7349222073305754,1492.3076923076922,-1.0,-1.0,0.7770525643708746,
2023-08-11 20:04:42.087000,-8.373493975903616,0.024096385542168676,-4.975903614457832,0.1496014714898835,-8.231146535867566,-4.62047823421214,3.0,0.7745587745587745,1291.0576096302666,-11.826117359128254,-6.23040615348756,-2.5364489248878272,1493.7728937728937,-1.0,-1.0,0.7770295560902772,
2023-08-11 20:04:42.094000,-8.373493975903616,0.03614457831325302,-4.963855421686747,0.12752912323727775,-8.206621704475781,-4.578786020846106,3.0,0.7745587745587745,1291.0576096302666,-11.887186061418332,-6.093001573334888,-2.628051978322942,1492.3076923076922,-1.0,-1.0,0.7770065050552732,
2023-08-11 20:04:42.102000,-8.361445783132531,0.060240963855421686,-4.963855421686747,0.11281422440220723,-8.191906805640711,-4.63519313304721,3.0,0.7745587745587745,1291.0576096302666,-12.253598275158788,-5.070100809976109,-2.9944641920633996,1489.3772893772893,-1.0,-1.0,0.7769834102321591,
2023-08-11 20:04:42.110000,-8.421686746987952,0.08433734939759037,-4.9879518072289155,0.24770079705702022,-8.25567136725935,-4.667075413856529,3.0,0.7745587745587745,1291.0576096302666,-11.90245323699085,-3.4975817260066435,-2.475380222597751,1487.179487179487,-1.0,-1.0,0.7769602707041374,
2023-08-11 20:04:42.117000,-8.44578313253012,0.10843373493975904,-5.048192771084338,0.17903126916002451,-8.265481299816063,-4.689147762109135,3.0,0.7745587745587745,1291.0576096302666,-11.994056290425965,-2.4288794359303076,-3.4219451080939343,1485.7142857142856,-1.0,-1.0,0.7769370855297475,
2023-08-11 20:04:42.125000,-8.457831325301205,0.13253012048192772,-5.120481927710844,0.25015328019619865,-8.329245861434702,-4.779889638258736,3.0,0.774114774114774,1291.7981072555206,-12.177262397296193,-1.4365130237165673,-3.8036244974069113,1480.5860805860805,-1.0,-1.0,0.7769138536121435,
2023-08-11 20:04:42.133000,-8.493975903614459,0.13253012048192772,-5.132530120481928,0.269773145309626,-8.299816063764561,-4.814224402207235,3.0,0.774114774114774,1291.7981072555206,-12.146728046151155,-0.9937649321135139,-3.452479459238972,1476.1904761904761,-1.0,-1.0,0.7768905738560019,
2023-08-11 20:04:42.140000,-8.46987951807229,0.13253012048192772,-5.168674698795181,0.20846106683016552,-8.282648681790313,-4.811771919068057,3.0,0.774114774114774,1291.7981072555206,-12.253598275158788,-1.207505390128781,-3.192937474506148,1468.131868131868,-1.0,-1.0,0.7768672451227667,
2023-08-11 20:04:42.148000,-8.46987951807229,0.13253012048192772,-5.0843373493975905,0.2673206621704476,-8.299816063764561,-4.740649908031882,3.0,0.774114774114774,1291.7981072555206,-12.299399801876346,-1.6960550084493917,-3.2082046500786667,1457.8754578754579,-1.0,-1.0,0.7768438659611772,
2023-08-11 20:04:42.156000,-8.44578313253012,0.10843373493975904,-5.120481927710844,0.18638871857755976,-8.260576333537706,-4.718577559779276,3.0,0.774114774114774,1291.7981072555206,-12.57420896218169,-2.4288794359303076,-3.2540061767962243,1449.8168498168498,-1.0,-1.0,0.7768204347842969,
2023-08-11 20:04:42.163000,-8.397590361445783,0.08433734939759037,-5.0843373493975905,0.21091354996934394,-8.177191906805641,-4.713672593500919,3.0,0.774114774114774,1291.7981072555206,-12.543674611036652,-3.176971038983743,-2.475380222597751,1445.4212454212454,-1.0,-1.0,0.7767969500249718,
2023-08-11 20:04:42.171000,-8.373493975903616,0.0963855421686747,-5.0120481927710845,0.19619865113427343,-8.206621704475781,-4.6327406499080315,3.0,0.774114774114774,1291.7981072555206,-12.635277664471767,-3.5281160771516817,-2.7807237340481326,1446.153846153846,-1.0,-1.0,0.776773410142303,
2023-08-11 20:04:42.179000,-8.3855421686747,0.060240963855421686,-5.024096385542169,0.1520539546290619,-8.27038626609442,-4.654812998160637,3.0,0.774114774114774,1291.7981072555206,-12.620010488899247,-3.6807878328768724,-2.460113047025232,1449.084249084249,-1.0,-1.0,0.7767498137671823,
2023-08-11 20:04:42.186000,-8.3855421686747,0.0963855421686747,-5.0,0.2207234825260576,-8.177191906805641,-4.664622930717351,3.0,0.774114774114774,1291.7981072555206,-12.818483771341995,-3.6655206573043535,-2.689120680613018,1454.9450549450548,-1.0,-1.0,0.7767261596890076,
2023-08-11 20:04:42.194000,-8.373493975903616,0.08433734939759037,-5.0361445783132535,0.18393623543838136,-8.211526670754138,-4.694052728387492,3.0,0.774114774114774,1291.7981072555206,-12.787949420196957,-2.5662840160829794,-3.5135481615290485,1461.5384615384614,-1.0,-1.0,0.7767024467150879,
2023-08-11 20:04:42.202000,-8.433734939759036,0.10843373493975904,-5.096385542168675,0.20846106683016552,-8.211526670754138,-4.711220110361741,3.0,0.774114774114774,1291.7981072555206,-12.635277664471767,-1.6960550084493917,-3.696754268399278,1470.3296703296703,-1.0,-1.0,0.7766786736794464,
2023-08-11 20:04:42.209000,-8.44578313253012,0.12048192771084337,-5.072289156626506,0.22562844880441446,-8.292458614347026,-4.767627222562845,3.0,0.774114774114774,1291.7981072555206,-12.818483771341995,-0.8868947031058804,-4.521181749315308,1476.1904761904761,-1.0,-1.0,0.7766548395904578,
2023-08-11 20:04:42.217000,-8.457831325301205,0.12048192771084337,-5.120481927710844,0.2158185162477008,-8.33169834457388,-4.787247087676272,3.0,0.774114774114774,1291.7981072555206,-12.864285298059553,-0.4746809626478651,-5.040265718780957,1481.3186813186812,-1.0,-1.0,0.7766309434806872,
2023-08-11 20:04:42.224000,-8.44578313253012,0.12048192771084337,-5.144578313253012,0.21827099938687922,-8.248313917841815,-4.826486817903127,3.0,0.774114774114774,1291.7981072555206,-13.169628809509934,-0.459413787075346,-5.498280985956529,1484.2490842490843,-1.0,-1.0,0.7766069842883083,
2023-08-11 20:04:42.232000,-8.457831325301205,0.12048192771084337,-5.19277108433735,0.2329858982219497,-8.324340895156345,-4.838749233599018,3.0,0.7736707736707735,1292.539454806313,-13.429170794242758,-0.3525435580677124,-5.941029077559583,1486.4468864468863,-1.0,-1.0,0.7765829611540382,
2023-08-11 20:04:42.240000,-8.433734939759036,0.13253012048192772,-5.19277108433735,0.2673206621704476,-8.248313917841815,-4.833844267320662,3.0,0.774114774114774,1291.7981072555206,-13.490239496532835,-0.9479634053959567,-6.078433657712255,1488.6446886446886,-1.0,-1.0,0.7765588732603885,
2023-08-11 20:04:42.247000,-8.3855421686747,0.16867469879518074,-5.19277108433735,0.33108522378908645,-8.211526670754138,-4.8412017167381975,3.0,0.774114774114774,1291.7981072555206,-13.688712778975583,-1.375444321426491,-6.414311520307675,1490.8424908424906,-1.0,-1.0,0.7765347196812965,
2023-08-11 20:04:42.255000,-8.397590361445783,0.16867469879518074,-5.156626506024097,0.23053341508277128,-8.272838749233598,-4.782342121397915,3.0,0.7736707736707735,1292.539454806313,-13.841384534700774,-1.360177145853972,-6.47538022259775,1490.10989010989,-1.0,-1.0,0.7765104997102581,
2023-08-11 20:04:42.263000,-8.397590361445783,0.14457831325301207,-5.168674698795181,0.2550582464745555,-8.191906805640711,-4.8412017167381975,3.0,0.774114774114774,1291.7981072555206,-14.207796748441233,-2.1998718023425217,-6.643319153895461,1487.179487179487,-1.0,-1.0,0.7764862127095872,
2023-08-11 20:04:42.270000,-8.361445783132531,0.16867469879518074,-5.168674698795181,0.21827099938687922,-8.201716738197424,-4.770079705702023,3.0,0.774114774114774,1291.7981072555206,-14.207796748441233,-2.1998718023425217,-6.643319153895461,1482.7838827838827,-1.0,-1.0,0.776461858098216,
2023-08-11 20:04:42.278000,-8.349397590361447,0.16867469879518074,-5.144578313253012,0.2722256284488044,-8.228694052728388,-4.789699570815451,3.0,0.7732267732267731,1293.2816537467702,-14.406270030883979,-2.6426198939455747,-6.689120680613018,1474.7252747252746,-1.0,-1.0,0.7764374355200993,
2023-08-11 20:04:42.286000,-8.361445783132531,0.16867469879518074,-5.1084337349397595,0.22317596566523604,-8.17964438994482,-4.755364806866953,3.0,0.7736707736707735,1292.539454806313,-14.192529572868713,-3.131169512266186,-7.086067245498514,1465.9340659340658,-1.0,-1.0,0.7764129445546815,
2023-08-11 20:04:42.293000,-8.397590361445783,0.16867469879518074,-5.120481927710844,0.30656039239730226,-8.213979153893316,-4.711220110361741,3.0,0.7736707736707735,1292.539454806313,-14.360468504166423,-3.024299283258552,-7.559349688246606,1457.142857142857,-1.0,-1.0,0.776388384672138,
2023-08-11 20:04:42.301000,-8.373493975903616,0.18072289156626506,-5.120481927710844,0.2673206621704476,-8.22624156958921,-4.730839975475169,3.0,0.7736707736707735,1292.539454806313,-14.391002855311461,-2.7342229473806894,-7.48301381038401,1446.153846153846,-1.0,-1.0,0.7763637555491072,
2023-08-11 20:04:42.309000,-8.3855421686747,0.13253012048192772,-5.0843373493975905,0.2158185162477008,-8.221336603310851,-4.779889638258736,3.0,0.7736707736707735,1292.539454806313,-14.268865450731308,-2.5815511916554987,-8.231105413437444,1433.6996336996335,-1.0,-1.0,0.7763390570649537,
2023-08-11 20:04:42.316000,-8.397590361445783,0.16867469879518074,-5.1084337349397595,0.20600858369098712,-8.267933782955241,-4.755364806866953,3.0,0.7736707736707735,1292.539454806313,-14.116193695006118,-2.0472000466173306,-8.047899306567215,1422.7106227106226,-1.0,-1.0,0.776314289020715,
2023-08-11 20:04:42.324000,-8.373493975903616,0.13253012048192772,-5.0843373493975905,0.23543838136112813,-8.236051502145923,-4.689147762109135,3.0,0.7736707736707735,1292.539454806313,-14.07039216828856,-1.6960550084493917,-8.276906940155001,1415.3846153846152,-1.0,-1.0,0.7762894511658712,
2023-08-11 20:04:42.332000,-8.421686746987952,0.13253012048192772,-5.0602409638554215,0.2722256284488044,-8.280196198651133,-4.657265481299816,3.0,0.7736707736707735,1292.539454806313,-14.314666977448866,-0.9174290542509185,-8.444845871452712,1411.7216117216117,-1.0,-1.0,0.7762645433521377,
