Shimmer_F5D4_Timestamp_FormattedUnix_CAL,Shimmer_F5D4_Accel_LN_X_CAL,Shimmer_F5D4_Accel_LN_Y_CAL,Shimmer_F5D4_Accel_LN_Z_CAL,Shimmer_F5D4_Accel_WR_X_CAL,Shimmer_F5D4_Accel_WR_Y_CAL,Shimmer_F5D4_Accel_WR_Z_CAL,Shimmer_F5D4_GSR_Range_CAL,Shimmer_F5D4_GSR_Skin_Conductance_CAL,Shimmer_F5D4_GSR_Skin_Resistance_CAL,Shimmer_F5D4_Gyro_X_CAL,Shimmer_F5D4_Gyro_Y_CAL,Shimmer_F5D4_Gyro_Z_CAL,Shimmer_F5D4_PPG_A13_CAL,Shimmer_F5D4_PPG_IBI_CAL,Shimmer_F5D4_PPGtoHR_CAL,Shimmer_F5D4_GSR_Skin_Conductance_LPF_CAL,
yyyy/mm/dd hh:mm:ss.000,m/(s^2),m/(s^2),m/(s^2),m/(s^2),m/(s^2),m/(s^2),no_units,uS,kOhms,deg/s,deg/s,deg/s,mV,ms,BPM,uS,
2023-08-15 14:04:11.502000,-7.855421686746988,-0.7228915662650602,-5.927710843373494,-0.6548129981606376,-7.6327406499080315,-5.630901287553648,2.0,1.6842490842490838,593.7364071335364,2.3308664996167294E-4,-0.2783054600547755,0.005827166249053105,1431.5018315018315,-1.0,76.04842764862879,1.6894147824443997,
2023-08-15 14:04:11.509000,-7.843373493975904,-0.6987951807228916,-5.9397590361445785,-0.6499080318822807,-7.568976088289393,-5.576946658491723,2.0,1.6842490842490838,593.7364071335364,-0.22854146028786118,-0.12353592447992617,-0.27142940388089276,1422.7106227106226,-1.0,76.04842764862879,1.6893697129647804,
2023-08-15 14:04:11.517000,-7.819277108433735,-0.710843373493976,-5.927710843373494,-0.6621704475781729,-7.5665236051502145,-5.601471489883507,2.0,1.6857142857142855,593.220338983051,-0.1818075869704555,-0.07633587786259542,-0.029019287920284256,1413.1868131868132,-1.0,76.04842764862879,1.6893248003894235,
2023-08-15 14:04:11.525000,-7.83132530120482,-0.7228915662650602,-5.951807228915663,-0.6253832004904966,-7.586143470263641,-5.625996321275291,2.0,1.6857142857142855,593.220338983051,-0.0867082337859107,0.106054425732766,-0.04708350329234905,1405.128205128205,-1.0,76.04842764862879,1.6892800380399435,
2023-08-15 14:04:11.532000,-7.807228915662651,-0.7228915662650602,-5.927710843373494,-0.6817903126916002,-7.6033108522378905,-5.56468424279583,2.0,1.6842490842490838,593.7364071335364,-0.17819474389604262,-0.15663422877454622,-0.1243517277547929,1395.6043956043954,-1.0,76.04842764862879,1.6892354195965904,
2023-08-15 14:04:11.540000,-7.843373493975904,-0.7349397590361446,-5.91566265060241,-0.6523605150214592,-7.608215818516247,-5.5744941753525445,2.0,1.6857142857142855,593.220338983051,-0.009556552648447682,0.22224812073888384,0.2118757648155703,1386.8131868131868,-1.0,76.04842764862879,1.6891909381793524,
2023-08-15 14:04:11.548000,-7.83132530120482,-0.7228915662650602,-5.927710843373494,-0.598405885959534,-7.652360515021459,-5.557326793378295,2.0,1.6857142857142855,593.220338983051,-0.009323465998484274,0.21653749781481246,0.20942835499096799,1381.6849816849815,-1.0,76.04842764862879,1.689146586800686,
2023-08-15 14:04:11.555000,-7.843373493975904,-0.7228915662650602,-5.903614457831326,-0.6940527283874923,-7.6180257510729605,-5.601471489883507,2.0,1.6857142857142855,593.220338983051,-0.009440009323466846,-0.01841384534700861,-0.0849600839111938,1375.8241758241757,-1.0,76.04842764862879,1.6891023589228007,
2023-08-15 14:04:11.563000,-7.83132530120482,-0.6987951807228916,-5.91566265060241,-0.6670754138565297,-7.659717964438994,-5.591661557326793,2.0,1.6857142857142855,593.220338983051,0.050113629741856874,0.49705728104422736,-0.09871219625895941,1366.3003663003662,-1.0,76.04842764862879,1.6890582480324479,
2023-08-15 14:04:11.571000,-7.843373493975904,-0.710843373493976,-5.951807228915663,-0.6327406499080318,-7.637645616186388,-5.608828939301042,2.0,1.6842490842490838,593.7364071335364,-0.3359944059204007,-0.030534351145038167,-0.0071091428238449095,1354.5787545787546,-1.0,76.04842764862879,1.6890142476739956,
2023-08-15 14:04:11.578000,-7.867469879518072,-0.6987951807228916,-5.951807228915663,-0.598405885959534,-7.6253832004904964,-5.594114040465971,2.0,1.6857142857142855,593.220338983051,-0.014451372297651493,0.33133267292115853,0.06712895518909155,1342.8571428571427,-1.0,76.04842764862879,1.6889703509901957,
2023-08-15 14:04:11.586000,-7.855421686746988,-0.710843373493976,-5.951807228915663,-0.6302881667688535,-7.642550582464745,-5.601471489883507,2.0,1.6842490842490838,593.7364071335364,-0.2746926169803627,0.1712021443971803,-0.11700949828098588,1332.6007326007325,-1.0,76.04842764862879,1.6889265511763711,
2023-08-15 14:04:11.594000,-7.843373493975904,-0.710843373493976,-5.927710843373494,-0.6621704475781729,-7.6253832004904964,-5.623543838136112,2.0,1.6842490842490838,593.7364071335364,-0.0924188567099821,0.27702348347998285,-0.2683992774313849,1324.5421245421244,-1.0,76.04842764862879,1.688882841546132,
2023-08-15 14:04:11.601000,-7.83132530120482,-0.710843373493976,-5.9397590361445785,-0.6082158185162476,-7.645003065603923,-5.621091354996934,2.0,1.6842490842490838,593.7364071335364,-0.2292407202377479,0.18122487034555132,-0.09859565293397814,1319.4139194139193,-1.0,76.04842764862879,1.688839215034708,
2023-08-15 14:04:11.609000,-7.855421686746988,-0.6987951807228916,-5.963855421686747,-0.6131207847946045,-7.645003065603923,-5.567136725935009,2.0,1.6842490842490838,593.7364071335364,-0.30394499155060817,0.34613367519375254,-0.34135539886952954,1316.4835164835165,-1.0,76.04842764862879,1.6887956646846745,
2023-08-15 14:04:11.617000,-7.83132530120482,-0.710843373493976,-5.951807228915663,-0.6670754138565297,-7.645003065603923,-5.628448804414469,2.0,1.6842490842490838,593.7364071335364,-0.011537789173125373,0.050579803041780225,-0.12388555445486868,1314.2857142857142,-1.0,76.04842764862879,1.6887521836731507,
2023-08-15 14:04:11.624000,-7.843373493975904,-0.710843373493976,-5.951807228915663,-0.6033108522378908,-7.627835683629675,-5.630901287553648,2.0,1.6842490842490838,593.7364071335364,-0.1772623972961942,0.11094924538197154,0.1981236524678047,1312.8205128205127,-1.0,76.04842764862879,1.6887087653382686,
2023-08-15 14:04:11.632000,-7.819277108433735,-0.6987951807228916,-5.963855421686747,-0.6131207847946045,-7.5665236051502145,-5.635806253832005,2.0,1.6842490842490838,593.7364071335364,0.037876580618844746,0.0363615173940904,-0.19777402249286177,1312.087912087912,-1.0,76.04842764862879,1.6886654032048574,
2023-08-15 14:04:11.640000,-7.83132530120482,-0.6987951807228916,-5.9397590361445785,-0.6989576946658491,-7.645003065603923,-5.601471489883507,2.0,1.6842490842490838,593.7364071335364,-0.006642969523919828,0.02330866499621242,0.07715168113746301,1308.4249084249084,-1.0,76.04842764862879,1.6886220910092766,
2023-08-15 14:04:11.647000,-7.855421686746988,-0.6987951807228916,-5.963855421686747,-0.6425505824647455,-7.671980380134886,-5.6774984671980375,2.0,1.6857142857142855,593.220338983051,0.0870578637608532,-0.035545714119224546,-0.028436571295379204,1302.5641025641025,-1.0,76.04842764862879,1.6885788227233511,
2023-08-15 14:04:11.655000,-7.843373493975904,-0.710843373493976,-5.987951807228916,-0.6842427958307786,-7.627835683629675,-5.660331085223789,2.0,1.6842490842490838,593.7364071335364,-0.23273701998717997,0.10384010255812663,0.09474972320960316,1294.5054945054944,-1.0,76.04842764862879,1.6885355935278965,
2023-08-15 14:04:11.663000,-7.843373493975904,-0.6867469879518072,-5.963855421686747,-0.6425505824647455,-7.642550582464745,-5.621091354996934,2.0,1.6842490842490838,593.7364071335364,0.1658411514480514,0.18297302022026732,-0.25837655148301386,1286.4468864468863,-1.0,76.04842764862879,1.6884923998048462,
2023-08-15 14:04:11.670000,-7.843373493975904,-0.6987951807228916,-5.9397590361445785,-0.6670754138565297,-7.5959534028203555,-5.660331085223789,2.0,1.6842490842490838,593.7364071335364,-0.16945399452246426,-0.24392517918536283,0.1560515121496416,1281.3186813186812,-1.0,76.04842764862879,1.6884492380780594,
2023-08-15 14:04:11.678000,-7.843373493975904,-0.6987951807228916,-5.951807228915663,-0.645003065603924,-7.615573267933782,-5.625996321275291,2.0,1.6842490842490838,593.7364071335364,-0.2569780315832408,0.08204650078666682,-0.15162286580036113,1279.120879120879,-1.0,76.04842764862879,1.6884061045490513,
2023-08-15 14:04:11.686000,-7.83132530120482,-0.6987951807228916,-5.963855421686747,-0.6131207847946045,-7.649908031882281,-5.655426118945432,2.0,1.6842490842490838,593.7364071335364,-0.00967309597342852,-0.22131577413903541,-0.15057397587553187,1280.5860805860805,-1.0,76.04842764862879,1.6883629951901826,
2023-08-15 14:04:11.693000,-7.819277108433735,-0.674698795180723,-5.951807228915663,-0.568976088289393,-7.6106683016554255,-5.579399141630901,2.0,1.6842490842490838,593.7364071335364,-0.16152904842375176,-0.5063807470427134,-0.10512207913291756,1283.5164835164835,-1.0,76.04842764862879,1.6883199062564975,
2023-08-15 14:04:11.701000,-7.819277108433735,-0.6867469879518072,-5.963855421686747,-0.6229307173513182,-7.6033108522378905,-5.542611894543224,2.0,1.6842490842490838,593.7364071335364,-0.35953615756657475,-0.4097663306334125,-0.045335353417633034,1287.9120879120878,-1.0,76.04842764862879,1.688276834303035,
2023-08-15 14:04:11.709000,-7.819277108433735,-0.6867469879518072,-5.91566265060241,-0.6523605150214592,-7.627835683629675,-5.613733905579399,2.0,1.6857142857142855,593.220338983051,-0.05197832294155373,-0.37561913641396144,-0.2428762892605327,1291.5750915750914,-1.0,76.04842764862879,1.688233776200308,
2023-08-15 14:04:11.716000,-7.795180722891566,-0.710843373493976,-5.903614457831326,-0.6351931330472103,-7.6695278969957075,-5.589209074187615,2.0,1.6842490842490838,593.7364071335364,0.040440533768428356,-0.5418099178369553,-0.2704970572810443,1295.2380952380952,-1.0,76.04842764862879,1.6881907296406238,
2023-08-15 14:04:11.724000,-7.807228915662651,-0.6867469879518072,-5.927710843373494,-0.6204782342121398,-7.593500919681177,-5.608828939301042,2.0,1.6857142857142855,593.220338983051,0.010022725948371029,-0.2639706310821049,-0.19101450964396022,1296.7032967032967,-1.0,76.04842764862879,1.6881476927294536,
2023-08-15 14:04:11.732000,-7.807228915662651,-0.710843373493976,-5.927710843373494,-0.6204782342121398,-7.6106683016554255,-5.608828939301042,2.0,1.6857142857142855,593.220338983051,-0.15873200862420647,-0.03169978439484827,0.20826292174115743,1295.2380952380952,-1.0,76.04842764862879,1.6881046639636978,
2023-08-15 14:04:11.739000,-7.83132530120482,-0.6987951807228916,-5.9397590361445785,-0.6695278969957081,-7.622930717351318,-5.559779276517474,2.0,1.6842490842490838,593.7364071335364,-0.11153196200687572,-0.36781073364023154,-0.05360992949128848,1295.2380952380952,-1.0,76.04842764862879,1.6880616427707202,
2023-08-15 14:04:11.747000,-7.843373493975904,-0.7228915662650602,-5.9397590361445785,-0.6670754138565297,-7.659717964438994,-5.6480686695278965,2.0,1.6842490842490838,593.7364071335364,0.1633937416234486,0.15360410232503927,-0.009206922673503872,1295.970695970696,-1.0,76.04842764862879,1.688018628570659,
2023-08-15 14:04:11.755000,-7.855421686746988,-0.710843373493976,-5.927710843373494,-0.657265481299816,-7.608215818516247,-5.601471489883507,2.0,1.6857142857142855,593.220338983051,-0.03764349396888308,0.2132742847153421,-0.05559116601596661,1298.168498168498,-1.0,76.04842764862879,1.6879756207160483,
2023-08-15 14:04:11.762000,-7.843373493975904,-0.6987951807228916,-5.927710843373494,-0.6499080318822807,-7.671980380134886,-5.579399141630901,2.0,1.6842490842490838,593.7364071335364,0.1131635685566109,0.8817667968067131,-0.0710914282384478,1300.3663003663003,-1.0,76.04842764862879,1.6879326194476025,
2023-08-15 14:04:11.770000,-7.843373493975904,-0.710843373493976,-5.903614457831326,-0.6008583690987124,-7.63519313304721,-5.623543838136112,2.0,1.6842490842490838,593.7364071335364,-0.2704970572810439,0.5387797913874484,-0.07423809801293646,1304.7619047619046,-1.0,76.04842764862879,1.687889625477404,
2023-08-15 14:04:11.777000,-7.855421686746988,-0.6867469879518072,-5.927710843373494,-0.6131207847946045,-7.6180257510729605,-5.59656652360515,2.0,1.6857142857142855,593.220338983051,0.0510459763417053,0.88363149000641,-0.04405337684284123,1309.89010989011,-1.0,76.04842764862879,1.6878466394665423,
2023-08-15 14:04:11.785000,-7.843373493975904,-0.6867469879518072,-5.9397590361445785,-0.5959534028203556,-7.6106683016554255,-5.6112814224402205,2.0,1.6842490842490838,593.7364071335364,-0.056640055940795866,0.9697570071674148,-0.274226443680438,1312.8205128205127,-1.0,76.04842764862879,1.687803662976951,
2023-08-15 14:04:11.793000,-7.843373493975904,-0.6626506024096386,-5.963855421686747,-0.6376456161863887,-7.6695278969957075,-5.6407112201103615,2.0,1.6842490842490838,593.7364071335364,-0.21001107161587346,1.192238214556262,-0.3648971505157041,1314.2857142857142,-1.0,76.04842764862879,1.687760698050802,
2023-08-15 14:04:11.800000,-7.83132530120482,-0.674698795180723,-5.987951807228916,-0.5910484365419988,-7.645003065603923,-5.675045984058859,2.0,1.6842490842490838,593.7364071335364,-0.12085542800536173,1.169395722859973,-0.5308548452887358,1314.2857142857142,-1.0,76.04842764862879,1.6877177466845323,
2023-08-15 14:04:11.808000,-7.843373493975904,-0.6626506024096386,-5.987951807228916,-0.6548129981606376,-7.546903740036787,-5.714285714285714,2.0,1.6842490842490838,593.7364071335364,-0.28914398927801416,1.283608181341413,-0.6645300390420139,1312.087912087912,-1.0,76.04842764862879,1.6876748112845692,
2023-08-15 14:04:11.816000,-7.807228915662651,-0.674698795180723,-6.0120481927710845,-0.6670754138565297,-7.637645616186388,-5.7069282648681785,2.0,1.6842490842490838,593.7364071335364,-0.22644368043820265,0.8635860381096679,-0.5082454402424103,1309.1575091575091,-1.0,76.04842764862879,1.6876318951218237,
2023-08-15 14:04:11.823000,-7.771084337349398,-0.6987951807228916,-5.987951807228916,-0.5714285714285714,-7.652360515021459,-5.711833231146535,2.0,1.6842490842490838,593.7364071335364,-0.22737602703805107,0.8598566517102725,-0.5046325971679974,1306.9597069597069,-1.0,76.04842764862879,1.6875890022598814,
2023-08-15 14:04:11.831000,-7.783132530120482,-0.710843373493976,-6.0361445783132535,-0.6327406499080318,-7.586143470263641,-5.635806253832005,2.0,1.6842490842490838,593.7364071335364,-0.5623215430336225,0.946681428821164,-0.6677932521414834,1306.227106227106,-1.0,76.04842764862879,1.6875461370609883,
2023-08-15 14:04:11.839000,-7.710843373493976,-0.710843373493976,-6.024096385542169,-0.6768853464132434,-7.517473942366646,-5.702023298589822,2.0,1.6842490842490838,593.7364071335364,-0.6337626012470141,0.9265194335994411,-1.0437620185303886,1304.7619047619046,-1.0,76.04842764862879,1.6875033037251483,
2023-08-15 14:04:11.846000,-7.72289156626506,-0.710843373493976,-6.0,-0.6793378295524218,-7.519926425505824,-5.721643163703249,2.0,1.6842490842490838,593.7364071335364,-0.5677990793077322,0.15884855194918732,-1.21950935260183,1305.4945054945053,-1.0,76.04842764862879,1.687460506352751,
2023-08-15 14:04:11.854000,-7.734939759036145,-0.7349397590361446,-5.987951807228916,-0.6646229307173512,-7.54199877375843,-5.721643163703249,2.0,1.6842490842490838,593.7364071335364,-0.7300273876813708,-0.22434590058854412,-1.3467746634811488,1303.2967032967033,-1.0,76.04842764862879,1.687417749426811,
2023-08-15 14:04:11.862000,-7.759036144578314,-0.7349397590361446,-6.0361445783132535,-0.6695278969957081,-7.492949110974862,-5.6701410177805025,2.0,1.6842490842490838,593.7364071335364,-0.3109375910494722,0.32888526309655575,-0.6785152380397412,1301.098901098901,-1.0,76.04842764862879,1.6873750378017591,
2023-08-15 14:04:11.869000,-7.783132530120482,-0.746987951807229,-5.987951807228916,-0.7283874923359902,-7.571428571428571,-5.7069282648681785,2.0,1.6857142857142855,593.220338983051,-0.905425091777868,0.037760037293863916,-0.45836489715051587,1302.5641025641025,-1.0,76.04842764862879,1.6873323771494413,
2023-08-15 14:04:11.877000,-7.843373493975904,-0.7710843373493976,-6.024096385542169,-0.7136725935009196,-7.58859595340282,-5.726548129981606,2.0,1.6842490842490838,593.7364071335364,-0.6708233785909913,0.1276149408542624,-0.4244507895810265,1309.89010989011,-1.0,76.04842764862879,1.687289773914191,
2023-08-15 14:04:11.885000,-7.855421686746988,-0.746987951807229,-6.0,-0.6866952789699571,-7.6253832004904964,-5.667688534641324,2.0,1.6842490842490838,593.7364071335364,-1.0023891381621115,0.3545247945923901,-0.5433249810617097,1326.007326007326,-1.0,76.04842764862879,1.6872472344582725,
2023-08-15 14:04:11.892000,-7.879518072289157,-0.7590361445783133,-5.951807228915663,-0.6768853464132434,-7.659717964438994,-5.6407112201103615,2.0,1.6842490842490838,593.7364071335364,-0.9050754618029255,0.8243109375910497,-0.6133675193753277,1353.113553113553,-1.0,76.04842764862879,1.6872047654739286,
2023-08-15 14:04:11.900000,-7.91566265060241,-0.746987951807229,-5.951807228915663,-0.6866952789699571,-7.721030042918454,-5.599019006744328,2.0,1.6842490842490838,593.7364071335364,-0.9598508245440246,0.5892430511042478,-0.8077617854437388,1389.7435897435896,-1.0,76.04842764862879,1.6871623743602842,
2023-08-15 14:04:11.908000,-7.903614457831326,-0.746987951807229,-5.91566265060241,-0.6768853464132434,-7.721030042918454,-5.630901287553648,2.0,1.6842490842490838,593.7364071335364,-1.3639065322533657,0.26268865450731393,-0.8149874715925649,1435.8974358974358,-1.0,76.04842764862879,1.6871200687210068,
2023-08-15 14:04:11.915000,-7.891566265060241,-0.7349397590361446,-5.91566265060241,-0.6744328632740649,-7.637645616186388,-5.594114040465971,2.0,1.6842490842490838,593.7364071335364,-1.0607773439776234,0.36781073364023154,-1.2044752636792728,1489.3772893772893,-1.0,76.04842764862879,1.68707785635381,
2023-08-15 14:04:11.923000,-7.867469879518072,-0.7710843373493976,-5.91566265060241,-0.7283874923359902,-7.613120784794604,-5.586756591048436,2.0,1.6842490842490838,593.7364071335364,-1.7399918419672504,0.1988229124176906,-1.0874657653982869,1547.985347985348,-1.0,76.04842764862879,1.6870357447813198,
2023-08-15 14:04:11.931000,-7.819277108433735,-0.7590361445783133,-5.891566265060241,-0.6940527283874923,-7.703862660944206,-5.559779276517474,2.0,1.6842490842490838,593.7364071335364,-1.6645883107045052,-0.090204533535341,-0.8368976166890043,1607.3260073260071,-1.0,76.04842764862879,1.6869937417642709,
2023-08-15 14:04:11.938000,-7.807228915662651,-0.746987951807229,-5.903614457831326,-0.6842427958307786,-7.598405885959534,-5.572041692213365,2.0,1.6842490842490838,593.7364071335364,-1.5126158149291993,-0.05943709574034115,-0.9973777751879264,1665.201465201465,827.2705078125,72.52766710934041,1.6869518557100907,
2023-08-15 14:04:11.946000,-7.819277108433735,-0.7710843373493976,-5.91566265060241,-0.7210300429184548,-7.605763335377069,-5.625996321275291,2.0,1.6842490842490838,593.7364071335364,-1.591049472641455,-0.10477244915797505,-0.8656838179593265,1721.6117216117216,-1.0,72.52766710934041,1.6869100951678238,
2023-08-15 14:04:11.954000,-7.795180722891566,-0.7590361445783133,-5.927710843373494,-0.6891477621091354,-7.649908031882281,-5.557326793378295,2.0,1.6842490842490838,593.7364071335364,-1.395489773323233,-0.011421245848144537,-0.3834275391876931,1772.8937728937728,-1.0,72.52766710934041,1.6868684688152735,
2023-08-15 14:04:11.961000,-7.795180722891566,-0.746987951807229,-5.9397590361445785,-0.6646229307173512,-7.6327406499080315,-5.589209074187615,2.0,1.6827838827838824,594.2533739660428,-1.1837305518326435,0.23436862653691515,0.21432317464017223,1817.5824175824175,-1.0,72.52766710934041,1.6868269854457711,
2023-08-15 14:04:11.969000,-7.795180722891566,-0.746987951807229,-5.927710843373494,-0.6891477621091354,-7.613120784794604,-5.613733905579399,2.0,1.6842490842490838,593.7364071335364,-0.9174290542509185,0.41501078025756055,-0.10768603228250118,1854.212454212454,-1.0,72.52766710934041,1.6867856539198451,
2023-08-15 14:04:11.977000,-7.819277108433735,-0.746987951807229,-5.927710843373494,-0.6744328632740649,-7.554261189454322,-5.64316370324954,2.0,1.6842490842490838,593.7364071335364,-1.0182390303595348,0.5468212808111417,-0.12155468795524761,1880.5860805860805,-1.0,72.52766710934041,1.6867444835046765,
2023-08-15 14:04:11.984000,-7.83132530120482,-0.746987951807229,-5.927710843373494,-0.6425505824647455,-7.5812385039852845,-5.679950950337216,2.0,1.6842490842490838,593.7364071335364,-1.0100809976108622,0.8142882116426786,-0.5006701241186406,1897.4358974358972,-1.0,72.52766710934041,1.686703483438411,
2023-08-15 14:04:11.992000,-7.795180722891566,-0.7349397590361446,-5.927710843373494,-0.6302881667688535,-7.6180257510729605,-5.6112814224402205,2.0,1.6842490842490838,593.7364071335364,-1.26111531962007,1.15704213041198,-0.4787599790222013,1903.296703296703,-1.0,72.52766710934041,1.686662662528539,
2023-08-15 14:04:12,-7.819277108433735,-0.7228915662650602,-5.951807228915663,-0.6695278969957081,-7.598405885959534,-5.628448804414469,2.0,1.6842490842490838,593.7364071335364,-1.4154186818949943,1.148651011013344,-0.39531495833576186,1895.970695970696,-1.0,72.52766710934041,1.6866220296286225,
2023-08-15 14:04:12.007000,-7.795180722891566,-0.6987951807228916,-5.975903614457832,-0.657265481299816,-7.6106683016554255,-5.667688534641324,2.0,1.6842490842490838,593.7364071335364,-1.2783637317172651,0.9570537847444793,-0.75520074587728,1877.6556776556774,-1.0,72.52766710934041,1.6865815936224258,
2023-08-15 14:04:12.015000,-7.819277108433735,-0.6987951807228916,-6.0,-0.6082158185162476,-7.645003065603923,-5.667688534641324,2.0,1.6842490842490838,593.7364071335364,-1.2803449682419445,0.7186061418332261,-0.5488025173358194,1849.084249084249,-1.0,72.52766710934041,1.6865413634082194,
2023-08-15 14:04:12.023000,-7.819277108433735,-0.6867469879518072,-6.0120481927710845,-0.5616186388718577,-7.5738810545677495,-5.6407112201103615,2.0,1.6842490842490838,593.7364071335364,-0.8554280053609937,0.954956004894819,-0.48213973544665206,1810.2564102564102,-1.0,72.52766710934041,1.6865013483411821,
2023-08-15 14:04:12.030000,-7.83132530120482,-0.6867469879518072,-6.024096385542169,-0.6033108522378908,-7.6033108522378905,-5.645616186388718,2.0,1.6842490842490838,593.7364071335364,-0.8450556494376785,0.8384126799137587,-0.6013635569022777,1762.6373626373625,-1.0,72.52766710934041,1.686461558151009,
2023-08-15 14:04:12.038000,-7.819277108433735,-0.674698795180723,-6.024096385542169,-0.5640711220110362,-7.6033108522378905,-5.682403433476394,2.0,1.6842490842490838,593.7364071335364,-0.49694073771924824,0.6941320435872037,-0.2294738068877109,1711.3553113553112,-1.0,72.52766710934041,1.686422002438773,
2023-08-15 14:04:12.046000,-7.843373493975904,-0.674698795180723,-6.024096385542169,-0.6131207847946045,-7.647455548743102,-5.6774984671980375,2.0,1.6842490842490838,593.7364071335364,-0.5197832294155339,0.5638366062583768,0.1708525144222369,1658.6080586080584,-1.0,72.52766710934041,1.6863826906662607,
2023-08-15 14:04:12.053000,-7.819277108433735,-0.6867469879518072,-6.0,-0.6106683016554261,-7.586143470263641,-5.675045984058859,2.0,1.6842490842490838,593.7364071335364,-0.7251325680321669,0.570246489132335,-0.01153778917312494,1605.8608058608058,-1.0,72.52766710934041,1.6863436321451712,
2023-08-15 14:04:12.061000,-7.807228915662651,-0.6626506024096386,-6.0,-0.657265481299816,-7.600858369098712,-5.655426118945432,2.0,1.6842490842490838,593.7364071335364,-0.4093001573334891,0.5819008216304412,-0.31385117417399966,1555.311355311355,-1.0,72.52766710934041,1.6863048360262354,
2023-08-15 14:04:12.069000,-7.819277108433735,-0.674698795180723,-6.0120481927710845,-0.640098099325567,-7.691600245248313,-5.694665849172287,2.0,1.6842490842490838,593.7364071335364,-0.6325971679972022,0.330983042946216,-0.3514946681428819,1507.6923076923076,-1.0,72.52766710934041,1.6862663112883345,
2023-08-15 14:04:12.076000,-7.819277108433735,-0.6265060240963856,-5.987951807228916,-0.551808706315144,-7.591048436541999,-5.625996321275291,2.0,1.6842490842490838,593.7364071335364,-0.8534467688363161,0.17679622399627085,0.2178194743896038,1463.003663003663,-1.0,72.52766710934041,1.6862280667276675,
2023-08-15 14:04:12.084000,-7.855421686746988,-0.7710843373493976,-6.048192771084338,-0.7259350091968118,-7.5567136725935,-5.675045984058859,2.0,1.6842490842490838,593.7364071335364,0.14766039275100445,-1.7033972379231983,-0.16490880484820208,1420.5128205128203,-1.0,72.52766710934041,1.6861901104891666,
2023-08-15 14:04:12.092000,-7.807228915662651,-0.8313253012048193,-6.0120481927710845,-0.733292458614347,-7.549356223175965,-5.594114040465971,2.0,1.6842490842490838,593.7364071335364,1.5386049763999763,-2.3465998484936774,-1.047025231629858,1380.2197802197802,-1.0,72.52766710934041,1.686152450581107,
2023-08-15 14:04:12.099000,-7.674698795180723,-0.6265060240963856,-5.903614457831326,-0.46106683016554256,-7.519926425505824,-5.547516860821582,2.0,1.6842490842490838,593.7364071335364,1.5317289202260946,-2.3292348930715,-1.040265718780957,1340.6593406593406,-1.0,72.52766710934041,1.6861150952859671,
2023-08-15 14:04:12.107000,-7.626506024096386,-0.5903614457831325,-5.855421686746988,-0.45861434702636417,-7.502759043531575,-5.508277130594727,2.0,1.6842490842490838,593.7364071335364,1.3550492395548046,-0.647398170269798,-0.6208262921741161,1304.0293040293038,-1.0,72.52766710934041,1.6860780526584571,
2023-08-15 14:04:12.115000,-7.698795180722892,-0.6385542168674699,-5.903614457831326,-0.6057633353770693,-7.522378908645003,-5.638258736971183,2.0,1.6827838827838824,594.2533739660428,0.9976108618378867,1.0354874424567333,0.9588019346191948,1269.5970695970695,-1.0,72.52766710934041,1.6860413305166146,
2023-08-15 14:04:12.122000,-7.807228915662651,-0.674698795180723,-5.963855421686747,-0.5885959534028203,-7.6695278969957075,-5.64316370324954,2.0,1.6827838827838824,594.2533739660428,0.1364722335528233,1.025697803158324,0.6486801468445897,1243.2234432234432,-1.0,72.52766710934041,1.6860049363985306,
2023-08-15 14:04:12.130000,-7.879518072289157,-0.7228915662650602,-6.0,-0.657265481299816,-7.69650521152667,-5.657878602084611,2.0,1.6842490842490838,593.7364071335364,-0.9620651477186639,1.6566633646057927,0.248353825534642,1221.9780219780218,-1.0,72.52766710934041,1.6859688769570442,
2023-08-15 14:04:12.138000,-7.891566265060241,-0.7590361445783133,-5.975903614457832,-0.6204782342121398,-7.6180257510729605,-5.714285714285714,2.0,1.6842490842490838,593.7364071335364,-0.8433074995629625,2.9851407260649148,-0.5131402598916154,1206.5934065934066,-1.0,72.52766710934041,1.685933158476154,
2023-08-15 14:04:12.145000,-7.83132530120482,-0.674698795180723,-5.963855421686747,-0.6302881667688535,-7.598405885959534,-5.628448804414469,2.0,1.6842490842490838,593.7364071335364,-0.313385000874075,2.4409999417283372,-1.2987588135889518,1195.6043956043954,-1.0,72.52766710934041,1.6858977874221828,
2023-08-15 14:04:12.153000,-7.795180722891566,-0.6867469879518072,-5.987951807228916,-0.6302881667688535,-7.5567136725935,-5.697118332311465,2.0,1.6842490842490838,593.7364071335364,-0.39927743138511634,1.385117417399918,-0.7973894295204244,1191.2087912087911,-1.0,72.52766710934041,1.685862769977839,
2023-08-15 14:04:12.160000,-7.783132530120482,-0.7349397590361446,-6.072289156626506,-0.6229307173513182,-7.522378908645003,-5.733905579399141,2.0,1.6842490842490838,593.7364071335364,-0.7155760153837192,0.12097197133034257,-0.8354990967892312,1195.6043956043954,-1.0,72.52766710934041,1.6858281120348986,
2023-08-15 14:04:12.168000,-7.795180722891566,-0.746987951807229,-6.0843373493975905,-0.6621704475781729,-7.576333537706928,-5.758430410790925,2.0,1.6842490842490838,593.7364071335364,-0.6028786201270316,-0.16793893129770993,-0.5986830604277138,1203.6630036630036,-1.0,72.52766710934041,1.685793819187681,
2023-08-15 14:04:12.176000,-7.795180722891566,-0.7349397590361446,-6.0361445783132535,-0.7381974248927038,-7.571428571428571,-5.711833231146535,2.0,1.6842490842490838,593.7364071335364,-0.35242701474272986,-0.2572111182332042,-0.36478060719072325,1214.6520146520145,-1.0,72.52766710934041,1.6857598967273983,
2023-08-15 14:04:12.183000,-7.795180722891566,-0.746987951807229,-6.024096385542169,-0.6523605150214592,-7.605763335377069,-5.7069282648681785,2.0,1.6842490842490838,593.7364071335364,-0.25826000815803346,0.12714876755433904,-0.39111939863644263,1227.8388278388277,-1.0,72.52766710934041,1.685726349637404,
2023-08-15 14:04:12.191000,-7.783132530120482,-0.7228915662650602,-6.024096385542169,-0.6474555487431024,-7.605763335377069,-5.6480686695278965,2.0,1.6827838827838824,594.2533739660428,-0.16409300157333365,0.3236408134724094,-0.41827399335703047,1241.7582417582416,-1.0,72.52766710934041,1.6856931825893913,
2023-08-15 14:04:12.199000,-7.783132530120482,-0.710843373493976,-5.963855421686747,-0.6474555487431024,-7.598405885959534,-5.702023298589822,2.0,1.6842490842490838,593.7364071335364,-0.07132451488840903,0.15278829905017166,-0.20045451896742622,1258.6080586080586,-1.0,72.52766710934041,1.6856603994479207,
2023-08-15 14:04:12.206000,-7.795180722891566,-0.710843373493976,-5.975903614457832,-0.6474555487431024,-7.539546290619252,-5.618638871857756,2.0,1.6842490842490838,593.7364071335364,0.02086125517160965,0.16397645824835452,-0.22982343686265383,1279.120879120879,-1.0,72.52766710934041,1.6856280036891114,
2023-08-15 14:04:12.214000,-7.819277108433735,-0.7228915662650602,-5.951807228915663,-0.627835683629675,-7.564071122011036,-5.58185162477008,2.0,1.6842490842490838,593.7364071335364,-0.4964745644193232,0.5573101800594361,-0.2551133383835444,1303.2967032967033,-1.0,72.52766710934041,1.6855959989243943,
2023-08-15 14:04:12.222000,-7.819277108433735,-0.7349397590361446,-5.975903614457832,-0.6793378295524218,-7.608215818516247,-5.6848559166155725,2.0,1.6827838827838824,594.2533739660428,-0.612202086125516,0.45731600722568577,-0.7715168113746279,1328.937728937729,-1.0,72.52766710934041,1.6855643884423666,
2023-08-15 14:04:12.229000,-7.771084337349398,-0.7349397590361446,-5.987951807228916,-0.7063151440833844,-7.551808706315144,-5.667688534641324,2.0,1.6827838827838824,594.2533739660428,-0.773381504574327,0.22131577413903716,-0.7027562496358025,1354.5787545787546,-1.0,72.52766710934041,1.6855331747169395,
2023-08-15 14:04:12.237000,-7.807228915662651,-0.746987951807229,-5.987951807228916,-0.6916002452483139,-7.613120784794604,-5.672593500919681,2.0,1.6842490842490838,593.7364071335364,-0.9490122953207859,0.09358428995979219,-0.7723326146494955,1377.2893772893772,-1.0,72.52766710934041,1.685502359337112,
2023-08-15 14:04:12.245000,-7.783132530120482,-0.7349397590361446,-6.024096385542169,-0.7185775597792765,-7.568976088289393,-5.630901287553648,2.0,1.6842490842490838,593.7364071335364,-0.9857234426898206,0.7141774954839457,-1.0091486510110135,1397.069597069597,-1.0,72.52766710934041,1.6854719439550132,
2023-08-15 14:04:12.252000,-7.783132530120482,-0.710843373493976,-6.0120481927710845,-0.7161250766400981,-7.559166155732679,-5.672593500919681,2.0,1.6827838827838824,594.2533739660428,-1.145271254588893,0.33879144571994596,-0.4658236699493033,1413.1868131868132,-1.0,72.52766710934041,1.6854419303561323,
2023-08-15 14:04:12.260000,-7.783132530120482,-0.7590361445783133,-5.987951807228916,-0.627835683629675,-7.576333537706928,-5.702023298589822,2.0,1.6827838827838824,594.2533739660428,-0.8614882582600076,0.0896218169104368,-0.4447293281277311,1429.3040293040292,-1.0,72.52766710934041,1.685412319512916,
2023-08-15 14:04:12.268000,-7.819277108433735,-0.783132530120482,-6.024096385542169,-0.6719803801348866,-7.58859595340282,-5.6701410177805025,2.0,1.6827838827838824,594.2533739660428,-0.3813297593380346,-0.3260882232970105,-0.271545947205874,1443.2234432234432,-1.0,72.52766710934041,1.685383111975762,
2023-08-15 14:04:12.275000,-7.807228915662651,-0.7590361445783133,-6.048192771084338,-0.657265481299816,-7.591048436541999,-5.7290006131207845,2.0,1.6827838827838824,594.2533739660428,-0.696346366761843,-0.3731717265893604,-0.14474680962647835,1455.6776556776556,-1.0,72.52766710934041,1.685354308722426,
2023-08-15 14:04:12.283000,-7.819277108433735,-0.7228915662650602,-6.0120481927710845,-0.6327406499080318,-7.615573267933782,-5.7290006131207845,2.0,1.6827838827838824,594.2533739660428,-0.6272361750480734,-0.22143231746401626,-0.18681894994464143,1465.201465201465,-1.0,72.52766710934041,1.6853259101459654,
2023-08-15 14:04:12.291000,-7.843373493975904,-0.7349397590361446,-5.987951807228916,-0.645003065603924,-7.613120784794604,-5.714285714285714,2.0,1.6827838827838824,594.2533739660428,-0.3777169162636217,-0.31524969407377185,-0.09032107686032226,1470.3296703296703,-1.0,72.52766710934041,1.6852979156392516,
2023-08-15 14:04:12.298000,-7.855421686746988,-0.7349397590361446,-6.0361445783132535,-0.6082158185162476,-7.615573267933782,-5.6922133660331085,2.0,1.6827838827838824,594.2533739660428,-1.1035487442456737,-0.3777169162636217,-0.2242293572635624,1468.8644688644688,-1.0,72.52766710934041,1.6852703240925277,
2023-08-15 14:04:12.306000,-7.843373493975904,-0.7349397590361446,-6.0,-0.6621704475781729,-7.586143470263641,-5.672593500919681,2.0,1.6827838827838824,594.2533739660428,-0.7098653924596479,-0.792844239846163,-0.35580677116718107,1463.7362637362637,-1.0,72.52766710934041,1.685243133898213,
2023-08-15 14:04:12.314000,-7.83132530120482,-0.710843373493976,-6.0,-0.6646229307173512,-7.630288166768853,-5.657878602084611,2.0,1.6827838827838824,594.2533739660428,-0.8822329701066365,-0.3499796049181288,-0.39543150166074226,1456.4102564102564,-1.0,72.52766710934041,1.6852163424977824,
2023-08-15 14:04:12.321000,-7.795180722891566,-0.6987951807228916,-6.0120481927710845,-0.6376456161863887,-7.622930717351318,-5.6774984671980375,2.0,1.6827838827838824,594.2533739660428,-0.9953965386632491,-0.47095157624846967,-0.09894528290892109,1449.084249084249,-1.0,72.52766710934041,1.6851899464537625,
2023-08-15 14:04:12.329000,-7.819277108433735,-0.674698795180723,-6.0,-0.5714285714285714,-7.5665236051502145,-5.702023298589822,2.0,1.6827838827838824,594.2533739660428,-0.9694073771924723,-0.3777169162636217,-0.2646698910319908,1441.0256410256409,-1.0,72.52766710934041,1.685163942400744,
2023-08-15 14:04:12.337000,-7.843373493975904,-0.674698795180723,-6.0,-0.6082158185162476,-7.615573267933782,-5.6848559166155725,2.0,1.6827838827838824,594.2533739660428,-1.3098304294621534,-0.19544315599324114,0.18390536682011532,1430.7692307692307,-1.0,72.52766710934041,1.685138326979335,
2023-08-15 14:04:12.344000,-7.867469879518072,-0.674698795180723,-6.0120481927710845,-0.6057633353770693,-7.6695278969957075,-5.667688534641324,2.0,1.6827838827838824,594.2533739660428,-1.1772041256337047,-0.12097197133034257,-0.059320552415359884,1416.8498168498168,-1.0,72.52766710934041,1.6851130963497742,
2023-08-15 14:04:12.352000,-7.867469879518072,-0.6867469879518072,-6.0,-0.5861434702636419,-7.6400980993255665,-5.6627835683629675,2.0,1.6827838827838824,594.2533739660428,-0.9822271429403886,-0.6726880717906881,-0.14824310937591081,1401.4652014652013,-1.0,72.52766710934041,1.6850882461983854,
2023-08-15 14:04:12.360000,-7.83132530120482,-0.6626506024096386,-6.0,-0.5493562231759657,-7.6327406499080315,-5.6627835683629675,2.0,1.6827838827838824,594.2533739660428,-0.8647514713594763,-0.42724782938057265,0.1298292640289035,1386.8131868131868,-1.0,72.52766710934041,1.6850637717442816,
2023-08-15 14:04:12.367000,-7.807228915662651,-0.6506024096385542,-6.0120481927710845,-0.5935009196811771,-7.6033108522378905,-5.721643163703249,2.0,1.6827838827838824,594.2533739660428,-0.5947205873783592,-0.9486626653458416,0.1490589126507784,1372.8937728937728,-1.0,72.52766710934041,1.6850396677463377,
2023-08-15 14:04:12.375000,-7.807228915662651,-0.6626506024096386,-5.975903614457832,-0.5935009196811771,-7.657265481299816,-5.606376456161864,2.0,1.6827838827838824,594.2533739660428,-0.5855136647048541,-0.9457490822213156,0.14929199930074008,1362.6373626373625,-1.0,72.52766710934041,1.6850159280526407,
2023-08-15 14:04:12.383000,-7.807228915662651,-0.6506024096385542,-5.9397590361445785,-0.615573267933783,-7.568976088289393,-5.601471489883507,2.0,1.6827838827838824,594.2533739660428,-0.4066196608589247,-0.8822329701066365,0.23028961016257848,1353.113553113553,-1.0,72.52766710934041,1.684992546133339,
2023-08-15 14:04:12.390000,-7.795180722891566,-0.6506024096385542,-5.9397590361445785,-0.5591661557326794,-7.593500919681177,-5.625996321275291,2.0,1.6827838827838824,594.2533739660428,-0.12248703455509517,-1.0002913583124529,0.3077909212749836,1345.7875457875457,-1.0,72.52766710934041,1.6849695155099536,
2023-08-15 14:04:12.398000,-7.771084337349398,-0.6626506024096386,-5.91566265060241,-0.5444512568976088,-7.583690987124463,-5.594114040465971,2.0,1.6827838827838824,594.2533739660428,0.17364955422178133,-0.7214031816327715,0.5542800536099296,1341.3919413919414,-1.0,72.52766710934041,1.6849468292720693,
2023-08-15 14:04:12.406000,-7.783132530120482,-0.6385542168674699,-5.903614457831326,-0.6180257510729613,-7.586143470263641,-5.572041692213365,2.0,1.6827838827838824,594.2533739660428,0.45323699085134955,-0.5967018239030352,0.6152322125750246,1337.7289377289376,-1.0,72.52766710934041,1.6849244800872971,
2023-08-15 14:04:12.413000,-7.771084337349398,-0.6506024096385542,-5.891566265060241,-0.5714285714285714,-7.6106683016554255,-5.557326793378295,2.0,1.6827838827838824,594.2533739660428,0.5014859273935095,-0.5949536740283192,0.736670357205291,1334.7985347985348,-1.0,72.52766710934041,1.6849024602118683,
2023-08-15 14:04:12.421000,-7.807228915662651,-0.6506024096385542,-5.91566265060241,-0.5567136725935009,-7.512568976088289,-5.525444512568976,2.0,1.6813186813186811,594.7712418300654,0.5336518850882829,-0.5474039974360476,0.6449507604451956,1329.6703296703297,-1.0,72.52766710934041,1.6848807615019483,
2023-08-15 14:04:12.429000,-7.783132530120482,-0.6385542168674699,-5.891566265060241,-0.5469037400367872,-7.551808706315144,-5.545064377682404,2.0,1.6813186813186811,594.7712418300654,0.5807353883806311,-0.11910727813064571,0.5823669949303649,1323.8095238095236,-1.0,72.52766710934041,1.6848593749330334,
2023-08-15 14:04:12.436000,-7.819277108433735,-0.6506024096385542,-5.91566265060241,-0.5469037400367872,-7.649908031882281,-5.545064377682404,2.0,1.6813186813186811,594.7712418300654,1.0994697278713357,0.11036652875706562,0.6110366528757063,1317.216117216117,-1.0,72.52766710934041,1.6848382905406392,
2023-08-15 14:04:12.444000,-7.843373493975904,-0.674698795180723,-5.91566265060241,-0.5714285714285714,-7.598405885959534,-5.584304107909258,2.0,1.6827838827838824,594.2533739660428,1.219276265951868,0.6418040906707074,1.0374686789814118,1309.1575091575091,-1.0,72.52766710934041,1.6848174978863637,
2023-08-15 14:04:12.452000,-7.819277108433735,-0.674698795180723,-5.91566265060241,-0.6180257510729613,-7.6400980993255665,-5.59656652360515,2.0,1.6827838827838824,594.2533739660428,1.2458481440475508,0.19451080939339271,0.7410990035545719,1300.3663003663003,-1.0,72.52766710934041,1.6847969865590424,
2023-08-15 14:04:12.459000,-7.843373493975904,-0.6867469879518072,-5.963855421686747,-0.657265481299816,-7.679337829552422,-5.535254445125689,2.0,1.6827838827838824,594.2533739660428,1.6239146902861135,0.5751413087815388,1.0904958918477947,1295.2380952380952,-1.0,72.52766710934041,1.6847767467136843,
2023-08-15 14:04:12.467000,-7.843373493975904,-0.674698795180723,-5.9397590361445785,-0.5861434702636419,-7.686695278969957,-5.599019006744328,2.0,1.6827838827838824,594.2533739660428,2.0005827166249057,0.692150807062526,0.9642794708933041,1293.7728937728937,-1.0,72.52766710934041,1.6847567681033786,
2023-08-15 14:04:12.475000,-7.83132530120482,-0.6626506024096386,-5.963855421686747,-0.5861434702636419,-7.6621704475781724,-5.645616186388718,2.0,1.6827838827838824,594.2533739660428,2.096614416409301,0.6549734863935662,1.1006351611211467,1293.7728937728937,-1.0,72.52766710934041,1.6847370396742236,
2023-08-15 14:04:12.482000,-7.83132530120482,-0.674698795180723,-5.987951807228916,-0.615573267933783,-7.6253832004904964,-5.682403433476394,2.0,1.6827838827838824,594.2533739660428,2.0277373113454926,0.31548278072373354,1.2622807528698796,1294.5054945054944,-1.0,72.52766710934041,1.6847175500745974,
2023-08-15 14:04:12.490000,-7.819277108433735,-0.674698795180723,-5.987951807228916,-0.5910484365419988,-7.622930717351318,-5.679950950337216,2.0,1.6827838827838824,594.2533739660428,2.5221140959151573,0.1279645708292049,1.2548219800710918,1295.2380952380952,-1.0,72.52766710934041,1.684698287673022,
2023-08-15 14:04:12.498000,-7.819277108433735,-0.6867469879518072,-6.0,-0.6523605150214592,-7.6106683016554255,-5.716738197424893,2.0,1.6827838827838824,594.2533739660428,2.2489365421595475,-0.10500553580793673,1.2347765281743488,1295.970695970696,-1.0,72.52766710934041,1.684679240577309,
2023-08-15 14:04:12.505000,-7.807228915662651,-0.674698795180723,-5.975903614457832,-0.598405885959534,-7.576333537706928,-5.608828939301042,2.0,1.6827838827838824,594.2533739660428,2.556844006759513,-0.5506672105355163,1.012761494085426,1293.7728937728937,-1.0,72.52766710934041,1.68466039665505,
2023-08-15 14:04:12.513000,-7.783132530120482,-0.7228915662650602,-6.024096385542169,-0.6131207847946045,-7.576333537706928,-5.68976088289393,2.0,1.6827838827838824,594.2533739660428,2.4189732533069175,-0.5662840160829796,1.3740458015267174,1290.8424908424909,-1.0,72.52766710934041,1.6846417435554677,
2023-08-15 14:04:12.521000,-7.783132530120482,-0.710843373493976,-6.0120481927710845,-0.6376456161863887,-7.559166155732679,-5.716738197424893,2.0,1.6827838827838824,594.2533739660428,2.570363032457316,-0.4432142649029785,1.6388322358836895,1289.3772893772893,-1.0,72.52766710934041,1.6846232691905236,
2023-08-15 14:04:12.528000,-7.795180722891566,-0.7228915662650602,-6.060240963855422,-0.6793378295524218,-7.5567136725935,-5.733905579399141,2.0,1.6827838827838824,594.2533739660428,2.5376143581376382,-0.9772157799662021,1.7354466522929897,1288.6446886446886,-1.0,72.52766710934041,1.6846049612344172,
2023-08-15 14:04:12.536000,-7.771084337349398,-0.746987951807229,-6.060240963855422,-0.6768853464132434,-7.559166155732679,-5.679950950337216,2.0,1.6827838827838824,594.2533739660428,2.536215838237865,-0.7729153312744018,1.632655439659693,1290.8424908424909,-1.0,72.52766710934041,1.6845868071863626,
2023-08-15 14:04:12.543000,-7.819277108433735,-0.7590361445783133,-6.0361445783132535,-0.6940527283874923,-7.571428571428571,-5.721643163703249,2.0,1.6827838827838824,594.2533739660428,2.3660625837655154,-0.6637142357671463,1.6063166482139732,1293.7728937728937,-1.0,72.52766710934041,1.6845687948227483,
2023-08-15 14:04:12.551000,-7.783132530120482,-0.7349397590361446,-6.0361445783132535,-0.6817903126916002,-7.5812385039852845,-5.7290006131207845,2.0,1.6827838827838824,594.2533739660428,2.580036128430744,-0.9493619252957285,1.7505972845405282,1298.9010989010987,-1.0,72.52766710934041,1.6845509112790054,
2023-08-15 14:04:12.559000,-7.795180722891566,-0.7590361445783133,-6.024096385542169,-0.6768853464132434,-7.6327406499080315,-5.682403433476394,2.0,1.6827838827838824,594.2533739660428,2.761727172076219,-0.6068410931763888,1.7257735563195615,1303.2967032967033,-1.0,72.52766710934041,1.684533143607817,
2023-08-15 14:04:12.566000,-7.807228915662651,-0.7590361445783133,-6.024096385542169,-0.6916002452483139,-7.598405885959534,-5.679950950337216,2.0,1.6827838827838824,594.2533739660428,2.377017656313735,-1.1083270205698965,1.591981819241303,1309.89010989011,-1.0,72.52766710934041,1.684515478776099,
2023-08-15 14:04:12.574000,-7.819277108433735,-0.746987951807229,-6.0,-0.7210300429184548,-7.5959534028203555,-5.6922133660331085,2.0,1.6813186813186811,594.7712418300654,2.1635102849484293,-0.8997144688537967,1.2757997785676818,1315.018315018315,-1.0,72.52766710934041,1.6844979032745806,
2023-08-15 14:04:12.582000,-7.807228915662651,-0.7590361445783133,-6.0,-0.7112201103617413,-7.598405885959534,-5.6333537706928265,2.0,1.6813186813186811,594.7712418300654,1.918070042538314,-1.185129071732417,1.512266184954257,1320.8791208791208,-1.0,72.52766710934041,1.6844804036069232,
2023-08-15 14:04:12.589000,-7.83132530120482,-0.7710843373493976,-6.024096385542169,-0.6768853464132434,-7.652360515021459,-5.7069282648681785,2.0,1.6813186813186811,594.7712418300654,2.2417108560107217,-1.4655323116368513,1.6711147369034438,1323.8095238095236,-1.0,72.52766710934041,1.6844629661826913,
2023-08-15 14:04:12.597000,-7.83132530120482,-0.7590361445783133,-6.0120481927710845,-0.6670754138565297,-7.6327406499080315,-5.721643163703249,2.0,1.6813186813186811,594.7712418300654,1.797447701182914,-1.4853446768836316,1.7051453877979135,1326.007326007326,-1.0,72.52766710934041,1.6844455773147766,
2023-08-15 14:04:12.605000,-7.83132530120482,-0.746987951807229,-6.0361445783132535,-0.7283874923359902,-7.615573267933782,-5.714285714285714,2.0,1.6827838827838824,594.2533739660428,1.861663073247478,-2.1911310529689416,1.813996853330226,1328.937728937729,-1.0,72.52766710934041,1.6844282232513745,
2023-08-15 14:04:12.612000,-7.855421686746988,-0.746987951807229,-6.0120481927710845,-0.6940527283874923,-7.627835683629675,-5.628448804414469,2.0,1.6813186813186811,594.7712418300654,1.7410407318920815,-1.3806887710506373,1.8773964221199226,1331.8681318681317,-1.0,72.52766710934041,1.6844108907003288,
2023-08-15 14:04:12.620000,-7.843373493975904,-0.7349397590361446,-6.0120481927710845,-0.6670754138565297,-7.679337829552422,-5.714285714285714,2.0,1.6827838827838824,594.2533739660428,1.7580560573393147,-1.5826583532428176,2.0299516345201325,1333.3333333333333,-1.0,72.52766710934041,1.6843935664399756,
2023-08-15 14:04:12.628000,-7.843373493975904,-0.7228915662650602,-6.0120481927710845,-0.6744328632740649,-7.6180257510729605,-5.672593500919681,2.0,1.6813186813186811,594.7712418300654,1.853388497173823,-1.6325388963347127,1.556902278422004,1333.3333333333333,-1.0,72.52766710934041,1.6843762373182227,
2023-08-15 14:04:12.635000,-7.807228915662651,-0.710843373493976,-6.024096385542169,-0.640098099325567,-7.600858369098712,-5.645616186388718,2.0,1.6813186813186811,594.7712418300654,1.855020103723558,-2.292174115727521,1.532544723500962,1332.6007326007325,-1.0,72.52766710934041,1.684358890321017,
2023-08-15 14:04:12.643000,-7.807228915662651,-0.6987951807228916,-5.987951807228916,-0.5935009196811771,-7.524831391784181,-5.628448804414469,2.0,1.6827838827838824,594.2533739660428,2.0261057047957594,-2.7182565118582818,1.6274109900355453,1330.4029304029302,-1.0,72.52766710934041,1.6843415120783891,
2023-08-15 14:04:12.651000,-7.771084337349398,-0.6867469879518072,-5.9397590361445785,-0.6253832004904966,-7.576333537706928,-5.625996321275291,2.0,1.6827838827838824,594.2533739660428,2.0261057047957594,-2.7182565118582818,1.6274109900355453,1328.2051282051282,-1.0,72.52766710934041,1.6843240893876916,
2023-08-15 14:04:12.658000,-7.746987951807229,-0.674698795180723,-5.927710843373494,-0.6499080318822807,-7.5567136725935,-5.635806253832005,2.0,1.6827838827838824,594.2533739660428,1.8581667734980494,-2.7640580385758393,1.6884796923256218,1328.2051282051282,-1.0,72.52766710934041,1.684306609840836,
2023-08-15 14:04:12.666000,-7.746987951807229,-0.6867469879518072,-5.9397590361445785,-0.6008583690987124,-7.54199877375843,-5.6039239730226855,2.0,1.6813186813186811,594.7712418300654,1.9039683002156067,-2.565584756133091,1.8258842724782935,1333.3333333333333,-1.0,72.52766710934041,1.684289061822331,
2023-08-15 14:04:12.674000,-7.771084337349398,-0.674698795180723,-5.927710843373494,-0.6302881667688535,-7.549356223175965,-5.562231759656652,2.0,1.6813186813186811,594.7712418300654,2.0261057047957594,-2.2449740691101905,1.9022201503408889,1345.054945054945,-1.0,72.52766710934041,1.6842714335592346,
2023-08-15 14:04:12.681000,-7.795180722891566,-0.674698795180723,-5.91566265060241,-0.5861434702636419,-7.62047823421214,-5.559779276517474,2.0,1.6827838827838824,594.2533739660428,2.3161820406736218,-2.031233611094923,2.1922964862187517,1366.3003663003662,-1.0,72.52766710934041,1.6842537130840427,
2023-08-15 14:04:12.689000,-7.843373493975904,-0.6626506024096386,-5.879518072289157,-0.615573267933783,-7.69650521152667,-5.6112814224402205,2.0,1.6813186813186811,594.7712418300654,2.4077850941087364,-1.8174931530796559,1.9632888526309653,1400.0,-1.0,72.52766710934041,1.6842358892144438,
2023-08-15 14:04:12.697000,-7.867469879518072,-0.6867469879518072,-5.91566265060241,-0.5959534028203556,-7.63519313304721,-5.594114040465971,2.0,1.6813186813186811,594.7712418300654,2.2703805139560647,-1.5274168172017935,1.5052735854553927,1441.7582417582416,-1.0,72.52766710934041,1.684217951161044,
2023-08-15 14:04:12.704000,-7.879518072289157,-0.6867469879518072,-5.891566265060241,-0.5419987737584304,-7.657265481299816,-5.584304107909258,2.0,1.6827838827838824,594.2533739660428,2.163510284948431,-0.9167297943010301,1.6732125167531027,1491.5750915750914,-1.0,72.52766710934041,1.6841998880300202,
2023-08-15 14:04:12.712000,-7.867469879518072,-0.6867469879518072,-5.891566265060241,-0.5935009196811771,-7.645003065603923,-5.554874310239117,2.0,1.6827838827838824,594.2533739660428,2.2551133383835458,-0.7793252141483583,1.5816094633179882,1547.985347985348,-1.0,72.52766710934041,1.6841816898002917,
2023-08-15 14:04:12.720000,-7.855421686746988,-0.6987951807228916,-5.891566265060241,-0.6229307173513182,-7.676885346413243,-5.559779276517474,2.0,1.6827838827838824,594.2533739660428,2.300914865101103,-0.718256511858282,1.55107511217295,1609.5238095238094,-1.0,72.52766710934041,1.684163347421133,
2023-08-15 14:04:12.727000,-7.855421686746988,-0.6987951807228916,-5.879518072289157,-0.657265481299816,-7.645003065603923,-5.638258736971183,2.0,1.6813186813186811,594.7712418300654,2.468853796398813,-0.9777984965911064,1.6274109900355453,1669.5970695970695,-1.0,72.52766710934041,1.6841448523840215,
2023-08-15 14:04:12.735000,-7.83132530120482,-0.6987951807228916,-5.91566265060241,-0.627835683629675,-7.667075413856529,-5.599019006744328,2.0,1.6813186813186811,594.7712418300654,2.545189674261408,-0.5961191072781292,1.4900064098828736,1726.7399267399267,-1.0,72.52766710934041,1.684126196716852,
2023-08-15 14:04:12.743000,-7.855421686746988,-0.6987951807228916,-5.927710843373494,-0.6817903126916002,-7.613120784794604,-5.589209074187615,2.0,1.6813186813186811,594.7712418300654,2.3619835673911793,-0.8556610920109536,1.3984033564477591,1780.2197802197802,-1.0,72.52766710934041,1.6841073724148297,
2023-08-15 14:04:12.750000,-7.819277108433735,-0.7228915662650602,-5.927710843373494,-0.6327406499080318,-7.647455548743102,-5.623543838136112,2.0,1.6813186813186811,594.7712418300654,2.117708758230874,-0.9472641454460682,1.4594720587378356,1827.8388278388277,-1.0,72.52766710934041,1.6840883719568693,
2023-08-15 14:04:12.758000,-7.843373493975904,-0.710843373493976,-5.951807228915663,-0.6965052115266707,-7.671980380134886,-5.650521152667075,2.0,1.6827838827838824,594.2533739660428,2.0261057047957594,-0.6877221607132438,1.8106170969057744,1866.6666666666665,-1.0,72.52766710934041,1.6840691882926806,
2023-08-15 14:04:12.766000,-7.843373493975904,-0.7228915662650602,-5.9397590361445785,-0.6793378295524218,-7.6033108522378905,-5.650521152667075,2.0,1.6827838827838824,594.2533739660428,2.2398461628110264,-1.1304702523162973,1.352601829730202,1895.2380952380952,842.59033203125,71.20898225280695,1.6840498149322465,
2023-08-15 14:04:12.773000,-7.843373493975904,-0.7349397590361446,-5.9397590361445785,-0.6327406499080318,-7.613120784794604,-5.675045984058859,2.0,1.6813186813186811,594.7712418300654,2.0413728803682782,-1.1304702523162973,2.0243575549210417,1912.087912087912,-1.0,71.20898225280695,1.6840302465262762,
2023-08-15 14:04:12.781000,-7.83132530120482,-0.7349397590361446,-5.9397590361445785,-0.6719803801348866,-7.54199877375843,-5.616186388718577,2.0,1.6827838827838824,594.2533739660428,1.6902278422003396,-1.2220733057514117,1.55107511217295,1915.7509157509155,-1.0,71.20898225280695,1.684010477935132,
2023-08-15 14:04:12.789000,-7.807228915662651,-0.710843373493976,-5.963855421686747,-0.7210300429184548,-7.58859595340282,-5.655426118945432,2.0,1.6813186813186811,594.7712418300654,1.781830895635454,-0.4587145271254575,1.5816094633179882,1908.4249084249084,-1.0,71.20898225280695,1.6839905046676462,
2023-08-15 14:04:12.796000,-7.807228915662651,-0.7228915662650602,-5.951807228915663,-0.657265481299816,-7.5959534028203555,-5.6922133660331085,2.0,1.6813186813186811,594.7712418300654,1.445953033040034,-0.2907755958277476,1.367869005302721,1888.6446886446886,-1.0,71.20898225280695,1.6839703229301184,
2023-08-15 14:04:12.804000,-7.795180722891566,-0.746987951807229,-5.975903614457832,-0.645003065603924,-7.529736358062538,-5.64316370324954,2.0,1.6813186813186811,594.7712418300654,1.1864110483072097,-0.367111473690343,1.4289377075927974,1859.3406593406592,-1.0,71.20898225280695,1.6839499295694618,
2023-08-15 14:04:12.812000,-7.819277108433735,-0.7228915662650602,-5.975903614457832,-0.627835683629675,-7.630288166768853,-5.665236051502146,2.0,1.6827838827838824,594.2533739660428,0.9268690635743854,-0.18390536682011402,1.1083270205698965,1821.245421245421,-1.0,71.20898225280695,1.6839293220144804,
2023-08-15 14:04:12.819000,-7.807228915662651,-0.7228915662650602,-5.987951807228916,-0.6548129981606376,-7.6180257510729605,-5.625996321275291,2.0,1.6813186813186811,594.7712418300654,0.8963347124293471,0.13670532020278672,0.9709224404172249,1778.021978021978,-1.0,71.20898225280695,1.6839084988119184,
2023-08-15 14:04:12.827000,-7.843373493975904,-0.6987951807228916,-5.987951807228916,-0.6425505824647455,-7.58859595340282,-5.702023298589822,2.0,1.6813186813186811,594.7712418300654,0.9268690635743854,-6.992599498850188E-4,0.9098537381271485,1729.6703296703295,-1.0,71.20898225280695,1.6838874596354603,
2023-08-15 14:04:12.835000,-7.819277108433735,-0.710843373493976,-5.975903614457832,-0.598405885959534,-7.63519313304721,-5.675045984058859,2.0,1.6813186813186811,594.7712418300654,0.7131286055591182,0.014567915622634065,0.8335178602645531,1680.5860805860805,-1.0,71.20898225280695,1.6838662042750001,
2023-08-15 14:04:12.842000,-7.819277108433735,-0.6987951807228916,-5.987951807228916,-0.6425505824647455,-7.583690987124463,-5.7363580625383195,2.0,1.6827838827838824,594.2533739660428,0.6367927276965227,-0.24497406911019035,0.5434415243866905,1630.7692307692307,-1.0,71.20898225280695,1.683844733098988,
2023-08-15 14:04:12.850000,-7.843373493975904,-0.674698795180723,-5.975903614457832,-0.5714285714285714,-7.645003065603923,-5.628448804414469,2.0,1.6813186813186811,594.7712418300654,0.4383194452537747,-0.15337101567507586,0.5434415243866905,1582.4175824175823,-1.0,71.20898225280695,1.683823047548973,
2023-08-15 14:04:12.858000,-7.83132530120482,-0.6987951807228916,-6.0,-0.539546290619252,-7.6033108522378905,-5.741263028816676,2.0,1.6813186813186811,594.7712418300654,0.3467163918186602,-0.24497406911019035,0.6808461045393622,1537.7289377289376,-1.0,71.20898225280695,1.6838011497184355,
2023-08-15 14:04:12.865000,-7.819277108433735,-0.6987951807228916,-5.987951807228916,-0.615573267933783,-7.6400980993255665,-5.697118332311465,2.0,1.6813186813186811,594.7712418300654,0.3467163918186602,-0.3823786492628621,0.25336518850882794,1495.970695970696,-1.0,71.20898225280695,1.6837790418250491,
2023-08-15 14:04:12.873000,-7.819277108433735,-0.6867469879518072,-6.0,-0.568976088289393,-7.5812385039852845,-5.6701410177805025,2.0,1.6813186813186811,594.7712418300654,0.2856476895285839,-0.41291300040790024,0.3755025930889806,1457.142857142857,-1.0,71.20898225280695,1.6837567266634272,
2023-08-15 14:04:12.881000,-7.819277108433735,-0.6626506024096386,-5.987951807228916,-0.5959534028203556,-7.568976088289393,-5.687308399754752,2.0,1.6798534798534797,595.290013083297,0.07190723151331668,-0.5655847561330911,0.45183847095157603,1421.245421245421,-1.0,71.20898225280695,1.6837342075975301,
2023-08-15 14:04:12.888000,-7.807228915662651,-0.674698795180723,-6.0120481927710845,-0.5935009196811771,-7.586143470263641,-5.599019006744328,2.0,1.6798534798534797,595.290013083297,0.19404463609346936,-0.5655847561330911,0.5434415243866905,1386.080586080586,-1.0,71.20898225280695,1.6837114885158557,
2023-08-15 14:04:12.896000,-7.807228915662651,-0.6867469879518072,-5.963855421686747,-0.6131207847946045,-7.5959534028203555,-5.6407112201103615,2.0,1.6813186813186811,594.7712418300654,-0.06549734863935507,-0.718256511858282,0.2075636617912707,1351.6483516483515,-1.0,71.20898225280695,1.68368857367966,
2023-08-15 14:04:12.903000,-7.819277108433735,-0.674698795180723,-5.975903614457832,-0.522378908645003,-7.6817903126916,-5.608828939301042,2.0,1.6813186813186811,594.7712418300654,-0.05023017306683598,-0.5197832294155339,0.45183847095157603,1323.076923076923,-1.0,71.20898225280695,1.6836654677071008,
2023-08-15 14:04:12.911000,-7.807228915662651,-0.6626506024096386,-5.951807228915663,-0.6302881667688535,-7.568976088289393,-5.618638871857756,2.0,1.6813186813186811,594.7712418300654,-0.24870345550958406,-0.3976458248353812,0.14649495950119434,1298.168498168498,-1.0,71.20898225280695,1.683642175693413,
2023-08-15 14:04:12.919000,-7.795180722891566,-0.674698795180723,-5.903614457831326,-0.6180257510729613,-7.6180257510729605,-5.606376456161864,2.0,1.6813186813186811,594.7712418300654,0.1635102849484312,-0.41291300040790024,0.25336518850882794,1278.3882783882782,-1.0,71.20898225280695,1.6836187032244474,
2023-08-15 14:04:12.926000,-7.795180722891566,-0.674698795180723,-5.951807228915663,-0.6376456161863887,-7.608215818516247,-5.601471489883507,2.0,1.6813186813186811,594.7712418300654,0.1635102849484312,-0.41291300040790024,0.25336518850882794,1263.003663003663,-1.0,71.20898225280695,1.6835950563535722,
2023-08-15 14:04:12.934000,-7.819277108433735,-0.6506024096385542,-5.927710843373494,-0.6106683016554261,-7.613120784794604,-5.606376456161864,2.0,1.6813186813186811,594.7712418300654,0.132975933803393,-0.22970689353767126,0.13122778392867526,1249.8168498168498,-1.0,71.20898225280695,1.683571241576891,
2023-08-15 14:04:12.942000,-7.819277108433735,-0.674698795180723,-5.903614457831326,-0.5567136725935009,-7.578786020846106,-5.6627835683629675,2.0,1.6813186813186811,594.7712418300654,-0.1265660509294314,-0.18390536682011402,-0.0825126740865919,1238.8278388278388,-1.0,71.20898225280695,1.6835472658069415,
2023-08-15 14:04:12.949000,-7.819277108433735,-0.674698795180723,-5.91566265060241,-0.615573267933783,-7.608215818516247,-5.562231759656652,2.0,1.6813186813186811,594.7712418300654,-0.05023017306683598,-0.015966435522404104,-0.15884855194918732,1230.03663003663,-1.0,71.20898225280695,1.6835231363450516,
2023-08-15 14:04:12.957000,-7.819277108433735,-0.674698795180723,-5.903614457831326,-0.5959534028203556,-7.6327406499080315,-5.572041692213365,2.0,1.6813186813186811,594.7712418300654,-0.3250393333721795,0.10617096905774856,-0.021443971796515564,1225.6410256410256,-1.0,71.20898225280695,1.6834988608525268,
2023-08-15 14:04:12.965000,-7.83132530120482,-0.6626506024096386,-5.927710843373494,-0.645003065603924,-7.676885346413243,-5.6333537706928265,2.0,1.6813186813186811,594.7712418300654,0.010838529223240355,0.060369442340191315,-0.21991725423926364,1225.6410256410256,-1.0,71.20898225280695,1.6834744473208476,
2023-08-15 14:04:12.972000,-7.855421686746988,-0.674698795180723,-5.927710843373494,-0.6793378295524218,-7.654812998160637,-5.535254445125689,2.0,1.6813186813186811,594.7712418300654,-0.15710040207446957,0.10617096905774856,-0.21991725423926364,1229.3040293040292,-1.0,71.20898225280695,1.6834499040410784,
2023-08-15 14:04:12.980000,-7.83132530120482,-0.6867469879518072,-5.951807228915663,-0.6695278969957081,-7.591048436541999,-5.59656652360515,2.0,1.6813186813186811,594.7712418300654,-0.08076452421187415,0.28937707592797757,-0.28098595652934,1240.2930402930401,-1.0,71.20898225280695,1.6834252395726526,
2023-08-15 14:04:12.988000,-7.855421686746988,-0.6867469879518072,-5.91566265060241,-0.6033108522378908,-7.593500919681177,-5.58185162477008,2.0,1.6813186813186811,594.7712418300654,0.19404463609346936,0.09090379348522948,-0.38785618553697354,1254.9450549450548,-1.0,71.20898225280695,1.683400462711739,
2023-08-15 14:04:12.995000,-7.843373493975904,-0.6987951807228916,-5.927710843373494,-0.6253832004904966,-7.6253832004904964,-5.6480686695278965,2.0,1.6813186813186811,594.7712418300654,-0.004428646349278728,0.33517860264553484,-0.4336577122545308,1272.5274725274724,-1.0,71.20898225280695,1.683375582459373,
2023-08-15 14:04:13.003000,-7.867469879518072,-0.710843373493976,-5.9397590361445785,-0.645003065603924,-7.6695278969957075,-5.613733905579399,2.0,1.6813186813186811,594.7712418300654,0.05664005594079761,0.39624730493561117,-0.38785618553697354,1293.7728937728937,-1.0,71.20898225280695,1.6833506079895408,
2023-08-15 14:04:13.011000,-7.855421686746988,-0.6987951807228916,-5.91566265060241,-0.6033108522378908,-7.642550582464745,-5.655426118945432,2.0,1.6813186813186811,594.7712418300654,0.14824310937591212,-0.15337101567507586,-0.41839053668201176,1315.7509157509157,-1.0,71.20898225280695,1.6833255486173904,
2023-08-15 14:04:13.018000,-7.855421686746988,-0.6987951807228916,-5.91566265060241,-0.6229307173513182,-7.645003065603923,-5.606376456161864,2.0,1.6813186813186811,594.7712418300654,0.4230522696812556,0.12143814463026764,-0.3573218343919354,1339.9267399267399,-1.0,71.20898225280695,1.6833004137677716,
2023-08-15 14:04:13.026000,-7.843373493975904,-0.710843373493976,-5.9397590361445785,-0.6302881667688535,-7.586143470263641,-5.576946658491723,2.0,1.6813186813186811,594.7712418300654,0.20931181166598845,-0.031233611094923185,-0.1741157275217064,1361.904761904762,-1.0,71.20898225280695,1.6832752129442545,
2023-08-15 14:04:13.034000,-7.843373493975904,-0.6987951807228916,-5.927710843373494,-0.6499080318822807,-7.659717964438994,-5.608828939301042,2.0,1.6798534798534797,595.290013083297,0.10244158265835486,0.12143814463026764,-0.2657187809568209,1379.4871794871794,-1.0,71.20898225280695,1.6832499556988219,
2023-08-15 14:04:13.041000,-7.843373493975904,-0.710843373493976,-5.927710843373494,-0.6351931330472103,-7.578786020846106,-5.672593500919681,2.0,1.6798534798534797,595.290013083297,0.1635102849484312,-0.06176796223996135,-0.15884855194918732,1397.8021978021977,-1.0,71.20898225280695,1.6832246515675755,
2023-08-15 14:04:13.049000,-7.843373493975904,-0.7228915662650602,-5.9397590361445785,-0.6695278969957081,-7.6253832004904964,-5.594114040465971,2.0,1.6813186813186811,594.7712418300654,0.27038051395606477,0.18250684692034397,-0.2657187809568209,1413.9194139194137,-1.0,71.20898225280695,1.6831993099027958,
2023-08-15 14:04:13.057000,-7.819277108433735,-0.7228915662650602,-5.91566265060241,-0.6866952789699571,-7.6327406499080315,-5.652973635806253,2.0,1.6813186813186811,594.7712418300654,0.3467163918186602,0.029835091195153148,0.0090903793485226,1429.3040293040292,-1.0,71.20898225280695,1.6831739398442698,
2023-08-15 14:04:13.064000,-7.819277108433735,-0.7228915662650602,-5.951807228915663,-0.6131207847946045,-7.6253832004904964,-5.601471489883507,2.0,1.6813186813186811,594.7712418300654,0.19404463609346936,-6.992599498850188E-4,-0.021443971796515564,1441.7582417582416,-1.0,71.20898225280695,1.6831485504300894,
2023-08-15 14:04:13.072000,-7.843373493975904,-0.7228915662650602,-5.927710843373494,-0.6523605150214592,-7.576333537706928,-5.630901287553648,2.0,1.6813186813186811,594.7712418300654,-0.4474098246022973,0.32667093992191465,-0.7293281277314835,1448.3516483516482,-1.0,71.20898225280695,1.6831231510620943,
2023-08-15 14:04:13.080000,-7.83132530120482,-0.7228915662650602,-5.9397590361445785,-0.6793378295524218,-7.615573267933782,-5.645616186388718,2.0,1.6813186813186811,594.7712418300654,-0.4234018996561964,0.34496824194394243,-0.2875123827282788,1452.7472527472526,-1.0,71.20898225280695,1.683097750955105,
2023-08-15 14:04:13.087000,-7.83132530120482,-0.7228915662650602,-5.9397590361445785,-0.615573267933783,-7.600858369098712,-5.6112814224402205,2.0,1.6813186813186811,594.7712418300654,-0.5693141425324866,-0.03496299749431863,-0.5623215430336223,1454.9450549450548,-1.0,71.20898225280695,1.6830723586918819,
2023-08-15 14:04:13.095000,-7.83132530120482,-0.7228915662650602,-5.9397590361445785,-0.6916002452483139,-7.622930717351318,-5.608828939301042,2.0,1.6798534798534797,595.290013083297,-0.5081288969174277,0.04696695996736735,-0.5326029951634512,1453.4798534798533,-1.0,71.20898225280695,1.683046982693041,
2023-08-15 14:04:13.103000,-7.855421686746988,-0.6987951807228916,-5.927710843373494,-0.6866952789699571,-7.622930717351318,-5.64316370324954,2.0,1.6813186813186811,594.7712418300654,-0.43179301905483225,-0.15150632247538073,-0.7158091020336802,1449.084249084249,-1.0,71.20898225280695,1.6830216307035903,
2023-08-15 14:04:13.110000,-7.843373493975904,-0.710843373493976,-5.927710843373494,-0.640098099325567,-7.664622930717351,-5.6112814224402205,2.0,1.6813186813186811,594.7712418300654,-0.06538080531437422,0.0011654332498101003,-0.5020686440184131,1441.0256410256409,-1.0,71.20898225280695,1.6829963106525243,
2023-08-15 14:04:13.118000,-7.855421686746988,-0.710843373493976,-5.91566265060241,-0.6302881667688535,-7.652360515021459,-5.621091354996934,2.0,1.6813186813186811,594.7712418300654,-0.15698385874948872,0.16910436454752,-0.6547403997436039,1430.03663003663,-1.0,71.20898225280695,1.6829710306355574,
2023-08-15 14:04:13.126000,-7.83132530120482,-0.710843373493976,-5.891566265060241,-0.6523605150214592,-7.664622930717351,-5.6112814224402205,2.0,1.6798534798534797,595.290013083297,-0.6149991259250612,0.2759745935551536,-0.7463434531787184,1420.5128205128203,-1.0,71.20898225280695,1.682945798478953,
2023-08-15 14:04:13.133000,-7.843373493975904,-0.710843373493976,-5.91566265060241,-0.6057633353770693,-7.667075413856529,-5.599019006744328,2.0,1.6813186813186811,594.7712418300654,-0.24858691218460321,0.10803566225744368,-0.16619078142299326,1412.4542124542124,-1.0,71.20898225280695,1.6829206216588593,
2023-08-15 14:04:13.141000,-7.855421686746988,-0.710843373493976,-5.9397590361445785,-0.6033108522378908,-7.6621704475781724,-5.559779276517474,2.0,1.6813186813186811,594.7712418300654,-0.32492279004719865,0.2607074179826345,-0.6242060485985658,1405.128205128205,-1.0,71.20898225280695,1.6828955072223104,
2023-08-15 14:04:13.149000,-7.855421686746988,-0.710843373493976,-5.9397590361445785,-0.5935009196811771,-7.6180257510729605,-5.591661557326793,2.0,1.6798534798534797,595.290013083297,-0.17761202727113842,0.3612843074412908,-0.3728220966144164,1398.5347985347985,-1.0,71.20898225280695,1.6828704623066297,
2023-08-15 14:04:13.156000,-7.83132530120482,-0.710843373493976,-5.9397590361445785,-0.6793378295524218,-7.6253832004904964,-5.628448804414469,2.0,1.6798534798534797,595.290013083297,-0.22970689353767126,0.10558825243284264,-0.17026979779733165,1392.6739926739926,-1.0,71.20898225280695,1.6828454931849153,
2023-08-15 14:04:13.164000,-7.83132530120482,-0.746987951807229,-5.9397590361445785,-0.7185775597792765,-7.559166155732679,-5.589209074187615,2.0,1.6813186813186811,594.7712418300654,-0.11421245848144017,0.16467571819823956,-0.5915739176038697,1388.278388278388,-1.0,71.20898225280695,1.6828206051916426,
2023-08-15 14:04:13.172000,-7.807228915662651,-0.710843373493976,-5.9397590361445785,-0.6351931330472103,-7.622930717351318,-5.628448804414469,2.0,1.6813186813186811,594.7712418300654,-0.3837771691626356,-0.045684983392576414,-0.04824893654215916,1380.2197802197802,-1.0,71.20898225280695,1.6827958036672035,
2023-08-15 14:04:13.179000,-7.807228915662651,-0.7349397590361446,-5.951807228915663,-0.6744328632740649,-7.600858369098712,-5.665236051502146,2.0,1.6813186813186811,594.7712418300654,-0.3146669774488677,0.1250509877046788,-0.25546296835848775,1372.161172161172,-1.0,71.20898225280695,1.682771094025276,
2023-08-15 14:04:13.187000,-7.83132530120482,-0.7349397590361446,-5.963855421686747,-0.6621704475781729,-7.63519313304721,-5.576946658491723,2.0,1.6798534798534797,595.290013083297,-0.47328244274809156,0.6754851115902334,-0.5357496649379401,1363.3699633699632,-1.0,71.20898225280695,1.6827464808389923,
2023-08-15 14:04:13.195000,-7.855421686746988,-0.7590361445783133,-5.963855421686747,-0.6842427958307786,-7.613120784794604,-5.589209074187615,2.0,1.6798534798534797,595.290013083297,-0.3246897033972387,0.7666219917254246,-0.27982052327952944,1356.0439560439559,-1.0,71.20898225280695,1.6827219678771324,
2023-08-15 14:04:13.202000,-7.807228915662651,-0.7349397590361446,-5.951807228915663,-0.6302881667688535,-7.561618638871857,-5.621091354996934,2.0,1.6798534798534797,595.290013083297,-0.3292348930715,0.766971621700367,-0.28564768952858166,1350.18315018315,-1.0,71.20898225280695,1.6826975584585921,
2023-08-15 14:04:13.210000,-7.819277108433735,-0.7228915662650602,-5.927710843373494,-0.6916002452483139,-7.593500919681177,-5.6333537706928265,2.0,1.6798534798534797,595.290013083297,-0.33308082279587453,0.7202377483829614,-0.38144630266301455,1345.7875457875457,-1.0,71.20898225280695,1.6826732554199724,
2023-08-15 14:04:13.218000,-7.83132530120482,-0.7349397590361446,-5.963855421686747,-0.645003065603924,-7.6400980993255665,-5.591661557326793,2.0,1.6798534798534797,595.290013083297,-0.39729619486043866,0.673970048365479,-0.21723675776469878,1341.3919413919414,-1.0,71.20898225280695,1.6826490611190958,
2023-08-15 14:04:13.225000,-7.83132530120482,-0.746987951807229,-5.975903614457832,-0.6670754138565297,-7.630288166768853,-5.6774984671980375,2.0,1.6813186813186811,594.7712418300654,-0.31233611094924574,0.7532195093526023,-0.4667560165491526,1334.7985347985348,-1.0,71.20898225280695,1.6826249774396265,
2023-08-15 14:04:13.233000,-7.819277108433735,-0.7228915662650602,-5.963855421686747,-0.6646229307173512,-7.62047823421214,-5.613733905579399,2.0,1.6798534798534797,595.290013083297,-0.16793893129770993,0.7548511159023374,-0.29089213915272993,1326.007326007326,-1.0,71.20898225280695,1.6826010062894483,
2023-08-15 14:04:13.241000,-7.819277108433735,-0.7349397590361446,-5.951807228915663,-0.703862660944206,-7.5812385039852845,-5.618638871857756,2.0,1.6798534798534797,595.290013083297,-0.23972961948604404,0.6478643435697213,-0.43657129537905737,1317.9487179487178,-1.0,71.20898225280695,1.6825771491869446,
2023-08-15 14:04:13.248000,-7.83132530120482,-0.7228915662650602,-5.951807228915663,-0.6621704475781729,-7.600858369098712,-5.586756591048436,2.0,1.6813186813186811,594.7712418300654,-0.6177961657246083,0.38808927218693523,-0.230639240137521,1311.3553113553112,-1.0,71.20898225280695,1.6825534062864265,
2023-08-15 14:04:13.256000,-7.83132530120482,-0.7590361445783133,-5.9397590361445785,-0.6842427958307786,-7.58859595340282,-5.638258736971183,2.0,1.6798534798534797,595.290013083297,-0.2605908746576537,0.6846920342637386,-0.1808752403706075,1306.227106227106,-1.0,71.20898225280695,1.6825297778632013,
2023-08-15 14:04:13.264000,-7.807228915662651,-0.7349397590361446,-5.951807228915663,-0.7308399754751685,-7.622930717351318,-5.6039239730226855,2.0,1.6798534798534797,595.290013083297,-0.5181516228658004,0.6862070974884912,-0.4633762601247014,1302.5641025641025,-1.0,71.20898225280695,1.6825062638666928,
2023-08-15 14:04:13.271000,-7.855421686746988,-0.7228915662650602,-5.987951807228916,-0.6670754138565297,-7.630288166768853,-5.601471489883507,2.0,1.6798534798534797,595.290013083297,-0.6954140201619964,0.38051395606316696,-0.4535866208262918,1299.6336996336995,-1.0,71.20898225280695,1.6824828629824398,
2023-08-15 14:04:13.279000,-7.843373493975904,-0.710843373493976,-5.963855421686747,-0.6033108522378908,-7.654812998160637,-5.64316370324954,2.0,1.6813186813186811,594.7712418300654,-0.7609113688013514,0.5472874541110668,-0.39683002156051556,1298.9010989010987,-1.0,71.20898225280695,1.6824595740495891,
2023-08-15 14:04:13.286000,-7.83132530120482,-0.710843373493976,-5.9397590361445785,-0.6057633353770693,-7.6180257510729605,-5.599019006744328,2.0,1.6798534798534797,595.290013083297,-0.6757181982401951,0.46815453644892435,-0.43121030242992847,1300.3663003663003,-1.0,71.20898225280695,1.682436396496844,
2023-08-15 14:04:13.294000,-7.83132530120482,-0.710843373493976,-5.963855421686747,-0.645003065603924,-7.667075413856529,-5.645616186388718,2.0,1.6798534798534797,595.290013083297,-0.5754909387564813,0.2075636617912707,-0.43517277547928473,1304.7619047619046,-1.0,71.20898225280695,1.682413328987649,
2023-08-15 14:04:13.302000,-7.807228915662651,-0.7228915662650602,-5.91566265060241,-0.6597179644389944,-7.652360515021459,-5.655426118945432,2.0,1.6798534798534797,595.290013083297,-0.7948254763708424,0.3757356797389423,-0.08729095041081553,1309.89010989011,-1.0,71.20898225280695,1.6823903694376878,
2023-08-15 14:04:13.309000,-7.819277108433735,-0.710843373493976,-5.963855421686747,-0.645003065603924,-7.527283874923359,-5.589209074187615,2.0,1.6798534798534797,595.290013083297,-0.5448400442864623,0.5116251966668615,-0.26222248120738867,1312.8205128205127,-1.0,71.20898225280695,1.6823675159119698,
2023-08-15 14:04:13.317000,-7.807228915662651,-0.7228915662650602,-5.91566265060241,-0.6817903126916002,-7.6253832004904964,-5.630901287553648,2.0,1.6798534798534797,595.290013083297,-0.5992657770526205,0.13950236000233027,0.14323174640172529,1314.2857142857142,-1.0,71.20898225280695,1.6823447656935215,
2023-08-15 14:04:13.325000,-7.819277108433735,-0.7228915662650602,-5.927710843373494,-0.6621704475781729,-7.649908031882281,-5.682403433476394,2.0,1.6798534798534797,595.290013083297,-0.27306101043062747,0.17050288444729353,-0.3250393333721812,1314.2857142857142,-1.0,71.20898225280695,1.6823221158281787,
2023-08-15 14:04:13.332000,-7.819277108433735,-0.710843373493976,-5.975903614457832,-0.6425505824647455,-7.600858369098712,-5.6480686695278965,2.0,1.6798534798534797,595.290013083297,-0.9885204824893641,0.398811258085193,-0.10057688945865562,1315.7509157509157,-1.0,71.20898225280695,1.6822995635657134,
2023-08-15 14:04:13.340000,-7.843373493975904,-0.710843373493976,-6.0,-0.6425505824647455,-7.649908031882281,-5.6407112201103615,2.0,1.6783882783882782,595.8096900916631,-0.6450673037701777,0.45813181050055335,-0.36769419031525,1317.9487179487178,-1.0,71.20898225280695,1.6822771058880974,
2023-08-15 14:04:13.348000,-7.83132530120482,-0.6987951807228916,-5.951807228915663,-0.6376456161863887,-7.605763335377069,-5.606376456161864,2.0,1.6798534798534797,595.290013083297,-0.7344560340306512,0.5794534118058402,-0.6447176737952337,1323.076923076923,-1.0,71.20898225280695,1.68225473903795,
2023-08-15 14:04:13.355000,-7.843373493975904,-0.6987951807228916,-5.963855421686747,-0.6327406499080318,-7.6400980993255665,-5.645616186388718,2.0,1.6783882783882782,595.8096900916631,-0.6696579453411812,0.34928034496824206,-0.3108210477244916,1328.2051282051282,-1.0,71.20898225280695,1.6822324589602407,
2023-08-15 14:04:13.363000,-7.819277108433735,-0.710843373493976,-5.9397590361445785,-0.6253832004904966,-7.5812385039852845,-5.682403433476394,2.0,1.6798534798534797,595.290013083297,-0.8177845113921107,0.28459879960375284,-0.19392809276848677,1333.3333333333333,-1.0,71.20898225280695,1.6822102613553769,
2023-08-15 14:04:13.371000,-7.807228915662651,-0.6987951807228916,-5.951807228915663,-0.6499080318822807,-7.571428571428571,-5.616186388718577,2.0,1.6798534798534797,595.290013083297,-1.0251150865334198,0.1611794184488075,-0.38121321601305225,1338.4615384615383,-1.0,71.20898225280695,1.682188141662419,
2023-08-15 14:04:13.378000,-7.807228915662651,-0.6987951807228916,-5.951807228915663,-0.6327406499080318,-7.6400980993255665,-5.599019006744328,2.0,1.6798534798534797,595.290013083297,-0.8625371481848386,0.08053143756191421,-0.13950236000233115,1342.1245421245421,-1.0,71.20898225280695,1.6821660956040958,
2023-08-15 14:04:13.386000,-7.855421686746988,-0.710843373493976,-5.951807228915663,-0.6302881667688535,-7.6695278969957075,-5.6407112201103615,2.0,1.6798534798534797,595.290013083297,-1.17452362915914,0.41267991375794033,-0.37293863993939697,1342.1245421245421,-1.0,71.20898225280695,1.682144118748721,
2023-08-15 14:04:13.394000,-7.83132530120482,-0.7228915662650602,-5.9397590361445785,-0.6180257510729613,-7.649908031882281,-5.64316370324954,2.0,1.6798534798534797,595.290013083297,-1.0859507021735326,0.08624206048598561,-0.3903035953615753,1339.194139194139,-1.0,71.20898225280695,1.6821222065297965,
2023-08-15 14:04:13.401000,-7.819277108433735,-0.7349397590361446,-5.963855421686747,-0.6744328632740649,-7.608215818516247,-5.625996321275291,2.0,1.6798534798534797,595.290013083297,-0.7364372705553272,0.0055940795990905645,-0.37643493968882946,1333.3333333333333,-1.0,71.20898225280695,1.6821003542654218,
2023-08-15 14:04:13.409000,-7.83132530120482,-0.7228915662650602,-5.9397590361445785,-0.640098099325567,-7.615573267933782,-5.650521152667075,2.0,1.6798534798534797,595.290013083297,-0.8606724549851401,0.49251209136996604,-0.46768836314900103,1329.6703296703297,-1.0,71.20898225280695,1.6820785567195842,
2023-08-15 14:04:13.417000,-7.855421686746988,-0.6987951807228916,-5.975903614457832,-0.6670754138565297,-7.622930717351318,-5.576946658491723,2.0,1.6798534798534797,595.290013083297,-0.8139385816677361,0.2132742847153421,-0.3593030709166127,1326.007326007326,-1.0,71.20898225280695,1.682056808646169,
2023-08-15 14:04:13.424000,-7.819277108433735,-0.6987951807228916,-5.951807228915663,-0.6033108522378908,-7.637645616186388,-5.650521152667075,2.0,1.6798534798534797,595.290013083297,-0.9504108152205595,0.10407318920808831,-0.4034729910844352,1322.3443223443223,-1.0,71.20898225280695,1.6820351052286606,
2023-08-15 14:04:13.432000,-7.807228915662651,-0.674698795180723,-5.963855421686747,-0.6597179644389944,-7.586143470263641,-5.6407112201103615,2.0,1.6798534798534797,595.290013083297,-0.20010488899248327,-0.019229648621874467,-0.14264902977681937,1320.14652014652,-1.0,71.20898225280695,1.6820134416063695,
2023-08-15 14:04:13.440000,-7.795180722891566,-0.6867469879518072,-5.987951807228916,-0.6253832004904966,-7.6033108522378905,-5.672593500919681,2.0,1.6798534798534797,595.290013083297,-0.7528698793776598,-0.01619952217236751,-0.5560282034846448,1318.6813186813185,-1.0,71.20898225280695,1.6819918128929743,
2023-08-15 14:04:13.447000,-7.783132530120482,-0.674698795180723,-5.987951807228916,-0.6670754138565297,-7.63519313304721,-5.6333537706928265,2.0,1.6798534798534797,595.290013083297,-0.23378590991201095,0.258609638132976,-0.3117533943243394,1317.9487179487178,-1.0,71.20898225280695,1.6819702141946884,
2023-08-15 14:04:13.455000,-7.771084337349398,-0.6506024096385542,-5.975903614457832,-0.5812385039852851,-7.5738810545677495,-5.652973635806253,2.0,1.6783882783882782,595.8096900916631,-0.7528698793776598,-0.04673387331740568,-0.6781656080647974,1320.14652014652,-1.0,71.20898225280695,1.6819486406280184,
2023-08-15 14:04:13.463000,-7.795180722891566,-0.6626506024096386,-5.951807228915663,-0.6180257510729613,-7.598405885959534,-5.682403433476394,2.0,1.6798534798534797,595.290013083297,-0.6307324747975072,0.30441116485053327,-0.34228774546937757,1326.7399267399267,-1.0,71.20898225280695,1.6819270868444463,
2023-08-15 14:04:13.470000,-7.83132530120482,-0.6506024096385542,-5.9397590361445785,-0.6106683016554261,-7.605763335377069,-5.645616186388718,2.0,1.6798534798534797,595.290013083297,-0.6459996503700262,0.5181516228658004,-0.03694423401899589,1340.6593406593406,-1.0,71.20898225280695,1.6819055474678324,
2023-08-15 14:04:13.478000,-7.843373493975904,-0.6385542168674699,-5.963855421686747,-0.551808706315144,-7.586143470263641,-5.621091354996934,2.0,1.6783882783882782,595.8096900916631,-0.6459996503700262,0.5181516228658004,-0.03694423401899589,1363.3699633699632,-1.0,71.20898225280695,1.68188401763538,
2023-08-15 14:04:13.486000,-7.855421686746988,-0.6626506024096386,-5.963855421686747,-0.6106683016554261,-7.652360515021459,-5.625996321275291,2.0,1.6798534798534797,595.290013083297,-0.7376027038051407,0.38074704271312865,-0.3575549210418966,1395.6043956043954,-1.0,71.20898225280695,1.6818624920625305,
2023-08-15 14:04:13.493000,-7.855421686746988,-0.674698795180723,-5.9397590361445785,-0.5812385039852851,-7.645003065603923,-5.625996321275291,2.0,1.6783882783882782,595.8096900916631,-0.8597401083852934,0.6860905541635103,-0.3575549210418966,1438.8278388278388,-1.0,71.20898225280695,1.6818409654784416,
2023-08-15 14:04:13.501000,-7.855421686746988,-0.6626506024096386,-5.927710843373494,-0.5812385039852851,-7.642550582464745,-5.621091354996934,2.0,1.6783882783882782,595.8096900916631,-1.0455101684051025,0.43272536565468067,-0.2673503875065552,1492.3076923076922,-1.0,71.20898225280695,1.6818194331302834,
2023-08-15 14:04:13.509000,-7.891566265060241,-0.674698795180723,-5.9397590361445785,-0.645003065603924,-7.684242795830778,-5.599019006744328,2.0,1.6798534798534797,595.290013083297,-0.5246780490647377,0.3413553988695313,-0.29264028902744665,1550.18315018315,-1.0,71.20898225280695,1.6817978897416288,
2023-08-15 14:04:13.516000,-7.855421686746988,-0.6987951807228916,-5.951807228915663,-0.627835683629675,-7.583690987124463,-5.606376456161864,2.0,1.6783882783882782,595.8096900916631,-0.2800536099294898,0.35417516461744764,-0.24299283258551332,1610.989010989011,-1.0,71.20898225280695,1.6817763300495199,
2023-08-15 14:04:13.524000,-7.83132530120482,-0.710843373493976,-5.963855421686747,-0.6351931330472103,-7.652360515021459,-5.591661557326793,2.0,1.6798534798534797,595.290013083297,-0.34345317871918984,0.6110366528757059,-0.5115086533418794,1672.5274725274724,-1.0,71.20898225280695,1.6817547488827067,
2023-08-15 14:04:13.532000,-7.819277108433735,-0.7228915662650602,-5.903614457831326,-0.6916002452483139,-7.6180257510729605,-5.586756591048436,2.0,1.6798534798534797,595.290013083297,-0.23704912301148132,0.14929199930073964,-0.16514189149816508,1731.135531135531,-1.0,71.20898225280695,1.6817331411349574,
2023-08-15 14:04:13.539000,-7.83132530120482,-0.7349397590361446,-5.91566265060241,-0.7063151440833844,-7.6253832004904964,-5.591661557326793,2.0,1.6798534798534797,595.290013083297,-0.36046850416642495,0.06864401841384632,-0.049530913116951396,1786.080586080586,-1.0,71.20898225280695,1.6817115023000353,
2023-08-15 14:04:13.547000,-7.843373493975904,-0.7349397590361446,-5.927710843373494,-0.6082158185162476,-7.546903740036787,-5.579399141630901,2.0,1.6798534798534797,595.290013083297,-0.2384476429112531,0.0816968708117243,-0.027038051395605694,1835.164835164835,-1.0,71.20898225280695,1.6816898280235173,
2023-08-15 14:04:13.555000,-7.83132530120482,-0.710843373493976,-5.927710843373494,-0.6474555487431024,-7.637645616186388,-5.599019006744328,2.0,1.6798534798534797,595.290013083297,0.018996561971912792,0.019113105296895364,0.11735912825592948,1876.1904761904761,-1.0,71.20898225280695,1.6816681141123577,
2023-08-15 14:04:13.562000,-7.843373493975904,-0.7228915662650602,-5.91566265060241,-0.6351931330472103,-7.593500919681177,-5.547516860821582,2.0,1.6798534798534797,595.290013083297,-0.21222539479051455,0.35172775479284485,-0.48621875182098984,1907.6923076923076,827.2705078125,72.52766710934041,1.6816463565444013,
2023-08-15 14:04:13.570000,-7.83132530120482,-0.6987951807228916,-5.927710843373494,-0.6425505824647455,-7.600858369098712,-5.58185162477008,2.0,1.6798534798534797,595.290013083297,-0.31793019054833804,0.5316706485636035,-0.2913583124526546,1930.4029304029302,-1.0,72.52766710934041,1.6816245514778552,
2023-08-15 14:04:13.578000,-7.83132530120482,-0.6987951807228916,-5.91566265060241,-0.6327406499080318,-7.63519313304721,-5.6039239730226855,2.0,1.6798534798534797,595.290013083297,-0.5171027329409711,0.6605675659926585,-0.7400501136297413,1939.194139194139,-1.0,72.52766710934041,1.6816026952608016,
2023-08-15 14:04:13.585000,-7.83132530120482,-0.710843373493976,-5.91566265060241,-0.598405885959534,-7.615573267933782,-5.569589209074187,2.0,1.6798534798534797,595.290013083297,-0.3650136938406862,0.6372589009964461,-0.34788182506846965,1934.065934065934,-1.0,72.52766710934041,1.6815807844407549,
2023-08-15 14:04:13.593000,-7.843373493975904,-0.710843373493976,-5.903614457831326,-0.6351931330472103,-7.583690987124463,-5.559779276517474,2.0,1.6798534798534797,595.290013083297,-0.7653400151506319,0.8561272653108788,-0.33844181574500365,1917.216117216117,-1.0,72.52766710934041,1.6815588157743153,
2023-08-15 14:04:13.601000,-7.843373493975904,-0.7228915662650602,-5.951807228915663,-0.627835683629675,-7.613120784794604,-5.655426118945432,2.0,1.6798534798534797,595.290013083297,-0.5034671639181872,0.4756133092477118,-0.6025289901520896,1890.1098901098899,-1.0,72.52766710934041,1.6815367862369452,
2023-08-15 14:04:13.608000,-7.83132530120482,-0.710843373493976,-5.951807228915663,-0.7063151440833844,-7.6180257510729605,-5.618638871857756,2.0,1.6783882783882782,595.8096900916631,-0.6589359594429234,0.7236175048074108,-0.39088631198648116,1857.142857142857,-1.0,72.52766710934041,1.6815146930329012,
2023-08-15 14:04:13.616000,-7.843373493975904,-0.6867469879518072,-5.951807228915663,-0.645003065603924,-7.6327406499080315,-5.608828939301042,2.0,1.6783882783882782,595.8096900916631,-0.5529980770351381,0.5366820115377882,-0.3019637550259305,1819.047619047619,-1.0,72.52766710934041,1.6814925331126511,
2023-08-15 14:04:13.624000,-7.855421686746988,-0.7228915662650602,-5.963855421686747,-0.5885959534028203,-7.578786020846106,-5.638258736971183,2.0,1.6798534798534797,595.290013083297,-0.08216304411164765,0.5097605034671646,-0.10617096905774705,1775.8241758241757,-1.0,72.52766710934041,1.681470303110969,
2023-08-15 14:04:13.631000,-7.855421686746988,-0.710843373493976,-5.963855421686747,-0.5787860208461066,-7.694052728387492,-5.64316370324954,2.0,1.6783882783882782,595.8096900916631,-0.19474389604335438,0.37445370316415133,-0.17003671114736932,1727.4725274725274,-1.0,72.52766710934041,1.681448000302372,
2023-08-15 14:04:13.639000,-7.855421686746988,-0.6987951807228916,-5.951807228915663,-0.615573267933783,-7.701410177805027,-5.628448804414469,2.0,1.6798534798534797,595.290013083297,-0.3819124759629405,0.17854437387098512,-0.4810908455218224,1677.6556776556774,-1.0,72.52766710934041,1.6814256221851274,
2023-08-15 14:04:13.647000,-7.819277108433735,-0.6987951807228916,-5.951807228915663,-0.6253832004904966,-7.600858369098712,-5.6333537706928265,2.0,1.6783882783882782,595.8096900916631,-0.10943418215721719,0.024707184895985928,-0.2859973195035259,1625.6410256410256,-1.0,72.52766710934041,1.6814031664535227,
2023-08-15 14:04:13.654000,-7.819277108433735,-0.6867469879518072,-5.927710843373494,-0.6302881667688535,-7.6400980993255665,-5.618638871857756,2.0,1.6783882783882782,595.8096900916631,-0.3260882232970122,0.12808111415418746,-0.7632422353009736,1577.2893772893772,-1.0,72.52766710934041,1.6813806314974626,
2023-08-15 14:04:13.662000,-7.83132530120482,-0.674698795180723,-5.951807228915663,-0.598405885959534,-7.6327406499080315,-5.628448804414469,2.0,1.6783882783882782,595.8096900916631,-0.4951925878445305,0.12365246780490528,-0.4733989860730722,1530.4029304029302,-1.0,72.52766710934041,1.6813580158146941,
2023-08-15 14:04:13.669000,-7.819277108433735,-0.710843373493976,-5.963855421686747,-0.6106683016554261,-7.5959534028203555,-5.655426118945432,2.0,1.6783882783882782,595.8096900916631,-0.32830254647164986,0.37829963288852586,-0.750072839578113,1485.7142857142856,-1.0,72.52766710934041,1.6813353175266503,
2023-08-15 14:04:13.677000,-7.819277108433735,-0.710843373493976,-5.927710843373494,-0.6253832004904966,-7.586143470263641,-5.628448804414469,2.0,1.6783882783882782,595.8096900916631,-0.2843657129537912,0.5560282034846452,-0.5654682128081111,1442.4908424908424,-1.0,72.52766710934041,1.6813125344532094,
2023-08-15 14:04:13.685000,-7.807228915662651,-0.6987951807228916,-5.951807228915663,-0.5812385039852851,-7.578786020846106,-5.613733905579399,2.0,1.6783882783882782,595.8096900916631,-0.2549967950585631,0.41407843365771213,-0.36629567041547717,1405.8608058608058,-1.0,72.52766710934041,1.6812896646075783,
2023-08-15 14:04:13.692000,-7.795180722891566,-0.6987951807228916,-5.9397590361445785,-0.5836909871244634,-7.586143470263641,-5.584304107909258,2.0,1.6783882783882782,595.8096900916631,-0.16246139502359846,0.5495017772857061,-0.502185187343395,1371.4285714285713,-1.0,72.52766710934041,1.6812667061981754,
2023-08-15 14:04:13.700000,-7.807228915662651,-0.710843373493976,-5.963855421686747,-0.6302881667688535,-7.532188841201716,-5.613733905579399,2.0,1.6783882783882782,595.8096900916631,-0.20721403181632816,0.5479867140609518,-0.05850474914049272,1336.9963369963368,-1.0,72.52766710934041,1.6812436576302106,
2023-08-15 14:04:13.708000,-7.807228915662651,-0.710843373493976,-5.975903614457832,-0.6131207847946045,-7.6180257510729605,-5.59656652360515,2.0,1.6783882783882782,595.8096900916631,-0.13041198065380769,0.8233785909912013,-0.2933395489773323,1301.8315018315018,-1.0,72.52766710934041,1.6812205175069874,
2023-08-15 14:04:13.715000,-7.807228915662651,-0.6987951807228916,-5.987951807228916,-0.6916002452483139,-7.613120784794604,-5.601471489883507,2.0,1.6783882783882782,595.8096900916631,-0.0090903793485226,0.4599965037002502,-0.06701241186411049,1268.8644688644688,-1.0,72.52766710934041,1.6811972846309582,
2023-08-15 14:04:13.723000,-7.807228915662651,-0.6867469879518072,-5.963855421686747,-0.6204782342121398,-7.642550582464745,-5.630901287553648,2.0,1.6783882783882782,595.8096900916631,0.12738185420430073,0.48202319212167166,-0.08729095041081573,1240.2930402930401,-1.0,72.52766710934041,1.6811739580045477,
2023-08-15 14:04:13.731000,-7.83132530120482,-0.674698795180723,-5.963855421686747,-0.6253832004904966,-7.608215818516247,-5.650521152667075,2.0,1.6783882783882782,595.8096900916631,-0.19474389604335438,0.09206922673503957,-0.031233611094924486,1219.047619047619,-1.0,72.52766710934041,1.681150537288642,
2023-08-15 14:04:13.738000,-7.843373493975904,-0.6987951807228916,-5.975903614457832,-0.5836909871244634,-7.630288166768853,-5.618638871857756,2.0,1.6783882783882782,595.8096900916631,-0.17714585397121335,0.2832002797039794,-0.3260882232970109,1204.3956043956043,-1.0,72.52766710934041,1.6811270222779,
2023-08-15 14:04:13.746000,-7.855421686746988,-0.674698795180723,-5.9397590361445785,-0.657265481299816,-7.6400980993255665,-5.628448804414469,2.0,1.6783882783882782,595.8096900916631,0.1616455917487326,0.3535924479925417,-0.46698910319911424,1199.2673992673992,-1.0,72.52766710934041,1.6811034124798947,
2023-08-15 14:04:13.754000,-7.819277108433735,-0.6867469879518072,-5.963855421686747,-0.6523605150214592,-7.6695278969957075,-5.655426118945432,2.0,1.6783882783882782,595.8096900916631,0.17598042072140324,0.3450847852689233,-0.45475205407610303,1199.2673992673992,-1.0,72.52766710934041,1.6810797076072588,
2023-08-15 14:04:13.761000,-7.807228915662651,-0.6626506024096386,-5.987951807228916,-0.627835683629675,-7.586143470263641,-5.6333537706928265,2.0,1.6783882783882782,595.8096900916631,0.1579162053493389,0.16793893129770993,-0.25884272478293807,1203.6630036630036,-1.0,72.52766710934041,1.6810559080348981,
2023-08-15 14:04:13.769000,-7.83132530120482,-0.6987951807228916,-5.963855421686747,-0.5763335377069282,-7.63519313304721,-5.672593500919681,2.0,1.6783882783882782,595.8096900916631,0.03251558766971586,0.22306392401375144,-0.06165141891498138,1213.9194139194137,-1.0,72.52766710934041,1.6810320147319755,
2023-08-15 14:04:13.777000,-7.807228915662651,-0.6987951807228916,-5.975903614457832,-0.6204782342121398,-7.593500919681177,-5.657878602084611,2.0,1.6783882783882782,595.8096900916631,0.13880310005244526,0.2896101625779375,-0.17469844414661145,1228.5714285714284,-1.0,72.52766710934041,1.6810080283148068,
2023-08-15 14:04:13.784000,-7.843373493975904,-0.710843373493976,-5.963855421686747,-0.6131207847946045,-7.679337829552422,-5.672593500919681,2.0,1.6783882783882782,595.8096900916631,0.5024182739933563,0.27923780665462394,-0.23588368976166862,1249.084249084249,-1.0,72.52766710934041,1.6809839491168395,
2023-08-15 14:04:13.792000,-7.843373493975904,-0.7349397590361446,-5.975903614457832,-0.6082158185162476,-7.6106683016554255,-5.623543838136112,2.0,1.6783882783882782,595.8096900916631,0.40265718780956755,0.6651127556669199,-0.04055707709340963,1270.3296703296703,-1.0,72.52766710934041,1.680959778136913,
2023-08-15 14:04:13.800000,-7.807228915662651,-0.7228915662650602,-5.987951807228916,-0.627835683629675,-7.642550582464745,-5.613733905579399,2.0,1.6769230769230767,596.3302752293579,0.3196783404230523,0.21409008799020968,0.12306975118000109,1290.10989010989,-1.0,72.52766710934041,1.6809355169697062,
2023-08-15 14:04:13.807000,-7.807228915662651,-0.7349397590361446,-5.9397590361445785,-0.6253832004904966,-7.6033108522378905,-5.6407112201103615,2.0,1.6783882783882782,595.8096900916631,0.21956762426431942,0.424217702931064,-0.15884855194918732,1309.1575091575091,-1.0,72.52766710934041,1.6809111668223728,
2023-08-15 14:04:13.815000,-7.819277108433735,-0.7349397590361446,-5.963855421686747,-0.6204782342121398,-7.576333537706928,-5.635806253832005,2.0,1.6783882783882782,595.8096900916631,0.16409300157333537,0.0825126740865919,0.035196084144280736,1329.6703296703297,-1.0,72.52766710934041,1.6808867289363707,
2023-08-15 14:04:13.823000,-7.795180722891566,-0.746987951807229,-5.951807228915663,-0.6695278969957081,-7.576333537706928,-5.6627835683629675,2.0,1.6783882783882782,595.8096900916631,0.1681720179476716,-0.1636268282734103,-0.21735330108968004,1351.6483516483515,-1.0,72.52766710934041,1.6808622051126885,
2023-08-15 14:04:13.830000,-7.795180722891566,-0.7349397590361446,-5.975903614457832,-0.6719803801348866,-7.522378908645003,-5.6039239730226855,2.0,1.6769230769230767,596.3302752293579,0.27888817667968147,-0.22224812073888384,0.23331973661208544,1372.8937728937728,-1.0,72.52766710934041,1.6808375972535123,
2023-08-15 14:04:13.838000,-7.807228915662651,-0.746987951807229,-6.0120481927710845,-0.6204782342121398,-7.561618638871857,-5.645616186388718,2.0,1.6783882783882782,595.8096900916631,0.1905483363440356,0.023891381621118337,-0.2511508653341877,1392.6739926739926,-1.0,72.52766710934041,1.6808129068685629,
2023-08-15 14:04:13.846000,-7.819277108433735,-0.7349397590361446,-5.975903614457832,-0.7136725935009196,-7.578786020846106,-5.682403433476394,2.0,1.6769230769230767,596.3302752293579,-0.02086125517160965,0.1003438028086946,0.030883981119981543,1410.2564102564102,-1.0,72.52766710934041,1.6807881354940934,
2023-08-15 14:04:13.853000,-7.83132530120482,-0.746987951807229,-5.975903614457832,-0.6180257510729613,-7.6327406499080315,-5.672593500919681,2.0,1.6783882783882782,595.8096900916631,0.18099178369558963,-0.13111124060369442,0.15593496882466032,1424.9084249084249,-1.0,72.52766710934041,1.6807632847227976,
2023-08-15 14:04:13.861000,-7.795180722891566,-0.7349397590361446,-5.975903614457832,-0.640098099325567,-7.6033108522378905,-5.6480686695278965,2.0,1.6783882783882782,595.8096900916631,0.1355398869529749,0.2505681487092827,0.2037177320668957,1437.3626373626373,-1.0,72.52766710934041,1.6807383561634845,
2023-08-15 14:04:13.869000,-7.83132530120482,-0.710843373493976,-5.975903614457832,-0.5959534028203556,-7.605763335377069,-5.6112814224402205,2.0,1.6783882783882782,595.8096900916631,0.10500553580793673,0.2316881300623507,0.11479517510634565,1444.6886446886447,-1.0,72.52766710934041,1.680713351962333,
2023-08-15 14:04:13.876000,-7.819277108433735,-0.7349397590361446,-5.963855421686747,-0.6548129981606376,-7.6253832004904964,-5.625996321275291,2.0,1.6769230769230767,596.3302752293579,-0.001631606549735182,0.07447118466289857,0.26758347415651773,1448.3516483516482,-1.0,72.52766710934041,1.6806882743409053,
2023-08-15 14:04:13.884000,-7.843373493975904,-0.710843373493976,-5.963855421686747,-0.645003065603924,-7.622930717351318,-5.606376456161864,2.0,1.6769230769230767,596.3302752293579,0.1210885146553234,0.28459879960375284,0.17586387739642198,1449.084249084249,-1.0,72.52766710934041,1.6806631250992095,
2023-08-15 14:04:13.892000,-7.83132530120482,-0.6987951807228916,-5.9397590361445785,-0.615573267933783,-7.63519313304721,-5.657878602084611,2.0,1.6783882783882782,595.8096900916631,0.2259775071382793,0.1865858632946802,0.16176213507371343,1448.3516483516482,-1.0,72.52766710934041,1.6806379055391387,
2023-08-15 14:04:13.899000,-7.819277108433735,-0.710843373493976,-5.987951807228916,-0.6302881667688535,-7.613120784794604,-5.645616186388718,2.0,1.6783882783882782,595.8096900916631,0.3920517452362924,0.1503408892255689,0.05687314259075841,1444.6886446886447,-1.0,72.52766710934041,1.6806126174050495,
2023-08-15 14:04:13.907000,-7.83132530120482,-0.6987951807228916,-5.975903614457832,-0.5787860208461066,-7.62047823421214,-5.618638871857756,2.0,1.6769230769230767,596.3302752293579,0.37165666336460607,0.2200337975642445,-0.03449682419439442,1436.6300366300366,-1.0,72.52766710934041,1.6805872629454308,
2023-08-15 14:04:13.915000,-7.795180722891566,-0.6987951807228916,-5.975903614457832,-0.6302881667688535,-7.637645616186388,-5.625996321275291,2.0,1.6769230769230767,596.3302752293579,0.44309772157799593,0.06165141891498225,0.42631548278072334,1425.6410256410256,-1.0,72.52766710934041,1.6805618439569432,
2023-08-15 14:04:13.922000,-7.819277108433735,-0.6867469879518072,-5.975903614457832,-0.598405885959534,-7.576333537706928,-5.616186388718577,2.0,1.6783882783882782,595.8096900916631,0.5429753510867672,0.05803857584056938,0.14847619602587292,1414.6520146520145,-1.0,72.52766710934041,1.6805363617070534,
2023-08-15 14:04:13.930000,-7.807228915662651,-0.6867469879518072,-5.963855421686747,-0.6131207847946045,-7.551808706315144,-5.58185162477008,2.0,1.6783882783882782,595.8096900916631,0.3245731600722561,-0.12889691742905507,0.11782530155585347,1405.128205128205,-1.0,72.52766710934041,1.680510817874181,
2023-08-15 14:04:13.938000,-7.795180722891566,-0.7228915662650602,-5.951807228915663,-0.6376456161863887,-7.6253832004904964,-5.579399141630901,2.0,1.6769230769230767,596.3302752293579,0.7948254763708408,-0.1922964862187516,0.14847619602587292,1395.6043956043954,-1.0,72.52766710934041,1.6804852146092752,
2023-08-15 14:04:13.945000,-7.819277108433735,-0.7349397590361446,-5.975903614457832,-0.6768853464132434,-7.63519313304721,-5.657878602084611,2.0,1.6783882783882782,595.8096900916631,0.7726822446244385,0.08204650078666682,0.10162577938348596,1387.5457875457876,-1.0,72.52766710934041,1.6804595535801525,
2023-08-15 14:04:13.953000,-7.83132530120482,-0.7228915662650602,-5.987951807228916,-0.615573267933783,-7.551808706315144,-5.630901287553648,2.0,1.6769230769230767,596.3302752293579,0.2143231746401731,0.24777110890973736,0.05349338616630721,1378.021978021978,-1.0,72.52766710934041,1.6804338363874605,
2023-08-15 14:04:13.961000,-7.795180722891566,-0.746987951807229,-5.987951807228916,-0.6327406499080318,-7.600858369098712,-5.704475781729,2.0,1.6769230769230767,596.3302752293579,0.3477652817434877,0.3676941903152489,0.21886836431443396,1372.161172161172,-1.0,72.52766710934041,1.680408065050581,
2023-08-15 14:04:13.968000,-7.83132530120482,-0.7349397590361446,-5.963855421686747,-0.6548129981606376,-7.5959534028203555,-5.6407112201103615,2.0,1.6769230769230767,596.3302752293579,0.23378590991200923,0.18227376027038059,0.3382087290950409,1364.8351648351647,-1.0,72.52766710934041,1.6803822414066738,
2023-08-15 14:04:13.976000,-7.819277108433735,-0.7349397590361446,-5.9397590361445785,-0.6793378295524218,-7.637645616186388,-5.621091354996934,2.0,1.6769230769230767,596.3302752293579,0.2453236990851346,0.5627877163335475,-0.048715109842083805,1357.5091575091574,-1.0,72.52766710934041,1.6803563670718458,
2023-08-15 14:04:13.984000,-7.819277108433735,-0.7349397590361446,-5.927710843373494,-0.6916002452483139,-7.613120784794604,-5.638258736971183,2.0,1.6769230769230767,596.3302752293579,0.2554629683584865,0.223180467338734,0.31536623739875314,1350.9157509157508,-1.0,72.52766710934041,1.6803304429789272,
2023-08-15 14:04:13.991000,-7.855421686746988,-0.746987951807229,-5.927710843373494,-0.7136725935009196,-7.637645616186388,-5.6039239730226855,2.0,1.6769230769230767,596.3302752293579,0.06759512848901532,0.26921508070625294,0.01969582192179955,1345.054945054945,-1.0,72.52766710934041,1.6803044694401477,
2023-08-15 14:04:13.999000,-7.807228915662651,-0.7349397590361446,-5.951807228915663,-0.657265481299816,-7.627835683629675,-5.589209074187615,2.0,1.6769230769230767,596.3302752293579,0.24963580210943423,0.511858283316823,0.3819124759629392,1339.194139194139,-1.0,72.52766710934041,1.6802784466308074,
2023-08-15 14:04:14.007000,-7.807228915662651,-0.7349397590361446,-5.963855421686747,-0.6597179644389944,-7.576333537706928,-5.6333537706928265,2.0,1.6769230769230767,596.3302752293579,-0.1361226035778808,0.09801293630907265,-0.3735213565643029,1329.6703296703297,-1.0,72.52766710934041,1.6802523745809173,
2023-08-15 14:04:14.014000,-7.807228915662651,-0.746987951807229,-5.963855421686747,-0.6425505824647455,-7.591048436541999,-5.608828939301042,2.0,1.6769230769230767,596.3302752293579,0.44333080822795934,0.11526134840626943,0.08321193403647778,1320.14652014652,-1.0,72.52766710934041,1.6802262531675676,
2023-08-15 14:04:14.022000,-7.795180722891566,-0.746987951807229,-5.951807228915663,-0.6670754138565297,-7.5370938074800735,-5.586756591048436,2.0,1.6769230769230767,596.3302752293579,0.19462735271837353,0.3572052910669546,0.4446127848027503,1309.89010989011,-1.0,72.52766710934041,1.6802000821081426,
2023-08-15 14:04:14.030000,-7.819277108433735,-0.7349397590361446,-5.951807228915663,-0.7063151440833844,-7.568976088289393,-5.630901287553648,2.0,1.6769230769230767,596.3302752293579,0.19416117941844846,0.49251209136996604,0.05559116601596661,1302.5641025641025,-1.0,72.52766710934041,1.6801738609544814,
2023-08-15 14:04:14.037000,-7.83132530120482,-0.7349397590361446,-5.975903614457832,-0.6597179644389944,-7.576333537706928,-5.616186388718577,2.0,1.6769230769230767,596.3302752293579,0.19206339956878993,0.48819998834566813,0.05256103956645878,1295.2380952380952,-1.0,72.52766710934041,1.6801475890880757,
2023-08-15 14:04:14.045000,-7.83132530120482,-0.7228915662650602,-5.987951807228916,-0.6106683016554261,-7.586143470263641,-5.657878602084611,2.0,1.6769230769230767,596.3302752293579,-0.07039216828856061,0.3171143872734687,0.3847095157624849,1290.10989010989,-1.0,72.52766710934041,1.6801212657163962,
2023-08-15 14:04:14.052000,-7.83132530120482,-0.710843373493976,-5.963855421686747,-0.6621704475781729,-7.591048436541999,-5.655426118945432,2.0,1.6769230769230767,596.3302752293579,-0.04032399044344752,0.9703397237923189,0.28762892605326024,1289.3772893772893,-1.0,72.52766710934041,1.6800948898704364,
2023-08-15 14:04:14.060000,-7.843373493975904,-0.7349397590361446,-6.0,-0.6106683016554261,-7.689147762109135,-5.679950950337216,2.0,1.6769230769230767,596.3302752293579,-0.16234485169861934,0.6891206806130172,0.2515004953091311,1290.8424908424909,-1.0,72.52766710934041,1.6800684604035356,
2023-08-15 14:04:14.068000,-7.819277108433735,-0.7228915662650602,-6.0,-0.615573267933783,-7.637645616186388,-5.652973635806253,2.0,1.6769230769230767,596.3302752293579,-0.19124759629392235,0.5157042130411976,0.12609987762950892,1296.7032967032967,-1.0,72.52766710934041,1.6800419759915757,
2023-08-15 14:04:14.075000,-7.819277108433735,-0.7349397590361446,-5.987951807228916,-0.6719803801348866,-7.674432863274064,-5.6774984671980375,2.0,1.6769230769230767,596.3302752293579,-0.266884214206631,0.41967251325680266,0.016665695472291724,1301.098901098901,-1.0,72.52766710934041,1.680015435134576,
2023-08-15 14:04:14.083000,-7.819277108433735,-0.7349397590361446,-5.987951807228916,-0.6597179644389944,-7.649908031882281,-5.719190680564071,2.0,1.6769230769230767,596.3302752293579,-0.06747858516403449,0.3697919701649092,0.08927218693549344,1306.227106227106,-1.0,72.52766710934041,1.6799888361597697,
2023-08-15 14:04:14.091000,-7.819277108433735,-0.7228915662650602,-5.987951807228916,-0.6965052115266707,-7.517473942366646,-5.694665849172287,2.0,1.6769230769230767,596.3302752293579,0.1764465940213266,-0.015500262222480757,-0.018530388671989015,1309.1575091575091,-1.0,72.52766710934041,1.6799621772261868,
2023-08-15 14:04:14.098000,-7.83132530120482,-0.7349397590361446,-5.975903614457832,-0.6670754138565297,-7.578786020846106,-5.7069282648681785,2.0,1.6769230769230767,596.3302752293579,-0.2237631839636382,-0.01911310529689363,0.28459879960375284,1310.6227106227104,-1.0,72.52766710934041,1.6799354563307787,
2023-08-15 14:04:14.106000,-7.807228915662651,-0.7228915662650602,-6.0,-0.6621704475781729,-7.551808706315144,-5.652973635806253,2.0,1.6754578754578755,596.8517708788806,-0.08612551716100478,0.008507662723616683,0.2039508187168578,1309.1575091575091,-1.0,72.52766710934041,1.679908671316108,
2023-08-15 14:04:14.114000,-7.807228915662651,-0.7349397590361446,-5.987951807228916,-0.6523605150214592,-7.583690987124463,-5.594114040465971,2.0,1.6769230769230767,596.3302752293579,-0.14742730610104277,-0.28623040615348805,0.41256337043295865,1309.1575091575091,-1.0,72.52766710934041,1.6798818198448109,
2023-08-15 14:04:14.121000,-7.83132530120482,-0.710843373493976,-5.975903614457832,-0.6768853464132434,-7.613120784794604,-5.635806253832005,2.0,1.6754578754578755,596.8517708788806,0.023541751646174093,-0.4401841384534698,0.1631606549734865,1312.8205128205127,-1.0,72.52766710934041,1.6798548997636726,
2023-08-15 14:04:14.129000,-7.819277108433735,-0.7349397590361446,-6.0120481927710845,-0.7063151440833844,-7.608215818516247,-5.652973635806253,2.0,1.6769230769230767,596.3302752293579,-0.09754676300914931,-0.14894236932579713,0.4640755200745877,1316.4835164835165,-1.0,72.52766710934041,1.679827908659471,
2023-08-15 14:04:14.137000,-7.807228915662651,-0.7228915662650602,-6.0,-0.6131207847946045,-7.5812385039852845,-5.6774984671980375,2.0,1.6769230769230767,596.3302752293579,-0.14486335295145916,-0.08810675368568247,0.044403006817784606,1320.14652014652,-1.0,72.52766710934041,1.679800843838567,
2023-08-15 14:04:14.144000,-7.83132530120482,-0.7228915662650602,-5.951807228915663,-0.6204782342121398,-7.6106683016554255,-5.6995708154506435,2.0,1.6769230769230767,596.3302752293579,0.024707184895985928,-0.10535516578287923,0.1666569547229181,1321.6117216117216,-1.0,72.52766710934041,1.6797737024113952,
2023-08-15 14:04:14.152000,-7.807228915662651,-0.7228915662650602,-5.987951807228916,-0.6376456161863887,-7.6180257510729605,-5.635806253832005,2.0,1.6769230769230767,596.3302752293579,-0.051861779616572894,0.12295320785502026,-0.23460171318687725,1320.8791208791208,-1.0,72.52766710934041,1.6797464813778387,
2023-08-15 14:04:14.160000,-7.795180722891566,-0.6987951807228916,-5.963855421686747,-0.640098099325567,-7.622930717351318,-5.623543838136112,2.0,1.6769230769230767,596.3302752293579,0.11747567158091053,-0.016316065497348348,-0.09649787308431917,1317.216117216117,-1.0,72.52766710934041,1.67971917760946,
2023-08-15 14:04:14.167000,-7.783132530120482,-0.710843373493976,-5.9397590361445785,-0.6646229307173512,-7.630288166768853,-5.6407112201103615,2.0,1.6769230769230767,596.3302752293579,0.010372355923315273,-0.11083270205698896,-0.09521589650952737,1315.018315018315,-1.0,72.52766710934041,1.6796917879024271,
2023-08-15 14:04:14.175000,-7.783132530120482,-0.674698795180723,-5.9397590361445785,-0.6033108522378908,-7.568976088289393,-5.657878602084611,2.0,1.6769230769230767,596.3302752293579,-0.15605151214964202,-0.08216304411164765,-0.11234776528174331,1312.8205128205127,-1.0,72.52766710934041,1.6796643094198997,
2023-08-15 14:04:14.183000,-7.795180722891566,-0.6867469879518072,-5.9397590361445785,-0.6253832004904966,-7.576333537706928,-5.606376456161864,2.0,1.6769230769230767,596.3302752293579,0.11957345143056906,-0.25383136180875304,-0.3999766913350036,1307.6923076923076,-1.0,72.52766710934041,1.6796367387641618,
2023-08-15 14:04:14.190000,-7.795180722891566,-0.6867469879518072,-5.927710843373494,-0.627835683629675,-7.6180257510729605,-5.650521152667075,2.0,1.6769230769230767,596.3302752293579,-0.3391410756948902,0.06561389196433763,-0.1983567391177668,1304.7619047619046,-1.0,72.52766710934041,1.679609072067251,
2023-08-15 14:04:14.198000,-7.843373493975904,-0.6867469879518072,-5.9397590361445785,-0.6597179644389944,-7.583690987124463,-5.672593500919681,2.0,1.6769230769230767,596.3302752293579,0.08997144688537932,-0.11700949828098545,0.2897267059029192,1300.3663003663003,-1.0,72.52766710934041,1.6795813055033666,
2023-08-15 14:04:14.206000,-7.867469879518072,-0.710843373493976,-5.975903614457832,-0.6180257510729613,-7.583690987124463,-5.652973635806253,2.0,1.6769230769230767,596.3302752293579,0.05897092244041781,0.37422061651418964,0.07377192471301224,1294.5054945054944,-1.0,72.52766710934041,1.6795534357677215,
2023-08-15 14:04:14.213000,-7.843373493975904,-0.6987951807228916,-5.9397590361445785,-0.5861434702636419,-7.6106683016554255,-5.657878602084611,2.0,1.6769230769230767,596.3302752293579,0.30301264495075975,0.7243167647572993,-0.04894819649204591,1289.3772893772893,-1.0,72.52766710934041,1.679525460031432,
2023-08-15 14:04:14.221000,-7.819277108433735,-0.6867469879518072,-5.975903614457832,-0.6229307173513182,-7.583690987124463,-5.679950950337216,2.0,1.6769230769230767,596.3302752293579,0.5146553231163684,0.643901870520366,0.10337392925820155,1286.4468864468863,-1.0,72.52766710934041,1.6794973750185054,
2023-08-15 14:04:14.229000,-7.795180722891566,-0.6987951807228916,-5.951807228915663,-0.6302881667688535,-7.62047823421214,-5.594114040465971,2.0,1.6769230769230767,596.3302752293579,0.3272536565468206,0.8232620476662204,0.1336751937532776,1287.179487179487,-1.0,72.52766710934041,1.6794691775588566,
2023-08-15 14:04:14.236000,-7.795180722891566,-0.6867469879518072,-5.987951807228916,-0.598405885959534,-7.6695278969957075,-5.682403433476394,2.0,1.6754578754578755,596.8517708788806,0.5846978614299865,0.5743255055066729,0.07027562496358021,1289.3772893772893,-1.0,72.52766710934041,1.679440865037565,
2023-08-15 14:04:14.244000,-7.795180722891566,-0.6867469879518072,-6.0120481927710845,-0.598405885959534,-7.549356223175965,-5.6480686695278965,2.0,1.6769230769230767,596.3302752293579,0.6428529805955366,0.3730551832643778,-0.1286638307790921,1291.5750915750914,-1.0,72.52766710934041,1.6794124339806091,
2023-08-15 14:04:14.252000,-7.783132530120482,-0.6987951807228916,-5.987951807228916,-0.6057633353770693,-7.549356223175965,-5.675045984058859,2.0,1.6754578754578755,596.8517708788806,0.8832818600314675,0.6457665637200628,0.1308781539537323,1295.970695970696,-1.0,72.52766710934041,1.6793838805715964,
2023-08-15 14:04:14.259000,-7.759036144578314,-0.6987951807228916,-6.048192771084338,-0.5910484365419988,-7.534641324340895,-5.716738197424893,2.0,1.6754578754578755,596.8517708788806,0.9511100751704444,0.6090554163510281,0.19159722626886527,1304.0293040293038,-1.0,72.52766710934041,1.6793552012008939,
2023-08-15 14:04:14.267000,-7.771084337349398,-0.6867469879518072,-6.048192771084338,-0.598405885959534,-7.546903740036787,-5.6922133660331085,2.0,1.6754578754578755,596.8517708788806,0.6852747508886428,0.5442573276615581,0.19124759629392235,1317.216117216117,-1.0,72.52766710934041,1.6793263924179584,
2023-08-15 14:04:14.275000,-7.783132530120482,-0.6867469879518072,-6.0120481927710845,-0.6033108522378908,-7.583690987124463,-5.6627835683629675,2.0,1.6754578754578755,596.8517708788806,0.6638307790921272,0.8921391527300266,0.051395606316648246,1334.065934065934,-1.0,72.52766710934041,1.6792974513412913,
2023-08-15 14:04:14.282000,-7.795180722891566,-0.6626506024096386,-6.0120481927710845,-0.5567136725935009,-7.554261189454322,-5.6922133660331085,2.0,1.6754578754578755,596.8517708788806,0.549618320610687,0.5479867140609518,-0.10255812598333439,1354.5787545787546,-1.0,72.52766710934041,1.6792683751890758,
2023-08-15 14:04:14.290000,-7.795180722891566,-0.6626506024096386,-5.987951807228916,-0.598405885959534,-7.564071122011036,-5.68976088289393,2.0,1.6769230769230767,596.3302752293579,0.6800303012644947,0.5893595944292286,0.20313501544199067,1380.2197802197802,-1.0,72.52766710934041,1.6792391613014108,
2023-08-15 14:04:14.298000,-7.795180722891566,-0.674698795180723,-5.987951807228916,-0.6057633353770693,-7.578786020846106,-5.6701410177805025,2.0,1.6769230769230767,596.3302752293579,0.24520715576015376,0.6145329526251379,0.04824893654215959,1413.9194139194137,-1.0,72.52766710934041,1.6792098071961854,
2023-08-15 14:04:14.305000,-7.795180722891566,-0.6987951807228916,-6.0,-0.6229307173513182,-7.5738810545677495,-5.655426118945432,2.0,1.6769230769230767,596.3302752293579,0.11980653808053073,0.22527824718839254,-0.044403006817784606,1456.4102564102564,-1.0,72.52766710934041,1.6791803107283585,
2023-08-15 14:04:14.313000,-7.795180722891566,-0.710843373493976,-5.987951807228916,-0.6793378295524218,-7.6033108522378905,-5.672593500919681,2.0,1.6769230769230767,596.3302752293579,0.11584406503117535,0.22189849076394133,-0.04207214031816311,1506.227106227106,-1.0,72.52766710934041,1.679150670602432,
2023-08-15 14:04:14.321000,-7.807228915662651,-0.7349397590361446,-6.024096385542169,-0.6499080318822807,-7.5665236051502145,-5.694665849172287,2.0,1.6754578754578755,596.8517708788806,0.1596643552240549,0.47910960899714383,-0.254763708408601,1564.102564102564,-1.0,72.52766710934041,1.6791208858670184,
2023-08-15 14:04:14.328000,-7.795180722891566,-0.7228915662650602,-6.0120481927710845,-0.7014101778050276,-7.637645616186388,-5.667688534641324,2.0,1.6769230769230767,596.3302752293579,0.447060194627353,0.3193287104481098,-0.5084785268923723,1625.6410256410256,-1.0,72.52766710934041,1.6790909554784228,
2023-08-15 14:04:14.336000,-7.795180722891566,-0.7349397590361446,-6.0120481927710845,-0.6597179644389944,-7.561618638871857,-5.697118332311465,2.0,1.6769230769230767,596.3302752293579,0.1851873433949067,0.34415243866907486,0.09125342346017112,1688.6446886446886,-1.0,72.52766710934041,1.6790608791651125,
2023-08-15 14:04:14.344000,-7.819277108433735,-0.7349397590361446,-6.0,-0.6866952789699571,-7.608215818516247,-5.6774984671980375,2.0,1.6769230769230767,596.3302752293579,0.2710797739059498,0.049880543091895206,-0.029368917895227633,1747.2527472527472,-1.0,72.52766710934041,1.679030657482037,
2023-08-15 14:04:14.351000,-7.819277108433735,-0.7349397590361446,-6.0,-0.7431023911710607,-7.6327406499080315,-5.6627835683629675,2.0,1.6769230769230767,596.3302752293579,0.2368160363615179,-0.012703222422935475,0.1390361867024065,1799.9999999999998,-1.0,72.52766710934041,1.6790002909156605,
2023-08-15 14:04:14.359000,-7.843373493975904,-0.7349397590361446,-6.0,-0.6866952789699571,-7.6106683016554255,-5.704475781729,2.0,1.6769230769230767,596.3302752293579,0.599149233727638,0.32305809684750353,-0.0012819765747918046,1841.0256410256409,796.630859375,75.31719276739197,1.678969780428708,
2023-08-15 14:04:14.367000,-7.855421686746988,-0.710843373493976,-5.987951807228916,-0.6621704475781729,-7.627835683629675,-5.672593500919681,2.0,1.6769230769230767,596.3302752293579,0.28751238272827895,-0.07831711438727311,0.3047607948254762,1871.7948717948716,-1.0,75.31719276739197,1.67893912789965,
2023-08-15 14:04:14.374000,-7.83132530120482,-0.746987951807229,-6.0120481927710845,-0.6670754138565297,-7.627835683629675,-5.665236051502146,2.0,1.6769230769230767,596.3302752293579,0.06876056173882716,-0.003845929724374546,-0.12341938115494447,1894.5054945054944,-1.0,75.31719276739197,1.678908335647739,
2023-08-15 14:04:14.382000,-7.819277108433735,-0.7349397590361446,-6.0,-0.7063151440833844,-7.608215818516247,-5.6995708154506435,2.0,1.6769230769230767,596.3302752293579,0.04859856651710253,-0.2973020220266883,-0.32072723034788203,1909.1575091575091,-1.0,75.31719276739197,1.678877405991445,
2023-08-15 14:04:14.390000,-7.807228915662651,-0.7590361445783133,-6.0,-0.6646229307173512,-7.549356223175965,-5.599019006744328,2.0,1.6769230769230767,596.3302752293579,-0.32130994697278753,-0.3143173474739234,-0.7283957811316355,1914.2857142857142,-1.0,75.31719276739197,1.6788463417884374,
2023-08-15 14:04:14.397000,-7.807228915662651,-0.7228915662650602,-6.0,-0.6548129981606376,-7.591048436541999,-5.665236051502146,2.0,1.6754578754578755,596.8517708788806,-0.5686148825825998,-0.5271254588893421,-0.29497115552706726,1910.6227106227104,-1.0,75.31719276739197,1.6788151468700399,
2023-08-15 14:04:14.405000,-7.771084337349398,-0.7349397590361446,-6.024096385542169,-0.6376456161863887,-7.583690987124463,-5.672593500919681,2.0,1.6769230769230767,596.3302752293579,-0.4316764757298531,-0.5117417399918422,-0.4298117825301554,1897.4358974358972,-1.0,75.31719276739197,1.6787838250682865,
2023-08-15 14:04:14.412000,-7.807228915662651,-0.7349397590361446,-6.0361445783132535,-0.6548129981606376,-7.622930717351318,-5.667688534641324,2.0,1.6754578754578755,596.8517708788806,-0.2778392867548505,-0.48179010547170825,-0.12073888468038002,1873.9926739926739,-1.0,75.31719276739197,1.6787523806471665,
2023-08-15 14:04:14.420000,-7.783132530120482,-0.7349397590361446,-6.0120481927710845,-0.6695278969957081,-7.608215818516247,-5.672593500919681,2.0,1.6754578754578755,596.8517708788806,-0.4619777402249279,-0.5399452246372585,-0.27271138045568455,1843.956043956044,-1.0,75.31719276739197,1.678720818801392,
2023-08-15 14:04:14.428000,-7.795180722891566,-0.746987951807229,-6.0,-0.6817903126916002,-7.6253832004904964,-5.672593500919681,2.0,1.6754578754578755,596.8517708788806,-0.43062758580502386,-0.18751820989452864,0.06584697861429974,1808.058608058608,-1.0,75.31719276739197,1.6786891450658026,
2023-08-15 14:04:14.435000,-7.83132530120482,-0.746987951807229,-6.0,-0.6106683016554261,-7.654812998160637,-5.635806253832005,2.0,1.6754578754578755,596.8517708788806,-0.2936891789522755,-0.1744653574966489,0.0961482431093758,1766.3003663003662,-1.0,75.31719276739197,1.678657364826395,
2023-08-15 14:04:14.443000,-7.843373493975904,-0.7349397590361446,-5.975903614457832,-0.627835683629675,-7.608215818516247,-5.6627835683629675,2.0,1.6769230769230767,596.3302752293579,-0.350562321543033,0.06654623856418607,-0.3603519608414428,1720.8791208791208,-1.0,75.31719276739197,1.6786254833882301,
2023-08-15 14:04:14.451000,-7.807228915662651,-0.710843373493976,-6.0120481927710845,-0.6376456161863887,-7.571428571428571,-5.638258736971183,2.0,1.6754578754578755,596.8517708788806,-0.227958743662957,-0.0759862478876529,-0.03787658061884518,1670.3296703296703,-1.0,75.31719276739197,1.6785935069541214,
2023-08-15 14:04:14.458000,-7.83132530120482,-0.7228915662650602,-5.975903614457832,-0.6302881667688535,-7.559166155732679,-5.655426118945432,2.0,1.6754578754578755,596.8517708788806,-0.6977448866616165,-0.2917079424275978,-0.4946098712196259,1618.3150183150183,-1.0,75.31719276739197,1.678561442195147,
2023-08-15 14:04:14.466000,-7.807228915662651,-0.7349397590361446,-5.963855421686747,-0.6744328632740649,-7.559166155732679,-5.68976088289393,2.0,1.6754578754578755,596.8517708788806,-0.5266592855894171,-0.32492279004720037,-0.4620942835499096,1565.5677655677655,-1.0,75.31719276739197,1.6785292957148699,
2023-08-15 14:04:14.474000,-7.783132530120482,-0.7228915662650602,-5.975903614457832,-0.6327406499080318,-7.5665236051502145,-5.667688534641324,2.0,1.6754578754578755,596.8517708788806,-0.55439659693491,-0.568964512557544,-0.6409882873958394,1514.2857142857142,-1.0,75.31719276739197,1.678497074494312,
2023-08-15 14:04:14.481000,-7.783132530120482,-0.7349397590361446,-5.987951807228916,-0.6793378295524218,-7.5665236051502145,-5.721643163703249,2.0,1.6754578754578755,596.8517708788806,-0.749956296253132,-0.7484412330283776,-0.3276032865217644,1467.3992673992673,-1.0,75.31719276739197,1.6784647858768915,
2023-08-15 14:04:14.489000,-7.746987951807229,-0.7228915662650602,-6.0120481927710845,-0.6253832004904966,-7.5665236051502145,-5.64316370324954,2.0,1.6754578754578755,596.8517708788806,-0.48598566517102704,-0.4685041664238686,-0.39822854146028797,1425.6410256410256,-1.0,75.31719276739197,1.678432437551265,
2023-08-15 14:04:14.497000,-7.783132530120482,-0.7349397590361446,-6.0120481927710845,-0.7210300429184548,-7.527283874923359,-5.638258736971183,2.0,1.6754578754578755,596.8517708788806,-0.2552298817085248,-0.43598857875415103,-0.16537497814812674,1386.8131868131868,-1.0,75.31719276739197,1.6784000375322028,
2023-08-15 14:04:14.504000,-7.83132530120482,-0.746987951807229,-6.0120481927710845,-0.6082158185162476,-7.6106683016554255,-5.650521152667075,2.0,1.6754578754578755,596.8517708788806,-0.14929199930073964,-0.18763475321950945,0.019928908571761654,1352.3809523809523,-1.0,75.31719276739197,1.6783675941395801,
