Shimmer_F5D4_Timestamp_FormattedUnix_CAL,Shimmer_F5D4_Accel_LN_X_CAL,Shimmer_F5D4_Accel_LN_Y_CAL,Shimmer_F5D4_Accel_LN_Z_CAL,Shimmer_F5D4_Accel_WR_X_CAL,Shimmer_F5D4_Accel_WR_Y_CAL,Shimmer_F5D4_Accel_WR_Z_CAL,Shimmer_F5D4_GSR_Range_CAL,Shimmer_F5D4_GSR_Skin_Conductance_CAL,Shimmer_F5D4_GSR_Skin_Resistance_CAL,Shimmer_F5D4_Gyro_X_CAL,Shimmer_F5D4_Gyro_Y_CAL,Shimmer_F5D4_Gyro_Z_CAL,Shimmer_F5D4_PPG_A13_CAL,Shimmer_F5D4_PPG_IBI_CAL,Shimmer_F5D4_PPGtoHR_CAL,Shimmer_F5D4_GSR_Skin_Conductance_LPF_CAL,
yyyy/mm/dd hh:mm:ss.000,m/(s^2),m/(s^2),m/(s^2),m/(s^2),m/(s^2),m/(s^2),no_units,uS,kOhms,deg/s,deg/s,deg/s,mV,ms,BPM,uS,
2023-08-15 12:57:59.196000,8.216867469879519,-0.49397590361445787,-5.506024096385542,-0.3654199877375843,8.90680564071122,-4.9147762109135495,3.0,1.2887112887112888,775.968992248062,0.3984616281102505,0.8180175980420723,0.03950818716857993,1023.4432234432234,-1.0,86.07679173416226,1.2916845775944934,
2023-08-15 12:57:59.204000,8.228915662650603,-0.46987951807228917,-5.506024096385542,-0.37522992029429797,9.004904966278357,-4.946658491722869,3.0,1.2882672882672883,776.2364294330519,0.9802459064157109,0.13379173707825887,-0.03915855719363612,1018.3150183150183,-1.0,86.07679173416226,1.2916543963303244,
2023-08-15 12:57:59.212000,8.216867469879519,-0.4819277108433735,-5.506024096385542,-0.34334763948497854,8.941140404659718,-4.922133660331085,3.0,1.2882672882672883,776.2364294330519,0.7639414952508601,0.048831653167064205,-0.17889400384593024,1018.3150183150183,-1.0,86.07679173416226,1.2916241512901538,
2023-08-15 12:57:59.219000,8.25301204819277,-0.46987951807228917,-5.493975903614458,-0.40220723482526055,8.89209074187615,-4.939301042305334,3.0,1.2882672882672883,776.2364294330519,0.5192005127906296,0.08799021036070162,-0.11934036478060739,1023.4432234432234,-1.0,86.07679173416226,1.2915938433085599,
2023-08-15 12:57:59.227000,8.228915662650603,-0.49397590361445787,-5.481927710843374,-0.3727774371551195,8.90680564071122,-4.9294911097486205,3.0,1.2887112887112888,775.968992248062,0.4740982460229592,0.34182157216945463,-0.19800710914282343,1036.6300366300366,-1.0,86.07679173416226,1.2915634730704169,
2023-08-15 12:57:59.235000,8.240963855421688,-0.49397590361445787,-5.518072289156627,-0.41446965052115264,8.889638258736971,-4.96137339055794,3.0,1.2887112887112888,775.968992248062,0.7487908630033201,0.1707359710972552,0.363498630615931,1054.9450549450548,-1.0,86.07679173416226,1.2915330412705648,
2023-08-15 12:57:59.242000,8.240963855421688,-0.5060240963855422,-5.518072289156627,-0.3850398528510116,8.90680564071122,-4.909871244635193,3.0,1.2873792873792875,776.7718572167615,0.4870345550958581,0.106054425732766,0.020161995221723326,1073.260073260073,-1.0,86.07679173416226,1.2915025486468388,
2023-08-15 12:57:59.250000,8.228915662650603,-0.5060240963855422,-5.518072289156627,-0.3507050889025138,8.894543225015328,-4.96137339055794,3.0,1.2878232878232878,776.5040510256853,0.2425266592855893,0.07237340481324003,0.10687022900763359,1093.040293040293,-1.0,86.07679173416226,1.2914719956845044,
2023-08-15 12:57:59.258000,8.240963855421688,-0.5180722891566265,-5.530120481927711,-0.3654199877375843,8.931330472103005,-4.934396076026977,3.0,1.2882672882672883,776.2364294330519,0.39776236816036376,0.12947963405395924,0.17772857059611927,1112.8205128205127,-1.0,86.07679173416226,1.2914413826736257,
2023-08-15 12:57:59.265000,8.265060240963855,-0.49397590361445787,-5.493975903614458,-0.3408951563458001,8.958307786633966,-4.909871244635193,3.0,1.2882672882672883,776.2364294330519,0.08903910028553089,0.17201794767204787,0.14078433657712208,1134.065934065934,-1.0,86.07679173416226,1.291410709871961,
2023-08-15 12:57:59.273000,8.265060240963855,-0.49397590361445787,-5.506024096385542,-0.39975475168608215,8.899448191293684,-4.931943592887799,3.0,1.2882672882672883,776.2364294330519,0.1364722335528216,0.04405337684284123,0.11829147485577725,1151.6483516483515,-1.0,86.07679173416226,1.2913799774228039,
2023-08-15 12:57:59.281000,8.301204819277109,-0.4819277108433735,-5.518072289156627,-0.3727774371551195,8.977927651747393,-4.880441446965052,3.0,1.2882672882672883,776.2364294330519,0.15337101567507586,-0.036244974069109565,0.29602004545189653,1169.230769230769,-1.0,86.07679173416226,1.2913491852414538,
2023-08-15 12:57:59.288000,8.265060240963855,-0.4819277108433735,-5.506024096385542,-0.4095646842427958,8.965665236051501,-4.9000613120784795,3.0,1.2882672882672883,776.2364294330519,0.32200920692267426,0.21968416758930198,0.3803974127381853,1185.3479853479853,-1.0,86.07679173416226,1.291318333189342,
2023-08-15 12:57:59.296000,8.289156626506024,-0.5180722891566265,-5.506024096385542,-0.43654199877375843,8.958307786633966,-4.9000613120784795,3.0,1.2882672882672883,776.2364294330519,-0.30546005477536425,-0.08694132043587237,0.2039508187168578,1201.4652014652013,-1.0,86.07679173416226,1.2912874210781582,
2023-08-15 12:57:59.304000,8.301204819277109,-0.5060240963855422,-5.506024096385542,-0.39239730226854685,9.01471489883507,-4.9442060085836905,3.0,1.2882672882672883,776.2364294330519,0.2746926169803609,0.14043470660217872,0.5032340772682247,1217.5824175824175,-1.0,86.07679173416226,1.2912564486953595,
2023-08-15 12:57:59.311000,8.27710843373494,-0.49397590361445787,-5.506024096385542,-0.3850398528510116,8.973022685469036,-4.9294911097486205,3.0,1.2882672882672883,776.2364294330519,0.23937998951110154,-0.1823903035953614,-0.1446302663014975,1232.2344322344322,-1.0,86.07679173416226,1.2912254159476404,
2023-08-15 12:57:59.319000,8.289156626506024,-0.5060240963855422,-5.46987951807229,-0.3973022685469037,8.941140404659718,-4.919681177191906,3.0,1.2882672882672883,776.2364294330519,0.1710856010721977,0.2900763358778626,0.18914981644426293,1246.8864468864467,-1.0,86.07679173416226,1.2911943227278257,
2023-08-15 12:57:59.327000,8.289156626506024,-0.4819277108433735,-5.493975903614458,-0.3408951563458001,8.975475168608215,-4.927038626609442,3.0,1.2882672882672883,776.2364294330519,0.3024299283258555,0.25604568498339236,-0.09008799021036103,1257.8754578754579,-1.0,86.07679173416226,1.2911631687923744,
2023-08-15 12:57:59.334000,8.301204819277109,-0.4819277108433735,-5.493975903614458,-0.3359901900674433,9.036787247087675,-4.924586143470264,3.0,1.2878232878232878,776.5040510256853,0.43190956237981304,0.2821513897791501,0.33657712254530614,1265.2014652014652,-1.0,86.07679173416226,1.2911319539368091,
2023-08-15 12:57:59.342000,8.265060240963855,-0.4819277108433735,-5.481927710843374,-0.3703249540159411,8.933782955242183,-4.8706315144083385,3.0,1.2882672882672883,776.2364294330519,0.2524328419089795,0.3380921857700592,-0.15768311869937635,1270.3296703296703,-1.0,86.07679173416226,1.2911006779903103,
2023-08-15 12:57:59.350000,8.265060240963855,-0.4819277108433735,-5.445783132530121,-0.3507050889025138,8.955855303494788,-4.8779889638258735,3.0,1.2878232878232878,776.5040510256853,0.24019579278596737,0.33273119282093033,-0.15943126857409237,1269.5970695970695,-1.0,86.07679173416226,1.291069340810243,
2023-08-15 12:57:59.357000,8.216867469879519,-0.5180722891566265,-5.445783132530121,-0.3654199877375843,8.931330472103005,-4.83629675045984,3.0,1.2878232878232878,776.5040510256853,0.24555678573509626,0.4505564943767851,0.11759221490589136,1264.4688644688645,-1.0,86.07679173416226,1.2910379423080955,
2023-08-15 12:57:59.365000,8.228915662650603,-0.5060240963855422,-5.46987951807229,-0.3973022685469037,8.943592887798896,-4.83629675045984,3.0,1.2878232878232878,776.5040510256853,0.6156983858749497,0.21700367111473753,-0.18798438319445285,1255.6776556776556,-1.0,86.07679173416226,1.2910064823047869,
2023-08-15 12:57:59.372000,8.228915662650603,-0.5301204819277109,-5.46987951807229,-0.4071122011036174,8.943592887798896,-4.86817903126916,3.0,1.2878232878232878,776.5040510256853,0.4347066021793601,0.5056814870928266,-0.30825709457490824,1252.7472527472526,-1.0,86.07679173416226,1.2909749606834715,
2023-08-15 12:57:59.380000,8.240963855421688,-0.49397590361445787,-5.46987951807229,-0.3973022685469037,8.970570202329858,-4.863274064990803,3.0,1.2878232878232878,776.5040510256853,0.9093875648272252,0.17819474389604262,0.24497406911019165,1254.212454212454,-1.0,86.07679173416226,1.2909433774031402,
2023-08-15 12:57:59.388000,8.216867469879519,-0.5060240963855422,-5.46987951807229,-0.42673206621704474,8.899448191293684,-4.848559166155733,3.0,1.2882672882672883,776.2364294330519,0.5552124002097776,0.14742730610104277,0.368160363615174,1261.5384615384614,-1.0,86.07679173416226,1.2909117325117576,
2023-08-15 12:57:59.395000,8.27710843373494,-0.49397590361445787,-5.445783132530121,-0.3703249540159411,8.990190067443287,-4.858369098712446,3.0,1.2873792873792875,776.7718572167615,0.6944816735621462,-0.15989744187401658,0.3520773847677873,1276.923076923077,-1.0,86.07679173416226,1.2908800261694355,
2023-08-15 12:57:59.403000,8.289156626506024,-0.49397590361445787,-5.457831325301205,-0.3727774371551195,8.955855303494788,-4.875536480686695,3.0,1.2878232878232878,776.5040510256853,0.5745585921566346,-0.3567391177670295,0.7947089330458599,1300.3663003663003,-1.0,86.07679173416226,1.2908482586816934,
2023-08-15 12:57:59.411000,8.27710843373494,-0.4819277108433735,-5.457831325301205,-0.3359901900674433,8.985285101164928,-4.892703862660944,3.0,1.2878232878232878,776.5040510256853,0.9282675834741572,-0.3227084668725593,0.46628984324922795,1339.9267399267399,-1.0,86.07679173416226,1.2908164305867036,
2023-08-15 12:57:59.418000,8.289156626506024,-0.49397590361445787,-5.46987951807229,-0.4095646842427958,9.024524831391783,-4.873083997547517,3.0,1.2878232878232878,776.5040510256853,0.48761727172076225,-0.3962473049356094,0.6464658236699491,1399.2673992673992,-1.0,86.07679173416226,1.290784542528269,
2023-08-15 12:57:59.426000,8.265060240963855,-0.5180722891566265,-5.445783132530121,-0.40220723482526055,8.977927651747393,-4.86817903126916,3.0,1.2878232878232878,776.5040510256853,0.7483246897033967,-0.2851815162286588,0.7815395373230002,1484.9816849816848,-1.0,86.07679173416226,1.2907525951490892,
2023-08-15 12:57:59.434000,8.27710843373494,-0.5180722891566265,-5.493975903614458,-0.4438994481912937,8.973022685469036,-4.895156345800122,3.0,1.2882672882672883,776.2364294330519,0.5651185828331677,-0.3404230522696811,0.9751180001165433,1595.6043956043954,-1.0,86.07679173416226,1.2907205892495635,
2023-08-15 12:57:59.441000,8.301204819277109,-0.5180722891566265,-5.518072289156627,-0.43654199877375843,8.965665236051501,-4.88289393010423,3.0,1.2882672882672883,776.2364294330519,0.6450673037701761,-0.2890274459530333,0.6318979080473164,1732.6007326007325,-1.0,86.07679173416226,1.290688525945958,
2023-08-15 12:57:59.449000,8.289156626506024,-0.5301204819277109,-5.518072289156627,-0.37768240343347637,8.970570202329858,-4.941753525444512,3.0,1.2878232878232878,776.5040510256853,0.2847153429287337,-0.09941145620884616,0.19824019579278554,1893.040293040293,-1.0,86.07679173416226,1.2906564067005069,
2023-08-15 12:57:59.457000,8.265060240963855,-0.5421686746987953,-5.542168674698796,-0.43654199877375843,8.987737584304108,-4.919681177191906,3.0,1.2878232878232878,776.5040510256853,0.6138336926752529,-0.15640114212458453,0.11794184488083474,2068.131868131868,-1.0,86.07679173416226,1.2906242330426394,
2023-08-15 12:57:59.464000,8.301204819277109,-0.5421686746987953,-5.55421686746988,-0.42427958307786634,9.036787247087675,-4.931943592887799,3.0,1.2878232878232878,776.5040510256853,0.37561913641396144,-0.1501078025756072,-0.26746693083153605,2243.9560439560437,-1.0,86.07679173416226,1.290592006555896,
2023-08-15 12:57:59.472000,8.301204819277109,-0.5301204819277109,-5.530120481927711,-0.3629675045984059,8.995095033721643,-4.971183323114653,3.0,1.2878232878232878,776.5040510256853,0.5534642503350615,-0.14218285647689471,0.11083270205698983,2403.6630036630036,-1.0,86.07679173416226,1.290559729023321,
2023-08-15 12:57:59.480000,8.27710843373494,-0.5301204819277109,-5.542168674698796,-0.41692213366033104,8.995095033721643,-4.963825873697118,3.0,1.2878232878232878,776.5040510256853,0.24066196608589246,0.0181807586970452,-0.0018646931996968547,2536.263736263736,-1.0,86.07679173416226,1.2905274024334308,
2023-08-15 12:57:59.487000,8.289156626506024,-0.5180722891566265,-5.566265060240964,-0.4757817290006131,8.980380134886571,-4.9662783568362965,3.0,1.2878232878232878,776.5040510256853,-0.022609405046325665,0.4631431734747397,-0.49519258784453135,2632.967032967033,-1.0,86.07679173416226,1.29049502898552,
2023-08-15 12:57:59.495000,8.27710843373494,-0.5180722891566265,-5.566265060240964,-0.4218270999386879,8.96811771919068,-4.9294911097486205,3.0,1.2878232878232878,776.5040510256853,0.06864401841384458,0.447060194627353,-0.5092943301672395,2688.6446886446884,-1.0,86.07679173416226,1.2904626110943107,
2023-08-15 12:57:59.503000,8.265060240963855,-0.5180722891566265,-5.530120481927711,-0.3825873697118332,8.958307786633966,-4.971183323114653,3.0,1.2878232878232878,776.5040510256853,0.05127906299166698,0.21630441116485077,-0.5411106578870695,2701.8315018315016,-1.0,86.07679173416226,1.2904301513939478,
2023-08-15 12:57:59.510000,8.25301204819277,-0.5301204819277109,-5.518072289156627,-0.3654199877375843,8.950950337216431,-4.904966278356836,3.0,1.2878232878232878,776.5040510256853,-0.10220849600839145,0.2178194743896051,-0.5096439601421828,2672.527472527472,-1.0,86.07679173416226,1.2903976527413445,
2023-08-15 12:57:59.518000,8.216867469879519,-0.5301204819277109,-5.506024096385542,-0.4095646842427958,8.946045370938075,-4.946658491722869,3.0,1.2878232878232878,776.5040510256853,-0.05594079599090911,0.6742031350154425,-0.6463492803449683,2600.7326007326005,-1.0,86.07679173416226,1.2903651182189013,
2023-08-15 12:57:59.526000,8.228915662650603,-0.49397590361445787,-5.481927710843374,-0.4193746167995095,8.919068056407111,-4.917228694052728,3.0,1.2878232878232878,776.5040510256853,-0.33028378299632927,0.5772390886311991,-0.2639706310821049,2491.5750915750914,-1.0,86.07679173416226,1.2903325511366006,
2023-08-15 12:57:59.533000,8.204819277108435,-0.49397590361445787,-5.46987951807229,-0.42918454935622313,8.882280809319436,-4.9147762109135495,3.0,1.2878232878232878,776.5040510256853,-0.12924654740399757,0.5267758289143997,-0.20511625196666877,2354.5787545787543,-1.0,86.07679173416226,1.290299955033488,
2023-08-15 12:57:59.541000,8.204819277108435,-0.49397590361445787,-5.493975903614458,-0.41201716738197425,8.916615573267933,-4.96137339055794,3.0,1.2882672882672883,776.2364294330519,-0.3576714643668779,0.3227084668725593,-0.11339665520657301,2195.6043956043954,-1.0,86.07679173416226,1.2902673338173156,
2023-08-15 12:57:59.549000,8.204819277108435,-0.5301204819277109,-5.46987951807229,-0.3629675045984059,8.899448191293684,-4.895156345800122,3.0,1.286935286935287,777.0398481973434,-0.34135539886952954,-0.2143231746401731,0.07004253831361809,2021.9780219780218,-1.0,86.07679173416226,1.290234691755027,
2023-08-15 12:57:59.556000,8.204819277108435,-0.49397590361445787,-5.46987951807229,-0.40220723482526055,8.904353157572041,-4.843654199877376,3.0,1.2873792873792875,776.7718572167615,-0.18716857991958438,-0.18367228017015408,0.13239321717848623,1843.2234432234432,712.371826171875,84.22567793342758,1.2902020331963848,
2023-08-15 12:57:59.564000,8.228915662650603,-0.5180722891566265,-5.481927710843374,-0.35806253832004903,8.963212752912323,-4.902513795217658,3.0,1.2878232878232878,776.5040510256853,0.04195559699318271,-0.03076743779499984,0.19369500611852467,1664.4688644688645,-1.0,84.22567793342758,1.2901693626281303,
2023-08-15 12:57:59.572000,8.240963855421688,-0.5060240963855422,-5.46987951807229,-0.39239730226854685,8.899448191293684,-4.897608828939301,3.0,1.2878232878232878,776.5040510256853,0.05547462269098577,0.04125633704329595,0.28506497290367705,1490.10989010989,-1.0,84.22567793342758,1.2901366848219684,
2023-08-15 12:57:59.579000,8.240963855421688,-0.5180722891566265,-5.481927710843374,-0.3703249540159411,8.904353157572041,-4.902513795217658,3.0,1.2878232878232878,776.5040510256853,-0.26746693083153694,-0.12738185420430073,0.2045335353417633,1325.2747252747251,-1.0,84.22567793342758,1.2901040047363757,
2023-08-15 12:57:59.587000,8.240963855421688,-0.5301204819277109,-5.481927710843374,-0.4193746167995095,8.923973022685468,-4.865726548129981,3.0,1.2878232878232878,776.5040510256853,-0.358137637666803,-0.3424042887943588,0.2017364955422176,1175.0915750915751,-1.0,84.22567793342758,1.2900713275248008,
2023-08-15 12:57:59.595000,8.265060240963855,-0.5060240963855422,-5.481927710843374,-0.38994481912936846,8.963212752912323,-4.954015941140405,3.0,1.2873792873792875,776.7718572167615,0.05454227609113734,-0.3873900122370485,0.44169920167822374,1041.7582417582416,-1.0,84.22567793342758,1.2900386585326746,
2023-08-15 12:57:59.602000,8.27710843373494,-0.5180722891566265,-5.506024096385542,-0.37768240343347637,8.970570202329858,-4.917228694052728,3.0,1.2873792873792875,776.7718572167615,0.08064798088689504,-0.17329992424683882,0.3769011129887537,928.9377289377288,-1.0,84.22567793342758,1.290006003005768,
2023-08-15 12:57:59.610000,8.289156626506024,-0.5180722891566265,-5.457831325301205,-0.40465971796443895,9.007357449417535,-4.897608828939301,3.0,1.2878232878232878,776.5040510256853,0.3031291882757423,-0.26257211118233137,0.21956762426432028,835.8974358974358,-1.0,84.22567793342758,1.2899733660845487,
2023-08-15 12:57:59.618000,8.289156626506024,-0.5060240963855422,-5.46987951807229,-0.3678724708767627,8.936235438381361,-4.860821581851624,3.0,1.2873792873792875,776.7718572167615,0.25336518850882794,0.10535516578287923,0.4757298525726939,767.7655677655678,-1.0,84.22567793342758,1.2899407533725908,
2023-08-15 12:57:59.625000,8.301204819277109,-0.5180722891566265,-5.433734939759036,-0.4193746167995095,8.975475168608215,-4.846106683016554,3.0,1.2873792873792875,776.7718572167615,0.24660567565992728,0.10372355923314405,0.47118466289843264,717.9487179487179,-1.0,84.22567793342758,1.2899081707806315,
2023-08-15 12:57:59.633000,8.289156626506024,-0.5180722891566265,-5.457831325301205,-0.3629675045984059,9.022072348252605,-4.9000613120784795,3.0,1.2873792873792875,776.7718572167615,0.01281976574791631,0.39554804498572266,0.41955596993182226,690.8424908424907,-1.0,84.22567793342758,1.2898756242110665,
2023-08-15 12:57:59.641000,8.313253012048193,-0.5060240963855422,-5.493975903614458,-0.3973022685469037,8.958307786633966,-4.927038626609442,3.0,1.2873792873792875,776.7718572167615,0.3306334129712718,-0.05069634636676106,0.44298117825301553,676.9230769230769,-1.0,84.22567793342758,1.2898431196890323,
2023-08-15 12:57:59.648000,8.313253012048193,-0.49397590361445787,-5.506024096385542,-0.3654199877375843,8.995095033721643,-4.853464132434089,3.0,1.2873792873792875,776.7718572167615,0.23250393333721828,-0.10931763883223636,0.20546588194161172,681.3186813186812,-1.0,84.22567793342758,1.2898106633542006,
2023-08-15 12:57:59.656000,8.289156626506024,-0.5180722891566265,-5.506024096385542,-0.4414469650521152,8.977927651747393,-4.875536480686695,3.0,1.2873792873792875,776.7718572167615,-0.0640988287395833,0.36582949711555207,-0.10384010255812619,698.9010989010989,-1.0,84.22567793342758,1.289778261452083,
2023-08-15 12:57:59.664000,8.301204819277109,-0.5060240963855422,-5.481927710843374,-0.4218270999386879,8.916615573267933,-4.8412017167381975,3.0,1.2878232878232878,776.5040510256853,0.11549443505623284,0.1495250859507013,-0.1530213857001342,730.4029304029303,-1.0,84.22567793342758,1.2897459203249027,
2023-08-15 12:57:59.671000,8.27710843373494,-0.5180722891566265,-5.506024096385542,-0.37522992029429797,8.973022685469036,-4.863274064990803,3.0,1.2873792873792875,776.7718572167615,-0.02622224812073854,0.10325738593322072,-0.1553522521997553,769.9633699633699,-1.0,84.22567793342758,1.2897136465513659,
2023-08-15 12:57:59.679000,8.301204819277109,-0.49397590361445787,-5.493975903614458,-0.3678724708767627,8.980380134886571,-4.9000613120784795,3.0,1.2873792873792875,776.7718572167615,0.06281685216479235,0.20826292174115743,0.012703222422935909,824.1758241758241,-1.0,84.22567793342758,1.2896814468093858,
2023-08-15 12:57:59.687000,8.27710843373494,-0.49397590361445787,-5.518072289156627,-0.35561005518087063,8.943592887798896,-4.922133660331085,3.0,1.2873792873792875,776.7718572167615,0.15150632247538073,0.24975234543441507,0.07400501136297435,888.6446886446886,-1.0,84.22567793342758,1.2896493277070165,
2023-08-15 12:57:59.694000,8.240963855421688,-0.49397590361445787,-5.542168674698796,-0.3727774371551195,8.96811771919068,-4.931943592887799,3.0,1.2878232878232878,776.5040510256853,0.11794184488083388,0.42748091603053434,-0.30942252782471874,964.1025641025641,-1.0,84.22567793342758,1.2896172959110193,
2023-08-15 12:57:59.702000,8.240963855421688,-0.49397590361445787,-5.542168674698796,-0.3825873697118332,8.992642550582465,-4.9294911097486205,3.0,1.286935286935287,777.0398481973434,0.2822679331041309,0.4484587145271248,-0.0928850300099063,1046.1538461538462,-1.0,84.22567793342758,1.2895853582858006,
2023-08-15 12:57:59.710000,8.265060240963855,-0.5060240963855422,-5.55421686746988,-0.42918454935622313,8.955855303494788,-4.9515634580012255,3.0,1.286935286935287,777.0398481973434,-0.1343744537031648,0.5011362974185654,-0.38074704271312865,1131.8681318681317,-1.0,84.22567793342758,1.2895535220224594,
2023-08-15 12:57:59.717000,8.25301204819277,-0.5180722891566265,-5.530120481927711,-0.3973022685469037,8.92152053954629,-4.998160637645616,3.0,1.2873792873792875,776.7718572167615,-0.05617388264087252,0.5371481848377132,-0.28331682302896105,1220.5128205128203,-1.0,84.22567793342758,1.2895217942475181,
2023-08-15 12:57:59.725000,8.216867469879519,-0.5180722891566265,-5.530120481927711,-0.40465971796443895,8.948497854077253,-4.949110974862047,3.0,1.2873792873792875,776.7718572167615,-0.1633937416234486,0.40428879435930276,-0.4463609346774663,1305.4945054945053,-1.0,84.22567793342758,1.2894901820140177,
2023-08-15 12:57:59.733000,8.216867469879519,-0.5421686746987953,-5.506024096385542,-0.40220723482526055,8.909258123850398,-4.9957081545064375,3.0,1.2873792873792875,776.7718572167615,-0.31326845754909416,0.30231338500087473,-0.3048773381504575,1386.080586080586,-1.0,84.22567793342758,1.2894586923236815,
2023-08-15 12:57:59.740000,8.228915662650603,-0.5301204819277109,-5.530120481927711,-0.3973022685469037,8.90680564071122,-4.954015941140405,3.0,1.2873792873792875,776.7718572167615,-0.5265427422644362,0.21677058446477412,-0.21094341821572188,1460.07326007326,-1.0,84.22567793342758,1.2894273319994596,
2023-08-15 12:57:59.748000,8.228915662650603,-0.5301204819277109,-5.518072289156627,-0.35561005518087063,8.889638258736971,-4.941753525444512,3.0,1.2873792873792875,776.7718572167615,-0.22026688421420615,0.5588252432841905,0.050113629741856444,1526.007326007326,-1.0,84.22567793342758,1.2893961079629228,
2023-08-15 12:57:59.755000,8.216867469879519,-0.5180722891566265,-5.493975903614458,-0.3727774371551195,8.882280809319436,-4.9147762109135495,3.0,1.2878232878232878,776.5040510256853,-0.23530097313676357,0.4264320261057051,0.0013985198997726411,1580.9523809523807,-1.0,84.22567793342758,1.2893650272032335,
2023-08-15 12:57:59.763000,8.228915662650603,-0.5180722891566265,-5.506024096385542,-0.38994481912936846,8.901900674432863,-4.963825873697118,3.0,1.2878232878232878,776.5040510256853,-0.5250276790396836,0.3723559233144928,0.15267175572519084,1623.4432234432234,-1.0,84.22567793342758,1.2893340967678368,
2023-08-15 12:57:59.771000,8.27710843373494,-0.5301204819277109,-5.518072289156627,-0.39239730226854685,8.916615573267933,-4.919681177191906,3.0,1.2878232878232878,776.5040510256853,-0.26303828448225647,0.16525843482314548,0.36606258376551465,1649.084249084249,-1.0,84.22567793342758,1.289303323774958,
2023-08-15 12:57:59.778000,8.240963855421688,-0.5180722891566265,-5.46987951807229,-0.4193746167995095,8.923973022685468,-4.9074187614960145,3.0,1.2878232878232878,776.5040510256853,-0.6459996503700245,-0.02191014509643891,0.056290425965852924,1657.8754578754579,-1.0,84.22567793342758,1.289272715267123,
2023-08-15 12:57:59.786000,8.25301204819277,-0.5301204819277109,-5.46987951807229,-0.43408951563458,8.980380134886571,-4.83629675045984,3.0,1.2873792873792875,776.7718572167615,-0.688654507313094,0.2498688887593959,0.34473515529398036,1652.7472527472526,-1.0,84.22567793342758,1.2892422782036541,
2023-08-15 12:57:59.794000,8.265060240963855,-0.5542168674698795,-5.481927710843374,-0.3948497854077253,8.98283261802575,-4.8779889638258735,3.0,1.2878232878232878,776.5040510256853,-0.3813297593380346,0.10920109550725551,0.4787599790222013,1635.164835164835,-1.0,84.22567793342758,1.2892120193041439,
2023-08-15 12:57:59.801000,8.289156626506024,-0.5301204819277109,-5.457831325301205,-0.42427958307786634,8.973022685469036,-4.875536480686695,3.0,1.2873792873792875,776.7718572167615,-0.6416875473457265,-0.0640988287395833,0.44298117825301553,1605.8608058608058,-1.0,84.22567793342758,1.289181945168951,
2023-08-15 12:57:59.809000,8.325301204819278,-0.5180722891566265,-5.481927710843374,-0.41201716738197425,8.995095033721643,-4.912323727774371,3.0,1.2878232878232878,776.5040510256853,-0.7168579919585102,0.03869238389371234,0.2852980595536392,1568.4981684981683,-1.0,84.22567793342758,1.289152062282302,
2023-08-15 12:57:59.817000,8.289156626506024,-0.5180722891566265,-5.493975903614458,-0.3850398528510116,8.960760269773145,-4.831391784181483,3.0,1.2878232878232878,776.5040510256853,-0.272711380455685,0.06608006526426272,-0.11409591515645932,1522.3443223443223,-1.0,84.22567793342758,1.289122376994626,
2023-08-15 12:57:59.824000,8.313253012048193,-0.5301204819277109,-5.481927710843374,-0.4537093807480073,8.980380134886571,-4.909871244635193,3.0,1.2878232878232878,776.5040510256853,-0.6113862828506501,-0.07260649146320171,0.23565060311170694,1470.3296703296703,-1.0,84.22567793342758,1.2890928956756305,
2023-08-15 12:57:59.832000,8.289156626506024,-0.5301204819277109,-5.46987951807229,-0.44880441446965047,8.96811771919068,-4.873083997547517,3.0,1.2873792873792875,776.7718572167615,-0.0882232970106633,0.4007924946098707,-0.3479983683934503,1416.117216117216,-1.0,84.22567793342758,1.2890636245700011,
2023-08-15 12:57:59.840000,8.289156626506024,-0.5301204819277109,-5.457831325301205,-0.4071122011036174,8.987737584304108,-4.86817903126916,3.0,1.2878232878232878,776.5040510256853,-0.2158382378649257,0.09136996678515283,0.03507954081929947,1360.4395604395604,-1.0,84.22567793342758,1.2890345696430918,
2023-08-15 12:57:59.847000,8.289156626506024,-0.5180722891566265,-5.481927710843374,-0.3678724708767627,9.0,-4.890251379521765,3.0,1.2878232878232878,776.5040510256853,-0.24963580210943423,0.10453936250801164,-0.08915564361051216,1301.098901098901,-1.0,84.22567793342758,1.289005736703914,
2023-08-15 12:57:59.855000,8.289156626506024,-0.5421686746987953,-5.457831325301205,-0.43408951563458,8.990190067443287,-4.9147762109135495,3.0,1.286935286935287,777.0398481973434,-0.236233319736612,0.6510110133442109,-0.21502243459005876,1242.4908424908424,-1.0,84.22567793342758,1.2889771314214882,
2023-08-15 12:57:59.863000,8.313253012048193,-0.5180722891566265,-5.481927710843374,-0.38749233599019006,8.960760269773145,-4.873083997547517,3.0,1.2873792873792875,776.7718572167615,0.26501952100693416,0.21945108093933857,-0.5961191072781306,1188.278388278388,-1.0,84.22567793342758,1.288948759320749,
2023-08-15 12:57:59.870000,8.301204819277109,-0.5060240963855422,-5.481927710843374,-0.41692213366033104,9.083384426732065,-4.853464132434089,3.0,1.2873792873792875,776.7718572167615,-0.2742264436804376,0.5704795757822967,-0.34729910844356393,1141.3919413919414,-1.0,84.22567793342758,1.2889206258334662,
2023-08-15 12:57:59.878000,8.301204819277109,-0.5180722891566265,-5.46987951807229,-0.48068669527896996,8.973022685469036,-4.848559166155733,3.0,1.2873792873792875,776.7718572167615,0.30511042480042,0.2758580502301728,-0.26525260765689623,1102.5641025641025,-1.0,84.22567793342758,1.2888927361674731,
2023-08-15 12:57:59.886000,8.265060240963855,-0.5180722891566265,-5.433734939759036,-0.42918454935622313,8.948497854077253,-4.885346413243409,3.0,1.2878232878232878,776.5040510256853,0.22527824718839254,0.3640813472408361,-0.172017947672047,1070.3296703296703,-1.0,84.22567793342758,1.2888650951761413,
2023-08-15 12:57:59.893000,8.25301204819277,-0.5180722891566265,-5.445783132530121,-0.3261802575107296,8.943592887798896,-4.865726548129981,3.0,1.2878232878232878,776.5040510256853,-0.03671114736903465,0.5129071732416524,-0.12516753102966005,1046.8864468864467,-1.0,84.22567793342758,1.2888377076647903,
2023-08-15 12:57:59.901000,8.228915662650603,-0.5421686746987953,-5.421686746987952,-0.37768240343347637,8.965665236051501,-4.939301042305334,3.0,1.2878232878232878,776.5040510256853,-0.036478060719072974,0.5076627236175043,-0.1250509877046792,1031.5018315018315,-1.0,84.22567793342758,1.2888105783997634,
2023-08-15 12:57:59.909000,8.228915662650603,-0.5180722891566265,-5.445783132530121,-0.4512568976088289,8.89209074187615,-4.931943592887799,3.0,1.2878232878232878,776.5040510256853,0.012353592447992964,0.30254647165083637,-0.21385700134024843,1020.5128205128204,-1.0,84.22567793342758,1.288783711841332,
2023-08-15 12:57:59.916000,8.25301204819277,-0.5301204819277109,-5.457831325301205,-0.4414469650521152,8.865113427345186,-4.875536480686695,3.0,1.2878232878232878,776.5040510256853,0.08775712371073996,0.13122778392867526,0.09323465998484924,1017.5824175824175,-1.0,84.22567793342758,1.2887571122928096,
2023-08-15 12:57:59.924000,8.228915662650603,-0.5542168674698795,-5.506024096385542,-0.41692213366033104,8.936235438381361,-4.902513795217658,3.0,1.2878232878232878,776.5040510256853,0.009556552648447682,0.23693257968649875,-0.2407785094108733,1019.7802197802197,-1.0,84.22567793342758,1.2887307840398754,
2023-08-15 12:57:59.932000,8.228915662650603,-0.5421686746987953,-5.506024096385542,-0.3973022685469037,8.916615573267933,-4.9294911097486205,3.0,1.2878232878232878,776.5040510256853,-0.004312103024299628,-0.11724258493094886,-0.09941145620884573,1028.5714285714284,-1.0,84.22567793342758,1.288704731331508,
2023-08-15 12:57:59.939000,8.25301204819277,-0.5301204819277109,-5.481927710843374,-0.41446965052115264,8.980380134886571,-4.917228694052728,3.0,1.2878232878232878,776.5040510256853,-0.004661732999242137,-0.11817493153079728,-0.32573859332206756,1038.8278388278388,-1.0,84.22567793342758,1.2886789582340497,
2023-08-15 12:57:59.947000,8.27710843373494,-0.5421686746987953,-5.46987951807229,-0.3605150214592274,8.977927651747393,-4.853464132434089,3.0,1.2878232878232878,776.5040510256853,0.4555678573509697,0.019462735271837873,-0.0146844589476136,1054.212454212454,-1.0,84.22567793342758,1.2886534686350855,
2023-08-15 12:57:59.955000,8.25301204819277,-0.5180722891566265,-5.46987951807229,-0.3973022685469037,8.911710606989576,-4.912323727774371,3.0,1.2873792873792875,776.7718572167615,0.13460754035312647,-0.15069051920051313,-0.08740749373579615,1071.062271062271,-1.0,84.22567793342758,1.288628266247832,
2023-08-15 12:57:59.962000,8.240963855421688,-0.5301204819277109,-5.481927710843374,-0.42673206621704474,8.950950337216431,-4.892703862660944,3.0,1.2878232878232878,776.5040510256853,0.1934619194685617,0.08997144688537932,-0.3603519608414428,1091.5750915750914,-1.0,84.22567793342758,1.2886033544667033,
2023-08-15 12:57:59.970000,8.265060240963855,-0.5421686746987953,-5.481927710843374,-0.4071122011036174,8.980380134886571,-4.8412017167381975,3.0,1.2878232878232878,776.5040510256853,-0.1579162053493389,-0.11164850533185655,0.2517335819590932,1108.4249084249084,-1.0,84.22567793342758,1.288578736500054,
2023-08-15 12:57:59.978000,8.289156626506024,-0.5421686746987953,-5.493975903614458,-0.3973022685469037,8.933782955242183,-4.880441446965052,3.0,1.2878232878232878,776.5040510256853,-0.01678223879727343,0.19264611619369584,0.02074471184662881,1126.7399267399267,-1.0,84.22567793342758,1.2885544155348496,
2023-08-15 12:57:59.985000,8.301204819277109,-0.5060240963855422,-5.481927710843374,-0.39975475168608215,9.051502145922747,-4.8706315144083385,3.0,1.2878232878232878,776.5040510256853,-0.3348289726705906,-0.08332847736145949,0.21735330108968004,1142.857142857143,-1.0,84.22567793342758,1.288530394603866,
2023-08-15 12:57:59.993000,8.301204819277109,-0.5180722891566265,-5.506024096385542,-0.3605150214592274,9.041692213366032,-4.892703862660944,3.0,1.2878232878232878,776.5040510256853,-0.0844939106112696,-0.5560282034846452,-0.09020453353534186,1158.974358974359,-1.0,84.22567793342758,1.288506676591982,
2023-08-15 12:58:00.001000,8.325301204819278,-0.5301204819277109,-5.506024096385542,-0.3850398528510116,8.936235438381361,-4.890251379521765,3.0,1.2878232878232878,776.5040510256853,-0.3107045043995106,-0.09218577006002042,-0.441815745003205,1178.7545787545787,-1.0,84.22567793342758,1.2884832642428101,
2023-08-15 12:58:00.008000,8.349397590361447,-0.5301204819277109,-5.481927710843374,-0.3727774371551195,9.04659717964439,-4.851011649294911,3.0,1.286935286935287,777.0398481973434,-0.307557834625021,-0.33715983917021075,-0.3485810850183557,1198.5347985347985,-1.0,84.22567793342758,1.2884601601655978,
2023-08-15 12:58:00.016000,8.325301204819278,-0.5180722891566265,-5.481927710843374,-0.45616186388718577,9.009809932556713,-4.853464132434089,3.0,1.2873792873792875,776.7718572167615,-0.34858108501835533,-0.05780548919060597,-0.3034788182506848,1219.7802197802198,-1.0,84.22567793342758,1.2884373668212779,
2023-08-15 12:58:00.024000,8.301204819277109,-0.5060240963855422,-5.481927710843374,-0.3629675045984059,9.039239730226853,-4.927038626609442,3.0,1.2873792873792875,776.7718572167615,-0.3486976283433361,0.0949828098595657,-0.3821455626129013,1235.8974358974358,-1.0,84.22567793342758,1.2884148865945941,
2023-08-15 12:58:00.031000,8.27710843373494,-0.5180722891566265,-5.481927710843374,-0.39239730226854685,8.975475168608215,-4.9074187614960145,3.0,1.2878232878232878,776.5040510256853,-0.1480100227259487,0.6131344327253662,-0.19858982576772935,1249.084249084249,-1.0,84.22567793342758,1.2883927216628464,
2023-08-15 12:58:00.039000,8.240963855421688,-0.5301204819277109,-5.481927710843374,-0.39239730226854685,8.931330472103005,-4.9294911097486205,3.0,1.2878232878232878,776.5040510256853,0.01911310529689363,0.5477536274109901,-0.21665404113979372,1257.142857142857,-1.0,84.22567793342758,1.28837087403455,
2023-08-15 12:58:00.047000,8.25301204819277,-0.49397590361445787,-5.493975903614458,-0.3801348865726548,8.965665236051501,-4.880441446965052,3.0,1.2878232878232878,776.5040510256853,-0.09183614008507618,0.5119748266418039,-0.4623273701998717,1260.07326007326,-1.0,84.22567793342758,1.2883493457265243,
2023-08-15 12:58:00.054000,8.240963855421688,-0.5180722891566265,-5.46987951807229,-0.3654199877375843,8.904353157572041,-4.855916615573268,3.0,1.2878232878232878,776.5040510256853,-0.019229648621874467,0.6176796223996274,-0.2907755958277489,1263.7362637362637,-1.0,84.22567793342758,1.288328138632406,
2023-08-15 12:58:00.062000,8.240963855421688,-0.5301204819277109,-5.433734939759036,-0.4193746167995095,8.943592887798896,-4.909871244635193,3.0,1.2878232878232878,776.5040510256853,-0.311636850999359,0.2619893945574272,-0.40766855078375397,1263.7362637362637,-1.0,84.22567793342758,1.2883072545297252,
2023-08-15 12:58:00.070000,8.265060240963855,-0.5301204819277109,-5.445783132530121,-0.3825873697118332,8.916615573267933,-4.897608828939301,3.0,1.2878232878232878,776.5040510256853,-0.022725948371306502,0.38319445253773143,-0.23611677641163117,1265.9340659340658,-1.0,84.22567793342758,1.2882866950867542,
2023-08-15 12:58:00.077000,8.25301204819277,-0.5301204819277109,-5.457831325301205,-0.3678724708767627,8.985285101164928,-4.863274064990803,3.0,1.2878232878232878,776.5040510256853,0.19101450964396066,0.0427714002680503,0.026338791445720242,1270.3296703296703,-1.0,84.22567793342758,1.288266461869117,
2023-08-15 12:58:00.085000,8.27710843373494,-0.5060240963855422,-5.457831325301205,-0.42427958307786634,8.970570202329858,-4.811771919068057,3.0,1.2878232878232878,776.5040510256853,0.21991725423926364,-0.2798205232795299,0.22574442048831675,1273.9926739926739,-1.0,84.22567793342758,1.2882465563461056,
2023-08-15 12:58:00.093000,8.301204819277109,-0.5301204819277109,-5.445783132530121,-0.4537093807480073,8.926425505824646,-4.809319435928877,3.0,1.2878232878232878,776.5040510256853,0.1874016665695478,-0.446594021327428,0.2866965794534118,1282.051282051282,-1.0,84.22567793342758,1.2882269798967063,
2023-08-15 12:58:00.100000,8.289156626506024,-0.5301204819277109,-5.457831325301205,-0.3678724708767627,9.0,-4.897608828939301,3.0,1.2878232878232878,776.5040510256853,0.26012470135773036,-0.42806363265544023,0.34694947846862056,1295.970695970696,-1.0,84.22567793342758,1.288207733815279,
2023-08-15 12:58:00.108000,8.301204819277109,-0.5301204819277109,-5.445783132530121,-0.41201716738197425,8.941140404659718,-4.846106683016554,3.0,1.2878232878232878,776.5040510256853,0.3915855719363673,-0.22900763358778625,0.4842375152963115,1319.4139194139193,-1.0,84.22567793342758,1.2881888194556494,
2023-08-15 12:58:00.116000,8.301204819277109,-0.5301204819277109,-5.457831325301205,-0.4414469650521152,8.975475168608215,-4.824034334763948,3.0,1.2878232878232878,776.5040510256853,0.3710739467397001,-0.2143231746401731,0.40661966085892426,1352.3809523809523,-1.0,84.22567793342758,1.2881702382156837,
2023-08-15 12:58:00.123000,8.301204819277109,-0.5301204819277109,-5.433734939759036,-0.41446965052115264,9.0,-4.96137339055794,3.0,1.2878232878232878,776.5040510256853,0.21385700134024802,-0.1828564768952865,0.3915855719363673,1400.7326007326005,-1.0,84.22567793342758,1.2881519913938648,
2023-08-15 12:58:00.131000,8.325301204819278,-0.5301204819277109,-5.445783132530121,-0.4438994481912937,9.009809932556713,-4.863274064990803,3.0,1.2878232878232878,776.5040510256853,0.12038925470543665,-0.06025289901520874,0.0849600839111938,1473.260073260073,-1.0,84.22567793342758,1.2881340801945549,
2023-08-15 12:58:00.138000,8.325301204819278,-0.5301204819277109,-5.445783132530121,-0.44880441446965047,9.017167381974248,-4.885346413243409,3.0,1.2878232878232878,776.5040510256853,-0.0023308664996219363,-0.07400501136297348,-0.11223122195676248,1569.9633699633698,-1.0,84.22567793342758,1.2881165057326345,
2023-08-15 12:58:00.146000,8.325301204819278,-0.5421686746987953,-5.445783132530121,-0.4316370324954016,9.009809932556713,-4.860821581851624,3.0,1.2878232878232878,776.5040510256853,0.15150632247538073,-0.5024182739933563,-0.05116251966668614,1694.5054945054944,-1.0,84.22567793342758,1.2880992688987705,
2023-08-15 12:58:00.154000,8.289156626506024,-0.5301204819277109,-5.481927710843374,-0.43654199877375843,9.007357449417535,-4.8706315144083385,3.0,1.2882672882672883,776.2364294330519,-0.18390536682011577,-0.36244974069110264,-0.07983217761202745,1841.0256410256409,-1.0,84.22567793342758,1.288082370521923,
2023-08-15 12:58:00.161000,8.301204819277109,-0.5542168674698795,-5.481927710843374,-0.4537093807480073,8.987737584304108,-4.8779889638258735,3.0,1.286935286935287,777.0398481973434,-0.3187459938232039,0.08239613076161106,-0.2482372822096616,2000.7326007326005,-1.0,84.22567793342758,1.2880658116489982,
2023-08-15 12:58:00.169000,8.325301204819278,-0.5542168674698795,-5.481927710843374,-0.43408951563458,9.024524831391783,-4.848559166155733,3.0,1.2873792873792875,776.7718572167615,-0.008507662723616683,-0.05430918944117393,-0.42841326263038276,2165.5677655677655,-1.0,84.22567793342758,1.2880495932493623,
2023-08-15 12:58:00.177000,8.289156626506024,-0.5421686746987953,-5.481927710843374,-0.4095646842427958,8.931330472103005,-4.880441446965052,3.0,1.2878232878232878,776.5040510256853,-0.0048948196492038095,-0.0533768428413255,-0.4260823961307617,2322.3443223443223,-1.0,84.22567793342758,1.2880337159836364,
2023-08-15 12:58:00.184000,8.27710843373494,-0.5421686746987953,-5.493975903614458,-0.46106683016554256,9.034334763948497,-4.880441446965052,3.0,1.2878232878232878,776.5040510256853,-0.1557018821746978,0.26968125400617626,-0.3947322417108559,2457.142857142857,-1.0,84.22567793342758,1.2880181805134021,
2023-08-15 12:58:00.192000,8.289156626506024,-0.5542168674698795,-5.46987951807229,-0.4438994481912937,8.936235438381361,-4.875536480686695,3.0,1.2878232878232878,776.5040510256853,0.12388555445486868,0.37876580618845096,-0.4981061709690579,2558.974358974359,-1.0,84.22567793342758,1.2880029873943883,
2023-08-15 12:58:00.200000,8.27710843373494,-0.5180722891566265,-5.46987951807229,-0.41446965052115264,8.980380134886571,-4.9442060085836905,3.0,1.2878232878232878,776.5040510256853,-0.10127614940854301,0.08752403706077655,-0.47969232562205016,2623.4432234432234,-1.0,84.22567793342758,1.2879881369583615,
2023-08-15 12:58:00.207000,8.25301204819277,-0.5301204819277109,-5.457831325301205,-0.3973022685469037,8.92152053954629,-4.897608828939301,3.0,1.2878232878232878,776.5040510256853,-0.023541751646174093,0.24380863586038026,-0.32422353009731364,2646.8864468864467,-1.0,84.22567793342758,1.2879736294606483,
2023-08-15 12:58:00.215000,8.265060240963855,-0.5421686746987953,-5.481927710843374,-0.4537093807480073,8.941140404659718,-4.860821581851624,3.0,1.2878232878232878,776.5040510256853,-0.2473049356098123,0.07318920808810589,-0.21630441116485033,2627.8388278388275,-1.0,84.22567793342758,1.2879594650778716,
2023-08-15 12:58:00.223000,8.228915662650603,-0.5301204819277109,-5.421686746987952,-0.40465971796443895,8.914163090128755,-4.858369098712446,3.0,1.2878232878232878,776.5040510256853,-0.21140959151564523,-0.24940271545947254,-0.09498280985956527,2564.8351648351645,-1.0,84.22567793342758,1.2879456439052492,
2023-08-15 12:58:00.230000,8.204819277108435,-0.5301204819277109,-5.46987951807229,-0.3973022685469037,8.911710606989576,-4.887798896382587,3.0,1.2878232878232878,776.5040510256853,-0.23868072956121478,0.056756599265776704,0.28541460287862,2463.7362637362635,-1.0,84.22567793342758,1.2879321659534806,
2023-08-15 12:58:00.238000,8.228915662650603,-0.5180722891566265,-5.493975903614458,-0.3359901900674433,8.909258123850398,-4.887798896382587,3.0,1.2878232878232878,776.5040510256853,-0.3882058155119161,-0.01911310529689363,-0.11631023833109956,2328.205128205128,-1.0,84.22567793342758,1.2879190312840358,
2023-08-15 12:58:00.246000,8.265060240963855,-0.5180722891566265,-5.457831325301205,-0.4095646842427958,8.87737584304108,-4.892703862660944,3.0,1.2878232878232878,776.5040510256853,-0.36652875706543886,-0.4468271079773914,0.023658294971155798,2169.96336996337,-1.0,84.22567793342758,1.2879062398462657,
2023-08-15 12:58:00.253000,8.25301204819277,-0.5060240963855422,-5.481927710843374,-0.40220723482526055,8.980380134886571,-4.934396076026977,3.0,1.2878232878232878,776.5040510256853,-0.36221665404113923,-0.35266010139269327,0.0226094050463261,1997.8021978021977,-1.0,84.22567793342758,1.2878937914845197,
2023-08-15 12:58:00.261000,8.265060240963855,-0.5060240963855422,-5.457831325301205,-0.4071122011036174,8.98283261802575,-4.8706315144083385,3.0,1.2878232878232878,776.5040510256853,-0.11549443505623284,-0.6258376551483016,0.34287046209428346,1821.245421245421,-1.0,84.22567793342758,1.2878816859239022,
2023-08-15 12:58:00.269000,8.27710843373494,-0.5060240963855422,-5.445783132530121,-0.3801348865726548,8.985285101164928,-4.828939301042305,3.0,1.2878232878232878,776.5040510256853,-0.2664180409067077,-0.3315657595711202,0.4933278946448345,1648.3516483516482,-1.0,84.22567793342758,1.287869922776854,
2023-08-15 12:58:00.276000,8.27710843373494,-0.5060240963855422,-5.445783132530121,-0.39239730226854685,8.973022685469036,-4.885346413243409,3.0,1.2878232878232878,776.5040510256853,-0.05209486626653457,-0.25289901520890457,0.3217761202727113,1479.8534798534797,712.371826171875,84.22567793342758,1.287858501667229,
2023-08-15 12:58:00.284000,8.27710843373494,-0.5301204819277109,-5.46987951807229,-0.4463519313304721,8.933782955242183,-4.902513795217658,3.0,1.2878232878232878,776.5040510256853,-0.31233611094924574,-0.2368160363615179,0.6552065730435288,1323.8095238095236,-1.0,84.22567793342758,1.2878474220774299,
2023-08-15 12:58:00.292000,8.265060240963855,-0.5301204819277109,-5.493975903614458,-0.4414469650521152,8.946045370938075,-4.86817903126916,3.0,1.2878232878232878,776.5040510256853,-0.3414719421945104,-0.3893712487617279,0.3462502185187342,1183.150183150183,-1.0,84.22567793342758,1.287836683344669,
2023-08-15 12:58:00.299000,8.301204819277109,-0.5301204819277109,-5.481927710843374,-0.40220723482526055,9.041692213366032,-4.895156345800122,3.0,1.2878232878232878,776.5040510256853,-0.21642095448983162,-0.2639706310821049,0.17772857059611927,1059.3406593406592,-1.0,84.22567793342758,1.2878262846571158,
2023-08-15 12:58:00.307000,8.325301204819278,-0.5421686746987953,-5.481927710843374,-0.463519313304721,9.049049662783569,-4.892703862660944,3.0,1.2878232878232878,776.5040510256853,-0.15814929199930056,-0.40137521123477665,-0.03659460404405338,950.9157509157509,-1.0,84.22567793342758,1.2878162250499896,
2023-08-15 12:58:00.315000,8.337349397590362,-0.5301204819277109,-5.46987951807229,-0.41692213366033104,9.044144696505212,-4.9074187614960145,3.0,1.286935286935287,777.0398481973434,0.04148942369325762,-0.12376901112988785,0.25686148825826,862.2710622710622,-1.0,84.22567793342758,1.287806503262913,
2023-08-15 12:58:00.322000,8.325301204819278,-0.5301204819277109,-5.445783132530121,-0.42673206621704474,9.049049662783569,-4.83629675045984,3.0,1.2873792873792875,776.7718572167615,-0.15756657537439464,-0.06444845871452753,0.06992599498863683,789.7435897435897,-1.0,84.22567793342758,1.2877971178741068,
2023-08-15 12:58:00.330000,8.301204819277109,-0.5301204819277109,-5.433734939759036,-0.38749233599019006,9.024524831391783,-4.851011649294911,3.0,1.2873792873792875,776.7718572167615,-0.0654973486393568,-0.06304993881475403,0.07015908163859894,734.7985347985348,-1.0,84.22567793342758,1.2877880674890765,
2023-08-15 12:58:00.338000,8.301204819277109,-0.5301204819277109,-5.445783132530121,-0.4071122011036174,8.985285101164928,-4.865726548129981,3.0,1.2873792873792875,776.7718572167615,-0.27842200337975637,0.1823903035953614,0.037760037293863916,692.3076923076923,-1.0,84.22567793342758,1.2877793504492396,
2023-08-15 12:58:00.345000,8.301204819277109,-0.5301204819277109,-5.433734939759036,-0.3605150214592274,8.965665236051501,-4.873083997547517,3.0,1.2873792873792875,776.7718572167615,-0.21385700134024802,0.5178019928908579,0.008857292698560493,667.3992673992674,-1.0,84.22567793342758,1.2877709647106084,
2023-08-15 12:58:00.353000,8.27710843373494,-0.5301204819277109,-5.457831325301205,-0.3850398528510116,8.997547516860822,-4.8412017167381975,3.0,1.2873792873792875,776.7718572167615,-0.13577297360293658,0.19462735271837353,-0.11514480508128903,661.5384615384615,-1.0,84.22567793342758,1.2877629078498016,
2023-08-15 12:58:00.361000,8.27710843373494,-0.5180722891566265,-5.457831325301205,-0.34825260576333533,9.017167381974248,-4.9000613120784795,3.0,1.2873792873792875,776.7718572167615,-0.08880601363556921,-0.049763999766912634,-0.23821455626129012,671.0622710622711,-1.0,84.22567793342758,1.2877551770799014,
2023-08-15 12:58:00.368000,8.25301204819277,-0.5180722891566265,-5.46987951807229,-0.41201716738197425,9.009809932556713,-4.873083997547517,3.0,1.2878232878232878,776.5040510256853,-0.08787366703572079,-0.23028961016257718,-0.08344502068644033,700.3663003663003,-1.0,84.22567793342758,1.2877477693939765,
2023-08-15 12:58:00.376000,8.265060240963855,-0.5180722891566265,-5.433734939759036,-0.41201716738197425,8.965665236051501,-4.83629675045984,3.0,1.2878232878232878,776.5040510256853,-0.2366994930365371,-0.19742439251791882,-0.17644659402132748,742.1245421245421,-1.0,84.22567793342758,1.2877406817089565,
2023-08-15 12:58:00.384000,8.265060240963855,-0.5180722891566265,-5.433734939759036,-0.3825873697118332,8.950950337216431,-4.8706315144083385,3.0,1.2873792873792875,776.7718572167615,0.04183905366820187,-0.23891381621117644,-0.34601713186877214,794.8717948717948,-1.0,84.22567793342758,1.2877339110212405,
2023-08-15 12:58:00.391000,8.25301204819277,-0.5301204819277109,-5.46987951807229,-0.4463519313304721,8.960760269773145,-4.863274064990803,3.0,1.2873792873792875,776.7718572167615,0.06246722218984984,-0.007691859448750828,0.19217994289377077,862.2710622710622,-1.0,84.22567793342758,1.2877274540954442,
2023-08-15 12:58:00.399000,8.25301204819277,-0.5301204819277109,-5.46987951807229,-0.3703249540159411,8.93868792152054,-4.917228694052728,3.0,1.2873792873792875,776.7718572167615,0.30942252782471963,-0.20593205524153552,0.04020744711846625,941.3919413919414,-1.0,84.22567793342758,1.2877213072924323,
2023-08-15 12:58:00.407000,8.25301204819277,-0.5421686746987953,-5.457831325301205,-0.4071122011036174,8.899448191293684,-4.9000613120784795,3.0,1.2878232878232878,776.5040510256853,0.08239613076161106,-0.11491171843132691,-0.11071615873200856,1028.5714285714284,-1.0,84.22567793342758,1.2877154667061892,
2023-08-15 12:58:00.414000,8.240963855421688,-0.5301204819277109,-5.46987951807229,-0.4071122011036174,8.84549356223176,-4.956468424279583,3.0,1.2878232878232878,776.5040510256853,0.07004253831361809,-0.22457898723850578,0.06351611211467867,1123.8095238095236,-1.0,84.22567793342758,1.2877099283117073,
2023-08-15 12:58:00.422000,8.240963855421688,-0.5421686746987953,-5.481927710843374,-0.4095646842427958,8.889638258736971,-4.887798896382587,3.0,1.2873792873792875,776.7718572167615,-0.32107686032282584,-0.2263271371132218,0.35615640114212443,1224.1758241758241,-1.0,84.22567793342758,1.2877046881247312,
2023-08-15 12:58:00.430000,8.240963855421688,-0.5662650602409639,-5.506024096385542,-0.43408951563458,8.936235438381361,-4.922133660331085,3.0,1.2873792873792875,776.7718572167615,-0.3002156051512144,-0.4271312860555918,0.08309539071149695,1321.6117216117216,-1.0,84.22567793342758,1.2876997418947205,
2023-08-15 12:58:00.437000,8.240963855421688,-0.5542168674698795,-5.46987951807229,-0.43654199877375843,8.970570202329858,-4.941753525444512,3.0,1.2878232878232878,776.5040510256853,-0.03309830429462177,-0.640871744070859,0.042188683643144376,1411.7216117216117,-1.0,84.22567793342758,1.287695084937197,
2023-08-15 12:58:00.445000,8.265060240963855,-0.5421686746987953,-5.46987951807229,-0.4414469650521152,8.955855303494788,-4.8412017167381975,3.0,1.2878232878232878,776.5040510256853,-0.30359536157566563,-0.5481032573859327,-0.28692966610337395,1492.3076923076922,-1.0,84.22567793342758,1.2876907124242793,
2023-08-15 12:58:00.453000,8.289156626506024,-0.5421686746987953,-5.481927710843374,-0.39975475168608215,9.019619865113427,-4.88289393010423,3.0,1.2878232878232878,776.5040510256853,-0.29648621875182074,-0.547287454111065,-0.28017015325447236,1559.7069597069597,-1.0,84.22567793342758,1.2876866194095482,
2023-08-15 12:58:00.460000,8.25301204819277,-0.5180722891566265,-5.46987951807229,-0.41446965052115264,8.980380134886571,-4.873083997547517,3.0,1.2878232878232878,776.5040510256853,-0.1851873433949067,-0.5298059553639066,0.33401316939572295,1614.6520146520145,-1.0,84.22567793342758,1.287682800694558,
2023-08-15 12:58:00.468000,8.265060240963855,-0.5421686746987953,-5.457831325301205,-0.4414469650521152,8.923973022685468,-4.922133660331085,3.0,1.286935286935287,777.0398481973434,-0.1942777227434293,-0.3297010663714234,-0.06468154536448921,1657.142857142857,-1.0,84.22567793342758,1.2876792508348496,
2023-08-15 12:58:00.476000,8.265060240963855,-0.5301204819277109,-5.46987951807229,-0.46106683016554256,8.923973022685468,-4.86817903126916,3.0,1.2873792873792875,776.7718572167615,0.03927510051861826,-0.14637841617621353,0.1474273061010432,1684.9816849816848,-1.0,84.22567793342758,1.2876759641256958,
2023-08-15 12:58:00.483000,8.289156626506024,-0.5301204819277109,-5.481927710843374,-0.39975475168608215,8.950950337216431,-4.880441446965052,3.0,1.2873792873792875,776.7718572167615,-0.09393391993473643,-0.04079016374337087,0.11654332498106167,1695.970695970696,-1.0,84.22567793342758,1.2876729345357945,
2023-08-15 12:58:00.491000,8.289156626506024,-0.5301204819277109,-5.445783132530121,-0.4414469650521152,8.933782955242183,-4.826486817903127,3.0,1.2878232878232878,776.5040510256853,-0.350562321543033,-0.53027212866383,0.5278247188392285,1687.179487179487,-1.0,84.22567793342758,1.2876701557361627,
2023-08-15 12:58:00.498000,8.27710843373494,-0.5421686746987953,-5.445783132530121,-0.41446965052115264,8.943592887798896,-4.863274064990803,3.0,1.2878232878232878,776.5040510256853,-0.46978614299865956,-0.09661441640930088,0.3062758580502301,1662.2710622710622,-1.0,84.22567793342758,1.2876676211294433,
2023-08-15 12:58:00.506000,8.289156626506024,-0.5301204819277109,-5.457831325301205,-0.42673206621704474,8.990190067443287,-4.897608828939301,3.0,1.2878232878232878,776.5040510256853,-0.3278363731717265,-0.3380921857700592,0.20837946506613828,1627.8388278388277,-1.0,84.22567793342758,1.2876653239008697,
2023-08-15 12:58:00.514000,8.301204819277109,-0.5301204819277109,-5.46987951807229,-0.4782342121397915,8.995095033721643,-4.853464132434089,3.0,1.2878232878232878,776.5040510256853,-0.01911310529689363,-0.19777402249286133,0.1872851232445661,1583.8827838827838,-1.0,84.22567793342758,1.2876632571771882,
2023-08-15 12:58:00.521000,8.301204819277109,-0.5542168674698795,-5.457831325301205,-0.46106683016554256,9.0,-4.895156345800122,3.0,1.2878232878232878,776.5040510256853,0.026571878095682785,0.21630441116485077,0.4566167472757999,1534.7985347985348,-1.0,84.22567793342758,1.2876614138780669,
2023-08-15 12:58:00.529000,8.313253012048193,-0.5542168674698795,-5.421686746987952,-0.4537093807480073,8.965665236051501,-4.838749233599018,3.0,1.2878232878232878,776.5040510256853,-0.26362100110716236,-0.2852980595536396,-0.0710914282384478,1482.051282051282,-1.0,84.22567793342758,1.287659786738699,
2023-08-15 12:58:00.537000,8.313253012048193,-0.5421686746987953,-5.421686746987952,-0.4218270999386879,9.012262415695892,-4.846106683016554,3.0,1.2878232878232878,776.5040510256853,0.27073014393100553,-0.15779966202435805,0.06456500203950837,1424.1758241758241,-1.0,84.22567793342758,1.28765836845092,
2023-08-15 12:58:00.544000,8.313253012048193,-0.5301204819277109,-5.421686746987952,-0.48068669527896996,9.009809932556713,-4.853464132434089,3.0,1.2878232878232878,776.5040510256853,-0.1287803741040725,-0.2605908746576537,0.01643260882232962,1367.7655677655678,-1.0,84.22567793342758,1.287657151528328,
2023-08-15 12:58:00.552000,8.301204819277109,-0.5301204819277109,-5.457831325301205,-0.39975475168608215,9.031882280809318,-4.833844267320662,3.0,1.2878232878232878,776.5040510256853,0.20581551191655467,-0.19614241594312615,-0.1527882990501721,1312.8205128205127,-1.0,84.22567793342758,1.2876561283214105,
2023-08-15 12:58:00.560000,8.301204819277109,-0.5301204819277109,-5.433734939759036,-0.4782342121397915,8.958307786633966,-4.831391784181483,3.0,1.2878232878232878,776.5040510256853,0.4310937591049472,-0.42631548278072423,-0.05978672571528453,1259.3406593406592,-1.0,84.22567793342758,1.2876552910333623,
2023-08-15 12:58:00.567000,8.313253012048193,-0.5421686746987953,-5.433734939759036,-0.4193746167995095,8.916615573267933,-4.9000613120784795,3.0,1.2882672882672883,776.2364294330519,0.3657129537905712,-0.25756074820814673,-0.08915564361051216,1210.2564102564102,-1.0,84.22567793342758,1.2876546317365694,
2023-08-15 12:58:00.575000,8.27710843373494,-0.5542168674698795,-5.457831325301205,-0.39975475168608215,8.973022685469036,-4.873083997547517,3.0,1.2878232878232878,776.5040510256853,0.4857525785210654,-0.10418973253306914,0.08064798088689461,1164.102564102564,-1.0,84.22567793342758,1.2876541425390218,
2023-08-15 12:58:00.583000,8.25301204819277,-0.5301204819277109,-5.46987951807229,-0.3678724708767627,8.973022685469036,-4.855916615573268,3.0,1.2882672882672883,776.2364294330519,0.2843657129537912,-0.40941670065846997,-0.22341355398869525,1123.076923076923,-1.0,84.22567793342758,1.2876538154746258,
2023-08-15 12:58:00.590000,8.301204819277109,-0.5542168674698795,-5.46987951807229,-0.43408951563458,8.923973022685468,-4.873083997547517,3.0,1.2882672882672883,776.2364294330519,0.32632130994697217,-0.2097779849659118,-0.2661849542567451,1088.6446886446886,-1.0,84.22567793342758,1.2876536425118414,
2023-08-15 12:58:00.598000,8.27710843373494,-0.5421686746987953,-5.46987951807229,-0.4071122011036174,8.936235438381361,-4.887798896382587,3.0,1.2882672882672883,776.2364294330519,0.260357788007692,-0.0896218169104368,-0.033797564244508096,1060.07326007326,-1.0,84.22567793342758,1.2876536157333167,
2023-08-15 12:58:00.606000,8.265060240963855,-0.5421686746987953,-5.457831325301205,-0.4193746167995095,8.941140404659718,-4.863274064990803,3.0,1.2882672882672883,776.2364294330519,0.2132742847153421,-0.35242701474272986,-0.21350737136530507,1043.2234432234432,-1.0,84.22567793342758,1.2876537272182753,
2023-08-15 12:58:00.613000,8.240963855421688,-0.5542168674698795,-5.493975903614458,-0.45861434702636417,8.916615573267933,-4.897608828939301,3.0,1.2882672882672883,776.2364294330519,0.16677349804789982,-0.42841326263038276,-0.102208496008391,1035.8974358974358,-1.0,84.22567793342758,1.2876539690642639,
2023-08-15 12:58:00.621000,8.25301204819277,-0.5421686746987953,-5.493975903614458,-0.42673206621704474,8.987737584304108,-4.875536480686695,3.0,1.2873792873792875,776.7718572167615,0.1529048423751525,-0.4281801759804211,-0.22189849076394133,1032.2344322344322,-1.0,84.22567793342758,1.2876543334094221,
2023-08-15 12:58:00.629000,8.289156626506024,-0.5421686746987953,-5.506024096385542,-0.43899448191293683,8.931330472103005,-4.9294911097486205,3.0,1.2873792873792875,776.7718572167615,-0.090204533535341,-0.3640813472408361,-0.3692092535400033,1037.3626373626373,-1.0,84.22567793342758,1.2876548124341094,
2023-08-15 12:58:00.636000,8.27710843373494,-0.5301204819277109,-5.481927710843374,-0.41446965052115264,8.923973022685468,-4.8706315144083385,3.0,1.2878232878232878,776.5040510256853,0.0654973486393568,-0.4531204475263687,-0.10314084260823944,1048.3516483516482,-1.0,84.22567793342758,1.2876553982994865,
2023-08-15 12:58:00.644000,8.265060240963855,-0.5542168674698795,-5.481927710843374,-0.41692213366033104,8.980380134886571,-4.9368485591661555,3.0,1.2878232878232878,776.5040510256853,-0.6061418332265021,-0.3102383310995855,-0.16001398519899784,1060.8058608058607,-1.0,84.22567793342758,1.2876560831595654,
2023-08-15 12:58:00.652000,8.265060240963855,-0.5301204819277109,-5.457831325301205,-0.39975475168608215,8.958307786633966,-4.919681177191906,3.0,1.2882672882672883,776.2364294330519,-0.12516753102965963,-0.3397237923197944,-0.18565351669483135,1076.923076923077,-1.0,84.22567793342758,1.2876568592254989,
2023-08-15 12:58:00.659000,8.27710843373494,-0.5301204819277109,-5.493975903614458,-0.41692213366033104,9.019619865113427,-4.848559166155733,3.0,1.2882672882672883,776.2364294330519,-0.24392517918536283,-0.29310646232736953,0.01619952217236751,1095.2380952380952,-1.0,84.22567793342758,1.2876577189471734,
2023-08-15 12:58:00.667000,8.301204819277109,-0.5301204819277109,-5.518072289156627,-0.3948497854077253,8.990190067443287,-4.86817903126916,3.0,1.2887112887112888,775.968992248062,-0.028086941320435394,-0.6707068352660104,-0.24380863586038112,1112.8205128205127,-1.0,84.22567793342758,1.2876586550565077,
2023-08-15 12:58:00.675000,8.301204819277109,-0.5180722891566265,-5.481927710843374,-0.41446965052115264,9.019619865113427,-4.9515634580012255,3.0,1.2887112887112888,775.968992248062,-0.37736728628867744,-0.390536682011538,-0.3342462560456851,1133.3333333333333,-1.0,84.22567793342758,1.2876596604619408,
2023-08-15 12:58:00.682000,8.313253012048193,-0.5421686746987953,-5.481927710843374,-0.49785407725321884,8.990190067443287,-4.875536480686695,3.0,1.2887112887112888,775.968992248062,-0.480741215546879,-0.49449332789464545,-0.16444263154827787,1153.8461538461538,-1.0,84.22567793342758,1.2876607284517978,
2023-08-15 12:58:00.690000,8.301204819277109,-0.5180722891566265,-5.518072289156627,-0.4537093807480073,8.973022685469036,-4.934396076026977,3.0,1.2887112887112888,775.968992248062,-0.3077909212749844,-0.4899481382203842,-0.07097488491346653,1172.8937728937728,-1.0,84.22567793342758,1.2876618527068247,
2023-08-15 12:58:00.698000,8.325301204819278,-0.5180722891566265,-5.493975903614458,-0.47332924586143466,8.990190067443287,-4.931943592887799,3.0,1.2887112887112888,775.968992248062,-0.3949653283608185,-0.22551133383835423,-0.06934327836373178,1186.080586080586,-1.0,84.22567793342758,1.287663027174452,
2023-08-15 12:58:00.705000,8.301204819277109,-0.5180722891566265,-5.518072289156627,-0.40220723482526055,8.975475168608215,-4.875536480686695,3.0,1.289155289155289,775.7017392801791,-0.37480333313909386,-0.1906648796690164,-0.024823728220966332,1197.069597069597,-1.0,84.22567793342758,1.2876642460919563,
2023-08-15 12:58:00.713000,8.27710843373494,-0.5060240963855422,-5.506024096385542,-0.34825260576333533,8.93868792152054,-4.88289393010423,3.0,1.289155289155289,775.7017392801791,-0.24660567565992728,-0.17108560107219944,-0.17749548394615716,1205.8608058608058,-1.0,84.22567793342758,1.2876655041584162,
2023-08-15 12:58:00.721000,8.265060240963855,-0.5180722891566265,-5.46987951807229,-0.4463519313304721,8.933782955242183,-4.875536480686695,3.0,1.289155289155289,775.7017392801791,-0.1988229124176906,0.1389196433774261,-0.2701474273061009,1216.8498168498168,-1.0,84.22567793342758,1.2876667967174105,
2023-08-15 12:58:00.728000,8.228915662650603,-0.5180722891566265,-5.445783132530121,-0.4218270999386879,8.955855303494788,-4.9074187614960145,3.0,1.289155289155289,775.7017392801791,-0.19660858924305122,0.14160013985199055,-0.269797797331158,1227.106227106227,-1.0,84.22567793342758,1.2876681196209407,
2023-08-15 12:58:00.736000,8.25301204819277,-0.5180722891566265,-5.457831325301205,-0.4463519313304721,8.865113427345186,-4.873083997547517,3.0,1.289155289155289,775.7017392801791,-0.25627877163335405,0.14334828972670657,-0.16385991492337282,1236.6300366300366,-1.0,84.22567793342758,1.2876694689651185,
2023-08-15 12:58:00.744000,8.228915662650603,-0.5421686746987953,-5.445783132530121,-0.43408951563458,8.909258123850398,-4.875536480686695,3.0,1.289155289155289,775.7017392801791,-0.40825126740865986,0.19019870636909308,-0.34776528174348814,1243.956043956044,-1.0,84.22567793342758,1.2876708412720956,
2023-08-15 12:58:00.751000,8.240963855421688,-0.5180722891566265,-5.46987951807229,-0.4071122011036174,8.980380134886571,-4.814224402207235,3.0,1.289155289155289,775.7017392801791,-0.04160596701823846,-0.13029543732882684,-0.5143056931414254,1250.5494505494505,-1.0,84.22567793342758,1.2876722336394355,
2023-08-15 12:58:00.759000,8.25301204819277,-0.5301204819277109,-5.457831325301205,-0.3703249540159411,8.943592887798896,-4.863274064990803,3.0,1.289155289155289,775.7017392801791,-0.14870928267583544,-0.18611968999475512,-0.2959035021269157,1255.6776556776556,-1.0,84.22567793342758,1.2876736436116067,
2023-08-15 12:58:00.767000,8.265060240963855,-0.5421686746987953,-5.421686746987952,-0.3703249540159411,8.896995708154506,-4.838749233599018,3.0,1.2895992895992896,775.434670339129,-0.08717440708583403,0.09346774663481136,-0.20161995221723675,1263.003663003663,-1.0,84.22567793342758,1.2876750690607612,
2023-08-15 12:58:00.774000,8.265060240963855,-0.5180722891566265,-5.433734939759036,-0.40220723482526055,9.012262415695892,-4.811771919068057,3.0,1.2887112887112888,775.968992248062,-0.013052852397879719,-0.13320902045335295,-0.04580152671755725,1270.3296703296703,-1.0,84.22567793342758,1.2876765083745425,
2023-08-15 12:58:00.782000,8.289156626506024,-0.5180722891566265,-5.445783132530121,-0.37768240343347637,8.928877988963825,-4.909871244635193,3.0,1.289155289155289,775.7017392801791,0.13880310005244526,-0.2985839986014793,0.4310937591049472,1282.7838827838827,-1.0,84.22567793342758,1.2876779607602606,
2023-08-15 12:58:00.790000,8.27710843373494,-0.5301204819277109,-5.409638554216868,-0.34825260576333533,8.985285101164928,-4.875536480686695,3.0,1.2895992895992896,775.434670339129,0.3323815628459878,-0.4488083445020691,0.3066254880251735,1301.8315018315018,-1.0,84.22567793342758,1.2876794260274353,
2023-08-15 12:58:00.797000,8.289156626506024,-0.5060240963855422,-5.445783132530121,-0.3801348865726548,8.941140404659718,-4.826486817903127,3.0,1.29004329004329,775.1677852348994,0.2798205232795299,-0.7331740574558585,0.7043878561855368,1332.6007326007325,-1.0,84.22567793342758,1.2876809044850552,
2023-08-15 12:58:00.805000,8.289156626506024,-0.5180722891566265,-5.46987951807229,-0.4904966278356836,9.024524831391783,-4.831391784181483,3.0,1.29004329004329,775.1677852348994,0.4436804382029019,-0.5125575432667099,0.41314608705786365,1377.2893772893772,-1.0,84.22567793342758,1.287682397156524,
2023-08-15 12:58:00.813000,8.313253012048193,-0.5180722891566265,-5.457831325301205,-0.40220723482526055,9.034334763948497,-4.848559166155733,3.0,1.29004329004329,775.1677852348994,0.08519317056115634,-0.20325155876697107,0.6124351727754793,1444.6886446886447,-1.0,84.22567793342758,1.2876839058232248,
2023-08-15 12:58:00.820000,8.337349397590362,-0.5180722891566265,-5.445783132530121,-0.40220723482526055,9.031882280809318,-4.855916615573268,3.0,1.29004329004329,775.1677852348994,0.23262047666219912,-0.4298117825301563,0.412097197133034,1539.194139194139,-1.0,84.22567793342758,1.28768543289681,
2023-08-15 12:58:00.828000,8.313253012048193,-0.5301204819277109,-5.46987951807229,-0.4316370324954016,9.031882280809318,-4.912323727774371,3.0,1.2904872904872904,774.9010837777396,0.3059262280752876,-0.44065031175339486,0.25604568498339236,1660.8058608058607,-1.0,84.22567793342758,1.2876869814285514,
2023-08-15 12:58:00.836000,8.337349397590362,-0.5301204819277109,-5.445783132530121,-0.43654199877375843,9.02942979767014,-4.887798896382587,3.0,1.2904872904872904,774.9010837777396,-0.17353301089680048,-0.635627294446711,0.13437445370316392,1806.5934065934064,-1.0,84.22567793342758,1.2876885552662019,
2023-08-15 12:58:00.843000,8.313253012048193,-0.5421686746987953,-5.457831325301205,-0.40220723482526055,8.992642550582465,-4.892703862660944,3.0,1.2904872904872904,774.9010837777396,0.2858807761785438,-0.5964687372530735,-0.15873200862420606,1970.6959706959706,-1.0,84.22567793342758,1.287690159081576,
2023-08-15 12:58:00.851000,8.325301204819278,-0.5783132530120483,-5.46987951807229,-0.48559166155732675,9.036787247087675,-4.9736358062538315,3.0,1.2909312909312909,774.63456577816,0.08437736728628875,-0.6820115377891723,-0.2635044577821807,2145.0549450549447,-1.0,84.22567793342758,1.2876917982372393,
2023-08-15 12:58:00.859000,8.325301204819278,-0.5662650602409639,-5.493975903614458,-0.5027590435315757,9.06131207847946,-4.922133660331085,3.0,1.2909312909312909,774.63456577816,-0.08530971388613719,-0.3697919701649092,-0.41419497698269336,2316.4835164835163,-1.0,84.22567793342758,1.2876934789394163,
2023-08-15 12:58:00.866000,8.313253012048193,-0.5662650602409639,-5.542168674698796,-0.463519313304721,9.017167381974248,-4.927038626609442,3.0,1.2909312909312909,774.63456577816,-0.11619369500611786,0.12749839752928155,-0.6715226385408776,2471.7948717948716,-1.0,84.22567793342758,1.2876952082615356,
2023-08-15 12:58:00.874000,8.289156626506024,-0.5783132530120483,-5.530120481927711,-0.49540159411404044,9.017167381974248,-4.931943592887799,3.0,1.2913752913752914,774.3682310469314,-0.3109375910494722,-0.09976108618378868,-0.4259658528057804,2597.8021978021975,-1.0,84.22567793342758,1.2876969941456105,
2023-08-15 12:58:00.881000,8.265060240963855,-0.5542168674698795,-5.518072289156627,-0.4316370324954016,8.946045370938075,-4.931943592887799,3.0,1.2913752913752914,774.3682310469314,-0.3097721577996621,-0.13938581667734945,-0.607889983101218,2686.4468864468863,-1.0,84.22567793342758,1.2876988453918845,
2023-08-15 12:58:00.889000,8.240963855421688,-0.5301204819277109,-5.493975903614458,-0.39975475168608215,8.928877988963825,-4.909871244635193,3.0,1.2913752913752914,774.3682310469314,-0.4110483072082052,0.15500262222481276,-0.8794359303070917,2728.937728937729,-1.0,84.22567793342758,1.2877007716893578,
2023-08-15 12:58:00.897000,8.240963855421688,-0.5301204819277109,-5.46987951807229,-0.4071122011036174,8.933782955242183,-4.9147762109135495,3.0,1.291819291819292,774.1020793950851,-0.6494959501194565,0.08146378416176263,-0.5527649903851757,2723.076923076923,-1.0,84.22567793342758,1.2877027836029096,
2023-08-15 12:58:00.904000,8.240963855421688,-0.5301204819277109,-5.481927710843374,-0.463519313304721,8.980380134886571,-4.875536480686695,3.0,1.291819291819292,774.1020793950851,-0.4758463958976752,-0.0055940795990905645,-0.8999475555037584,2670.32967032967,-1.0,84.22567793342758,1.287704892569637,
2023-08-15 12:58:00.912000,8.216867469879519,-0.5301204819277109,-5.506024096385542,-0.39975475168608215,8.89209074187615,-4.927038626609442,3.0,1.291819291819292,774.1020793950851,-0.4866849251209138,-0.09195268341005701,-0.5574267233844182,2575.8241758241757,-1.0,84.22567793342758,1.287707110914841,
2023-08-15 12:58:00.920000,8.240963855421688,-0.5180722891566265,-5.481927710843374,-0.3408951563458001,8.926425505824646,-4.917228694052728,3.0,1.2922632922632922,773.8361106339117,-0.7413320902045327,0.0651477186644143,-0.3708408600897385,2448.3516483516482,-1.0,84.22567793342758,1.2877094517068224,
2023-08-15 12:58:00.927000,8.216867469879519,-0.5180722891566265,-5.493975903614458,-0.40465971796443895,8.887185775597793,-4.858369098712446,3.0,1.2913752913752914,774.3682310469314,-0.688071790688188,0.02132742847153473,0.015150632247537814,2293.040293040293,-1.0,84.22567793342758,1.28771192875879,
2023-08-15 12:58:00.935000,8.216867469879519,-0.5180722891566265,-5.493975903614458,-0.4071122011036174,8.977927651747393,-4.902513795217658,3.0,1.291819291819292,774.1020793950851,-0.6815453644892491,0.009206922673503438,-0.016549152147310887,2120.14652014652,-1.0,84.22567793342758,1.2877145566391737,
2023-08-15 12:58:00.943000,8.240963855421688,-0.5301204819277109,-5.46987951807229,-0.43654199877375843,8.931330472103005,-4.875536480686695,3.0,1.2922632922632922,773.8361106339117,-0.4613950236000237,-0.234485169861896,0.12097197133034213,1938.4615384615383,-1.0,84.22567793342758,1.2877173505954238,
2023-08-15 12:58:00.950000,8.228915662650603,-0.49397590361445787,-5.457831325301205,-0.3801348865726548,8.946045370938075,-4.843654199877376,3.0,1.292707292707293,773.5703245749613,-0.44134957170327993,-0.17096905774721688,0.07248994813822043,1754.5787545787546,-1.0,84.22567793342758,1.2877203267089512,
2023-08-15 12:58:00.958000,8.240963855421688,-0.5060240963855422,-5.445783132530121,-0.33353770692826484,8.980380134886571,-4.831391784181483,3.0,1.2931512931512932,773.304721030043,-0.7080006992599492,-0.32061068702290074,0.1030242992832586,1575.091575091575,-1.0,84.22567793342758,1.2877235020589004,
2023-08-15 12:58:00.966000,8.27710843373494,-0.49397590361445787,-5.421686746987952,-0.33108522378908645,8.931330472103005,-4.890251379521765,3.0,1.2931512931512932,773.304721030043,-0.04370374686789872,-0.28716275275333647,0.3006817784511391,1405.8608058608058,-1.0,84.22567793342758,1.2877268947358391,
2023-08-15 12:58:00.973000,8.27710843373494,-0.5060240963855422,-5.433734939759036,-0.3654199877375843,8.95340282035561,-4.863274064990803,3.0,1.2931512931512932,773.304721030043,-0.51372297651652,-0.48109084552182324,0.41839053668201176,1249.8168498168498,-1.0,84.22567793342758,1.2877305235667749,
2023-08-15 12:58:00.981000,8.27710843373494,-0.5180722891566265,-5.457831325301205,-0.41201716738197425,9.026977314530962,-4.902513795217658,3.0,1.2931512931512932,773.304721030043,-0.4484587145271248,-0.14066779325214213,0.44822562787716314,1110.6227106227107,720.03173828125,83.32966008307197,1.2877344079769166,
2023-08-15 12:58:00.989000,8.27710843373494,-0.5421686746987953,-5.457831325301205,-0.4316370324954016,9.004904966278357,-4.853464132434089,3.0,1.2935952935952937,773.0392998112236,0.09067070683526607,-0.3042946215255524,0.21653749781481246,991.2087912087911,-1.0,83.32966008307197,1.287738568254507,
2023-08-15 12:58:00.996000,8.313253012048193,-0.5301204819277109,-5.433734939759036,-0.35806253832004903,9.044144696505212,-4.833844267320662,3.0,1.2935952935952937,773.0392998112236,-0.06374919876464077,-0.43820290192879213,0.35452479459238967,891.5750915750915,-1.0,83.32966008307197,1.287743025654618,
2023-08-15 12:58:01.004000,8.325301204819278,-0.5301204819277109,-5.46987951807229,-0.35806253832004903,9.026977314530962,-4.897608828939301,3.0,1.2935952935952937,773.0392998112236,-0.06246722218984984,-0.4372705553289437,0.35172775479284396,818.3150183150183,-1.0,83.32966008307197,1.2877478022459685,
2023-08-15 12:58:01.012000,8.349397590361447,-0.5060240963855422,-5.457831325301205,-0.40220723482526055,9.095646842427957,-4.897608828939301,3.0,1.2940392940392942,772.7740607308286,0.2576772915331276,-0.47864343569722045,-0.03542917079424284,764.1025641025641,-1.0,83.32966008307197,1.287752920745893,
2023-08-15 12:58:01.019000,8.337349397590362,-0.5180722891566265,-5.46987951807229,-0.3825873697118332,9.01471489883507,-4.887798896382587,3.0,1.2940392940392942,772.7740607308286,-0.23378590991200923,-0.3077909212749844,0.20698094516636564,729.6703296703296,-1.0,83.32966008307197,1.2877584046413062,
2023-08-15 12:58:01.027000,8.337349397590362,-0.5180722891566265,-5.445783132530121,-0.48559166155732675,9.039239730226853,-4.946658491722869,3.0,1.2944832944832945,772.5090036014406,0.13309247712837213,-0.013985198997728147,0.20360118874191488,706.2271062271062,-1.0,83.32966008307197,1.2877642781801286,
2023-08-15 12:58:01.035000,8.325301204819278,-0.5301204819277109,-5.46987951807229,-0.3531575720416922,8.995095033721643,-4.917228694052728,3.0,1.2944832944832945,772.5090036014406,0.19183031291882827,-0.08764058038575911,-0.22784220033797573,698.1684981684981,-1.0,83.32966008307197,1.2877705663509291,
2023-08-15 12:58:01.042000,8.325301204819278,-0.5301204819277109,-5.493975903614458,-0.38994481912936846,8.985285101164928,-4.9074187614960145,3.0,1.2944832944832945,772.5090036014406,-0.023192121671231584,0.2096614416409292,-0.08973836023541765,701.8315018315018,-1.0,83.32966008307197,1.2877772948718769,
2023-08-15 12:58:01.050000,8.301204819277109,-0.5180722891566265,-5.46987951807229,-0.3948497854077253,8.963212752912323,-4.9000613120784795,3.0,1.2944832944832945,772.5090036014406,0.10057688945865627,-0.060602528990151255,-0.21234193811549454,716.4835164835164,-1.0,83.32966008307197,1.2877844900187037,
2023-08-15 12:58:01.058000,8.301204819277109,-0.5060240963855422,-5.518072289156627,-0.42427958307786634,9.036787247087675,-4.9515634580012255,3.0,1.2949272949272947,772.2441282358992,0.008857292698560929,0.08321193403647865,-0.3969465648854962,743.5897435897435,-1.0,83.32966008307197,1.2877921785895008,
2023-08-15 12:58:01.065000,8.27710843373494,-0.5060240963855422,-5.506024096385542,-0.43654199877375843,8.997547516860822,-4.9074187614960145,3.0,1.2949272949272947,772.2441282358992,0.14742730610104277,-0.29229065905250196,-0.517801992890857,785.3479853479853,-1.0,83.32966008307197,1.2878003880168498,
2023-08-15 12:58:01.073000,8.265060240963855,-0.5180722891566265,-5.493975903614458,-0.3703249540159411,9.004904966278357,-4.9000613120784795,3.0,1.2953712953712955,771.9794344473008,0.03845929724375067,-0.011071615873200292,-0.6233902453236992,842.4908424908424,-1.0,83.32966008307197,1.2878091463505297,
2023-08-15 12:58:01.081000,8.25301204819277,-0.5180722891566265,-5.506024096385542,-0.3850398528510116,8.919068056407111,-4.904966278356836,3.0,1.2958152958152958,771.7149220489978,0.05465881941611818,-0.14323174640172398,-0.7726822446244394,911.3553113553113,-1.0,83.32966008307197,1.2878184820897882,
2023-08-15 12:58:01.088000,8.265060240963855,-0.5060240963855422,-5.481927710843374,-0.37522992029429797,8.919068056407111,-4.86817903126916,3.0,1.2958152958152958,771.7149220489978,-0.0802983509119508,-0.06316648213973486,-0.49134665812015593,991.9413919413919,-1.0,83.32966008307197,1.2878284247497314,
2023-08-15 12:58:01.096000,8.228915662650603,-0.5180722891566265,-5.493975903614458,-0.4463519313304721,8.946045370938075,-4.934396076026977,3.0,1.296259296259296,771.4505908545984,0.09136996678515283,-0.03193287104481168,-0.3174640172484121,1075.4578754578754,-1.0,83.32966008307197,1.2878390046508834,
2023-08-15 12:58:01.104000,8.216867469879519,-0.5060240963855422,-5.493975903614458,-0.3703249540159411,8.879828326180258,-4.927038626609442,3.0,1.296259296259296,771.4505908545984,-0.21175922149058948,-0.03274867431967753,-0.3276032865217644,1161.904761904762,-1.0,83.32966008307197,1.2878502523245334,
2023-08-15 12:58:01.111000,8.19277108433735,-0.5301204819277109,-5.506024096385542,-0.47087676272225626,8.838136112814224,-4.941753525444512,3.0,1.296259296259296,771.4505908545984,-0.20663131519142225,-0.14031816327719787,-0.44403006817784524,1246.8864468864467,-1.0,83.32966008307197,1.2878621986620027,
2023-08-15 12:58:01.119000,8.228915662650603,-0.5421686746987953,-5.481927710843374,-0.40220723482526055,8.879828326180258,-4.885346413243409,3.0,1.2967032967032968,771.1864406779662,-0.1851873433949067,-0.06235067886486727,-0.1767962239962704,1331.8681318681317,-1.0,83.32966008307197,1.287874874881413,
2023-08-15 12:58:01.127000,8.216867469879519,-0.5421686746987953,-5.506024096385542,-0.4071122011036174,8.887185775597793,-4.978540772532188,3.0,1.297147297147297,770.9224713332193,-0.2708466872559881,-0.24439135248528618,-0.03426373754443231,1410.989010989011,-1.0,83.32966008307197,1.2878883126316856,
2023-08-15 12:58:01.134000,8.204819277108435,-0.5180722891566265,-5.542168674698796,-0.41446965052115264,8.950950337216431,-4.931943592887799,3.0,1.2975912975912975,770.6586826347306,-0.34170502884447207,-0.07365538138803097,-0.045568440067595146,1482.051282051282,-1.0,83.32966008307197,1.287902544255582,
2023-08-15 12:58:01.142000,8.265060240963855,-0.5060240963855422,-5.493975903614458,-0.40465971796443895,8.889638258736971,-4.924586143470264,3.0,1.2975912975912975,770.6586826347306,-0.6722218984907647,-0.42235300973136713,0.001981236524678125,1541.3919413919414,-1.0,83.32966008307197,1.28791760275495,
2023-08-15 12:58:01.150000,8.265060240963855,-0.5180722891566265,-5.518072289156627,-0.3948497854077253,8.950950337216431,-4.9147762109135495,3.0,1.2975912975912975,770.6586826347306,-0.39042013868655717,-0.6463492803449687,0.12400209777984952,1592.6739926739926,-1.0,83.32966008307197,1.2879335213405378,
2023-08-15 12:58:01.157000,8.265060240963855,-0.5060240963855422,-5.493975903614458,-0.4316370324954016,8.970570202329858,-4.8706315144083385,3.0,1.298035298035298,770.3950743971268,-0.3996270613600606,-0.5359827515879031,0.3066254880251735,1631.5018315018315,-1.0,83.32966008307197,1.2879503334072764,
2023-08-15 12:58:01.165000,8.27710843373494,-0.5060240963855422,-5.481927710843374,-0.41446965052115264,8.95340282035561,-4.860821581851624,3.0,1.298035298035298,770.3950743971268,-0.808227958743663,-0.19637550259308956,0.3654798671406096,1654.9450549450548,-1.0,83.32966008307197,1.2879680727647096,
2023-08-15 12:58:01.173000,8.265060240963855,-0.5180722891566265,-5.481927710843374,-0.3850398528510116,8.970570202329858,-4.904966278356836,3.0,1.2984792984792985,770.1316464352881,-0.8330516869646297,-0.35976924421653816,0.43785327195384877,1663.003663003663,-1.0,83.32966008307197,1.2879867734618715,
2023-08-15 12:58:01.180000,8.27710843373494,-0.5180722891566265,-5.46987951807229,-0.42673206621704474,9.034334763948497,-4.890251379521765,3.0,1.2989232989232988,769.868398564348,-0.3667618437154005,-0.2175863877396417,0.03496299749431863,1652.7472527472526,-1.0,83.32966008307197,1.2880064697503293,
2023-08-15 12:58:01.188000,8.301204819277109,-0.5180722891566265,-5.46987951807229,-0.37768240343347637,9.026977314530962,-4.902513795217658,3.0,1.2989232989232988,769.868398564348,-0.5451896742614065,-0.13752112347765258,-0.07482081463784195,1631.5018315018315,-1.0,83.32966008307197,1.288027196206516,
2023-08-15 12:58:01.196000,8.313253012048193,-0.5301204819277109,-5.481927710843374,-0.3948497854077253,8.980380134886571,-4.860821581851624,3.0,1.2989232989232988,769.868398564348,-0.4027737311345484,-0.08612551716100478,0.30499388147543827,1594.8717948717947,-1.0,83.32966008307197,1.2880489875663068,
2023-08-15 12:58:01.203000,8.313253012048193,-0.5301204819277109,-5.457831325301205,-0.40220723482526055,8.98283261802575,-4.858369098712446,3.0,1.2993672993672993,769.6053305996925,-0.4119806538080536,-0.1105996154070273,0.11619369500611873,1547.2527472527472,-1.0,83.32966008307197,1.2880718783994065,
2023-08-15 12:58:01.211000,8.313253012048193,-0.5301204819277109,-5.481927710843374,-0.4659717964438994,9.02942979767014,-4.904966278356836,3.0,1.2993672993672993,769.6053305996925,-0.6365596410465594,-0.19812365246780558,0.14264902977681937,1494.5054945054944,-1.0,83.32966008307197,1.2880959033685255,
2023-08-15 12:58:01.219000,8.301204819277109,-0.5301204819277109,-5.493975903614458,-0.4659717964438994,9.022072348252605,-4.892703862660944,3.0,1.2998112998112998,769.3424423569599,-0.4160596701823898,-0.03950818716857993,0.0937008332847739,1438.8278388278388,-1.0,83.32966008307197,1.2881210973284432,
2023-08-15 12:58:01.226000,8.313253012048193,-0.5301204819277109,-5.445783132530121,-0.4071122011036174,9.026977314530962,-4.846106683016554,3.0,1.3002553002553001,769.0797336520403,-0.0768020511625205,0.2387972728861956,-0.1983567391177668,1383.8827838827838,-1.0,83.32966008307197,1.2881474951374794,
2023-08-15 12:58:01.234000,8.313253012048193,-0.5301204819277109,-5.46987951807229,-0.4071122011036174,8.970570202329858,-4.904966278356836,3.0,1.2993672993672993,769.6053305996925,-0.15208903910028493,0.32935143639648085,-0.22772565701299444,1326.007326007326,-1.0,83.32966008307197,1.2881751316390273,
2023-08-15 12:58:01.242000,8.27710843373494,-0.5180722891566265,-5.46987951807229,-0.3801348865726548,9.02942979767014,-4.848559166155733,3.0,1.2998112998112998,769.3424423569599,-0.2728279237806658,0.40627003088398045,-0.4676883631490006,1270.3296703296703,-1.0,83.32966008307197,1.2882040414936056,
2023-08-15 12:58:01.249000,8.313253012048193,-0.5060240963855422,-5.457831325301205,-0.3678724708767627,8.960760269773145,-4.826486817903127,3.0,1.3002553002553001,769.0797336520403,-0.4243342462560448,0.2530155585338854,-0.2813355865042829,1216.117216117216,-1.0,83.32966008307197,1.2882342592031724,
2023-08-15 12:58:01.257000,8.289156626506024,-0.5180722891566265,-5.457831325301205,-0.3727774371551195,8.96811771919068,-4.8706315144083385,3.0,1.3006993006993006,768.8172043010753,0.2498688887593959,0.32667093992191637,-0.35487442456733304,1165.5677655677655,-1.0,83.32966008307197,1.2882658190699594,
2023-08-15 12:58:01.264000,8.25301204819277,-0.5180722891566265,-5.481927710843374,-0.35561005518087063,8.997547516860822,-4.784794604537094,3.0,1.3011433011433011,768.5548541204573,0.5067303770176559,0.40044286463492823,-0.22935726356272962,1122.3443223443223,-1.0,83.32966008307197,1.2882987551969207,
2023-08-15 12:58:01.272000,8.265060240963855,-0.5060240963855422,-5.445783132530121,-0.40465971796443895,8.884733292458614,-4.846106683016554,3.0,1.3015873015873014,768.2926829268293,0.16805547462269074,0.1661907814229939,-0.30079832177612037,1085.7142857142856,-1.0,83.32966008307197,1.2883331016160882,
2023-08-15 12:58:01.280000,8.228915662650603,-0.5180722891566265,-5.481927710843374,-0.44880441446965047,8.946045370938075,-4.863274064990803,3.0,1.3015873015873014,768.2926829268293,0.16665695472291897,0.16490880484820297,-0.2941553522521997,1053.4798534798533,-1.0,83.32966008307197,1.2883688922682464,
2023-08-15 12:58:01.287000,8.228915662650603,-0.5060240963855422,-5.506024096385542,-0.39975475168608215,8.955855303494788,-4.846106683016554,3.0,1.3020313020313021,768.0306905370844,0.09055416351028524,0.1642095448983162,-0.31932871044810895,1028.5714285714284,-1.0,83.32966008307197,1.2884061608340927,
2023-08-15 12:58:01.295000,8.240963855421688,-0.5180722891566265,-5.481927710843374,-0.3507050889025138,8.909258123850398,-4.931943592887799,3.0,1.3020313020313021,768.0306905370844,0.1199230814055133,0.02622224812073854,-0.3722393799895111,1008.058608058608,-1.0,83.32966008307197,1.2884449405549676,
2023-08-15 12:58:01.303000,8.216867469879519,-0.5060240963855422,-5.506024096385542,-0.41201716738197425,8.933782955242183,-4.9074187614960145,3.0,1.3024753024753024,767.7688767683654,0.08775712371073996,0.025522988170851784,-0.01480100227259487,998.5347985347985,-1.0,83.32966008307197,1.2884852642233997,
2023-08-15 12:58:01.310000,8.228915662650603,-0.5301204819277109,-5.506024096385542,-0.43654199877375843,8.941140404659718,-4.858369098712446,3.0,1.3024753024753024,767.7688767683654,0.04148942369325762,-0.31012178777460464,-0.1956762426432028,996.3369963369963,-1.0,83.32966008307197,1.2885271642909226,
2023-08-15 12:58:01.318000,8.25301204819277,-0.5301204819277109,-5.481927710843374,-0.43899448191293683,8.872470876762721,-4.993255671367259,3.0,1.302919302919303,767.5072414380644,0.14870928267583544,-0.20150340889225504,-0.040906707068352574,1004.3956043956043,-1.0,83.32966008307197,1.2885706728375492,
2023-08-15 12:58:01.326000,8.228915662650603,-0.5180722891566265,-5.518072289156627,-0.41201716738197425,8.960760269773145,-4.934396076026977,3.0,1.302919302919303,767.5072414380644,0.13449099702814563,-0.3053435114503817,0.14544606957636508,1019.7802197802197,-1.0,83.32966008307197,1.2886158216699415,
2023-08-15 12:58:01.333000,8.25301204819277,-0.5301204819277109,-5.493975903614458,-0.4512568976088289,8.992642550582465,-4.939301042305334,3.0,1.3033633033633034,767.2457843638222,-0.18646931996969937,-0.4231688130062347,0.22213157741390388,1040.2930402930401,-1.0,83.32966008307197,1.288662642132716,
2023-08-15 12:58:01.341000,8.27710843373494,-0.5180722891566265,-5.481927710843374,-0.43408951563458,8.973022685469036,-4.9442060085836905,3.0,1.302919302919303,767.5072414380644,0.2590758114328993,-0.478993065672163,-0.08344502068644033,1065.9340659340658,-1.0,83.32966008307197,1.2887111650800267,
2023-08-15 12:58:01.349000,8.265060240963855,-0.5301204819277109,-5.506024096385542,-0.42918454935622313,8.896995708154506,-4.88289393010423,3.0,1.3033633033633034,767.2457843638222,0.25686148825826,-0.15080706252549397,-0.005244449624147621,1090.8424908424909,-1.0,83.32966008307197,1.2887614206877633,
2023-08-15 12:58:01.356000,8.289156626506024,-0.5180722891566265,-5.493975903614458,-0.4438994481912937,8.96811771919068,-4.927038626609442,3.0,1.3033633033633034,767.2457843638222,-0.08076452421187588,-0.11258085193170499,0.19427772274343016,1115.7509157509157,-1.0,83.32966008307197,1.2888134382654493,
2023-08-15 12:58:01.364000,8.301204819277109,-0.5060240963855422,-5.506024096385542,-0.34825260576333533,8.997547516860822,-4.9368485591661555,3.0,1.303807303807304,766.984505363528,-0.07936600431210238,-0.2907755958277493,0.05547462269098533,1136.9963369963368,-1.0,83.32966008307197,1.2888672465149267,
2023-08-15 12:58:01.372000,8.301204819277109,-0.5180722891566265,-5.493975903614458,-0.37522992029429797,9.049049662783569,-4.9589209074187615,3.0,1.304251304251304,766.7234042553192,-0.07761785443738635,-0.36256628401608343,0.03892547054367488,1158.974358974359,-1.0,83.32966008307197,1.2889228736296623,
2023-08-15 12:58:01.379000,8.313253012048193,-0.5060240963855422,-5.518072289156627,-0.39975475168608215,9.026977314530962,-4.892703862660944,3.0,1.3046953046953047,766.4624808575804,-0.07586970456267034,-0.404638424334247,0.14579569955130847,1179.4871794871794,-1.0,83.32966008307197,1.2889803472564814,
2023-08-15 12:58:01.387000,8.313253012048193,-0.5060240963855422,-5.493975903614458,-0.41692213366033104,9.007357449417535,-4.9147762109135495,3.0,1.303807303807304,766.984505363528,-0.07528698793776616,-0.5682652526076573,-0.1152613484062703,1195.6043956043954,-1.0,83.32966008307197,1.2890396943513818,
2023-08-15 12:58:01.395000,8.325301204819278,-0.5060240963855422,-5.493975903614458,-0.3801348865726548,9.007357449417535,-4.88289393010423,3.0,1.304251304251304,766.7234042553192,-0.5153545830662551,0.0018646931996968547,-0.29928325855136645,1211.7216117216117,-1.0,83.32966008307197,1.289100941143108,
2023-08-15 12:58:01.402000,8.313253012048193,-0.49397590361445787,-5.506024096385542,-0.3727774371551195,8.975475168608215,-4.890251379521765,3.0,1.3046953046953047,766.4624808575804,-0.5244449624147777,0.08088106753685671,-0.21828564768952846,1224.1758241758241,-1.0,83.32966008307197,1.2891641128742326,
2023-08-15 12:58:01.410000,8.27710843373494,-0.5060240963855422,-5.481927710843374,-0.3531575720416922,8.977927651747393,-4.917228694052728,3.0,1.3051393051393052,766.2017349889437,0.10966726880717886,0.43260882232970155,-0.45964687372530727,1231.5018315018315,-1.0,83.32966008307197,1.2892292339246414,
2023-08-15 12:58:01.418000,8.27710843373494,-0.49397590361445787,-5.506024096385542,-0.35806253832004903,8.948497854077253,-4.917228694052728,3.0,1.3051393051393052,766.2017349889437,0.08076452421187588,0.5838820581551188,-0.1506905192005127,1239.5604395604396,-1.0,83.32966008307197,1.2892963279458147,
2023-08-15 12:58:01.425000,8.265060240963855,-0.5060240963855422,-5.493975903614458,-0.3678724708767627,8.92152053954629,-4.9368485591661555,3.0,1.3055833055833055,765.9411664682877,-0.13122778392867526,0.275158790280286,-0.5756074820814638,1245.4212454212454,-1.0,83.32966008307197,1.289365417558953,
2023-08-15 12:58:01.433000,8.25301204819277,-0.5180722891566265,-5.46987951807229,-0.4438994481912937,8.90680564071122,-4.858369098712446,3.0,1.3055833055833055,765.9411664682877,-0.024007924946099175,0.33517860264553306,-0.5217644659402133,1246.8864468864467,-1.0,83.32966008307197,1.2894365243409673,
2023-08-15 12:58:01.441000,8.216867469879519,-0.5180722891566265,-5.46987951807229,-0.43899448191293683,8.911710606989576,-4.831391784181483,3.0,1.306027306027306,765.6807751147375,-0.268632364081347,0.21001107161587346,-0.34823145504341235,1246.8864468864467,-1.0,83.32966008307197,1.2895096689491947,
2023-08-15 12:58:01.448000,8.228915662650603,-0.5301204819277109,-5.481927710843374,-0.4438994481912937,8.933782955242183,-4.858369098712446,3.0,1.306027306027306,765.6807751147375,-0.5704795757822967,0.12994580735388434,-0.42060485985665197,1248.3516483516482,-1.0,83.32966008307197,1.2895848710870956,
2023-08-15 12:58:01.456000,8.240963855421688,-0.5421686746987953,-5.481927710843374,-0.34580012262415694,8.911710606989576,-4.816676885346413,3.0,1.3064713064713065,765.4205607476636,-0.24613950236000218,0.49391061126973956,-0.32702056989685935,1249.8168498168498,-1.0,83.32966008307197,1.2896621494813645,
2023-08-15 12:58:01.464000,8.216867469879519,-0.5421686746987953,-5.481927710843374,-0.44880441446965047,8.975475168608215,-4.890251379521765,3.0,1.3064713064713065,765.4205607476636,-0.015849892197425,0.19858982576772893,-0.0814637841617622,1255.6776556776556,-1.0,83.32966008307197,1.289741521849422,
2023-08-15 12:58:01.471000,8.216867469879519,-0.5301204819277109,-5.506024096385542,-0.46842427958307786,8.950950337216431,-4.846106683016554,3.0,1.3069153069153068,765.1605231866826,0.10663714235767191,0.10407318920808831,-0.031583241069867866,1266.6666666666665,-1.0,83.32966008307197,1.2898230048784158,
2023-08-15 12:58:01.479000,8.216867469879519,-0.5542168674698795,-5.506024096385542,-0.3801348865726548,8.93868792152054,-4.890251379521765,3.0,1.3069153069153068,765.1605231866826,-0.2146728046151156,-0.24777110890973736,0.33552823262047643,1284.9816849816848,-1.0,83.32966008307197,1.2899066141947275,
2023-08-15 12:58:01.487000,8.240963855421688,-0.5421686746987953,-5.46987951807229,-0.4463519313304721,8.904353157572041,-4.86817903126916,3.0,1.3069153069153068,765.1605231866826,0.17050288444729353,-0.4733989860730724,0.24345900588543773,1313.5531135531135,-1.0,83.32966008307197,1.2899923643450881,
2023-08-15 12:58:01.494000,8.25301204819277,-0.5180722891566265,-5.457831325301205,-0.39239730226854685,8.90680564071122,-4.831391784181483,3.0,1.3073593073593073,764.9006622516557,0.2158382378649257,-0.19264611619369584,0.6862070974884912,1359.7069597069597,-1.0,83.32966008307197,1.2900802687577613,
2023-08-15 12:58:01.502000,8.228915662650603,-0.5060240963855422,-5.457831325301205,-0.3139178418148375,8.975475168608215,-4.890251379521765,3.0,1.3078033078033078,764.6409777626889,-0.36711147369034475,-0.4673387331740568,0.8386457665637199,1424.1758241758241,-1.0,83.32966008307197,1.2901703396942896,
2023-08-15 12:58:01.510000,8.25301204819277,-0.5180722891566265,-5.457831325301205,-0.3850398528510116,8.987737584304108,-4.924586143470264,3.0,1.3078033078033078,764.6409777626889,-0.47328244274809156,-0.5076627236175043,0.7592797622516171,1513.5531135531135,-1.0,83.32966008307197,1.2902625882549885,
2023-08-15 12:58:01.517000,8.27710843373494,-0.49397590361445787,-5.493975903614458,-0.3531575720416922,8.965665236051501,-4.909871244635193,3.0,1.308247308247308,764.3814695401325,0.07889983101217903,-0.6105704795757825,0.6187285123244567,1630.03663003663,-1.0,83.32966008307197,1.290357024375118,
2023-08-15 12:58:01.525000,8.313253012048193,-0.49397590361445787,-5.481927710843374,-0.3825873697118332,8.958307786633966,-4.885346413243409,3.0,1.308247308247308,764.3814695401325,-0.424217702931064,-0.5894761377542095,0.7539187693024882,1775.8241758241757,-1.0,83.32966008307197,1.2904536568013483,
2023-08-15 12:58:01.533000,8.325301204819278,-0.49397590361445787,-5.506024096385542,-0.38749233599019006,9.058859595340282,-4.912323727774371,3.0,1.3086913086913088,764.1221374045801,-0.022376318396363993,-0.4584814404754976,0.019928908571761654,1942.8571428571427,-1.0,83.32966008307197,1.2905524930801842,
2023-08-15 12:58:01.540000,8.373493975903616,-0.4819277108433735,-5.493975903614458,-0.3973022685469037,9.085836909871244,-4.9368485591661555,3.0,1.308247308247308,764.3814695401325,-0.23646640638657368,-0.7902802866965795,-0.07120797156342863,2123.076923076923,-1.0,83.32966008307197,1.2906535395373384,
2023-08-15 12:58:01.548000,8.361445783132531,-0.49397590361445787,-5.493975903614458,-0.41446965052115264,9.019619865113427,-4.9515634580012255,3.0,1.3086913086913088,764.1221374045801,-0.01736495542217761,-0.553697336985025,-0.13006235067886474,2303.296703296703,-1.0,83.32966008307197,1.2907568013973907,
2023-08-15 12:58:01.556000,8.337349397590362,-0.49397590361445787,-5.518072289156627,-0.3703249540159411,9.04659717964439,-4.919681177191906,3.0,1.309135309135309,763.8629811768697,-0.01666569547229259,-0.5486859740108386,-0.12773148417924365,2471.062271062271,-1.0,83.32966008307197,1.2908622825649123,
2023-08-15 12:58:01.563000,8.313253012048193,-0.5180722891566265,-5.518072289156627,-0.3531575720416922,9.04659717964439,-4.897608828939301,3.0,1.3095793095793093,763.6040006780811,-0.2576772915331276,-0.024124468271080012,-0.30988870112464295,2613.9194139194137,-1.0,83.32966008307197,1.2909699856299126,
2023-08-15 12:58:01.571000,8.27710843373494,-0.5060240963855422,-5.518072289156627,-0.3801348865726548,9.039239730226853,-4.941753525444512,3.0,1.31002331002331,763.3451957295374,-0.14393100635161074,0.40312336110949265,-0.26094050463259705,2724.5421245421244,-1.0,83.32966008307197,1.2910799118851601,
2023-08-15 12:58:01.579000,8.25301204819277,-0.5180722891566265,-5.493975903614458,-0.37768240343347637,8.958307786633966,-4.993255671367259,3.0,1.31002331002331,763.3451957295374,-0.09253540003496293,0.8131227783928668,-0.5637200629333956,2791.941391941392,-1.0,83.32966008307197,1.2911920613555927,
2023-08-15 12:58:01.586000,8.228915662650603,-0.5060240963855422,-5.518072289156627,-0.42427958307786634,8.874923359901901,-4.949110974862047,3.0,1.3104673104673104,763.0865661528037,-0.17796165724608096,0.30511042480042,-0.9392226560223762,2805.128205128205,-1.0,83.32966008307197,1.2913064328084822,
2023-08-15 12:58:01.594000,8.25301204819277,-0.5180722891566265,-5.518072289156627,-0.43654199877375843,8.867565910484364,-4.9589209074187615,3.0,1.3109113109113109,762.8281117696868,0.1480100227259487,0.5009032107686037,-0.993531845463551,2783.150183150183,-1.0,83.32966008307197,1.2914230237444815,
2023-08-15 12:58:01.602000,8.228915662650603,-0.5421686746987953,-5.493975903614458,-0.40465971796443895,8.894543225015328,-4.8779889638258735,3.0,1.3113553113553114,762.5698324022347,-0.15407027562496434,0.5287570654390773,-1.3225336518850883,2706.9597069597066,-1.0,83.32966008307197,1.2915418305505189,
2023-08-15 12:58:01.609000,8.204819277108435,-0.5180722891566265,-5.481927710843374,-0.49294911097486205,8.874923359901901,-4.9074187614960145,3.0,1.3113553113553114,762.5698324022347,-0.11840801818075895,0.007691859448750828,-0.6548569430685859,2591.941391941392,-1.0,83.32966008307197,1.2916628485168102,
2023-08-15 12:58:01.617000,8.19277108433735,-0.5421686746987953,-5.481927710843374,-0.40465971796443895,8.887185775597793,-4.887798896382587,3.0,1.3117993117993116,762.3117278727366,-0.2512674086591694,0.1298292640289035,-0.4516053843016139,2446.153846153846,-1.0,83.32966008307197,1.2917860717075598,
2023-08-15 12:58:01.625000,8.168674698795181,-0.5180722891566265,-5.493975903614458,-0.39239730226854685,8.798896382587369,-4.917228694052728,3.0,1.3122433122433121,762.0537980037219,-0.4139618903327313,0.5557951168346835,-0.12691568090437608,2278.388278388278,-1.0,83.32966008307197,1.2919114929621969,
2023-08-15 12:58:01.632000,8.168674698795181,-0.5301204819277109,-5.46987951807229,-0.3973022685469037,8.884733292458614,-4.9294911097486205,3.0,1.3122433122433121,762.0537980037219,-0.1632771982984678,0.3372763824951933,-0.1872851232445661,2096.7032967032965,-1.0,83.32966008307197,1.2920391040587869,
2023-08-15 12:58:01.640000,8.168674698795181,-0.5060240963855422,-5.457831325301205,-0.41446965052115264,8.855303494788473,-4.8706315144083385,3.0,1.3126873126873129,761.7960426179604,-0.08426082396130792,0.12085542800536173,0.011188159198181996,1906.9597069597069,-1.0,83.32966008307197,1.2921688955925286,
2023-08-15 12:58:01.647000,8.180722891566266,-0.5060240963855422,-5.481927710843374,-0.3850398528510116,8.847946045370938,-4.939301042305334,3.0,1.3126873126873129,761.7960426179604,-0.49321135131985283,-0.18623623331973596,-0.20208612551716096,1717.9487179487178,-1.0,83.32966008307197,1.2923008569849117,
2023-08-15 12:58:01.655000,8.216867469879519,-0.49397590361445787,-5.493975903614458,-0.34825260576333533,8.916615573267933,-4.855916615573268,3.0,1.3126873126873129,761.7960426179604,-0.06444845871452753,-0.04720004661733076,0.30336227492570356,1537.7289377289376,-1.0,83.32966008307197,1.292434976505836,
2023-08-15 12:58:01.663000,8.228915662650603,-0.5060240963855422,-5.46987951807229,-0.40220723482526055,8.874923359901901,-4.885346413243409,3.0,1.3131313131313131,761.5384615384615,-0.1086183788823496,-0.3369267525202491,0.5909912009789637,1368.4981684981683,704.7119140625,85.14117443270396,1.292571241138305,
2023-08-15 12:58:01.670000,8.25301204819277,-0.5060240963855422,-5.46987951807229,-0.38994481912936846,8.973022685469036,-4.890251379521765,3.0,1.3135753135753134,761.2810545884739,0.0451022667676705,0.0476662199172541,0.557310180059437,1216.8498168498168,-1.0,85.14117443270396,1.29270963673273,
2023-08-15 12:58:01.678000,8.25301204819277,-0.4819277108433735,-5.46987951807229,-0.37522992029429797,9.009809932556713,-4.902513795217658,3.0,1.3135753135753134,761.2810545884739,-0.09078725016024691,-0.1537206456500201,0.7050871161354231,1084.2490842490843,-1.0,85.14117443270396,1.292850148184554,
2023-08-15 12:58:01.686000,8.289156626506024,-0.46987951807228917,-5.506024096385542,-0.3703249540159411,9.017167381974248,-4.875536480686695,3.0,1.3144633144633144,760.7667623712211,0.27550842025523026,0.04545189674261474,0.27084668725598726,973.6263736263736,-1.0,85.14117443270396,1.2929927593267976,
2023-08-15 12:58:01.693000,8.301204819277109,-0.46987951807228917,-5.506024096385542,-0.3678724708767627,9.051502145922747,-4.897608828939301,3.0,1.314019314019314,761.0238215914851,0.2870462094283556,-0.1699201678223876,0.2075636617912707,881.3186813186812,-1.0,85.14117443270396,1.2931374529635893,
2023-08-15 12:58:01.701000,8.289156626506024,-0.46987951807228917,-5.493975903614458,-0.41692213366033104,9.02942979767014,-4.909871244635193,3.0,1.3144633144633144,760.7667623712211,0.43715401200396287,0.028553114620360476,0.3591865275916323,810.9890109890109,-1.0,85.14117443270396,1.29328421121503,
2023-08-15 12:58:01.709000,8.301204819277109,-0.4819277108433735,-5.493975903614458,-0.3654199877375843,8.987737584304108,-4.855916615573268,3.0,1.3149073149073147,760.5098767516462,0.20371773206689614,0.04428646349280291,-0.0857758871860614,759.7069597069597,-1.0,85.14117443270396,1.2934330153335374,
2023-08-15 12:58:01.716000,8.313253012048193,-0.49397590361445787,-5.46987951807229,-0.40465971796443895,9.036787247087675,-4.828939301042305,3.0,1.3153513153513152,760.2531645569621,0.5370316415127324,0.04486918011770882,-0.14532952625138382,723.8095238095237,-1.0,85.14117443270396,1.293583845468305,
2023-08-15 12:58:01.724000,8.325301204819278,-0.4819277108433735,-5.46987951807229,-0.3163703249540159,9.085836909871244,-4.917228694052728,3.0,1.3157953157953157,759.9966256116079,0.25802692150807005,0.10663714235767191,-0.25138395198415026,706.2271062271062,-1.0,85.14117443270396,1.2937366808891393,
2023-08-15 12:58:01.732000,8.325301204819278,-0.4819277108433735,-5.457831325301205,-0.2918454935622317,9.073574494175352,-4.865726548129981,3.0,1.3157953157953157,759.9966256116079,0.6684925120913693,0.24660567565992728,-0.29625313210185905,701.8315018315018,-1.0,85.14117443270396,1.2938915001910491,
2023-08-15 12:58:01.739000,8.313253012048193,-0.49397590361445787,-5.493975903614458,-0.26486817903126914,9.009809932556713,-4.919681177191906,3.0,1.316239316239316,759.7402597402598,0.4193228832818602,0.5381970747625424,0.1019754093584289,709.8901098901099,-1.0,85.14117443270396,1.294048281202847,
2023-08-15 12:58:01.747000,8.301204819277109,-0.4819277108433735,-5.542168674698796,-0.38994481912936846,8.973022685469036,-4.922133660331085,3.0,1.3166833166833167,759.4840667678301,0.38529223238738997,0.32375735679739026,-0.540178311287221,729.6703296703296,-1.0,85.14117443270396,1.2942070010257312,
2023-08-15 12:58:01.755000,8.301204819277109,-0.49397590361445787,-5.481927710843374,-0.3629675045984059,9.012262415695892,-4.9442060085836905,3.0,1.3171273171273172,759.2280465194674,0.3350620593205522,0.12656605092943313,-0.47654565584756153,764.1025641025641,-1.0,85.14117443270396,1.2943676362333134,
2023-08-15 12:58:01.762000,8.27710843373494,-0.4819277108433735,-5.518072289156627,-0.3801348865726548,8.882280809319436,-4.9368485591661555,3.0,1.3171273171273172,759.2280465194674,0.18110832702057048,0.26432026105704737,-0.6436687838704038,810.9890109890109,-1.0,85.14117443270396,1.2945301629351538,
2023-08-15 12:58:01.770000,8.25301204819277,-0.49397590361445787,-5.506024096385542,-0.3654199877375843,8.926425505824646,-4.946658491722869,3.0,1.3175713175713175,758.9721988205561,-0.20150340889225504,-0.16432608822329706,-0.334595886020628,870.3296703296703,-1.0,85.14117443270396,1.2946945566931753,
2023-08-15 12:58:01.778000,8.240963855421688,-0.5180722891566265,-5.506024096385542,-0.3654199877375843,8.970570202329858,-4.919681177191906,3.0,1.3175713175713175,758.9721988205561,-0.18378882349513492,0.17574733407144158,-0.45463551075112174,942.124542124542,-1.0,85.14117443270396,1.2948607925675997,
2023-08-15 12:58:01.785000,8.216867469879519,-0.5301204819277109,-5.542168674698796,-0.34580012262415694,8.909258123850398,-4.978540772532188,3.0,1.3184593184593183,758.4610203738004,-0.4404172251034315,0.11456208845638441,-0.572577355631956,1024.9084249084249,-1.0,85.14117443270396,1.2950288451745198,
2023-08-15 12:58:01.793000,8.204819277108435,-0.5180722891566265,-5.542168674698796,-0.3654199877375843,8.919068056407111,-4.980993255671367,3.0,1.3184593184593183,758.4610203738004,-0.17481498747159316,0.20523279529165048,-0.33482897267059014,1109.1575091575091,-1.0,85.14117443270396,1.2951986888831255,
2023-08-15 12:58:01.801000,8.204819277108435,-0.5421686746987953,-5.542168674698796,-0.4193746167995095,8.852851011649294,-4.956468424279583,3.0,1.3189033189033188,758.2056892778994,-0.24555678573509626,-0.08764058038575911,-0.29823436862653674,1200.7326007326008,-1.0,85.14117443270396,1.295370297896752,
2023-08-15 12:58:01.808000,8.216867469879519,-0.5421686746987953,-5.542168674698796,-0.3703249540159411,8.92152053954629,-4.998160637645616,3.0,1.3193473193473193,757.9505300353358,-0.20919526834100588,-0.48738418507080056,-0.21304119806538085,1291.5750915750914,-1.0,85.14117443270396,1.2955436461649088,
2023-08-15 12:58:01.816000,8.228915662650603,-0.5301204819277109,-5.542168674698796,-0.4512568976088289,8.941140404659718,-4.912323727774371,3.0,1.3197913197913198,757.6955424726661,-0.2481207388846799,-0.30231338500087473,0.006759512848901533,1376.5567765567764,-1.0,85.14117443270396,1.2957187075943315,
2023-08-15 12:58:01.824000,8.216867469879519,-0.5060240963855422,-5.518072289156627,-0.41446965052115264,8.909258123850398,-4.968730839975475,3.0,1.32023532023532,757.4407264166807,-0.9000640988287392,0.05162869296660949,-0.09416700658469768,1452.7472527472526,-1.0,85.14117443270396,1.295895456122266,
2023-08-15 12:58:01.831000,8.25301204819277,-0.5180722891566265,-5.518072289156627,-0.3629675045984059,8.987737584304108,-4.939301042305334,3.0,1.32023532023532,757.4407264166807,-0.8893421129304814,0.049997086416876044,-0.08892255696055006,1519.4139194139193,-1.0,85.14117443270396,1.2960738657905944,
2023-08-15 12:58:01.839000,8.240963855421688,-0.5180722891566265,-5.530120481927711,-0.43899448191293683,8.985285101164928,-4.897608828939301,3.0,1.321123321123321,756.9316081330869,-0.48109084552182324,-0.27236175048074074,0.022026688421420616,1577.2893772893772,-1.0,85.14117443270396,1.2962539106713467,
2023-08-15 12:58:01.847000,8.25301204819277,-0.5060240963855422,-5.506024096385542,-0.35806253832004903,8.955855303494788,-4.919681177191906,3.0,1.3206793206793208,757.1860816944024,-0.8733756774080773,-0.04416992016782207,0.3297010663714234,1621.245421245421,-1.0,85.14117443270396,1.2964355650694306,
2023-08-15 12:58:01.854000,8.27710843373494,-0.4819277108433735,-5.506024096385542,-0.33353770692826484,8.89209074187615,-4.917228694052728,3.0,1.321123321123321,756.9316081330869,-0.9232562204999708,-0.3976458248353829,0.4801584989219744,1651.2820512820513,-1.0,85.14117443270396,1.296618803736136,
2023-08-15 12:58:01.862000,8.25301204819277,-0.45783132530120485,-5.493975903614458,-0.27713059472716123,9.007357449417535,-4.9147762109135495,3.0,1.3220113220113219,756.4231738035265,-0.8673154245090616,0.1210885146553234,0.29275683235242705,1665.9340659340658,-1.0,85.14117443270396,1.2968036015827398,
2023-08-15 12:58:01.870000,8.25301204819277,-0.46987951807228917,-5.46987951807229,-0.3801348865726548,8.948497854077253,-4.855916615573268,3.0,1.3224553224553224,756.1692126909519,-0.5534642503350615,-0.0640988287395833,0.3803974127381853,1662.2710622710622,-1.0,85.14117443270396,1.2969899339039126,
2023-08-15 12:58:01.877000,8.27710843373494,-0.4819277108433735,-5.46987951807229,-0.3654199877375843,8.93868792152054,-4.8779889638258735,3.0,1.3233433233433232,755.6618017111224,-0.6849251209137002,-0.045684983392576414,0.3890216187867841,1643.2234432234432,-1.0,85.14117443270396,1.2971777766214072,
2023-08-15 12:58:01.885000,8.301204819277109,-0.46987951807228917,-5.46987951807229,-0.3261802575107296,8.973022685469036,-4.885346413243409,3.0,1.3237873237873237,755.4083515009224,-0.8015849892197432,0.07773439776236893,0.06351611211467867,1613.186813186813,-1.0,85.14117443270396,1.2973671063678456,
2023-08-15 12:58:01.893000,8.325301204819278,-0.45783132530120485,-5.46987951807229,-0.3163703249540159,8.970570202329858,-4.8412017167381975,3.0,1.3246753246753247,754.9019607843138,-0.2150224345900581,0.06246722218984984,-0.04720004661732989,1571.4285714285713,-1.0,85.14117443270396,1.2975579005808502,
2023-08-15 12:58:01.900000,8.313253012048193,-0.44578313253012053,-5.46987951807229,-0.3703249540159411,9.009809932556713,-4.8412017167381975,3.0,1.325119325119325,754.6490199363378,-0.2291241769127671,-0.13367519375327805,-0.006526426198939426,1522.3443223443223,-1.0,85.14117443270396,1.2977501375863831,
2023-08-15 12:58:01.908000,8.313253012048193,-0.46987951807228917,-5.421686746987952,-0.3605150214592274,8.992642550582465,-4.851011649294911,3.0,1.325119325119325,754.6490199363378,-0.5045160538430165,-0.023541751646174093,0.1736495542217822,1467.3992673992673,-1.0,85.14117443270396,1.2979437965534883,
2023-08-15 12:58:01.916000,8.301204819277109,-0.46987951807228917,-5.433734939759036,-0.2918454935622317,8.970570202329858,-4.902513795217658,3.0,1.3255633255633252,754.396248534584,-0.013169395722860555,-0.052327952916496244,-0.0013985198997726411,1409.5238095238094,-1.0,85.14117443270396,1.2981388572985777,
2023-08-15 12:58:01.923000,8.289156626506024,-0.49397590361445787,-5.445783132530121,-0.37522992029429797,9.0,-4.858369098712446,3.0,1.326007326007326,754.1436464088398,0.45906415710040177,0.13216013052852368,0.010605442573276513,1353.113553113553,-1.0,85.14117443270396,1.2983353006208485,
2023-08-15 12:58:01.931000,8.265060240963855,-0.49397590361445787,-5.421686746987952,-0.3531575720416922,8.941140404659718,-4.826486817903127,3.0,1.3264513264513267,753.8912133891213,0.1165433249810621,0.1942777227434293,0.42083794650661366,1293.7728937728937,-1.0,85.14117443270396,1.298533108486838,
2023-08-15 12:58:01.939000,8.25301204819277,-0.5060240963855422,-5.433734939759036,-0.3654199877375843,8.923973022685468,-4.846106683016554,3.0,1.326895326895327,753.6389493056716,0.6624322591923554,0.08764058038575911,0.082745760736554,1238.095238095238,-1.0,85.14117443270396,1.2987322639468117,
2023-08-15 12:58:01.946000,8.228915662650603,-0.5180722891566265,-5.457831325301205,-0.41446965052115264,8.936235438381361,-4.83629675045984,3.0,1.3273393273393275,753.3868539889613,0.5629042596585284,0.4702523162985846,0.08286230406153484,1185.3479853479853,-1.0,85.14117443270396,1.2989327510595001,
2023-08-15 12:58:01.954000,8.228915662650603,-0.5421686746987953,-5.481927710843374,-0.40465971796443895,8.936235438381361,-4.8779889638258735,3.0,1.327783327783328,753.1349272696873,0.6794475846395905,0.37480333313909386,-0.05337684284132637,1140.6593406593406,-1.0,85.14117443270396,1.299134554973552,
2023-08-15 12:58:01.962000,8.25301204819277,-0.5301204819277109,-5.506024096385542,-0.4218270999386879,8.970570202329858,-4.8706315144083385,3.0,1.3282273282273283,752.8831689787731,0.6577705261931115,0.020977798496590483,-0.0667793252141486,1103.2967032967033,-1.0,85.14117443270396,1.2993376622727355,
2023-08-15 12:58:01.969000,8.25301204819277,-0.5180722891566265,-5.493975903614458,-0.41446965052115264,8.933782955242183,-4.851011649294911,3.0,1.328671328671329,752.6315789473683,0.5730435289318803,-0.04125633704329595,0.02703805139560613,1071.062271062271,-1.0,85.14117443270396,1.2995420610100838,
2023-08-15 12:58:01.977000,8.240963855421688,-0.5301204819277109,-5.481927710843374,-0.41201716738197425,8.90680564071122,-4.919681177191906,3.0,1.3291153291153293,752.3801570068481,0.8603228250101975,-0.011188159198181129,0.28961016257793837,1046.1538461538462,-1.0,85.14117443270396,1.299747740472858,
2023-08-15 12:58:01.985000,8.25301204819277,-0.5180722891566265,-5.518072289156627,-0.37768240343347637,8.948497854077253,-4.855916615573268,3.0,1.3295593295593295,752.1289029888128,0.8669657945341174,0.12400209777984952,0.2152555212400211,1027.106227106227,-1.0,85.14117443270396,1.2999546912527014,
2023-08-15 12:58:01.992000,8.240963855421688,-0.49397590361445787,-5.518072289156627,-0.3801348865726548,8.919068056407111,-4.9442060085836905,3.0,1.3300033300033303,751.8778167250875,0.6449507604451952,-0.2736437270555334,0.06538080531437553,1012.4542124542124,-1.0,85.14117443270396,1.3001629054399797,
2023-08-15 12:58:02,8.25301204819277,-0.4819277108433735,-5.542168674698796,-0.3825873697118332,8.887185775597793,-4.904966278356836,3.0,1.3300033300033303,751.8778167250875,0.6729211584406498,-0.22679331041314688,0.18973253306916843,1003.6630036630036,-1.0,85.14117443270396,1.3003723766654134,
2023-08-15 12:58:02.008000,8.25301204819277,-0.46987951807228917,-5.530120481927711,-0.3654199877375843,8.923973022685468,-4.9736358062538315,3.0,1.3304473304473305,751.6268980477223,0.8521647922615234,-0.013402482372822228,0.23786492628634676,1003.6630036630036,-1.0,85.14117443270396,1.3005831002663117,
2023-08-15 12:58:02.015000,8.240963855421688,-0.4819277108433735,-5.55421686746988,-0.37522992029429797,8.909258123850398,-4.9662783568362965,3.0,1.3308913308913308,751.3761467889908,0.34298700541926475,-0.1222539479051335,0.16351028494842945,1010.9890109890109,-1.0,85.14117443270396,1.3007950731194329,
2023-08-15 12:58:02.023000,8.265060240963855,-0.4819277108433735,-5.566265060240964,-0.299202942979767,8.985285101164928,-4.978540772532188,3.0,1.3317793317793318,750.8751458576429,0.4202552298817086,-0.4443796981527886,0.2700308839811201,1025.6410256410256,-1.0,85.14117443270396,1.3010082935327303,
2023-08-15 12:58:02.030000,8.27710843373494,-0.45783132530120485,-5.542168674698796,-0.39239730226854685,9.0,-4.978540772532188,3.0,1.3322233322233323,750.6248958506915,0.38634112231221923,-0.41163102383310934,0.10279121263329649,1042.4908424908424,-1.0,85.14117443270396,1.3012227614303988,
2023-08-15 12:58:02.038000,8.313253012048193,-0.4819277108433735,-5.566265060240964,-0.3507050889025138,8.960760269773145,-4.971183323114653,3.0,1.3326673326673328,750.374812593703,0.3401899656197195,-0.2700308839811205,0.3032457316007227,1065.9340659340658,-1.0,85.14117443270396,1.3014384784156832,
2023-08-15 12:58:02.046000,8.301204819277109,-0.45783132530120485,-5.566265060240964,-0.42918454935622313,9.044144696505212,-4.9736358062538315,3.0,1.3326673326673328,750.374812593703,-0.13262630382844878,0.266884214206631,0.23937998951110065,1090.10989010989,-1.0,85.14117443270396,1.3016554477975788,
2023-08-15 12:58:02.053000,8.301204819277109,-0.4819277108433735,-5.542168674698796,-0.3727774371551195,9.049049662783569,-4.919681177191906,3.0,1.3331113331113331,750.1248959200666,-0.038575840568731506,0.3591865275916323,-0.021443971796515564,1115.018315018315,-1.0,85.14117443270396,1.3018736744531905,
2023-08-15 12:58:02.061000,8.289156626506024,-0.4819277108433735,-5.542168674698796,-0.4316370324954016,9.009809932556713,-4.9442060085836905,3.0,1.3335553335553336,749.8751456633927,-0.17329992424683882,0.26548569430685925,-0.12854728745411126,1138.4615384615383,-1.0,85.14117443270396,1.3020931648128633,
2023-08-15 12:58:02.069000,8.301204819277109,-0.4819277108433735,-5.506024096385542,-0.38749233599019006,8.975475168608215,-4.909871244635193,3.0,1.3339993339993341,749.6255616575137,-0.26187285123244636,0.38727346891206765,0.2523162985839987,1161.904761904762,-1.0,85.14117443270396,1.3023139269995403,
2023-08-15 12:58:02.076000,8.265060240963855,-0.4819277108433735,-5.493975903614458,-0.3801348865726548,8.95340282035561,-4.887798896382587,3.0,1.3339993339993341,749.6255616575137,-0.16549152147310714,-0.10547170910786008,-0.05768894586562557,1184.6153846153845,-1.0,85.14117443270396,1.3025359708243631,
2023-08-15 12:58:02.084000,8.25301204819277,-0.5060240963855422,-5.506024096385542,-0.39239730226854685,8.948497854077253,-4.919681177191906,3.0,1.3344433344433346,749.3761437364831,-0.3759687663889057,-0.012237049123012128,-0.10663714235767148,1205.128205128205,-1.0,85.14117443270396,1.3027593076279145,
2023-08-15 12:58:02.092000,8.25301204819277,-0.5180722891566265,-5.506024096385542,-0.3825873697118332,8.894543225015328,-4.880441446965052,3.0,1.334887334887335,749.126891734575,-0.3709574034147193,0.15558533884971695,-0.049530913116951396,1224.9084249084249,-1.0,85.14117443270396,1.3029839502437663,
2023-08-15 12:58:02.099000,8.228915662650603,-0.5421686746987953,-5.506024096385542,-0.4512568976088289,8.923973022685468,-4.931943592887799,3.0,1.335775335775336,748.6288848263254,-0.26012470135773036,-0.028436571295379638,-0.41827399335703047,1241.7582417582416,-1.0,85.14117443270396,1.3032099131158175,
2023-08-15 12:58:02.107000,8.265060240963855,-0.5180722891566265,-5.46987951807229,-0.3507050889025138,8.973022685469036,-4.946658491722869,3.0,1.3362193362193362,748.3801295896328,-0.2556960550084499,-0.027620768020512047,-0.4165258434823144,1254.9450549450548,-1.0,85.14117443270396,1.3034372122820808,
2023-08-15 12:58:02.115000,8.25301204819277,-0.5180722891566265,-5.481927710843374,-0.3825873697118332,8.914163090128755,-4.909871244635193,3.0,1.336663336663337,748.1315396113602,0.08227958743663023,0.2785385467047372,-0.17061942777227437,1265.9340659340658,-1.0,85.14117443270396,1.3036658655235838,
2023-08-15 12:58:02.122000,8.265060240963855,-0.49397590361445787,-5.457831325301205,-0.3850398528510116,8.936235438381361,-4.904966278356836,3.0,1.3371073371073372,747.8831147268802,-0.07085834158848568,0.1846046267700025,-0.1717848610220849,1272.5274725274724,-1.0,85.14117443270396,1.3038958921787733,
2023-08-15 12:58:02.130000,8.228915662650603,-0.49397590361445787,-5.457831325301205,-0.35806253832004903,8.894543225015328,-4.875536480686695,3.0,1.3375513375513377,747.6348547717841,-0.08530971388613719,0.44309772157799593,-0.003030126449507823,1280.5860805860805,-1.0,85.14117443270396,1.304127312973996,
2023-08-15 12:58:02.138000,8.204819277108435,-0.5060240963855422,-5.457831325301205,-0.35806253832004903,8.923973022685468,-4.863274064990803,3.0,1.3379953379953382,747.3867595818815,0.32713711322183975,0.11805838820581471,0.028086941320435828,1282.7838827838827,-1.0,85.14117443270396,1.3043601501258886,
2023-08-15 12:58:02.145000,8.204819277108435,-0.5060240963855422,-5.46987951807229,-0.39975475168608215,8.870018393623543,-4.851011649294911,3.0,1.3384393384393385,747.1388289931995,0.4305110424800413,0.7433133267292121,0.18099178369558877,1282.7838827838827,-1.0,85.14117443270396,1.304594427289727,
2023-08-15 12:58:02.153000,8.19277108433735,-0.49397590361445787,-5.445783132530121,-0.3654199877375843,8.89209074187615,-4.887798896382587,3.0,1.3379953379953382,747.3867595818815,0.1335586504282972,0.36874308024007996,0.13460754035312647,1277.6556776556777,-1.0,85.14117443270396,1.3048301695031397,
2023-08-15 12:58:02.161000,8.19277108433735,-0.46987951807228917,-5.457831325301205,-0.37522992029429797,8.889638258736971,-4.846106683016554,3.0,1.3388833388833388,746.8910628419831,0.25313210185886625,0.07155760153837244,0.31851290717324177,1271.7948717948716,-1.0,85.14117443270396,1.3050674031041944,
2023-08-15 12:58:02.168000,8.240963855421688,-0.5060240963855422,-5.506024096385542,-0.4071122011036174,8.92152053954629,-4.848559166155733,3.0,1.3393273393273395,746.6434609646941,0.3869238389371251,0.036944234018996325,0.27341064040557084,1267.3992673992673,-1.0,85.14117443270396,1.3053061557309582,
2023-08-15 12:58:02.176000,8.265060240963855,-0.5060240963855422,-5.493975903614458,-0.41692213366033104,8.93868792152054,-4.931943592887799,3.0,1.3397713397713398,746.3960231980116,0.669191772041256,0.14253248645183897,0.3512615814929202,1263.7362637362637,-1.0,85.14117443270396,1.3055464561132724,
2023-08-15 12:58:02.184000,8.27710843373494,-0.49397590361445787,-5.518072289156627,-0.35806253832004903,8.941140404659718,-4.912323727774371,3.0,1.3402153402153403,746.1487493788305,0.4604626770001753,-0.0745877279878794,0.4291125225802691,1265.9340659340658,-1.0,85.14117443270396,1.3057883338809426,
2023-08-15 12:58:02.191000,8.289156626506024,-0.46987951807228917,-5.445783132530121,-0.39239730226854685,8.93868792152054,-4.873083997547517,3.0,1.341103341103341,745.6546929316338,0.7300273876813708,-0.41116485053318597,0.5033506205932056,1275.4578754578754,-1.0,85.14117443270396,1.3060318194950489,
2023-08-15 12:58:02.199000,8.301204819277109,-0.46987951807228917,-5.506024096385542,-0.3678724708767627,8.987737584304108,-4.9368485591661555,3.0,1.341103341103341,745.6546929316338,0.431210302429928,-0.11864110483072063,0.46931996969873535,1295.970695970696,-1.0,85.14117443270396,1.3062769443343005,
