Shimmer_F5D4_Timestamp_FormattedUnix_CAL,Shimmer_F5D4_Accel_LN_X_CAL,Shimmer_F5D4_Accel_LN_Y_CAL,Shimmer_F5D4_Accel_LN_Z_CAL,Shimmer_F5D4_Accel_WR_X_CAL,Shimmer_F5D4_Accel_WR_Y_CAL,Shimmer_F5D4_Accel_WR_Z_CAL,Shimmer_F5D4_GSR_Range_CAL,Shimmer_F5D4_GSR_Skin_Conductance_CAL,Shimmer_F5D4_GSR_Skin_Resistance_CAL,Shimmer_F5D4_Gyro_X_CAL,Shimmer_F5D4_Gyro_Y_CAL,Shimmer_F5D4_Gyro_Z_CAL,Shimmer_F5D4_PPG_A13_CAL,Shimmer_F5D4_PPG_IBI_CAL,Shimmer_F5D4_PPGtoHR_CAL,Shimmer_F5D4_GSR_Skin_Conductance_LPF_CAL,
yyyy/mm/dd hh:mm:ss.000,m/(s^2),m/(s^2),m/(s^2),m/(s^2),m/(s^2),m/(s^2),no_units,uS,kOhms,deg/s,deg/s,deg/s,mV,ms,BPM,uS,
2023-08-11 17:01:55.059000,-9.27710843373494,-0.30120481927710846,-4.0602409638554215,-0.17412630288166767,-9.27835683629675,-3.686082158185162,3.0,1.3704073704073705,729.7100275392839,-5.017306683759688,7.415535225219976,-6.930831536623739,1117.9487179487178,-1.0,83.32966008307197,1.37003810102908,
2023-08-11 17:01:55.067000,-9.421686746987952,-0.24096385542168675,-4.156626506024097,-0.1226241569589209,-9.410790925812385,-3.7522992029429796,3.0,1.3712953712953713,729.2374939290918,-4.9104364547520545,11.583474156517687,-4.7323582541809905,1051.2820512820513,-1.0,83.32966008307197,1.3700524938223955,
2023-08-11 17:01:55.074000,-9.542168674698795,-0.18072289156626506,-4.204819277108434,-0.06866952789699571,-9.562844880441446,-3.838136112814224,3.0,1.3708513708513708,729.4736842105264,-4.620360118874192,14.49950469086883,-2.5796864984558003,999.2673992673992,-1.0,83.32966008307197,1.3700666506130301,
2023-08-11 17:01:55.082000,-9.566265060240964,-0.12048192771084337,-4.253012048192772,-0.04904966278356836,-9.626609442060085,-3.965665236051502,3.0,1.3712953712953713,729.2374939290918,-4.253947905133733,16.34683293514364,0.6416875473457262,968.4981684981684,-1.0,83.32966008307197,1.3700805590069693,
2023-08-11 17:01:55.090000,-9.63855421686747,-0.12048192771084337,-4.301204819277109,-0.007357449417535254,-9.55793991416309,-3.9092581238503983,3.0,1.3712953712953713,729.2374939290918,-3.6890624089505275,16.133092477128375,4.2752753336052685,954.5787545787546,-1.0,83.32966008307197,1.3700942079571354,
2023-08-11 17:01:55.097000,-9.566265060240964,-0.03614457831325302,-4.289156626506024,0.12752912323727775,-9.575107296137338,-3.90680564071122,3.0,1.3712953712953713,729.2374939290918,-2.9562379814696116,15.232329118349748,7.92413029543733,956.043956043956,-1.0,83.32966008307197,1.37010758792308,
2023-08-11 17:01:55.105000,-9.506024096385543,0.0,-4.36144578313253,0.08338442673206621,-9.44757817290006,-3.948497854077253,3.0,1.3712953712953713,729.2374939290918,-2.0554746226909857,14.178894003845931,10.09206922673504,972.1611721611721,-1.0,83.32966008307197,1.3701206907484327,
2023-08-11 17:01:55.113000,-9.373493975903616,0.03614457831325302,-4.421686746987952,0.17903126916002451,-9.322501532801962,-4.063764561618639,3.0,1.3712953712953713,729.2374939290918,-0.7882990501719017,11.85828331682303,12.153137929025116,1001.4652014652014,-1.0,83.32966008307197,1.3701335096506606,
2023-08-11 17:01:55.120000,-9.240963855421688,0.03614457831325302,-4.46987951807229,0.1103617412630288,-9.111587982832617,-4.112814224402207,3.0,1.3712953712953713,729.2374939290918,0.5552124002097776,7.797214614532954,13.130237165666337,1041.7582417582416,-1.0,83.32966008307197,1.3701460390878155,
2023-08-11 17:01:55.128000,-9.048192771084338,0.07228915662650603,-4.445783132530121,0.15450643776824033,-8.87614960147149,-4.002452483139178,3.0,1.3712953712953713,729.2374939290918,1.8223879727288614,2.02622224812074,13.450847852689238,1088.6446886446886,-1.0,83.32966008307197,1.3701582748968661,
2023-08-11 17:01:55.136000,-8.807228915662652,-0.024096385542168676,-4.385542168674699,0.034334763948497854,-8.601471489883506,-3.955855303494788,3.0,1.3712953712953713,729.2374939290918,2.265136064331915,-4.218052561039565,12.214206631315191,1136.2637362637363,-1.0,83.32966008307197,1.3701702144164751,
2023-08-11 17:01:55.143000,-8.674698795180724,0.012048192771084338,-4.27710843373494,0.1520539546290619,-8.510729613733906,-3.796443899448191,3.0,1.3712953712953713,729.2374939290918,3.9903269040265714,-10.538663248062466,11.496649379406795,1184.6153846153845,-1.0,83.32966008307197,1.3701818563070185,
2023-08-11 17:01:55.151000,-8.578313253012048,0.024096385542168676,-4.144578313253012,0.134886572654813,-8.312078479460453,-3.7596566523605146,3.0,1.3708513708513708,729.4736842105264,4.326204766621991,-14.889808286230403,9.542450906124353,1232.967032967033,-1.0,83.32966008307197,1.3701932003973931,
2023-08-11 17:01:55.159000,-8.481927710843374,0.03614457831325302,-4.0602409638554215,0.16922133660331085,-8.253218884120171,-3.676272225628449,3.0,1.3712953712953713,729.2374939290918,4.799487209370083,-17.89744187401666,5.9393974710098485,1273.9926739926739,-1.0,83.32966008307197,1.3702042477934455,
2023-08-11 17:01:55.166000,-8.373493975903616,0.024096385542168676,-4.0361445783132535,0.09809932556713671,-8.106069895769465,-3.6591048436541995,3.0,1.3712953712953713,729.2374939290918,4.875823087232678,-20.23331973661208,2.947031058796108,1306.9597069597069,-1.0,83.32966008307197,1.3702150009503404,
2023-08-11 17:01:55.174000,-8.289156626506024,0.024096385542168676,-4.048192771084338,0.2329858982219497,-8.137952176578786,-3.5708154506437766,3.0,1.3708513708513708,729.4736842105264,4.555212400209777,-22.141716683176966,-0.671289551890915,1332.6007326007325,-1.0,83.32966008307197,1.3702254637834352,
2023-08-11 17:01:55.181000,-8.265060240963855,-0.03614457831325302,-4.0,0.03188228080931944,-7.998160637645616,-3.637032495401594,3.0,1.3708513708513708,729.4736842105264,4.585746751354816,-21.943243400734218,-3.617854437387098,1351.6483516483515,-1.0,83.32966008307197,1.3702356413180539,
2023-08-11 17:01:55.189000,-8.204819277108435,-0.16867469879518074,-3.9759036144578315,-0.0809319435928878,-7.9957081545064375,-3.619865113427345,3.0,1.3712953712953713,729.2374939290918,4.585746751354816,-21.943243400734218,-3.617854437387098,1364.102564102564,-1.0,83.32966008307197,1.3702455394739568,
2023-08-11 17:01:55.197000,-8.204819277108435,-0.03614457831325302,-3.9759036144578315,0.15941140404659718,-7.934396076026977,-3.5757204169221333,3.0,1.3712953712953713,729.2374939290918,4.723151331507487,-21.164617446535747,-8.136938406852746,1370.6959706959706,-1.0,83.32966008307197,1.3702551653035393,
2023-08-11 17:01:55.204000,-8.156626506024097,-0.07228915662650603,-3.963855421686747,-0.04904966278356836,-7.9442060085836905,-3.6051502145922747,3.0,1.3704073704073705,729.7100275392839,3.6849833925761897,-17.637899889283837,-10.350678864868014,1369.230769230769,-1.0,83.32966008307197,1.3702645269601583,
2023-08-11 17:01:55.212000,-8.19277108433735,-0.27710843373493976,-4.1084337349397595,-0.09809932556713671,-8.106069895769465,-3.7915389331698344,3.0,1.3704073704073705,729.7100275392839,0.4636093467746631,-11.62263271371132,-13.984266651127555,1363.3699633699632,-1.0,83.32966008307197,1.3702736334830297,
2023-08-11 17:01:55.220000,-8.337349397590362,-0.3132530120481928,-4.144578313253012,-0.328632740649908,-8.164929491109747,-3.7719190680564068,3.0,1.3708513708513708,729.4736842105264,2.5552124002097774,-6.553930423634984,-16.014801002272595,1353.8461538461538,-1.0,83.32966008307197,1.3702824946545462,
2023-08-11 17:01:55.227000,-8.409638554216867,-0.3493975903614458,-4.228915662650603,-0.3237277743715512,-8.370938074800735,-3.9288779889638255,3.0,1.3712953712953713,729.2374939290918,0.7231513315074874,-0.4470601946273513,-16.656022376318397,1339.9267399267399,-1.0,83.32966008307197,1.3702911209281836,
2023-08-11 17:01:55.235000,-8.542168674698795,-0.49397590361445787,-4.36144578313253,-0.3531575720416922,-8.537706928264868,-3.995095033721643,3.0,1.3708513708513708,729.4736842105264,0.4330749956296249,5.507138278655091,-15.92319794883748,1323.076923076923,-1.0,83.32966008307197,1.3702995235554831,
2023-08-11 17:01:55.243000,-8.771084337349398,-0.5662650602409639,-4.506024096385542,-0.5419987737584304,-8.67259350091968,-4.117719190680564,3.0,1.3708513708513708,729.4736842105264,0.18880018646931956,10.86591690460929,-15.007167414486334,1304.0293040293038,-1.0,83.32966008307197,1.3703077144023097,
2023-08-11 17:01:55.250000,-8.903614457831326,-0.5542168674698795,-4.602409638554217,-0.5248313917841815,-8.905579399141631,-4.289393010423053,3.0,1.3712953712953713,729.2374939290918,-0.23868072956121478,14.86591690460929,-13.373579628226793,1287.9120879120878,-1.0,83.32966008307197,1.3703157057211126,
2023-08-11 17:01:55.258000,-9.048192771084338,-0.6144578313253012,-4.650602409638554,-0.49785407725321884,-9.028203556100552,-4.407112201103617,3.0,1.3712953712953713,729.2374939290918,-1.0325738593322071,17.614008507662724,-10.625488025173357,1273.260073260073,-1.0,83.32966008307197,1.370323510368787,
2023-08-11 17:01:55.266000,-9.180722891566266,-0.5903614457831325,-4.698795180722891,-0.4659717964438994,-9.148375229920294,-4.40220723482526,3.0,1.3712953712953713,729.2374939290918,-2.727230347881825,18.621642095448987,-8.213274284715341,1260.8058608058607,-1.0,83.32966008307197,1.3703311417571664,
2023-08-11 17:01:55.273000,-9.27710843373494,-0.6385542168674699,-4.771084337349397,-0.5836909871244634,-9.204782342121398,-4.362967504598406,3.0,1.3712953712953713,729.2374939290918,-4.437154012003963,17.751413087815397,-5.877396422119922,1249.8168498168498,-1.0,83.32966008307197,1.3703386136437534,
2023-08-11 17:01:55.281000,-9.337349397590362,-0.746987951807229,-4.795180722891566,-0.7995095033721643,-9.241569589209075,-4.333537706928265,3.0,1.3712953712953713,729.2374939290918,-5.047841034904726,15.537672629800129,-4.427014742730609,1240.2930402930401,-1.0,83.32966008307197,1.370345940060921,
2023-08-11 17:01:55.289000,-9.349397590361447,-0.5542168674698795,-4.734939759036145,-0.5248313917841815,-9.261189454322501,-4.409564684242795,3.0,1.3712953712953713,729.2374939290918,-4.360818134141367,12.972787133616922,-3.4651826816619073,1229.3040293040292,-1.0,83.32966008307197,1.3703531352452256,
2023-08-11 17:01:55.296000,-9.313253012048193,-0.6265060240963856,-4.771084337349397,-0.6229307173513182,-9.20232985898222,-4.370324954015941,3.0,1.3708513708513708,729.4736842105264,-5.933337218110833,8.51477186644135,-2.457549093875648,1220.5128205128203,-1.0,83.32966008307197,1.3703602135671715,
2023-08-11 17:01:55.304000,-9.301204819277109,-0.6265060240963856,-4.710843373493976,-0.539546290619252,-9.128755364806867,-4.365419987737584,3.0,1.3712953712953713,729.2374939290918,-6.131810500553581,3.140726064914633,-1.8315948954023653,1213.9194139194137,-1.0,83.32966008307197,1.3703671893124894,
2023-08-11 17:01:55.312000,-9.204819277108435,-0.6024096385542169,-4.626506024096386,-0.4537093807480073,-9.12139791538933,-4.220723482526058,3.0,1.3712953712953713,729.2374939290918,-5.81119981353068,-2.6302663014975805,-2.304877338150457,1203.6630036630036,-1.0,83.32966008307197,1.370374076741287,
2023-08-11 17:01:55.319000,-9.048192771084338,-0.5421686746987953,-4.493975903614458,-0.4218270999386879,-8.964438994481913,-4.01471489883507,3.0,1.3708513708513708,729.4736842105264,-5.231047141774955,-8.920342637375443,-2.717091078608472,1190.4761904761904,-1.0,83.32966008307197,1.3703808903189532,
2023-08-11 17:01:55.327000,-9.012048192771084,-0.5421686746987953,-4.349397590361446,-0.43654199877375843,-8.895769466584916,-3.9730226854690374,3.0,1.3708513708513708,729.4736842105264,-5.597459355515413,-13.210418973253304,-2.335411689295495,1178.7545787545787,-1.0,83.32966008307197,1.3703876443425687,
2023-08-11 17:01:55.335000,-8.867469879518072,-0.5542168674698795,-4.265060240963856,-0.5027590435315757,-8.684855916615573,-3.877375843041079,3.0,1.3708513708513708,729.4736842105264,-6.406619660858924,-17.80583882058155,-2.4270147427306097,1167.032967032967,-1.0,83.32966008307197,1.3703943525692515,
2023-08-11 17:01:55.342000,-8.807228915662652,-0.5301204819277109,-4.156626506024097,-0.41446965052115264,-8.559779276517473,-3.7866339668914772,3.0,1.3708513708513708,729.4736842105264,-6.330283782996329,-20.844006759512844,-2.854495658761144,1157.5091575091574,-1.0,83.32966008307197,1.3704010284528123,
2023-08-11 17:01:55.350000,-8.72289156626506,-0.5180722891566265,-4.0602409638554215,-0.41446965052115264,-8.584304107909258,-3.6125076640098097,3.0,1.3708513708513708,729.4736842105264,-6.040207447118466,-22.340189965619714,-3.388846803799312,1151.6483516483515,-1.0,83.32966008307197,1.3704076852124532,
2023-08-11 17:01:55.358000,-8.698795180722891,-0.5421686746987953,-3.987951807228916,-0.45616186388718577,-8.532801961986511,-3.6345800122624157,3.0,1.36996336996337,729.9465240641712,-6.208146378416177,-21.882174698444143,-3.2819765747916785,1147.2527472527472,-1.0,83.32966008307197,1.3704143353498273,
2023-08-11 17:01:55.365000,-8.614457831325302,-0.5301204819277109,-3.9397590361445785,-0.4095646842427958,-8.478847332924586,-3.4825260576333537,3.0,1.3704073704073705,729.7100275392839,-5.65852805780549,-20.78293805722277,-3.6789231396771744,1147.2527472527472,-1.0,83.32966008307197,1.3704209907541156,
2023-08-11 17:01:55.373000,-8.578313253012048,-0.5301204819277109,-3.927710843373494,-0.4463519313304721,-8.39301042305334,-3.543838136112814,3.0,1.3704073704073705,729.7100275392839,-5.276848668492512,-17.39362508012353,-4.106404055707708,1147.2527472527472,-1.0,83.32966008307197,1.3704276628533765,
2023-08-11 17:01:55.381000,-8.63855421686747,-0.5421686746987953,-3.927710843373494,-0.48068669527896996,-8.522992029429798,-3.531575720416922,3.0,1.3708513708513708,729.4736842105264,-4.620360118874192,-13.2867548511159,-4.365946040440533,1150.18315018315,-1.0,83.32966008307197,1.3704343622989514,
2023-08-11 17:01:55.388000,-8.710843373493976,-0.5783132530120483,-3.91566265060241,-0.463519313304721,-8.545064377682403,-3.5340282035561,3.0,1.3708513708513708,729.4736842105264,-3.8264669891031993,-7.973777751879259,-3.9384651244099986,1154.5787545787546,-1.0,83.32966008307197,1.3704410991002334,
2023-08-11 17:01:55.396000,-8.783132530120483,-0.6265060240963856,-3.927710843373494,-0.5493562231759657,-8.640711220110362,-3.475168608215818,3.0,1.3712953712953713,729.2374939290918,-3.4905891265077797,-3.9127090495891834,-3.6636559641046555,1159.7069597069597,-1.0,83.32966008307197,1.370447882752537,
2023-08-11 17:01:55.404000,-8.831325301204819,-0.6144578313253012,-3.951807228915663,-0.5444512568976088,-8.775597792765174,-3.5119558553034946,3.0,1.3708513708513708,729.4736842105264,-2.5440242410115963,0.53003904201387,-2.869762834333663,1166.3003663003662,-1.0,83.32966008307197,1.3704547222098284,
2023-08-11 17:01:55.411000,-8.91566265060241,-0.6265060240963856,-3.963855421686747,-0.551808706315144,-8.839362354383812,-3.578172900061312,3.0,1.3708513708513708,729.4736842105264,-1.6585280578054895,3.644542858807763,-1.2972437503641974,1170.6959706959706,-1.0,83.32966008307197,1.37046162572364,
2023-08-11 17:01:55.419000,-8.93975903614458,-0.6385542168674699,-4.0,-0.5174739423666462,-8.959534028203556,-3.644389944819129,3.0,1.3712953712953713,729.2374939290918,-0.20814637841617661,5.919352019113107,0.5042829671930544,1172.8937728937728,-1.0,83.32966008307197,1.370468600654692,
2023-08-11 17:01:55.427000,-9.048192771084338,-0.5783132530120483,-4.0120481927710845,-0.463519313304721,-8.988963825873697,-3.595340282035561,3.0,1.3712953712953713,729.2374939290918,0.21933453761435773,7.140726064914633,1.5119165549793139,1177.2893772893772,-1.0,83.32966008307197,1.3704756537360332,
2023-08-11 17:01:55.434000,-9.156626506024097,-0.5662650602409639,-4.0602409638554215,-0.40465971796443895,-9.011036174126302,-3.632127529123237,3.0,1.3712953712953713,729.2374939290918,0.8452887360876401,6.988054309189442,1.8783287687197718,1183.8827838827838,-1.0,83.32966008307197,1.3704827910743713,
2023-08-11 17:01:55.442000,-9.156626506024097,-0.5662650602409639,-4.096385542168675,-0.4782342121397915,-9.07725321888412,-3.6591048436541995,3.0,1.3712953712953713,729.2374939290918,1.5323116368509988,6.331565759571122,2.1226035778800774,1188.278388278388,-1.0,83.32966008307197,1.3704900179968997,
2023-08-11 17:01:55.450000,-9.10843373493976,-0.5542168674698795,-4.072289156626506,-0.4071122011036174,-8.979153893316983,-3.678724708767627,3.0,1.3712953712953713,729.2374939290918,2.142998659751762,6.239962706136007,2.779092127498398,1189.0109890109889,-1.0,83.32966008307197,1.3704973390414783,
2023-08-11 17:01:55.457000,-9.10843373493976,-0.5060240963855422,-4.096385542168675,-0.4316370324954016,-8.979153893316983,-3.7326793378295524,3.0,1.3712953712953713,729.2374939290918,2.7536856826525256,5.079657362624557,3.328710448109085,1189.7435897435896,-1.0,83.32966008307197,1.370504758090137,
2023-08-11 17:01:55.465000,-9.048192771084338,-0.46987951807228917,-4.0843373493975905,-0.38994481912936846,-8.976701410177805,-3.725321888412017,3.0,1.3712953712953713,729.2374939290918,2.7536856826525256,5.079657362624557,3.328710448109085,1194.1391941391942,-1.0,83.32966008307197,1.3705122783479944,
2023-08-11 17:01:55.473000,-9.0,-0.46987951807228917,-4.144578313253012,-0.38994481912936846,-8.92274678111588,-3.7400367872470874,3.0,1.3712953712953713,729.2374939290918,3.3033040032632126,3.1865275916321907,3.557718081696871,1201.4652014652013,-1.0,83.32966008307197,1.3705199021990084,
2023-08-11 17:01:55.480000,-8.927710843373495,-0.42168674698795183,-4.120481927710844,-0.3016554261189454,-8.805027590435316,-3.715511955855303,3.0,1.3712953712953713,729.2374939290918,3.379639881125808,1.2323291183497478,3.7409241885671003,1212.4542124542124,-1.0,83.32966008307197,1.370527631215168,
2023-08-11 17:01:55.488000,-8.879518072289157,-0.3855421686746988,-4.156626506024097,-0.2722256284488044,-8.731453096259962,-3.7572041692213363,3.0,1.3712953712953713,729.2374939290918,3.043762018530388,-0.0959151564594124,4.214206631315192,1232.967032967033,-1.0,83.32966008307197,1.3705354661697176,
2023-08-11 17:01:55.496000,-8.795180722891567,-0.3373493975903615,-4.1807228915662655,-0.2452483139178418,-8.677498467198038,-3.717964438994482,3.0,1.3712953712953713,729.2374939290918,3.2269681254006173,-1.4394266068410917,3.5729852572693903,1268.131868131868,-1.0,83.32966008307197,1.3705434070542513,
2023-08-11 17:01:55.503000,-8.74698795180723,-0.3132530120481928,-4.156626506024097,-0.18148375229920294,-8.576946658491723,-3.789086450030656,3.0,1.3717393717393718,729.0014565463667,3.2727696521181744,-1.9432434007342214,3.0233669366587033,1325.2747252747251,-1.0,83.32966008307197,1.3705514530995109,
2023-08-11 17:01:55.511000,-8.674698795180724,-0.30120481927710846,-4.168674698795181,-0.17903126916002451,-8.532801961986511,-3.7866339668914772,3.0,1.3704073704073705,729.7100275392839,2.3872734689120674,-2.248586912184603,2.7180234252083215,1407.3260073260071,-1.0,83.32966008307197,1.370559602948995,
2023-08-11 17:01:55.519000,-8.66265060240964,-0.28915662650602414,-4.19277108433735,-0.12017167381974249,-8.483752299202942,-3.8577559779276513,3.0,1.3708513708513708,729.4736842105264,2.127731484179243,-1.9890449274517787,2.260008158032749,1517.9487179487178,-1.0,83.32966008307197,1.3705678545380882,
2023-08-11 17:01:55.526000,-8.578313253012048,-0.26506024096385544,-4.228915662650603,-0.20846106683016552,-8.397915389331699,-3.8332311465358675,3.0,1.3708513708513708,729.4736842105264,1.4254414078433653,-1.4394266068410917,1.328710448109085,1657.142857142857,-1.0,83.32966008307197,1.3705762048918704,
2023-08-11 17:01:55.534000,-8.614457831325302,-0.27710843373493976,-4.216867469879518,-0.18884120171673818,-8.419987737584304,-3.9460453709380747,3.0,1.3712953712953713,729.2374939290918,0.7689528582250448,-0.6455334770700994,0.794359303070917,1819.7802197802196,-1.0,83.32966008307197,1.3705846503180212,
2023-08-11 17:01:55.541000,-8.602409638554217,-0.2530120481927711,-4.253012048192772,-0.1618638871857756,-8.483752299202942,-3.8920907418761495,3.0,1.3708513708513708,729.4736842105264,0.4025406444845867,0.23996270613600745,0.19893945574267274,1997.069597069597,-1.0,83.32966008307197,1.3705931866018664,
2023-08-11 17:01:55.549000,-8.650602409638555,-0.27710843373493976,-4.301204819277109,-0.11771919068056406,-8.483752299202942,-3.8503985285101163,3.0,1.3712953712953713,729.2374939290918,-0.024940271545947603,0.4537031641512746,-0.7323582541809913,2178.7545787545787,-1.0,83.32966008307197,1.3706018089161367,
2023-08-11 17:01:55.557000,-8.686746987951807,-0.26506024096385544,-4.265060240963856,-0.12998160637645614,-8.542611894543224,-3.9288779889638255,3.0,1.3712953712953713,729.2374939290918,-0.25394790513373383,0.7437795000291372,-1.1445719946390065,2353.846153846154,-1.0,83.32966008307197,1.3706105118502159,
2023-08-11 17:01:55.564000,-8.734939759036145,-0.30120481927710846,-4.27710843373494,-0.19865113427345185,-8.623543838136113,-3.9632127529123236,3.0,1.3712953712953713,729.2374939290918,-0.4524211875764819,0.8659169046092898,-2.2285414602878615,2511.355311355311,-1.0,83.32966008307197,1.3706192897500569,
2023-08-11 17:01:55.572000,-8.759036144578314,-0.3373493975903615,-4.289156626506024,-0.22562844880441446,-8.662783568362967,-3.8528510116492947,3.0,1.3712953712953713,729.2374939290918,-0.37608530971388654,0.9880543091894425,-2.686556727463434,2640.29304029304,-1.0,83.32966008307197,1.3706281366024702,
2023-08-11 17:01:55.580000,-8.843373493975903,-0.28915662650602414,-4.228915662650603,-0.2893930104230533,-8.706928264868179,-3.847946045370938,3.0,1.3712953712953713,729.2374939290918,-0.42188683643144376,0.5911077443039464,-2.9613658877687774,2734.7985347985345,-1.0,83.32966008307197,1.3706370459316586,
2023-08-11 17:01:55.587000,-8.855421686746988,-0.3373493975903615,-4.240963855421687,-0.21091354996934394,-8.755977927651747,-3.8994481912936845,3.0,1.3712953712953713,729.2374939290918,-0.8493677524619782,-0.3554571411922368,-3.1293048190664874,2791.941391941392,-1.0,83.32966008307197,1.3706460107069482,
2023-08-11 17:01:55.595000,-8.831325301204819,-0.45783132530120485,-4.228915662650603,-0.34825260576333533,-8.819742489270386,-3.8798283261802573,3.0,1.3712953712953713,729.2374939290918,-0.834100576889459,-0.6149991259250612,-2.686556727463434,2805.128205128205,-1.0,83.32966008307197,1.3706550234100257,
2023-08-11 17:01:55.603000,-8.951807228915664,-0.3253012048192771,-4.1807228915662655,-0.22317596566523604,-8.878602084610668,-3.76701410177805,3.0,1.3717393717393718,729.0014565463667,-0.13181050055358118,-1.4088922556960535,-1.9842666511275562,2786.813186813187,-1.0,83.32966008307197,1.370664076091144,
2023-08-11 17:01:55.610000,-9.060240963855422,-0.3132530120481928,-4.132530120481928,-0.18884120171673818,-8.917841814837523,-3.784181483752299,3.0,1.3712953712953713,729.2374939290918,-0.9715051570421308,-2.737136530505214,-1.9995338267000753,2727.4725274725274,-1.0,83.32966008307197,1.3706731605845228,
2023-08-11 17:01:55.618000,-9.012048192771084,-0.42168674698795183,-4.132530120481928,-0.3384426732066217,-8.935009196811771,-3.784181483752299,3.0,1.3717393717393718,729.0014565463667,-2.2692150807062528,-3.63789988928384,-2.625488025173358,2636.6300366300366,-1.0,83.32966008307197,1.3706822685744464,
2023-08-11 17:01:55.626000,-8.951807228915664,-0.4819277108433735,-4.144578313253012,-0.4463519313304721,-8.87614960147149,-3.7694665849172284,3.0,1.3717393717393718,729.0014565463667,-1.5211234776528177,-4.202785385467045,-0.7323582541809913,2523.076923076923,-1.0,83.32966008307197,1.370691391629587,
2023-08-11 17:01:55.633000,-9.012048192771084,-0.3855421686746988,-4.1084337349397595,-0.25260576333537704,-8.87614960147149,-3.7302268546903736,3.0,1.3712953712953713,729.2374939290918,-0.9867723326146498,-3.7600372938639923,-0.9613658877687776,2391.208791208791,-1.0,83.32966008307197,1.3707005214073178,
2023-08-11 17:01:55.641000,-9.0,-0.43373493975903615,-4.072289156626506,-0.3408951563458001,-8.942366646229306,-3.6983445738810543,3.0,1.3717393717393718,729.0014565463667,-2.3150166074238103,-4.447060194627351,-0.7476254297535104,2249.8168498168498,-1.0,83.32966008307197,1.370709649271562,
2023-08-11 17:01:55.649000,-8.951807228915664,-0.45783132530120485,-4.096385542168675,-0.40465971796443895,-8.932556713672593,-3.6885346413243405,3.0,1.3712953712953713,729.2374939290918,-2.2234135539886957,-4.660800652642618,-0.36594604044053336,2104.7619047619046,-1.0,83.32966008307197,1.3707187666232241,
2023-08-11 17:01:55.656000,-8.93975903614458,-0.5060240963855422,-4.0843373493975905,-0.38994481912936846,-8.782955242182709,-3.6713672593500917,3.0,1.3717393717393718,729.0014565463667,-1.8264669891031995,-3.9279762251617023,-0.014801002272594435,1959.7069597069597,-1.0,83.32966008307197,1.3707278650803512,
2023-08-11 17:01:55.664000,-8.879518072289157,-0.49397590361445787,-4.048192771084338,-0.38749233599019006,-8.743715511955855,-3.632127529123237,3.0,1.3708513708513708,729.4736842105264,-1.5821921799428942,-2.8745411106578858,0.21420663131519183,1817.5824175824175,-1.0,83.32966008307197,1.3707369362204744,
2023-08-11 17:01:55.672000,-8.867469879518072,-0.5180722891566265,-4.0843373493975905,-0.3703249540159411,-8.729000613120784,-3.6811771919068055,3.0,1.3708513708513708,729.4736842105264,-0.08600897383602393,-2.355457141192237,0.6569547229182452,1687.179487179487,-1.0,83.32966008307197,1.3707459719179138,
2023-08-11 17:01:55.679000,-8.879518072289157,-0.45783132530120485,-4.048192771084338,-0.3531575720416922,-8.699570815450643,-3.6051502145922747,3.0,1.3712953712953713,729.2374939290918,0.17353301089680048,-0.7829380572227711,-0.07586970456267077,1568.4981684981683,-1.0,83.32966008307197,1.370754964147926,
2023-08-11 17:01:55.687000,-8.819277108433736,-0.44578313253012053,-4.024096385542169,-0.3531575720416922,-8.687308399754752,-3.6468424279583074,3.0,1.3712953712953713,729.2374939290918,-0.43715401200396287,-0.2791212633296414,-0.7934269564710676,1459.3406593406592,-1.0,83.32966008307197,1.3707639050222145,
2023-08-11 17:01:55.695000,-8.795180722891567,-0.4819277108433735,-4.0602409638554215,-0.35806253832004903,-8.652973635806253,-3.656652360515021,3.0,1.3712953712953713,729.2374939290918,-0.1165433249810621,0.3773672862886792,-1.572052910669541,1356.7765567765566,-1.0,83.32966008307197,1.3707727868535535,
2023-08-11 17:01:55.702000,-8.771084337349398,-0.5060240963855422,-4.096385542168675,-0.39239730226854685,-8.61128142244022,-3.708154506437768,3.0,1.3717393717393718,729.0014565463667,0.5857467513548157,1.262863469494786,-1.801060544257327,1265.9340659340658,-1.0,83.32966008307197,1.3707816020686825,
2023-08-11 17:01:55.710000,-8.74698795180723,-0.5060240963855422,-4.096385542168675,-0.32127529123237275,-8.670141017780502,-3.678724708767627,3.0,1.3712953712953713,729.2374939290918,1.7613192704387852,1.9193520191131066,-1.572052910669541,1182.4175824175823,-1.0,83.32966008307197,1.370790343395542,
2023-08-11 17:01:55.718000,-8.710843373493976,-0.45783132530120485,-4.0843373493975905,-0.35806253832004903,-8.675045984058858,-3.725321888412017,3.0,1.3712953712953713,729.2374939290918,1.7460520948662661,2.4689703397237936,-2.2590758114328997,1109.1575091575091,697.052001953125,86.07679173416226,1.3707990036423892,
2023-08-11 17:01:55.725000,-8.783132530120483,-0.46987951807228917,-4.0843373493975905,-0.38749233599019006,-8.61128142244022,-3.656652360515021,3.0,1.3712953712953713,729.2374939290918,1.2269681254006173,1.8277489656779922,-2.3812132160130526,1046.1538461538462,-1.0,86.07679173416226,1.3708075757295926,
2023-08-11 17:01:55.733000,-8.771084337349398,-0.4819277108433735,-4.120481927710844,-0.4193746167995095,-8.633353770692827,-3.796443899448191,3.0,1.3712953712953713,729.2374939290918,1.3185711788357317,1.7666802633879157,-3.1140376434939685,994.139194139194,-1.0,86.07679173416226,1.3708160528564277,
2023-08-11 17:01:55.741000,-8.74698795180723,-0.5301204819277109,-4.132530120481928,-0.4757817290006131,-8.589209074187615,-3.7817290006131206,3.0,1.3712953712953713,729.2374939290918,1.3185711788357317,1.7666802633879157,-3.1140376434939685,953.113553113553,-1.0,86.07679173416226,1.370824428397918,
2023-08-11 17:01:55.748000,-8.783132530120483,-0.4819277108433735,-4.1807228915662655,-0.38749233599019006,-8.625996321275291,-3.816063764561618,3.0,1.3712953712953713,729.2374939290918,1.1048307208204646,1.9498863702581448,-3.0377017656313727,926.7399267399267,-1.0,86.07679173416226,1.3708326960860875,
2023-08-11 17:01:55.756000,-8.855421686746988,-0.4819277108433735,-4.1807228915662655,-0.3948497854077253,-8.775597792765174,-3.7572041692213363,3.0,1.3712953712953713,729.2374939290918,1.1353650719655026,1.8430161412505113,-3.022434590058854,912.8205128205127,-1.0,86.07679173416226,1.370840850028628,
2023-08-11 17:01:55.764000,-8.891566265060241,-0.49397590361445787,-4.1807228915662655,-0.46842427958307786,-8.87614960147149,-3.86020846106683,3.0,1.3712953712953713,729.2374939290918,0.5246780490647394,1.0338558359069998,-2.869762834333663,911.3553113553113,-1.0,86.07679173416226,1.3708488847354339,
2023-08-11 17:01:55.771000,-8.855421686746988,-0.5421686746987953,-4.1807228915662655,-0.4512568976088289,-8.822194972409564,-3.818516247700797,3.0,1.3712953712953713,729.2374939290918,-0.024940271545947603,0.39263446186119827,-2.930831536623739,923.8095238095237,-1.0,86.07679173416226,1.3708567954095314,
2023-08-11 17:01:55.779000,-8.867469879518072,-0.5301204819277109,-4.19277108433735,-0.4316370324954016,-8.787860208461066,-3.816063764561618,3.0,1.3712953712953713,729.2374939290918,-0.5898257677291537,0.5453062175863891,-2.3812132160130526,948.7179487179486,-1.0,86.07679173416226,1.3708645777890636,
2023-08-11 17:01:55.787000,-8.927710843373495,-0.49397590361445787,-4.168674698795181,-0.4414469650521152,-8.814837522992029,-3.8700183936235435,3.0,1.3712953712953713,729.2374939290918,-0.20814637841617661,0.6521764465940227,-2.2132742847153426,983.8827838827838,-1.0,86.07679173416226,1.370872228019066,
2023-08-11 17:01:55.794000,-8.903614457831326,-0.5301204819277109,-4.1084337349397595,-0.4782342121397915,-8.832004904966277,-3.7326793378295524,3.0,1.3712953712953713,729.2374939290918,-0.9409708058970926,-0.05011362974185514,-2.5796864984558003,1027.106227106227,-1.0,86.07679173416226,1.370879742798206,
2023-08-11 17:01:55.802000,-8.91566265060241,-0.5180722891566265,-4.0843373493975905,-0.4463519313304721,-8.795217657878602,-3.789086450030656,3.0,1.3712953712953713,729.2374939290918,-1.2615814929199933,-0.5233960724899467,-1.9384651244099989,1076.923076923077,-1.0,86.07679173416226,1.3708871193745513,
2023-08-11 17:01:55.810000,-8.951807228915664,-0.49397590361445787,-4.072289156626506,-0.4218270999386879,-8.832004904966277,-3.6419374616799507,3.0,1.3717393717393718,729.0014565463667,-1.9028028669657948,-0.752403706077733,-1.953732299982518,1129.6703296703297,-1.0,86.07679173416226,1.3708943555396744,
2023-08-11 17:01:55.817000,-8.93975903614458,-0.46987951807228917,-4.072289156626506,-0.38994481912936846,-8.822194972409564,-3.717964438994482,3.0,1.3704073704073705,729.7100275392839,-2.2081463784161763,-0.30965561447467954,-2.0453353534176326,1185.3479853479853,-1.0,86.07679173416226,1.3709014497704415,
2023-08-11 17:01:55.825000,-8.927710843373495,-0.4819277108433735,-4.120481927710844,-0.4438994481912937,-8.795217657878602,-3.7596566523605146,3.0,1.3708513708513708,729.4736842105264,-2.513489889866558,-0.15698385874948872,-1.5109842083794647,1243.2234432234432,-1.0,86.07679173416226,1.370908401071428,
2023-08-11 17:01:55.833000,-8.951807228915664,-0.42168674698795183,-4.144578313253012,-0.2599632127529123,-8.866339668914776,-3.776824034334764,3.0,1.3712953712953713,729.2374939290918,-1.6737952333780086,0.6216420954489845,-0.8850300099061822,1295.2380952380952,-1.0,86.07679173416226,1.3709152088701781,
2023-08-11 17:01:55.840000,-9.0,-0.44578313253012053,-4.1807228915662655,-0.4095646842427958,-8.905579399141631,-3.796443899448191,3.0,1.3717393717393718,729.0014565463667,-1.5821921799428942,1.7819474389604348,-1.220907872501602,1336.263736263736,-1.0,86.07679173416226,1.370921873154648,
2023-08-11 17:01:55.848000,-9.036144578313253,-0.43373493975903615,-4.240963855421687,-0.3654199877375843,-8.974248927038627,-3.8283261802575104,3.0,1.3717393717393718,729.0014565463667,-1.1394440883398407,2.591107744303946,-0.839228483188625,1366.3003663003662,-1.0,86.07679173416226,1.370928394651643,
2023-08-11 17:01:55.856000,-9.156626506024097,-0.43373493975903615,-4.19277108433735,-0.39975475168608215,-9.0453709380748,-3.7817290006131206,3.0,1.3717393717393718,729.0014565463667,-0.9715051570421308,3.430802400792496,-0.4422819183031288,1388.278388278388,-1.0,86.07679173416226,1.370934774824225,
2023-08-11 17:01:55.863000,-9.216867469879519,-0.44578313253012053,-4.228915662650603,-0.33108522378908645,-9.155732679337829,-3.8920907418761495,3.0,1.3717393717393718,729.0014565463667,-1.169978439484879,4.301031408426083,-0.1369384068527471,1404.3956043956043,-1.0,86.07679173416226,1.370941015570591,
2023-08-11 17:01:55.871000,-9.265060240963855,-0.3855421686746988,-4.253012048192772,-0.26486817903126914,-9.155732679337829,-3.8626609442060085,3.0,1.3717393717393718,729.0014565463667,-0.6203601188741918,5.430802400792496,0.21420663131519183,1414.6520146520145,-1.0,86.07679173416226,1.3709471192096327,
2023-08-11 17:01:55.879000,-9.313253012048193,-0.42168674698795183,-4.289156626506024,-0.3384426732066217,-9.209687308399754,-3.9435928877988964,3.0,1.3717393717393718,729.0014565463667,-0.7119631723093064,5.644542858807763,0.3821455626129017,1419.7802197802198,-1.0,86.07679173416226,1.37095308846522,
2023-08-11 17:01:55.886000,-9.349397590361447,-0.3734939759036145,-4.253012048192772,-0.2599632127529123,-9.29307173513182,-3.884733292458614,3.0,1.3717393717393718,729.0014565463667,0.4330749956296249,5.247596293922267,0.9775654099411459,1419.047619047619,-1.0,86.07679173416226,1.3709589264492836,
2023-08-11 17:01:55.894000,-9.325301204819278,-0.3855421686746988,-4.204819277108434,-0.2869405272838749,-9.224402207234824,-3.86020846106683,3.0,1.3717393717393718,729.0014565463667,-0.2997494318512911,3.8888176679680684,1.359244799254123,1411.7216117216117,-1.0,86.07679173416226,1.3709646366438144,
2023-08-11 17:01:55.902000,-9.289156626506024,-0.3493975903614458,-4.19277108433735,-0.21091354996934394,-9.212139791538933,-3.818516247700797,3.0,1.3717393717393718,729.0014565463667,-0.7882990501719017,2.285764232853565,1.5729852572693903,1399.2673992673992,-1.0,86.07679173416226,1.37097022288184,
2023-08-11 17:01:55.909000,-9.216867469879519,-0.3734939759036145,-4.156626506024097,-0.25015328019619865,-9.104230533415082,-3.796443899448191,3.0,1.3717393717393718,729.0014565463667,-0.8646349280344972,-0.20278538546704597,2.1226035778800774,1383.8827838827838,-1.0,86.07679173416226,1.3709756893275014,
2023-08-11 17:01:55.917000,-9.168674698795181,-0.3493975903614458,-4.156626506024097,-0.27467811158798283,-9.064990803188227,-3.717964438994482,3.0,1.3717393717393718,729.0014565463667,-1.3684517219276269,-2.401258667909794,2.702756249635802,1364.8351648351647,-1.0,86.07679173416226,1.3709810404553253,
2023-08-11 17:01:55.924000,-9.132530120481928,-0.3253012048192771,-4.1084337349397595,-0.134886572654813,-8.959534028203556,-3.703249540159411,3.0,1.3717393717393718,729.0014565463667,-0.37608530971388654,-4.477594545772389,3.4355806771167186,1346.5201465201465,-1.0,86.07679173416226,1.3709862810287834,
2023-08-11 17:01:55.932000,-9.036144578313253,-0.30120481927710846,-4.0843373493975905,-0.21091354996934394,-8.90803188228081,-3.725321888412017,3.0,1.372183372183372,728.7655719139298,-0.26921508070625294,-4.950876988520481,3.954664646582368,1326.7399267399267,-1.0,86.07679173416226,1.3709914160782581,
2023-08-11 17:01:55.940000,-8.927710843373495,-0.28915662650602414,-4.1807228915662655,-0.18884120171673818,-8.82709993868792,-3.816063764561618,3.0,1.372183372183372,728.7655719139298,0.448342171202144,-4.034846454169336,3.6951226618495427,1306.227106227106,-1.0,86.07679173416226,1.3709964510278068,
2023-08-11 17:01:55.947000,-8.867469879518072,-0.2530120481927711,-4.204819277108434,-0.2035561005518087,-8.760882893930104,-3.8454935622317596,3.0,1.372183372183372,728.7655719139298,0.8605559116601592,-2.8898082862304046,3.893595944292291,1282.051282051282,-1.0,86.07679173416226,1.371001391694098,
2023-08-11 17:01:55.955000,-8.843373493975903,-0.26506024096385544,-4.228915662650603,-0.16922133660331085,-8.753525444512569,-3.855303494788473,3.0,1.372183372183372,728.7655719139298,0.9826933162403119,-2.233319736612084,3.8630615931472527,1257.8754578754579,-1.0,86.07679173416226,1.371006244264895,
2023-08-11 17:01:55.963000,-8.783132530120483,-0.27710843373493976,-4.156626506024097,-0.164316370324954,-8.67259350091968,-3.7988963825873694,3.0,1.372183372183372,728.7655719139298,1.2269681254006173,-0.5233960724899467,3.7867257152846574,1234.4322344322343,-1.0,86.07679173416226,1.3710110151183936,
2023-08-11 17:01:55.970000,-8.759036144578314,-0.3132530120481928,-4.0843373493975905,-0.18393623543838136,-8.61128142244022,-3.6934396076026976,3.0,1.3712953712953713,729.2374939290918,0.814754384942602,0.11782530155585477,4.031000524444963,1211.7216117216117,-1.0,86.07679173416226,1.371015710535419,
2023-08-11 17:01:55.978000,-8.698795180722891,-0.3614457831325301,-4.024096385542169,-0.22317596566523604,-8.652973635806253,-3.5806253832004904,3.0,1.3717393717393718,729.0014565463667,0.9368917895227546,0.7285123244566181,4.443214264902978,1190.4761904761904,-1.0,86.07679173416226,1.3710203366878086,
2023-08-11 17:01:55.986000,-8.674698795180724,-0.3493975903614458,-3.951807228915663,-0.2207234825260576,-8.56713672593501,-3.585530349478847,3.0,1.3717393717393718,729.0014565463667,0.29567041547695316,0.6216420954489845,4.26000815803275,1169.230769230769,-1.0,86.07679173416226,1.3710249001278718,
2023-08-11 17:01:55.993000,-8.674698795180724,-0.3855421686746988,-3.951807228915663,-0.3261802575107296,-8.584304107909258,-3.5585530349478844,3.0,1.3717393717393718,729.0014565463667,-0.5440242410115964,-0.6913350037876567,4.107336402307559,1146.5201465201465,-1.0,86.07679173416226,1.3710294077349376,
2023-08-11 17:01:56.001000,-8.698795180722891,-0.42168674698795183,-3.963855421686747,-0.3384426732066217,-8.594114040465971,-3.607602697731453,3.0,1.3717393717393718,729.0014565463667,-1.4600547753627415,-3.4088922556960535,4.122603577880078,1124.5421245421244,-1.0,86.07679173416226,1.3710338662787103,
2023-08-11 17:01:56.009000,-8.686746987951807,-0.43373493975903615,-3.9036144578313254,-0.3531575720416922,-8.579399141630901,-3.526670754138565,3.0,1.3717393717393718,729.0014565463667,-1.7806654623856422,-5.882174698444145,2.824893654215955,1107.6923076923076,-1.0,86.07679173416226,1.3710382825474976,
2023-08-11 17:01:56.016000,-8.686746987951807,-0.44578313253012053,-3.9036144578313254,-0.41692213366033104,-8.515634580012263,-3.504598405885959,3.0,1.372183372183372,728.7655719139298,-1.7806654623856422,-5.882174698444145,2.824893654215955,1092.3076923076922,-1.0,86.07679173416226,1.3710426633273467,
2023-08-11 17:01:56.024000,-8.63855421686747,-0.5060240963855422,-3.91566265060241,-0.4537093807480073,-8.491109748620477,-3.548743102391171,3.0,1.372183372183372,728.7655719139298,-2.681428821164268,-7.317289202260939,1.6035196084144283,1081.3186813186812,-1.0,86.07679173416226,1.3710470153919858,
2023-08-11 17:01:56.032000,-8.566265060240964,-0.6024096385542169,-3.927710843373494,-0.5321888412017167,-8.358675659104843,-3.5389331698344573,3.0,1.372183372183372,728.7655719139298,-2.727230347881825,-8.065380805314375,-0.07586970456267077,1073.260073260073,-1.0,86.07679173416226,1.371051345524829,
2023-08-11 17:01:56.039000,-8.433734939759036,-0.710843373493976,-3.9759036144578315,-0.703862660944206,-8.294911097486205,-3.56591048436542,3.0,1.372183372183372,728.7655719139298,-2.498222714294039,-7.317289202260939,-2.1827399335703044,1070.3296703296703,-1.0,86.07679173416226,1.3710556605100637,
2023-08-11 17:01:56.047000,-8.433734939759036,-0.710843373493976,-3.9759036144578315,-0.7234825260576333,-8.189454322501533,-3.5462906192519923,3.0,1.372183372183372,728.7655719139298,-1.4295204242177033,-5.561564011421244,-3.9537322999825175,1070.3296703296703,-1.0,86.07679173416226,1.3710599671140538,
2023-08-11 17:01:56.055000,-8.25301204819277,-0.8433734939759037,-3.987951807228916,-0.7406499080318822,-8.074187614960147,-3.561005518087063,3.0,1.372183372183372,728.7655719139298,-0.8035662257444208,-3.943243400734221,-5.190373521356563,1071.062271062271,-1.0,86.07679173416226,1.3710642720676611,
2023-08-11 17:01:56.062000,-8.144578313253012,-0.8313253012048193,-3.9397590361445785,-0.733292458614347,-7.990803188228081,-3.5193133047210297,3.0,1.372183372183372,728.7655719139298,0.8300215605151211,-2.5539304236349847,-5.4041139793718305,1071.7948717948718,-1.0,86.07679173416226,1.37106858191078,
2023-08-11 17:01:56.070000,-8.120481927710843,-0.783132530120482,-3.91566265060241,-0.7161250766400981,-7.968730839975475,-3.5217657878602084,3.0,1.372183372183372,728.7655719139298,1.5933803391410752,-0.43179301905483225,-4.961365887768777,1076.1904761904761,-1.0,86.07679173416226,1.3710729029969897,
2023-08-11 17:01:56.078000,-8.168674698795181,-0.7590361445783133,-3.9397590361445785,-0.6204782342121398,-8.0226854690374,-3.5634580012262416,3.0,1.372183372183372,728.7655719139298,1.5781131635685561,2.8048482023192136,-4.823961307616106,1081.3186813186812,-1.0,86.07679173416226,1.371077241765609,
2023-08-11 17:01:56.085000,-8.25301204819277,-0.746987951807229,-3.9759036144578315,-0.6719803801348866,-8.14530962599632,-3.5977927651747392,3.0,1.372183372183372,728.7655719139298,1.8071207971563423,6.789581026746694,-4.442281918303128,1086.4468864468863,-1.0,86.07679173416226,1.371081604567824,
2023-08-11 17:01:56.093000,-8.373493975903616,-0.7228915662650602,-4.0,-0.5714285714285714,-8.307173513182097,-3.624770079705702,3.0,1.3726273726273726,728.5298398835517,2.646815453644892,10.224695530563489,-3.8773964221199226,1090.10989010989,-1.0,86.07679173416226,1.371085997525587,
2023-08-11 17:01:56.101000,-8.481927710843374,-0.6987951807228916,-4.0602409638554215,-0.6057633353770693,-8.42489270386266,-3.676272225628449,3.0,1.3726273726273726,728.5298398835517,3.4865101101334415,13.323932171784861,-3.572052910669541,1093.7728937728937,-1.0,86.07679173416226,1.3710904269565383,
2023-08-11 17:01:56.108000,-8.590361445783133,-0.6506024096385542,-4.1084337349397595,-0.5272838749233598,-8.469037400367872,-3.717964438994482,3.0,1.3726273726273726,728.5298398835517,3.547578812423518,15.751413087815397,-3.907930773264961,1104.029304029304,-1.0,86.07679173416226,1.3710948993643457,
2023-08-11 17:01:56.116000,-8.698795180722891,-0.6265060240963856,-4.1807228915662655,-0.5199264255058246,-8.599019006744328,-3.8038013488657265,3.0,1.373071373071373,728.2942603071948,4.2040673620418385,16.23996270613601,-3.3125109259367163,1117.9487179487178,-1.0,86.07679173416226,1.371099421143723,
2023-08-11 17:01:56.124000,-8.783132530120483,-0.6144578313253012,-4.1807228915662655,-0.5125689760882893,-8.711833231146535,-3.8503985285101163,3.0,1.372183372183372,728.7655719139298,4.570479575782296,15.736145912242879,-3.068236116776411,1135.5311355311355,-1.0,86.07679173416226,1.371103998724002,
2023-08-11 17:01:56.131000,-8.843373493975903,-0.5903614457831325,-4.228915662650603,-0.522378908645003,-8.753525444512569,-3.8749233599019006,3.0,1.3726273726273726,728.5298398835517,5.532311636850999,13.980420721403183,-2.701823903035953,1162.6373626373625,-1.0,86.07679173416226,1.3711086385653515,
2023-08-11 17:01:56.139000,-8.903614457831326,-0.5903614457831325,-4.253012048192772,-0.5174739423666462,-8.84181483752299,-3.8822808093194356,3.0,1.3726273726273726,728.5298398835517,5.623914690286114,11.949886370258145,-2.717091078608472,1200.0,-1.0,86.07679173416226,1.371113347083043,
2023-08-11 17:01:56.147000,-8.927710843373495,-0.6024096385542169,-4.265060240963856,-0.5125689760882893,-8.770692826486817,-3.889638258736971,3.0,1.3726273726273726,728.5298398835517,6.52467804906474,9.17126041605967,-2.1980071091428233,1257.8754578754579,-1.0,86.07679173416226,1.3711181305081805,
2023-08-11 17:01:56.154000,-8.951807228915664,-0.6024096385542169,-4.301204819277109,-0.4757817290006131,-8.81238503985285,-3.9166155732679337,3.0,1.373071373071373,728.2942603071948,6.478876522347182,6.682710797739061,-2.0606025289901515,1342.8571428571427,-1.0,86.07679173416226,1.3711229947701002,
2023-08-11 17:01:56.162000,-8.91566265060241,-0.6024096385542169,-4.349397590361446,-0.568976088289393,-8.814837522992029,-3.995095033721643,3.0,1.373071373071373,728.2942603071948,7.074296369675426,4.102558125983336,-2.1980071091428233,1457.8754578754579,-1.0,86.07679173416226,1.3711279457949426,
2023-08-11 17:01:56.170000,-8.927710843373495,-0.6265060240963856,-4.373493975903615,-0.47087676272225626,-8.824647455548742,-3.9803801348865724,3.0,1.373071373071373,728.2942603071948,7.2117009498280975,2.117825301555855,-1.953732299982518,1598.5347985347985,-1.0,86.07679173416226,1.3711329895281406,
2023-08-11 17:01:56.177000,-8.91566265060241,-0.6385542168674699,-4.385542168674699,-0.5493562231759657,-8.834457388105456,-4.012262415695892,3.0,1.373071373071373,728.2942603071948,6.875823087232678,-0.03484645416933606,-2.152205582425266,1765.5677655677655,-1.0,86.07679173416226,1.3711381317985238,
2023-08-11 17:01:56.185000,-8.903614457831326,-0.6385542168674699,-4.36144578313253,-0.5567136725935009,-8.834457388105456,-3.985285101164929,3.0,1.373071373071373,728.2942603071948,6.84528873608764,-0.4012586679097941,-1.41938115494435,1951.6483516483515,-1.0,86.07679173416226,1.3711433783218288,
2023-08-11 17:01:56.193000,-8.903614457831326,-0.6506024096385542,-4.397590361445784,-0.6082158185162476,-8.792765174739424,-4.049049662783568,3.0,1.373071373071373,728.2942603071948,6.860555911660159,-0.6455334770700994,-1.0224345900588538,2151.6483516483513,-1.0,86.07679173416226,1.371148734566031,
2023-08-11 17:01:56.200000,-8.867469879518072,-0.6385542168674699,-4.373493975903615,-0.4782342121397915,-8.78050275904353,-4.036787247087676,3.0,1.3735153735153736,728.0588330370131,7.135365071965502,-0.47759454577238947,-0.9460987121962585,2355.3113553113553,-1.0,86.07679173416226,1.3711542057762647,
2023-08-11 17:01:56.208000,-8.93975903614458,-0.6506024096385542,-4.433734939759036,-0.6204782342121398,-8.824647455548742,-4.019619865113427,3.0,1.3735153735153736,728.0588330370131,7.059029194102907,0.10255812598333569,0.3210768603228254,2546.520146520146,-1.0,86.07679173416226,1.3711597972770337,
2023-08-11 17:01:56.216000,-8.903614457831326,-0.6385542168674699,-4.421686746987952,-0.568976088289393,-8.748620478234212,-3.990190067443286,3.0,1.3735153735153736,728.0588330370131,7.715517743721228,0.7743138511741754,1.4966493794067948,2715.0183150183148,-1.0,86.07679173416226,1.3711655144981674,
2023-08-11 17:01:56.223000,-8.879518072289157,-0.6024096385542169,-4.349397590361446,-0.5125689760882893,-8.805027590435316,-3.9803801348865724,3.0,1.3735153735153736,728.0588330370131,7.700250568148709,1.4918711030825722,2.5195501427655733,2805.8608058608056,-1.0,86.07679173416226,1.3711713628422082,
2023-08-11 17:01:56.231000,-8.951807228915664,-0.5662650602409639,-4.325301204819278,-0.47087676272225626,-8.863887185775598,-3.9534028203556097,3.0,1.373959373959374,727.8235579253515,7.532311636850999,2.209428354990969,3.359244799254123,2805.8608058608056,-1.0,86.07679173416226,1.3711773476909903,
2023-08-11 17:01:56.239000,-9.024096385542169,-0.5903614457831325,-4.349397590361446,-0.6057633353770693,-8.89086450030656,-3.8700183936235435,3.0,1.373959373959374,727.8235579253515,7.730784919293747,2.1025581259833355,4.321076860322826,2805.8608058608056,-1.0,86.07679173416226,1.3711834745618363,
2023-08-11 17:01:56.246000,-9.0,-0.4096385542168675,-4.253012048192772,-0.2844880441446965,-8.873697118332311,-3.843041079092581,3.0,1.373959373959374,727.8235579253515,8.127731484179243,1.6903443855253204,5.06916846337626,2805.8608058608056,-1.0,86.07679173416226,1.3711897491365344,
2023-08-11 17:01:56.254000,-8.927710843373495,-0.42168674698795183,-4.204819277108434,-0.33108522378908645,-8.866339668914776,-3.847946045370938,3.0,1.373959373959374,727.8235579253515,7.715517743721228,1.2017947672047098,5.466115028261757,2805.8608058608056,-1.0,86.07679173416226,1.3711961769927206,
2023-08-11 17:01:56.262000,-8.891566265060241,-0.3734939759036145,-4.204819277108434,-0.24770079705702022,-8.829552421827099,-3.7939914163090127,3.0,1.373959373959374,727.8235579253515,6.952158965095274,-0.23331973661208413,5.954664646582367,2805.8608058608056,-1.0,86.07679173416226,1.3712027636332644,
2023-08-11 17:01:56.269000,-8.903614457831326,-0.3373493975903615,-4.216867469879518,-0.2158185162477008,-8.822194972409564,-3.8871857755977928,3.0,1.3744033744033743,727.5884348247456,5.761319270438785,-1.866907522871626,6.382145562612902,2797.069597069597,-1.0,86.07679173416226,1.3712095146432803,
2023-08-11 17:01:56.277000,-8.927710843373495,-0.3373493975903615,-4.216867469879518,-0.18148375229920294,-8.802575107296137,-3.8994481912936845,3.0,1.3735153735153736,728.0588330370131,4.799487209370083,-2.279121263329641,6.58061884505565,2712.8205128205127,-1.0,86.07679173416226,1.3712164358471965,
2023-08-11 17:01:56.285000,-8.951807228915664,-0.3373493975903615,-4.253012048192772,-0.2158185162477008,-8.79767014101778,-3.8920907418761495,3.0,1.373959373959374,727.8235579253515,5.135365071965502,-2.3096556144746794,6.137870753452597,2587.5457875457873,-1.0,86.07679173416226,1.3712235334559955,
2023-08-11 17:01:56.292000,-8.903614457831326,-0.18072289156626506,-4.168674698795181,-0.08828939301042305,-8.775597792765174,-3.867565910484365,3.0,1.373959373959374,727.8235579253515,5.135365071965502,-2.3096556144746794,6.137870753452597,2434.432234432234,-1.0,86.07679173416226,1.371230813843282,
2023-08-11 17:01:56.300000,-8.879518072289157,-0.30120481927710846,-4.19277108433735,-0.18638871857755976,-8.704475781729,-3.8013488657265477,3.0,1.3744033744033743,727.5884348247456,3.944525377309014,-1.1340830953907102,5.908863119864811,2268.8644688644686,-1.0,86.07679173416226,1.3712382834266836,
2023-08-11 17:01:56.307000,-8.855421686746988,-0.30120481927710846,-4.204819277108434,-0.24034334763948498,-8.760882893930104,-3.8700183936235435,3.0,1.373959373959374,727.8235579253515,3.410174232270846,1.0338558359069998,5.298176096964047,2101.8315018315016,-1.0,86.07679173416226,1.3712459486975486,
2023-08-11 17:01:56.315000,-8.807228915662652,-0.3373493975903615,-4.325301204819278,-0.27467811158798283,-8.652973635806253,-4.0,3.0,1.3744033744033743,727.5884348247456,2.8758230872326784,3.949886370258145,4.5958860206281695,1938.4615384615383,-1.0,86.07679173416226,1.3712538161214867,
2023-08-11 17:01:56.323000,-8.819277108433736,-0.39759036144578314,-4.397590361445784,-0.3384426732066217,-8.625996321275291,-4.13979153893317,3.0,1.3744033744033743,727.5884348247456,2.662082629217411,6.072023774838297,3.1149699900938175,1783.8827838827838,-1.0,86.07679173416226,1.371261892283111,
2023-08-11 17:01:56.330000,-8.795180722891567,-0.3855421686746988,-4.493975903614458,-0.3163703249540159,-8.667688534641323,-4.15450643776824,3.0,1.3744033744033743,727.5884348247456,2.310937591049472,8.19416117941845,2.1836722801701534,1640.2930402930401,-1.0,86.07679173416226,1.3712701840508361,
2023-08-11 17:01:56.338000,-8.759036144578314,-0.42168674698795183,-4.566265060240964,-0.34334763948497854,-8.635806253832005,-4.208461066830165,3.0,1.3744033744033743,727.5884348247456,2.051395606316648,8.850649729036771,1.3745119748266421,1507.6923076923076,-1.0,86.07679173416226,1.3712786984427632,
2023-08-11 17:01:56.346000,-8.710843373493976,-0.43373493975903615,-4.590361445783133,-0.3163703249540159,-8.542611894543224,-4.237890864500306,3.0,1.3744033744033743,727.5884348247456,1.51704446127848,7.949886370258144,0.5806188450556499,1386.8131868131868,-1.0,86.07679173416226,1.371287442630151,
2023-08-11 17:01:56.353000,-8.710843373493976,-0.5542168674698795,-4.578313253012048,-0.7087676272225628,-8.493562231759656,-4.09319435928878,3.0,1.3744033744033743,727.5884348247456,1.34910552998077,6.789581026746694,-0.07586970456267077,1277.6556776556777,-1.0,86.07679173416226,1.3712964239396068,
2023-08-11 17:01:56.361000,-8.397590361445783,-0.27710843373493976,-4.518072289156627,-0.18638871857755976,-8.211526670754138,-4.1961986511342735,3.0,1.3744033744033743,727.5884348247456,2.5552124002097774,2.759046675601656,-1.6331216129596173,1180.2197802197802,-1.0,86.07679173416226,1.3713056498539062,
2023-08-11 17:01:56.369000,-8.493975903614459,-0.4096385542168675,-4.566265060240964,-0.3359901900674433,-8.31698344573881,-4.2182709993868786,3.0,1.3744033744033743,727.5884348247456,-0.635627294446711,3.7361459122428777,0.7027562496358025,1093.7728937728937,-1.0,86.07679173416226,1.3713151280113327,
2023-08-11 17:01:56.376000,-8.493975903614459,-0.39759036144578314,-4.602409638554217,-0.3114653586756591,-8.248313917841815,-4.228080931943593,3.0,1.373959373959374,727.8235579253515,-1.0783753860497645,1.598741332090206,0.12260357788007731,1021.2454212454212,674.072265625,89.0112278160087,1.3713248662034323,
2023-08-11 17:01:56.384000,-8.46987951807229,-0.3493975903614458,-4.542168674698796,-0.1103617412630288,-8.373390557939913,-4.2035561005518085,3.0,1.373959373959374,727.8235579253515,-1.1547112639123598,-2.6608006526426182,-1.2667093992191594,963.3699633699633,-1.0,89.0112278160087,1.3713348722218357,
2023-08-11 17:01:56.392000,-8.530120481927712,-0.3373493975903615,-4.493975903614458,-0.24770079705702022,-8.434702636419374,-4.15450643776824,3.0,1.373959373959374,727.8235579253515,-2.101276149408543,-4.950876988520481,-0.8850300099061822,920.1465201465201,-1.0,89.0112278160087,1.371345153830758,
2023-08-11 17:01:56.399000,-8.614457831325302,-0.3855421686746988,-4.506024096385542,-0.3261802575107296,-8.397915389331699,-4.080931943592888,3.0,1.373959373959374,727.8235579253515,-3.536390653225337,-6.6302663014975805,-1.4957170328069456,887.1794871794871,-1.0,89.0112278160087,1.3713557187579049,
2023-08-11 17:01:56.407000,-8.66265060240964,-0.4096385542168675,-4.397590361445784,-0.3163703249540159,-8.515634580012263,-4.012262415695892,3.0,1.373959373959374,727.8235579253515,-3.933337218110833,-8.233319736612083,-2.457549093875648,865.2014652014651,-1.0,89.0112278160087,1.3713665747037291,
2023-08-11 17:01:56.415000,-8.710843373493976,-0.42168674698795183,-4.36144578313253,-0.18884120171673818,-8.601471489883506,-3.997547516860821,3.0,1.373959373959374,727.8235579253515,-4.330283782996329,-8.844006759512848,-3.358312452654274,859.3406593406593,-1.0,89.0112278160087,1.3713777293374991,
2023-08-11 17:01:56.422000,-8.783132530120483,-0.3855421686746988,-4.313253012048193,-0.37522992029429797,-8.68976088289393,-3.90680564071122,3.0,1.3744033744033743,727.5884348247456,-4.9104364547520545,-9.103548744245671,-2.930831536623739,868.131868131868,-1.0,89.0112278160087,1.3713891903013236,
2023-08-11 17:01:56.430000,-8.867469879518072,-0.45783132530120485,-4.240963855421687,-0.3163703249540159,-8.770692826486817,-3.8332311465358675,3.0,1.3735153735153736,728.0588330370131,-5.612726531087932,-8.11118233203193,-3.022434590058854,887.9120879120878,-1.0,89.0112278160087,1.3714009653504622,
2023-08-11 17:01:56.438000,-9.0,-0.49397590361445787,-4.19277108433735,-0.4537093807480073,-8.927651747394236,-3.7498467198038012,3.0,1.373959373959374,727.8235579253515,-5.9180700425383135,-7.668434240428878,-2.7628926053260296,917.9487179487179,-1.0,89.0112278160087,1.3714130623532939,
2023-08-11 17:01:56.445000,-9.096385542168676,-0.5180722891566265,-4.096385542168675,-0.4463519313304721,-9.038013488657265,-3.7277743715511953,3.0,1.373959373959374,727.8235579253515,-5.902802866965795,-7.729502942718954,-2.1827399335703044,961.9047619047618,-1.0,89.0112278160087,1.371425489344193,
2023-08-11 17:01:56.453000,-9.168674698795181,-0.5542168674698795,-4.024096385542169,-0.40220723482526055,-9.126302881667687,-3.585530349478847,3.0,1.3744033744033743,727.5884348247456,-5.3531845463551075,-8.019579278596817,-1.4041139793718311,1015.3846153846154,-1.0,89.0112278160087,1.3714382544998582,
2023-08-11 17:01:56.461000,-9.19277108433735,-0.5783132530120483,-3.891566265060241,-0.46106683016554256,-9.258736971183323,-3.5119558553034946,3.0,1.3744033744033743,727.5884348247456,-5.124176912767322,-6.569197599207504,0.3058096847503063,1078.3882783882784,-1.0,89.0112278160087,1.3714513659863887,
2023-08-11 17:01:56.468000,-9.216867469879519,-0.6265060240963856,-3.855421686746988,-0.5714285714285714,-9.12139791538933,-3.4580012262415694,3.0,1.3748473748473748,727.3534635879219,-5.063108210477245,-6.004312103024298,1.6645883107045047,1142.857142857143,-1.0,89.0112278160087,1.3714648319751004,
2023-08-11 17:01:56.476000,-9.240963855421688,-0.6867469879518072,-3.843373493975904,-0.5885959534028203,-9.192519926425506,-3.4310239117106067,3.0,1.3748473748473748,727.3534635879219,-4.391352485286405,-5.0730143931006335,2.840160829788474,1205.8608058608058,-1.0,89.0112278160087,1.3714786607746807,
2023-08-11 17:01:56.484000,-9.216867469879519,-0.7590361445783133,-3.8313253012048194,-0.657265481299816,-9.145922746781116,-3.396689147762109,3.0,1.3748473748473748,727.3534635879219,-4.101276149408543,-4.248586912184603,3.557718081696871,1266.6666666666665,-1.0,89.0112278160087,1.3714928609629387,
2023-08-11 17:01:56.491000,-9.19277108433735,-0.746987951807229,-3.843373493975904,-0.6719803801348866,-9.074800735744942,-3.467811158798283,3.0,1.3748473748473748,727.3534635879219,-3.612726531087932,-3.2256861488258246,3.679855486277024,1322.3443223443223,-1.0,89.0112278160087,1.3715074411993922,
2023-08-11 17:01:56.499000,-9.132530120481928,-0.7951807228915663,-3.891566265060241,-0.6916002452483139,-8.947271612507663,-3.4898835070508887,3.0,1.3748473748473748,727.3534635879219,-2.8799021036070163,-2.614999125925061,2.641687547345726,1371.4285714285713,-1.0,89.0112278160087,1.3715224100481722,
2023-08-11 17:01:56.507000,-8.91566265060241,-0.819277108433735,-3.855421686746988,-0.6965052115266707,-8.699570815450643,-3.5585530349478844,3.0,1.3748473748473748,727.3534635879219,-2.1470776761261003,-2.2638540877571223,1.9546646465823674,1410.2564102564102,-1.0,89.0112278160087,1.3715377759492817,
2023-08-11 17:01:56.514000,-8.72289156626506,-0.8072289156626506,-3.879518072289157,-0.7234825260576333,-8.50091968117719,-3.4580012262415694,3.0,1.3748473748473748,727.3534635879219,-1.9028028669657948,-1.149350270963229,1.5882524328419094,1438.095238095238,-1.0,89.0112278160087,1.3715535471890306,
2023-08-11 17:01:56.522000,-8.566265060240964,-0.8313253012048193,-3.91566265060241,-0.7946045370938074,-8.388105456774984,-3.4996934396076025,3.0,1.3748473748473748,727.3534635879219,-2.086008973836024,-0.3554571411922368,-0.3201445137229761,1455.6776556776556,-1.0,89.0112278160087,1.3715697318697244,
2023-08-11 17:01:56.530000,-8.409638554216867,-0.8433734939759037,-3.9397590361445785,-0.7995095033721643,-8.19435928877989,-3.5585530349478844,3.0,1.3748473748473748,727.3534635879219,-2.1470776761261003,-0.20278538546704597,-1.3430452770817547,1461.5384615384614,-1.0,89.0112278160087,1.3715863378787363,
2023-08-11 17:01:56.537000,-8.349397590361447,-0.8674698795180723,-4.0120481927710845,-0.7308399754751685,-8.19435928877989,-3.6591048436541995,3.0,1.3748473748473748,727.3534635879219,-1.398986073072665,1.7819474389604348,-3.1445719946390067,1458.6080586080584,-1.0,89.0112278160087,1.3716033728570642,
2023-08-11 17:01:56.545000,-8.421686746987952,-0.9036144578313253,-4.096385542168675,-0.7872470876762722,-8.236051502145923,-3.7498467198038012,3.0,1.3748473748473748,727.3534635879219,-1.4142532486451842,3.5834741565176866,-3.617854437387098,1449.084249084249,-1.0,89.0112278160087,1.3716208441674984,
2023-08-11 17:01:56.553000,-8.433734939759036,-0.9277108433734941,-4.216867469879518,-0.8853464132434089,-8.25567136725935,-3.835683629675046,3.0,1.3752913752913754,727.1186440677966,-1.4600547753627415,4.804848202319214,-4.976633063341296,1434.4322344322343,-1.0,89.0112278160087,1.3716387588625152,
2023-08-11 17:01:56.560000,-8.506024096385543,-0.8313253012048193,-4.240963855421687,-0.7161250766400981,-8.351318209687308,-3.9386879215205393,3.0,1.3752913752913754,727.1186440677966,-1.8722685158207566,5.797214614532954,-6.991900238913815,1416.117216117216,-1.0,89.0112278160087,1.3716571238013386,
2023-08-11 17:01:56.568000,-8.55421686746988,-0.8313253012048193,-4.325301204819278,-0.7283874923359902,-8.427345187001839,-4.0,3.0,1.3752913752913754,727.1186440677966,-1.8722685158207566,5.797214614532954,-6.991900238913815,1396.3369963369962,-1.0,89.0112278160087,1.3716759456395677,
2023-08-11 17:01:56.576000,-8.674698795180724,-0.819277108433735,-4.373493975903615,-0.7480073574494175,-8.569589209074188,-3.987737584304108,3.0,1.3752913752913754,727.1186440677966,-3.1089097371948022,6.438435988578755,-8.365946040440532,1378.021978021978,-1.0,89.0112278160087,1.3716952305212569,
2023-08-11 17:01:56.583000,-8.795180722891567,-0.8795180722891567,-4.445783132530121,-0.7553648068669527,-8.785407725321887,-4.117719190680564,3.0,1.3744033744033743,727.5884348247456,-3.963871569255871,7.110191713769595,-8.365946040440532,1356.7765567765566,-1.0,89.0112278160087,1.3717149840693228,
2023-08-11 17:01:56.591000,-9.0,-0.8072289156626506,-4.445783132530121,-0.7529123237277743,-8.988963825873697,-4.063764561618639,3.0,1.3748473748473748,727.3534635879219,-3.704329584523047,6.85064972903677,-7.0682361167764105,1337.7289377289376,-1.0,89.0112278160087,1.371735211483064,
2023-08-11 17:01:56.599000,-9.144578313253012,-0.7710843373493976,-4.397590361445784,-0.6499080318822807,-9.131207847946046,-3.995095033721643,3.0,1.3748473748473748,727.3534635879219,-4.284482256278772,6.407901637433717,-5.159839170211525,1317.216117216117,-1.0,89.0112278160087,1.3717559175731668,
2023-08-11 17:01:56.606000,-9.253012048192772,-0.7228915662650602,-4.385542168674699,-0.598405885959534,-9.312691600245248,-3.987737584304108,3.0,1.3752913752913754,727.1186440677966,-5.1394440883398405,5.644542858807763,-2.839228483188625,1302.5641025641025,-1.0,89.0112278160087,1.3717771064554913,
2023-08-11 17:01:56.614000,-9.3855421686747,-0.6385542168674699,-4.301204819277109,-0.5469037400367872,-9.40098099325567,-3.914163090128755,3.0,1.3752913752913754,727.1186440677966,-5.429520424217703,4.759046675601656,0.12260357788007731,1285.7142857142856,-1.0,89.0112278160087,1.3717987817136945,
2023-08-11 17:01:56.622000,-9.493975903614459,-0.5421686746987953,-4.216867469879518,-0.4218270999386879,-9.477007970570202,-3.8454935622317596,3.0,1.3752913752913754,727.1186440677966,-6.3455509585688485,3.614008507662725,2.962298234368627,1268.8644688644688,-1.0,89.0112278160087,1.3718209465312698,
2023-08-11 17:01:56.629000,-9.578313253012048,-0.5783132530120483,-4.1807228915662655,-0.45616186388718577,-9.545677498467198,-3.8503985285101163,3.0,1.3752913752913754,727.1186440677966,-7.063108210477245,2.1330924771283737,5.664588310704505,1254.212454212454,-1.0,89.0112278160087,1.3718436033988033,
2023-08-11 17:01:56.637000,-9.614457831325302,-0.5180722891566265,-4.156626506024097,-0.35806253832004903,-9.499080318822807,-3.7204169221336603,3.0,1.3752913752913754,727.1186440677966,-6.956237981469611,0.7895810267466944,7.25237457024649,1238.095238095238,-1.0,89.0112278160087,1.3718667542382519,
2023-08-11 17:01:56.645000,-9.55421686746988,-0.4819277108433735,-4.1084337349397595,-0.43899448191293683,-9.450030656039239,-3.737584304107909,3.0,1.3757353757353756,726.8839761174762,-6.284482256278772,-1.0424800419555955,7.786725715284658,1223.4432234432234,-1.0,89.0112278160087,1.3718904003796055,
2023-08-11 17:01:56.652000,-9.361445783132531,-0.46987951807228917,-4.024096385542169,-0.3605150214592274,-9.190067443286328,-3.6051502145922747,3.0,1.3757353757353756,726.8839761174762,-4.773031874599383,-3.30202202668842,7.679855486277024,1210.989010989011,-1.0,89.0112278160087,1.3719145426886186,
2023-08-11 17:01:56.660000,-9.19277108433735,-0.44578313253012053,-3.987951807228916,-0.34334763948497854,-9.001226241569588,-3.6223175965665235,3.0,1.3757353757353756,726.8839761174762,-4.498222714294039,-5.485228133558649,8.351611211467864,1198.5347985347985,-1.0,89.0112278160087,1.371939181568998,
2023-08-11 17:01:56.668000,-8.91566265060241,-0.49397590361445787,-3.91566265060241,-0.4193746167995095,-8.763335377069282,-3.462906192519926,3.0,1.3757353757353756,726.8839761174762,-3.933337218110833,-7.195151797680786,7.267641745819009,1185.3479853479853,-1.0,89.0112278160087,1.3719643168076425,
2023-08-11 17:01:56.675000,-8.734939759036145,-0.4819277108433735,-3.91566265060241,-0.34825260576333533,-8.589209074187615,-3.465358675659105,3.0,1.3757353757353756,726.8839761174762,-3.032573859332207,-8.034846454169335,7.099702814521299,1167.7655677655678,-1.0,89.0112278160087,1.3719899475608455,
2023-08-11 17:01:56.683000,-8.55421686746988,-0.45783132530120485,-3.8674698795180724,-0.34580012262415694,-8.351318209687308,-3.467811158798283,3.0,1.3757353757353756,726.8839761174762,-2.1776120272711386,-7.927976225161702,6.061534875590001,1146.5201465201465,-1.0,89.0112278160087,1.3720160723428223,
2023-08-11 17:01:56.690000,-8.349397590361447,-0.4819277108433735,-3.879518072289157,-0.3531575720416922,-8.157572041692212,-3.4530962599632127,3.0,1.3757353757353756,726.8839761174762,-1.4447875997902224,-6.569197599207504,4.58061884505565,1126.7399267399267,-1.0,89.0112278160087,1.372042689155313,
2023-08-11 17:01:56.698000,-8.289156626506024,-0.43373493975903615,-3.891566265060241,-0.37522992029429797,-8.13059472716125,-3.445738810545677,3.0,1.3757353757353756,726.8839761174762,-0.6661616455917491,-4.752403706077732,3.4050463259716803,1109.89010989011,-1.0,89.0112278160087,1.3720697953216998,
2023-08-11 17:01:56.706000,-8.168674698795181,-0.44578313253012053,-3.91566265060241,-0.32127529123237275,-8.017780502759043,-3.5413856529736356,3.0,1.3757353757353756,726.8839761174762,0.9216246139502355,-2.1569838587494887,2.321076860322825,1096.7032967032967,-1.0,89.0112278160087,1.372097387355061,
2023-08-11 17:01:56.713000,-8.25301204819277,-0.3734939759036145,-4.0,-0.23543838136112813,-8.06928264868179,-3.5830778663396687,3.0,1.3757353757353756,726.8839761174762,1.944525377309014,1.0033214847619616,1.0997028145212986,1084.981684981685,-1.0,89.0112278160087,1.3721254612440699,
2023-08-11 17:01:56.721000,-8.349397590361447,-0.2530120481927711,-4.048192771084338,-0.13979153893316984,-8.182096873083998,-3.614960147148988,3.0,1.3757353757353756,726.8839761174762,2.860555911660159,3.461336751937534,-1.205640696929083,1076.1904761904761,-1.0,89.0112278160087,1.3721540124329141,
2023-08-11 17:01:56.729000,-8.409638554216867,-0.21686746987951808,-4.1084337349397595,-0.08338442673206621,-8.248313917841815,-3.683629675045984,3.0,1.3761793761793761,726.6494595902565,3.761319270438785,4.560573393158908,-3.0835032923489303,1071.062271062271,-1.0,89.0112278160087,1.3721830355372433,
2023-08-11 17:01:56.736000,-8.44578313253012,-0.1927710843373494,-4.1807228915662655,-0.056407112201103615,-8.253218884120171,-3.830778663396689,3.0,1.3752913752913754,727.1186440677966,3.8529223238738997,7.003321484761962,-4.24380863586038,1067.3992673992673,-1.0,89.0112278160087,1.37221252452,
2023-08-11 17:01:56.744000,-8.493975903614459,-0.1927710843373494,-4.265060240963856,-0.019619865113427344,-8.321888412017167,-3.960760269773145,3.0,1.3757353757353756,726.8839761174762,3.3185711788357315,8.86591690460929,-5.220907872501601,1067.3992673992673,-1.0,89.0112278160087,1.372242472848504,
2023-08-11 17:01:56.752000,-8.542168674698795,-0.1566265060240964,-4.373493975903615,-0.09074187614960147,-8.449417535254444,-4.017167381974248,3.0,1.3757353757353756,726.8839761174762,2.982693316240312,9.888817667968068,-5.2972437503641965,1071.062271062271,-1.0,89.0112278160087,1.3722728734314578,
2023-08-11 17:01:56.759000,-8.626506024096386,-0.10843373493975904,-4.445783132530121,0.056407112201103615,-8.569589209074188,-4.073574494175352,3.0,1.3761793761793761,726.6494595902565,1.8223879727288614,10.285764232853564,-5.434648330516868,1075.4578754578754,-1.0,89.0112278160087,1.3723037184935825,
2023-08-11 17:01:56.767000,-8.698795180722891,-0.0963855421686747,-4.493975903614458,-0.01226241569589209,-8.52053954629062,-4.230533415082771,3.0,1.3761793761793761,726.6494595902565,-0.25394790513373383,11.262863469494786,-5.083503292348929,1079.8534798534797,-1.0,89.0112278160087,1.3723349994836527,
2023-08-11 17:01:56.775000,-8.72289156626506,-0.16867469879518074,-4.566265060240964,-0.08828939301042305,-8.594114040465971,-4.2329858982219495,3.0,1.3757353757353756,726.8839761174762,-1.3684517219276269,11.659810034380282,-4.167472757997785,1088.6446886446886,-1.0,89.0112278160087,1.3723667074210195,
2023-08-11 17:01:56.782000,-8.855421686746988,-0.16867469879518074,-4.626506024096386,-0.04414469650521152,-8.805027590435316,-4.313917841814837,3.0,1.3761793761793761,726.6494595902565,-1.8417341646757186,10.270497057281045,-3.2056406969290827,1106.9597069597069,-1.0,89.0112278160087,1.372398832754875,
2023-08-11 17:01:56.790000,-8.951807228915664,-0.18072289156626506,-4.698795180722891,-0.041692213366033105,-8.885959534028203,-4.367872470876763,3.0,1.3757353757353756,726.8839761174762,-2.849367752461978,7.781947438960435,-2.106404055707709,1137.7289377289376,-1.0,89.0112278160087,1.3724313652253886,
2023-08-11 17:01:56.798000,-9.072289156626507,-0.1927710843373494,-4.72289156626506,-0.0809319435928878,-8.991416309012875,-4.370324954015941,3.0,1.3761793761793761,726.6494595902565,-3.4600547753627415,4.86591690460929,-1.6025872618145791,1184.6153846153845,-1.0,89.0112278160087,1.372464293917256,
2023-08-11 17:01:56.805000,-9.168674698795181,-0.20481927710843376,-4.710843373493976,-0.15695892090741875,-9.114040465971796,-4.313917841814837,3.0,1.3761793761793761,726.6494595902565,-4.391352485286405,1.598741332090206,-0.9919002389138157,1254.9450549450548,-1.0,89.0112278160087,1.3724976074213362,
2023-08-11 17:01:56.813000,-9.204819277108435,-0.21686746987951808,-4.674698795180723,-0.1226241569589209,-9.109135499693439,-4.321275291232372,3.0,1.3761793761793761,726.6494595902565,-4.452421187576482,-2.5233960724899465,-1.0835032923489303,1356.7765567765566,-1.0,89.0112278160087,1.3725312940189793,
2023-08-11 17:01:56.821000,-9.19277108433735,-0.27710843373493976,-4.578313253012048,-0.15941140404659718,-9.09196811771919,-4.149601471489883,3.0,1.3761793761793761,726.6494595902565,-4.605092943301672,-6.813472408367809,-0.9919002389138157,1488.6446886446886,-1.0,89.0112278160087,1.3725653415700645,
2023-08-11 17:01:56.828000,-9.120481927710843,-0.27710843373493976,-4.445783132530121,-0.19619865113427343,-9.003678724708767,-4.095646842427958,3.0,1.3761793761793761,726.6494595902565,-5.063108210477245,-9.698968591573916,-0.5796864984558006,1645.4212454212452,-1.0,89.0112278160087,1.3725997375412307,
2023-08-11 17:01:56.836000,-9.060240963855422,-0.3253012048192771,-4.349397590361446,-0.1912936848559166,-8.954629061925198,-3.9509503372164314,3.0,1.3761793761793761,726.6494595902565,-5.1394440883398405,-11.698968591573916,-0.07586970456267077,1821.245421245421,-1.0,89.0112278160087,1.3726344691741497,
2023-08-11 17:01:56.844000,-9.012048192771084,-0.3373493975903615,-4.216867469879518,-0.20110361741263028,-8.851624770079706,-3.835683629675046,3.0,1.3761793761793761,726.6494595902565,-5.1394440883398405,-11.698968591573916,-0.07586970456267077,2006.5934065934064,-1.0,89.0112278160087,1.3726695233570632,
2023-08-11 17:01:56.851000,-8.93975903614458,-0.3493975903614458,-4.1084337349397595,-0.2575107296137339,-8.79767014101778,-3.6885346413243405,3.0,1.3761793761793761,726.6494595902565,-4.925703630324573,-12.93560981294796,0.12260357788007731,2191.208791208791,-1.0,89.0112278160087,1.3727048865288056,
2023-08-11 17:01:56.859000,-8.903614457831326,-0.3855421686746988,-4.024096385542169,-0.29675045984058857,-8.785407725321887,-3.5634580012262416,3.0,1.3766233766233766,726.4150943396227,-4.48295553872152,-13.97377775187926,0.09206922673503914,2366.300366300366,-1.0,89.0112278160087,1.3727405449990926,
2023-08-11 17:01:56.867000,-8.867469879518072,-0.3855421686746988,-3.951807228915663,-0.2820355610055181,-8.785407725321887,-3.507050889025138,3.0,1.3766233766233766,726.4150943396227,-3.368451721927627,-13.546296835848725,0.24474098246023,2523.076923076923,-1.0,89.0112278160087,1.3727764851103204,
2023-08-11 17:01:56.874000,-8.831325301204819,-0.3855421686746988,-3.91566265060241,-0.32127529123237275,-8.706928264868179,-3.4776210913549965,3.0,1.3766233766233766,726.4150943396227,-2.4371540120039628,-12.218052561039565,0.44321426490297805,2651.2820512820513,-1.0,89.0112278160087,1.3728126931447853,
2023-08-11 17:01:56.882000,-8.831325301204819,-0.3855421686746988,-3.843373493975904,-0.3114653586756591,-8.73635806253832,-3.4923359901900675,3.0,1.377067377067377,726.1808802192488,-1.8722685158207566,-10.29438843890216,0.5348173183380925,2749.4505494505493,-1.0,89.0112278160087,1.3728491552223552,
2023-08-11 17:01:56.890000,-8.843373493975903,-0.3734939759036145,-3.843373493975904,-0.32127529123237275,-8.73635806253832,-3.4064990803188224,3.0,1.3761793761793761,726.6494595902565,-1.0936425616222833,-7.45469378241361,0.8706951809335124,2805.8608058608056,-1.0,89.0112278160087,1.3728858574862772,
2023-08-11 17:01:56.897000,-8.831325301204819,-0.4096385542168675,-3.879518072289157,-0.29429797670141017,-8.709380748007357,-3.4064990803188224,3.0,1.3766233766233766,726.4150943396227,-0.23868072956121478,-4.370724316764756,0.9622982343686269,2805.128205128205,-1.0,89.0112278160087,1.3729227861403908,
2023-08-11 17:01:56.905000,-8.795180722891567,-0.4096385542168675,-3.891566265060241,-0.33353770692826484,-8.763335377069282,-3.504598405885959,3.0,1.3766233766233766,726.4150943396227,0.5704795757822967,-1.0882815686731528,1.0844356389487795,2800.0,-1.0,89.0112278160087,1.3729599272742554,
2023-08-11 17:01:56.913000,-8.783132530120483,-0.43373493975903615,-3.951807228915663,-0.3163703249540159,-8.692213366033108,-3.526670754138565,3.0,1.377067377067377,726.1808802192488,1.2422353009731364,1.7361459122428775,0.8706951809335124,2750.18315018315,-1.0,89.0112278160087,1.3729972669211348,
2023-08-11 17:01:56.920000,-8.795180722891567,-0.43373493975903615,-3.9759036144578315,-0.3605150214592274,-8.709380748007357,-3.56591048436542,3.0,1.377067377067377,726.1808802192488,1.4712429345609226,3.827748965677992,1.0539012878037415,2666.6666666666665,-1.0,89.0112278160087,1.3730347911150536,
2023-08-11 17:01:56.928000,-8.807228915662652,-0.43373493975903615,-4.048192771084338,-0.3727774371551195,-8.650521152667075,-3.6419374616799507,3.0,1.377067377067377,726.1808802192488,2.0208612551716096,5.797214614532954,1.313443272536566,2559.7069597069594,-1.0,89.0112278160087,1.3730724859680523,
2023-08-11 17:01:56.936000,-8.674698795180724,-0.45783132530120485,-4.0361445783132535,-0.3237277743715512,-8.606376456161863,-3.713059472716125,3.0,1.377067377067377,726.1808802192488,2.051395606316648,6.53003904201387,1.1760386923838941,2435.164835164835,-1.0,89.0112278160087,1.3731103375761815,
2023-08-11 17:01:56.943000,-8.795180722891567,-0.43373493975903615,-4.144578313253012,-0.3801348865726548,-8.726548129981605,-3.796443899448191,3.0,1.377067377067377,726.1808802192488,2.1888001864693196,7.781947438960435,1.6340539595594665,2304.7619047619046,-1.0,89.0112278160087,1.373148332211926,
2023-08-11 17:01:56.951000,-8.819277108433736,-0.5060240963855422,-4.240963855421687,-0.44880441446965047,-8.67259350091968,-3.865113427345187,3.0,1.3775113775113772,725.9468170829977,2.2498688887593956,6.621642095448984,1.6340539595594665,2172.8937728937726,-1.0,89.0112278160087,1.373186456484006,
2023-08-11 17:01:56.959000,-8.843373493975903,-0.49397590361445787,-4.240963855421687,-0.42427958307786634,-8.746167995095034,-3.86020846106683,3.0,1.3775113775113772,725.9468170829977,2.4025406444845867,5.0491230114795185,1.2218402191014512,2043.2234432234432,-1.0,89.0112278160087,1.373224697229791,
2023-08-11 17:01:56.966000,-8.867469879518072,-0.46987951807228917,-4.289156626506024,-0.3825873697118332,-8.706928264868179,-3.914163090128755,3.0,1.377067377067377,726.1808802192488,2.295670415476953,3.4002680496474578,1.0386341122312224,1917.216117216117,-1.0,89.0112278160087,1.3732630415873448,
2023-08-11 17:01:56.974000,-8.843373493975903,-0.5060240963855422,-4.325301204819278,-0.45861434702636417,-8.716738197424892,-3.9092581238503983,3.0,1.3775113775113772,725.9468170829977,1.6391818658586326,1.3391993473573816,0.16840510459763455,1797.8021978021977,-1.0,89.0112278160087,1.3733014768853273,
2023-08-11 17:01:56.982000,-8.831325301204819,-0.5180722891566265,-4.325301204819278,-0.4316370324954016,-8.692213366033108,-3.896995708154506,3.0,1.3775113775113772,725.9468170829977,2.081929957461686,-0.11118233203193148,-0.2285414602878616,1684.9816849816848,-1.0,89.0112278160087,1.3733399907978192,
2023-08-11 17:01:56.989000,-8.807228915662652,-0.5301204819277109,-4.289156626506024,-0.4193746167995095,-8.679950950337217,-3.8405885959534025,3.0,1.3775113775113772,725.9468170829977,2.0666627818891667,-2.202785385467046,-0.18273993357030435,1580.9523809523807,-1.0,89.0112278160087,1.3733785715292606,
2023-08-11 17:01:56.997000,-8.783132530120483,-0.5301204819277109,-4.265060240963856,-0.4218270999386879,-8.618638871857755,-3.8749233599019006,3.0,1.3775113775113772,725.9468170829977,1.4712429345609226,-2.79820523279529,-0.1369384068527471,1482.051282051282,-1.0,89.0112278160087,1.3734172077000066,
2023-08-11 17:01:57.005000,-8.783132530120483,-0.5180722891566265,-4.228915662650603,-0.4757817290006131,-8.714285714285714,-3.865113427345187,3.0,1.3775113775113772,725.9468170829977,1.2422353009731364,-3.332556377833458,0.15313792902511547,1387.5457875457876,-1.0,89.0112278160087,1.3734558883690076,
2023-08-11 17:01:57.012000,-8.795180722891567,-0.5421686746987953,-4.216867469879518,-0.463519313304721,-8.662783568362967,-3.8503985285101163,3.0,1.377067377067377,726.1808802192488,1.0437620185303882,-3.8211059961540688,-0.19800710914282343,1298.168498168498,-1.0,89.0112278160087,1.3734946030547452,
2023-08-11 17:01:57.020000,-8.807228915662652,-0.5301204819277109,-4.228915662650603,-0.43408951563458,-8.665236051502145,-3.806253832004905,3.0,1.377067377067377,726.1808802192488,0.814754384942602,-3.256220499970863,-0.25907581143289976,1214.6520146520145,-1.0,89.0112278160087,1.3735333416050297,
2023-08-11 17:01:57.028000,-8.831325301204819,-0.5180722891566265,-4.156626506024097,-0.37522992029429797,-8.726548129981605,-3.806253832004905,3.0,1.3775113775113772,725.9468170829977,0.6162811024998539,-3.1493502709632293,-0.3812132160130524,1141.3919413919414,658.75244140625,91.08125636986937,1.3735720941922787,
2023-08-11 17:01:57.035000,-8.831325301204819,-0.5180722891566265,-4.132530120481928,-0.40465971796443895,-8.692213366033108,-3.747394236664623,3.0,1.3775113775113772,725.9468170829977,0.631548278072373,-2.4928617213449087,-0.10640405570770893,1075.4578754578754,-1.0,91.08125636986937,1.3736108516149843,
2023-08-11 17:01:57.043000,-8.843373493975903,-0.5060240963855422,-4.132530120481928,-0.48068669527896996,-8.699570815450643,-3.7572041692213363,3.0,1.3766233766233766,726.4150943396227,0.28040323990443405,-2.019579278596817,0.3821455626129017,1014.6520146520146,-1.0,91.08125636986937,1.373649605191978,
2023-08-11 17:01:57.050000,-8.843373493975903,-0.5060240963855422,-4.096385542168675,-0.40220723482526055,-8.75107296137339,-3.737584304107909,3.0,1.377067377067377,726.1808802192488,0.4178078200571058,-1.5920983625662826,0.2294738068877109,964.8351648351647,-1.0,91.08125636986937,1.3736883467721805,
2023-08-11 17:01:57.058000,-8.879518072289157,-0.5180722891566265,-4.096385542168675,-0.45861434702636417,-8.775597792765174,-3.7719190680564068,3.0,1.3775113775113772,725.9468170829977,-0.05547462269098577,-0.9203426373754429,0.7485577763533597,925.2747252747253,-1.0,91.08125636986937,1.373727068796475,
2023-08-11 17:01:57.066000,-8.855421686746988,-0.5180722891566265,-4.096385542168675,-0.41446965052115264,-8.692213366033108,-3.715511955855303,3.0,1.3775113775113772,725.9468170829977,0.28040323990443405,-0.0806479808868933,0.794359303070917,900.3663003663003,-1.0,91.08125636986937,1.3737657643242611,
2023-08-11 17:01:57.073000,-8.879518072289157,-0.5180722891566265,-4.132530120481928,-0.39239730226854685,-8.778050275904352,-3.725321888412017,3.0,1.3775113775113772,725.9468170829977,0.6773498047899302,0.3010314084260838,0.611153196200688,889.3772893772893,-1.0,91.08125636986937,1.3738044269298029,
2023-08-11 17:01:57.081000,-8.879518072289157,-0.5421686746987953,-4.120481927710844,-0.4316370324954016,-8.748620478234212,-3.7351318209687308,3.0,1.3775113775113772,725.9468170829977,0.5857467513548157,0.8506497290367708,0.6722218984907643,893.7728937728937,-1.0,91.08125636986937,1.373843050724283,
2023-08-11 17:01:57.089000,-8.891566265060241,-0.5421686746987953,-4.156626506024097,-0.41446965052115264,-8.758430410790925,-3.7743715511955855,3.0,1.3775113775113772,725.9468170829977,0.9368917895227546,1.2781306450673051,0.9012295320785506,908.4249084249084,-1.0,91.08125636986937,1.3738816303437982,
2023-08-11 17:01:57.096000,-8.867469879518072,-0.5662650602409639,-4.1807228915662655,-0.4414469650521152,-8.709380748007357,-3.835683629675046,3.0,1.3775113775113772,725.9468170829977,0.6620826292174111,1.5224054542276104,0.992832585513665,936.9963369963369,-1.0,91.08125636986937,1.3739201608172695,
2023-08-11 17:01:57.104000,-8.867469879518072,-0.5662650602409639,-4.228915662650603,-0.4880441446965052,-8.805027590435316,-3.8013488657265477,3.0,1.3775113775113772,725.9468170829977,0.9368917895227546,1.7056115610978395,0.7485577763533597,979.4871794871794,-1.0,91.08125636986937,1.373958637708745,
2023-08-11 17:01:57.112000,-8.867469879518072,-0.5542168674698795,-4.168674698795181,-0.4904966278356836,-8.721643163703249,-3.884733292458614,3.0,1.3775113775113772,725.9468170829977,0.7689528582250448,1.4155352252199769,0.6722218984907643,1030.7692307692307,-1.0,91.08125636986937,1.3739970571081355,
2023-08-11 17:01:57.119000,-8.855421686746988,-0.5421686746987953,-4.216867469879518,-0.49294911097486205,-8.758430410790925,-3.8111587982832615,3.0,1.377955377955378,725.7129047849203,0.7689528582250448,1.4155352252199769,0.6722218984907643,1089.3772893772893,-1.0,91.08125636986937,1.3740354156197194,
2023-08-11 17:01:57.127000,-8.843373493975903,-0.5542168674698795,-4.1807228915662655,-0.43408951563458,-8.724095646842427,-3.818516247700797,3.0,1.377955377955378,725.7129047849203,0.7231513315074874,1.7361459122428775,0.5195501427655734,1147.2527472527472,-1.0,91.08125636986937,1.3740737104977496,
2023-08-11 17:01:57.135000,-8.819277108433736,-0.5542168674698795,-4.240963855421687,-0.41201716738197425,-8.687308399754752,-3.843041079092581,3.0,1.377955377955378,725.7129047849203,0.9674261406677929,1.476603927510053,0.4890157916205353,1202.197802197802,-1.0,91.08125636986937,1.3741119396525245,
2023-08-11 17:01:57.142000,-8.771084337349398,-0.5180722891566265,-4.253012048192772,-0.45861434702636417,-8.630901287553648,-3.9043531575720416,3.0,1.3775113775113772,725.9468170829977,0.7689528582250448,1.5529398053726486,0.06153487559000098,1249.084249084249,-1.0,91.08125636986937,1.3741501013567197,
2023-08-11 17:01:57.150000,-8.795180722891567,-0.5301204819277109,-4.240963855421687,-0.43654199877375843,-8.667688534641323,-3.8528510116492947,3.0,1.377955377955378,725.7129047849203,0.21933453761435773,0.8659169046092898,-0.09113688013518985,1290.8424908424909,-1.0,91.08125636986937,1.3741881942372662,
2023-08-11 17:01:57.158000,-8.783132530120483,-0.5060240963855422,-4.27710843373494,-0.40465971796443895,-8.699570815450643,-3.830778663396689,3.0,1.3775113775113772,725.9468170829977,-0.08600897383602393,0.896451255754328,-0.12167123128022803,1323.8095238095236,-1.0,91.08125636986937,1.3742262173719755,
2023-08-11 17:01:57.165000,-8.771084337349398,-0.5060240963855422,-4.27710843373494,-0.3973022685469037,-8.709380748007357,-3.8454935622317596,3.0,1.377955377955378,725.7129047849203,0.47887652234718214,0.34683293514364105,-0.3201445137229761,1347.2527472527472,-1.0,91.08125636986937,1.3742641701491844,
2023-08-11 17:01:57.173000,-8.759036144578314,-0.46987951807228917,-4.253012048192772,-0.37768240343347637,-8.633353770692827,-3.796443899448191,3.0,1.377955377955378,725.7129047849203,0.2346017131868768,-0.004312103024297892,-0.5033506205932051,1365.5677655677655,-1.0,91.08125636986937,1.3743020525203853,
2023-08-11 17:01:57.181000,-8.783132530120483,-0.46987951807228917,-4.240963855421687,-0.32127529123237275,-8.640711220110362,-3.867565910484365,3.0,1.377955377955378,725.7129047849203,-0.10127614940854301,0.026222248120740276,-0.5949536740283196,1378.021978021978,-1.0,91.08125636986937,1.3743398649747232,
2023-08-11 17:01:57.188000,-8.795180722891567,-0.46987951807228917,-4.216867469879518,-0.3359901900674433,-8.601471489883506,-3.7988963825873694,3.0,1.377955377955378,725.7129047849203,-0.20814637841617661,-0.11118233203193148,-0.7934269564710676,1384.6153846153845,-1.0,91.08125636986937,1.3743776083847803,
2023-08-11 17:01:57.196000,-8.771084337349398,-0.46987951807228917,-4.216867469879518,-0.3678724708767627,-8.675045984058858,-3.825873697118332,3.0,1.377067377067377,726.1808802192488,-0.04020744711846669,0.11782530155585477,-0.5033506205932051,1383.8827838827838,-1.0,91.08125636986937,1.3744152839689345,
2023-08-11 17:01:57.204000,-8.783132530120483,-0.44578313253012053,-4.216867469879518,-0.3507050889025138,-8.694665849172287,-3.8749233599019006,3.0,1.3775113775113772,725.9468170829977,-0.10127614940854301,0.05675659926577844,-0.7781597808985486,1376.5567765567764,-1.0,91.08125636986937,1.3744528931139721,
2023-08-11 17:01:57.211000,-8.819277108433736,-0.45783132530120485,-4.228915662650603,-0.3703249540159411,-8.711833231146535,-3.835683629675046,3.0,1.377955377955378,725.7129047849203,0.49414369791970125,0.4537031641512746,-0.6560223763183959,1360.4395604395604,-1.0,91.08125636986937,1.3744904375595006,
2023-08-11 17:01:57.219000,-8.819277108433736,-0.46987951807228917,-4.216867469879518,-0.37522992029429797,-8.753525444512569,-3.8577559779276513,3.0,1.377955377955378,725.7129047849203,0.09719713303420506,0.6674436221665417,-0.6865567274634341,1337.7289377289376,-1.0,91.08125636986937,1.3745279193781954,
2023-08-11 17:01:57.227000,-8.831325301204819,-0.46987951807228917,-4.19277108433735,-0.39975475168608215,-8.702023298589822,-3.825873697118332,3.0,1.377955377955378,725.7129047849203,0.2346017131868768,1.7819474389604348,-0.47281626944816696,1311.3553113553112,-1.0,91.08125636986937,1.3745653408486023,
2023-08-11 17:01:57.234000,-8.867469879518072,-0.4819277108433735,-4.19277108433735,-0.3531575720416922,-8.726548129981605,-3.8798283261802573,3.0,1.377955377955378,725.7129047849203,-0.024940271545947603,1.965153545830664,-0.4117475671580906,1281.3186813186812,-1.0,91.08125636986937,1.3746027044343905,
2023-08-11 17:01:57.242000,-8.867469879518072,-0.49397590361445787,-4.228915662650603,-0.35806253832004903,-8.731453096259962,-3.8209687308399753,3.0,1.377955377955378,725.7129047849203,-0.00967309597342852,2.331565759571122,-0.36594604044053336,1251.2820512820513,-1.0,91.08125636986937,1.3746400126138412,
2023-08-11 17:01:57.250000,-8.867469879518072,-0.4819277108433735,-4.228915662650603,-0.41446965052115264,-8.763335377069282,-3.90680564071122,3.0,1.377955377955378,725.7129047849203,-0.16234485169861934,2.1788940038459312,-0.36594604044053336,1221.245421245421,-1.0,91.08125636986937,1.3746772680069002,
2023-08-11 17:01:57.257000,-8.867469879518072,-0.5060240963855422,-4.204819277108434,-0.34825260576333533,-8.755977927651747,-3.9043531575720416,3.0,1.377955377955378,725.7129047849203,-0.4829555387215201,2.1788940038459312,-0.2896101625779379,1196.3369963369962,-1.0,91.08125636986937,1.3747144734705101,
2023-08-11 17:01:57.265000,-8.879518072289157,-0.49397590361445787,-4.240963855421687,-0.4438994481912937,-8.824647455548742,-3.8528510116492947,3.0,1.3783993783993782,725.479143179256,-0.6203601188741918,1.7819474389604348,-0.18273993357030435,1171.4285714285713,-1.0,91.08125636986937,1.3747516319171764,
2023-08-11 17:01:57.273000,-8.867469879518072,-0.5180722891566265,-4.216867469879518,-0.43899448191293683,-8.71919068056407,-3.90680564071122,3.0,1.377955377955378,725.7129047849203,-0.7424975234543445,0.9727871336169235,-0.060602528990151686,1150.18315018315,-1.0,91.08125636986937,1.3747887464321895,
2023-08-11 17:01:57.280000,-8.891566265060241,-0.49397590361445787,-4.253012048192772,-0.40220723482526055,-8.768240343347639,-3.8528510116492947,3.0,1.3783993783993782,725.479143179256,-0.9715051570421308,0.4537031641512746,-0.045335353417632604,1128.937728937729,-1.0,91.08125636986937,1.3748258201143415,
2023-08-11 17:01:57.288000,-8.867469879518072,-0.49397590361445787,-4.216867469879518,-0.3801348865726548,-8.75107296137339,-3.877375843041079,3.0,1.377955377955378,725.7129047849203,-1.2005127906299171,-0.47759454577238947,-0.014801002272594435,1110.6227106227107,-1.0,91.08125636986937,1.3748628560347333,
2023-08-11 17:01:57.296000,-8.867469879518072,-0.4819277108433735,-4.204819277108434,-0.41446965052115264,-8.706928264868179,-3.7866339668914772,3.0,1.377955377955378,725.7129047849203,-1.383718897500146,-1.2714876755433817,-0.014801002272594435,1097.4358974358975,-1.0,91.08125636986937,1.3748998572171995,
2023-08-11 17:01:57.303000,-8.843373493975903,-0.4819277108433735,-4.1807228915662655,-0.3408951563458001,-8.706928264868179,-3.8332311465358675,3.0,1.377955377955378,725.7129047849203,-1.7806654623856422,-1.9585105763067405,0.3210768603228254,1082.7838827838827,-1.0,91.08125636986937,1.3749368264490232,
2023-08-11 17:01:57.311000,-8.843373493975903,-0.5060240963855422,-4.168674698795181,-0.3801348865726548,-8.770692826486817,-3.7572041692213363,3.0,1.377955377955378,725.7129047849203,-2.0096730959734286,-2.447060194627351,0.39741273818542083,1068.8644688644688,-1.0,91.08125636986937,1.374973766390204,
2023-08-11 17:01:57.319000,-8.843373493975903,-0.49397590361445787,-4.132530120481928,-0.37768240343347637,-8.716738197424892,-3.81361128142244,3.0,1.377955377955378,725.7129047849203,-1.765398286813123,-2.8440067595128475,0.12260357788007731,1059.3406593406592,-1.0,91.08125636986937,1.3750106795447528,
2023-08-11 17:01:57.326000,-8.855421686746988,-0.49397590361445787,-4.120481927710844,-0.3727774371551195,-8.702023298589822,-3.76701410177805,3.0,1.377955377955378,725.7129047849203,-2.086008973836024,-2.8592739350853664,-0.03006817784511352,1048.3516483516482,-1.0,91.08125636986937,1.3750475682328769,
2023-08-11 17:01:57.334000,-8.843373493975903,-0.5060240963855422,-4.0843373493975905,-0.42427958307786634,-8.682403433476395,-3.7302268546903736,3.0,1.3783993783993782,725.479143179256,-1.8875356913932757,-2.584464774780023,-0.18273993357030435,1042.4908424908424,-1.0,91.08125636986937,1.3750844345641466,
2023-08-11 17:01:57.342000,-8.831325301204819,-0.5180722891566265,-4.132530120481928,-0.4218270999386879,-8.748620478234212,-3.708154506437768,3.0,1.3783993783993782,725.479143179256,-1.5974593555154133,-2.0959151564594123,-0.35067886486801425,1038.8278388278388,-1.0,91.08125636986937,1.375121280561035,
2023-08-11 17:01:57.349000,-8.819277108433736,-0.5060240963855422,-4.1084337349397595,-0.4414469650521152,-8.724095646842427,-3.6689147762109133,3.0,1.3775113775113772,725.9468170829977,-0.8951692791795354,-1.5462968358487252,-0.5338849717382432,1038.095238095238,-1.0,91.08125636986937,1.3751581080174655,
2023-08-11 17:01:57.357000,-8.831325301204819,-0.5421686746987953,-4.1084337349397595,-0.4438994481912937,-8.709380748007357,-3.6934396076026976,3.0,1.377955377955378,725.7129047849203,-1.0478410349047262,-1.1951517976807864,-0.2285414602878616,1039.5604395604396,-1.0,91.08125636986937,1.3751949184764496,
2023-08-11 17:01:57.365000,-8.867469879518072,-0.5301204819277109,-4.096385542168675,-0.49294911097486205,-8.746167995095034,-3.784181483752299,3.0,1.377955377955378,725.7129047849203,-0.3913524852864056,-0.2791212633296414,-0.5491521473107623,1041.7582417582416,-1.0,91.08125636986937,1.37523171326361,
2023-08-11 17:01:57.372000,-8.855421686746988,-0.5180722891566265,-4.120481927710844,-0.41446965052115264,-8.79767014101778,-3.7228694052728386,3.0,1.377955377955378,725.7129047849203,0.02086125517160965,0.3773672862886792,-0.045335353417632604,1044.6886446886447,-1.0,91.08125636986937,1.3752684932011707,
2023-08-11 17:01:57.380000,-8.867469879518072,-0.5421686746987953,-4.1084337349397595,-0.49785407725321884,-8.753525444512569,-3.7719190680564068,3.0,1.3783993783993782,725.479143179256,-0.04020744711846669,0.8506497290367708,-0.09113688013518985,1044.6886446886447,-1.0,91.08125636986937,1.3753052584822472,
2023-08-11 17:01:57.388000,-8.855421686746988,-0.5301204819277109,-4.1084337349397595,-0.40220723482526055,-8.729000613120784,-3.717964438994482,3.0,1.3783993783993782,725.479143179256,0.265136064331915,1.6140085076627249,0.21420663131519183,1041.7582417582416,-1.0,91.08125636986937,1.3753420089719348,
2023-08-11 17:01:57.395000,-8.867469879518072,-0.5060240963855422,-4.144578313253012,-0.4414469650521152,-8.73635806253832,-3.7621091354996934,3.0,1.3783993783993782,725.479143179256,0.265136064331915,1.6140085076627249,0.21420663131519183,1039.5604395604396,-1.0,91.08125636986937,1.375378744360852,
2023-08-11 17:01:57.403000,-8.831325301204819,-0.5060240963855422,-4.132530120481928,-0.37768240343347637,-8.726548129981605,-3.816063764561618,3.0,1.3783993783993782,725.479143179256,0.5246780490647394,2.0567565992657784,0.5042829671930544,1039.5604395604396,-1.0,91.08125636986937,1.3754154640122565,
2023-08-11 17:01:57.411000,-8.879518072289157,-0.4819277108433735,-4.132530120481928,-0.41201716738197425,-8.770692826486817,-3.7277743715511953,3.0,1.3783993783993782,725.479143179256,0.7689528582250448,2.209428354990969,0.7027562496358025,1043.2234432234432,-1.0,91.08125636986937,1.3754521669499116,
2023-08-11 17:01:57.418000,-8.879518072289157,-0.42168674698795183,-4.096385542168675,-0.30656039239730226,-8.726548129981605,-3.7645616186388717,3.0,1.3783993783993782,725.479143179256,0.4178078200571058,2.4689703397237936,0.6416875473457262,1050.5494505494505,-1.0,91.08125636986937,1.375488851848006,
2023-08-11 17:01:57.426000,-8.867469879518072,-0.5180722891566265,-4.1807228915662655,-0.4071122011036174,-8.758430410790925,-3.825873697118332,3.0,1.3783993783993782,725.479143179256,-0.10127614940854301,3.0033214847619614,0.7638249519258788,1059.3406593406592,-1.0,91.08125636986937,1.3755255170231158,
2023-08-11 17:01:57.433000,-8.855421686746988,-0.46987951807228917,-4.204819277108434,-0.43899448191293683,-8.748620478234212,-3.8798283261802573,3.0,1.3788433788433787,725.2455321204316,0.0666627818891669,2.0720237748382972,0.6569547229182452,1067.3992673992673,-1.0,91.08125636986937,1.375562160428209,
2023-08-11 17:01:57.441000,-8.855421686746988,-0.43373493975903615,-4.204819277108434,-0.31882280809319435,-8.724095646842427,-3.808706315144083,3.0,1.3783993783993782,725.479143179256,0.4636093467746631,1.5682069809451678,0.7180234252083215,1079.8534798534797,-1.0,91.08125636986937,1.375598779797977,
2023-08-11 17:01:57.449000,-8.831325301204819,-0.42168674698795183,-4.1807228915662655,-0.3359901900674433,-8.697118332311465,-3.855303494788473,3.0,1.3788433788433787,725.2455321204316,0.21933453761435773,0.2552298817085265,0.9470310587961078,1098.168498168498,-1.0,91.08125636986937,1.375635372519446,
2023-08-11 17:01:57.456000,-8.783132530120483,-0.44578313253012053,-4.19277108433735,-0.41446965052115264,-8.71919068056407,-3.789086450030656,3.0,1.3783993783993782,725.479143179256,-0.00967309597342852,0.19416117941845018,1.0386341122312224,1128.937728937729,-1.0,91.08125636986937,1.3756719356223435,
2023-08-11 17:01:57.464000,-8.843373493975903,-0.44578313253012053,-4.240963855421687,-0.3237277743715512,-8.68976088289393,-3.8209687308399753,3.0,1.3788433788433787,725.2455321204316,-1.002039508187169,0.5911077443039464,0.6569547229182452,1180.2197802197802,-1.0,91.08125636986937,1.375708465792534,
2023-08-11 17:01:57.472000,-8.795180722891567,-0.39759036144578314,-4.216867469879518,-0.24034334763948498,-8.721643163703249,-3.847946045370938,3.0,1.3788433788433787,725.2455321204316,-0.2997494318512911,-0.752403706077733,0.8554280053609933,1261.5384615384614,-1.0,91.08125636986937,1.3757449592275863,
2023-08-11 17:01:57.479000,-8.795180722891567,-0.39759036144578314,-4.156626506024097,-0.33108522378908645,-8.640711220110362,-3.7915389331698344,3.0,1.3788433788433787,725.2455321204316,-1.002039508187169,-1.3630907289784964,0.9012295320785506,1375.091575091575,-1.0,91.08125636986937,1.3757814118237062,
2023-08-11 17:01:57.487000,-8.807228915662652,-0.3734939759036145,-4.19277108433735,-0.29429797670141017,-8.662783568362967,-3.7572041692213363,3.0,1.3783993783993782,725.479143179256,-0.9104364547520545,-1.30202202668842,0.9317638832235887,1520.8791208791208,-1.0,91.08125636986937,1.3758178191943022,
2023-08-11 17:01:57.495000,-8.807228915662652,-0.39759036144578314,-4.19277108433735,-0.3041079092581238,-8.667688534641323,-3.754751686082158,3.0,1.3788433788433787,725.2455321204316,-1.2005127906299171,-1.1951517976807864,0.44321426490297805,1695.970695970696,-1.0,91.08125636986937,1.3758541765307002,
2023-08-11 17:01:57.502000,-8.807228915662652,-0.4096385542168675,-4.144578313253012,-0.3139178418148375,-8.702023298589822,-3.8038013488657265,3.0,1.377955377955378,725.7129047849203,-1.2463143173474742,-1.0272128663830764,0.36687838704038267,1890.1098901098899,-1.0,91.08125636986937,1.3758904787414616,
2023-08-11 17:01:57.510000,-8.843373493975903,-0.42168674698795183,-4.144578313253012,-0.32127529123237275,-8.716738197424892,-3.784181483752299,3.0,1.3783993783993782,725.479143179256,-0.7577646990268636,-0.7218693549326948,0.5653516694831308,2094.5054945054944,-1.0,91.08125636986937,1.3759267206039094,
2023-08-11 17:01:57.518000,-8.843373493975903,-0.4096385542168675,-4.168674698795181,-0.3408951563458001,-8.682403433476395,-3.7277743715511953,3.0,1.3783993783993782,725.479143179256,-0.6814288211642682,-0.584464774780023,0.35161121146786356,2298.168498168498,-1.0,91.08125636986937,1.3759628965665491,
2023-08-11 17:01:57.525000,-8.867469879518072,-0.4096385542168675,-4.168674698795181,-0.3507050889025138,-8.760882893930104,-3.8111587982832615,3.0,1.3788433788433787,725.2455321204316,-0.9104364547520545,-0.6455334770700994,0.5195501427655734,2493.040293040293,-1.0,91.08125636986937,1.3759990007861331,
2023-08-11 17:01:57.533000,-8.855421686746988,-0.42168674698795183,-4.132530120481928,-0.33108522378908645,-8.706928264868179,-3.838136112814224,3.0,1.3788433788433787,725.2455321204316,-0.5134898898665583,-0.5539304236349849,0.3821455626129017,2662.271062271062,-1.0,91.08125636986937,1.3760350273043898,
2023-08-11 17:01:57.541000,-8.891566265060241,-0.42168674698795183,-4.156626506024097,-0.30901287553648066,-8.733905579399142,-3.7424892703862658,3.0,1.3788433788433787,725.2455321204316,-0.6050929433016727,-0.4623273701998704,0.45848144047549716,2798.5347985347985,-1.0,91.08125636986937,1.376070970087668,
2023-08-11 17:01:57.548000,-8.879518072289157,-0.43373493975903615,-4.168674698795181,-0.3507050889025138,-8.802575107296137,-3.8013488657265477,3.0,1.3792873792873792,725.0120714630614,-0.08600897383602393,-0.4928617213449086,0.5042829671930544,2805.8608058608056,-1.0,91.08125636986937,1.376106822908371,
2023-08-11 17:01:57.556000,-8.879518072289157,-0.4096385542168675,-4.168674698795181,-0.32127529123237275,-8.763335377069282,-3.7572041692213363,3.0,1.3788433788433787,725.2455321204316,0.036128430744128734,-0.24858691218460321,0.35161121146786356,2805.128205128205,-1.0,91.08125636986937,1.3761425793764683,
2023-08-11 17:01:57.564000,-8.891566265060241,-0.42168674698795183,-4.156626506024097,-0.34334763948497854,-8.790312691600246,-3.7572041692213363,3.0,1.3792873792873792,725.0120714630614,0.28040323990443405,-0.41652584348231314,0.2752753336052681,2805.8608058608056,-1.0,91.08125636986937,1.3761782328540566,
2023-08-11 17:01:57.571000,-8.879518072289157,-0.4096385542168675,-4.1807228915662655,-0.3237277743715512,-8.753525444512569,-3.7988963825873694,3.0,1.3792873792873792,725.0120714630614,0.1582658353242814,-0.15698385874948872,0.4890157916205353,2805.8608058608056,-1.0,91.08125636986937,1.3762137766157851,
2023-08-11 17:01:57.579000,-8.843373493975903,-0.4096385542168675,-4.168674698795181,-0.299202942979767,-8.782955242182709,-3.8038013488657265,3.0,1.3792873792873792,725.0120714630614,0.17353301089680048,0.05675659926577844,0.39741273818542083,2805.128205128205,-1.0,91.08125636986937,1.376249204030982,
2023-08-11 17:01:57.587000,-8.843373493975903,-0.44578313253012053,-4.144578313253012,-0.30901287553648066,-8.73635806253832,-3.808706315144083,3.0,1.3792873792873792,725.0120714630614,0.5704795757822967,0.22469553056348837,0.4890157916205353,2778.0219780219777,-1.0,91.08125636986937,1.3762845084484592,
2023-08-11 17:01:57.594000,-8.843373493975903,-0.43373493975903615,-4.19277108433735,-0.3237277743715512,-8.670141017780502,-3.8332311465358675,3.0,1.3792873792873792,725.0120714630614,0.7842200337975638,-0.05011362974185514,0.5806188450556499,2692.307692307692,-1.0,91.08125636986937,1.3763196832204758,
2023-08-11 17:01:57.602000,-8.819277108433736,-0.43373493975903615,-4.1807228915662655,-0.3605150214592274,-8.694665849172287,-3.808706315144083,3.0,1.3792873792873792,725.0120714630614,0.47887652234718214,0.07202377483829753,0.611153196200688,2578.7545787545787,-1.0,91.08125636986937,1.3763547217269445,
2023-08-11 17:01:57.610000,-8.819277108433736,-0.43373493975903615,-4.204819277108434,-0.3163703249540159,-8.660331085223788,-3.7939914163090127,3.0,1.3792873792873792,725.0120714630614,0.3109375910494722,-0.15698385874948872,0.5348173183380925,2444.6886446886447,-1.0,91.08125636986937,1.3763896173997239,
2023-08-11 17:01:57.617000,-8.819277108433736,-0.42168674698795183,-4.19277108433735,-0.31882280809319435,-8.706928264868179,-3.779276517473942,3.0,1.3792873792873792,725.0120714630614,0.5704795757822967,-0.05011362974185514,0.5806188450556499,2299.6336996336995,-1.0,91.08125636986937,1.3764243637468245,
2023-08-11 17:01:57.625000,-8.819277108433736,-0.42168674698795183,-4.168674698795181,-0.3408951563458001,-8.655426118945432,-3.808706315144083,3.0,1.3792873792873792,725.0120714630614,0.2498688887593959,-0.21805256103956505,0.5042829671930544,2153.846153846154,-1.0,91.08125636986937,1.3764589543763772,
2023-08-11 17:01:57.633000,-8.807228915662652,-0.43373493975903615,-4.156626506024097,-0.29429797670141017,-8.758430410790925,-3.7817290006131206,3.0,1.3792873792873792,725.0120714630614,0.11246430860672414,-0.3401899656197177,0.7638249519258788,2012.4542124542122,-1.0,91.08125636986937,1.3764933828814563,
2023-08-11 17:01:57.640000,-8.795180722891567,-0.44578313253012053,-4.132530120481928,-0.4095646842427958,-8.687308399754752,-3.7939914163090127,3.0,1.3792873792873792,725.0120714630614,-0.1165433249810621,-0.1875182098945269,0.3821455626129017,1879.8534798534797,-1.0,91.08125636986937,1.3765276428834654,
2023-08-11 17:01:57.648000,-8.843373493975903,-0.43373493975903615,-4.144578313253012,-0.3163703249540159,-8.73635806253832,-3.806253832004905,3.0,1.3797313797313795,724.778761061947,-0.26921508070625294,-0.05011362974185514,-0.03006817784511352,1756.7765567765566,-1.0,91.08125636986937,1.3765617282024323,
2023-08-11 17:01:57.656000,-8.855421686746988,-0.45783132530120485,-4.144578313253012,-0.3654199877375843,-8.724095646842427,-3.818516247700797,3.0,1.3783993783993782,725.479143179256,0.036128430744128734,-0.20278538546704597,0.3210768603228254,1639.5604395604394,-1.0,91.08125636986937,1.3765956328878979,
2023-08-11 17:01:57.663000,-8.867469879518072,-0.43373493975903615,-4.144578313253012,-0.39239730226854685,-8.743715511955855,-3.7277743715511953,3.0,1.3788433788433787,725.2455321204316,-0.26921508070625294,-0.6302663014975803,0.15313792902511547,1531.135531135531,-1.0,91.08125636986937,1.376629351110323,
2023-08-11 17:01:57.671000,-8.855421686746988,-0.43373493975903615,-4.168674698795181,-0.38994481912936846,-8.814837522992029,-3.744941753525444,3.0,1.3788433788433787,725.2455321204316,-0.26921508070625294,-0.6302663014975803,0.15313792902511547,1432.2344322344322,-1.0,91.08125636986937,1.3766628770947829,
2023-08-11 17:01:57.679000,-8.879518072289157,-0.43373493975903615,-4.120481927710844,-0.4071122011036174,-8.724095646842427,-3.715511955855303,3.0,1.3792873792873792,725.0120714630614,-0.33028378299632927,-0.32492279004719865,-0.10640405570770893,1341.3919413919414,651.092529296875,92.15280056245606,1.3766962052967195,
2023-08-11 17:01:57.686000,-8.891566265060241,-0.46987951807228917,-4.120481927710844,-0.3703249540159411,-8.724095646842427,-3.7204169221336603,3.0,1.3792873792873792,725.0120714630614,-0.3455509585688484,-0.4012586679097941,-0.03006817784511352,1259.3406593406592,-1.0,92.15280056245606,1.3767293305762351,
2023-08-11 17:01:57.694000,-8.867469879518072,-0.45783132530120485,-4.096385542168675,-0.35806253832004903,-8.770692826486817,-3.7204169221336603,3.0,1.3792873792873792,725.0120714630614,0.08192995746168598,-0.7371365305052139,0.031000524444962815,1182.4175824175823,-1.0,92.15280056245606,1.3767622480941724,
2023-08-11 17:01:57.702000,-8.879518072289157,-0.45783132530120485,-4.096385542168675,-0.3531575720416922,-8.778050275904352,-3.7106069895769465,3.0,1.3788433788433787,725.2455321204316,-0.36081813414136743,-0.6149991259250612,0.2294738068877109,1111.3553113553112,-1.0,92.15280056245606,1.3767949532067938,
2023-08-11 17:01:57.709000,-8.879518072289157,-0.4819277108433735,-4.132530120481928,-0.3703249540159411,-8.755977927651747,-3.725321888412017,3.0,1.3788433788433787,725.2455321204316,0.20406736204183865,-0.4623273701998704,0.3363440358953445,1046.1538461538462,-1.0,92.15280056245606,1.3768274414760386,
2023-08-11 17:01:57.717000,-8.867469879518072,-0.45783132530120485,-4.1084337349397595,-0.4316370324954016,-8.763335377069282,-3.7915389331698344,3.0,1.3792873792873792,725.0120714630614,0.4025406444845867,-0.6760678282151376,0.3058096847503063,989.010989010989,-1.0,92.15280056245606,1.376859708656497,
2023-08-11 17:01:57.725000,-8.855421686746988,-0.46987951807228917,-4.132530120481928,-0.3629675045984059,-8.768240343347639,-3.7694665849172284,3.0,1.3792873792873792,725.0120714630614,0.20406736204183865,-0.5233960724899467,0.39741273818542083,939.9267399267399,-1.0,92.15280056245606,1.3768917509891672,
2023-08-11 17:01:57.732000,-8.891566265060241,-0.45783132530120485,-4.120481927710844,-0.3384426732066217,-8.792765174739424,-3.7204169221336603,3.0,1.3792873792873792,725.0120714630614,0.3262047666219913,-0.15698385874948872,0.36687838704038267,907.6923076923076,-1.0,92.15280056245606,1.3769235652273153,
2023-08-11 17:01:57.740000,-8.855421686746988,-0.45783132530120485,-4.144578313253012,-0.37522992029429797,-8.782955242182709,-3.7277743715511953,3.0,1.3792873792873792,725.0120714630614,0.5552124002097776,-0.11118233203193148,0.35161121146786356,887.1794871794871,-1.0,92.15280056245606,1.376955148362889,
2023-08-11 17:01:57.748000,-8.867469879518072,-0.46987951807228917,-4.156626506024097,-0.3384426732066217,-8.773145309625995,-3.7743715511955855,3.0,1.3792873792873792,725.0120714630614,0.7842200337975638,0.3621001107161601,0.10733640230755823,881.3186813186812,-1.0,92.15280056245606,1.3769864976491621,
2023-08-11 17:01:57.755000,-8.867469879518072,-0.46987951807228917,-4.144578313253012,-0.38994481912936846,-8.714285714285714,-3.7228694052728386,3.0,1.3792873792873792,725.0120714630614,0.7842200337975638,0.53003904201387,4.6617329992464763E-4,887.9120879120878,-1.0,92.15280056245606,1.3770176107493504,
2023-08-11 17:01:57.763000,-8.867469879518072,-0.46987951807228917,-4.144578313253012,-0.38749233599019006,-8.773145309625995,-3.81361128142244,3.0,1.3792873792873792,725.0120714630614,0.8758230872326783,0.6369092710215036,-0.18273993357030435,906.2271062271062,-1.0,92.15280056245606,1.3770484857344225,
2023-08-11 17:01:57.771000,-8.855421686746988,-0.46987951807228917,-4.156626506024097,-0.34334763948497854,-8.768240343347639,-3.8234212139791537,3.0,1.3797313797313795,724.778761061947,0.4636093467746631,0.6827107977390608,-0.060602528990151686,934.065934065934,-1.0,92.15280056245606,1.3770791209406483,
2023-08-11 17:01:57.778000,-8.867469879518072,-0.45783132530120485,-4.144578313253012,-0.35806253832004903,-8.743715511955855,-3.7743715511955855,3.0,1.3792873792873792,725.0120714630614,0.7078841559349685,0.8506497290367708,0.2294738068877109,972.1611721611721,-1.0,92.15280056245606,1.3771095151340451,
2023-08-11 17:01:57.786000,-8.855421686746988,-0.46987951807228917,-4.132530120481928,-0.3605150214592274,-8.73635806253832,-3.825873697118332,3.0,1.3797313797313795,724.778761061947,0.8605559116601592,0.514771866441351,-0.25907581143289976,1016.8498168498168,-1.0,92.15280056245606,1.3771396675241996,
2023-08-11 17:01:57.794000,-8.843373493975903,-0.46987951807228917,-4.132530120481928,-0.41201716738197425,-8.704475781729,-3.8013488657265477,3.0,1.3792873792873792,725.0120714630614,0.8758230872326783,0.7132451488840991,0.0462677000174819,1064.4688644688645,-1.0,92.15280056245606,1.3771695777452337,
2023-08-11 17:01:57.801000,-8.855421686746988,-0.45783132530120485,-4.1807228915662655,-0.32127529123237275,-8.768240343347639,-3.7939914163090127,3.0,1.3797313797313795,724.778761061947,0.265136064331915,0.7437795000291372,-0.21327428471534252,1113.5531135531135,-1.0,92.15280056245606,1.3771992458566231,
2023-08-11 17:01:57.809000,-8.855421686746988,-0.44578313253012053,-4.156626506024097,-0.3237277743715512,-8.755977927651747,-3.784181483752299,3.0,1.3788433788433787,725.2455321204316,0.4178078200571058,0.7285123244566181,-0.30487733815045703,1162.6373626373625,-1.0,92.15280056245606,1.3772286721829818,
2023-08-11 17:01:57.816000,-8.831325301204819,-0.43373493975903615,-4.1807228915662655,-0.3801348865726548,-8.738810545677499,-3.7915389331698344,3.0,1.3792873792873792,725.0120714630614,0.2346017131868768,0.3010314084260838,-0.12167123128022803,1211.7216117216117,-1.0,92.15280056245606,1.3772578574610586,
2023-08-11 17:01:57.824000,-8.819277108433736,-0.44578313253012053,-4.156626506024097,-0.3678724708767627,-8.714285714285714,-3.86020846106683,3.0,1.3797313797313795,724.778761061947,0.11246430860672414,0.49950469086883187,0.19893945574267274,1255.6776556776556,-1.0,92.15280056245606,1.3772868027625205,
2023-08-11 17:01:57.832000,-8.831325301204819,-0.46987951807228917,-4.156626506024097,-0.3507050889025138,-8.682403433476395,-3.838136112814224,3.0,1.3797313797313795,724.778761061947,0.29567041547695316,0.04148942369325936,0.18367228017015363,1292.3076923076922,-1.0,92.15280056245606,1.37731550964899,
2023-08-11 17:01:57.839000,-8.843373493975903,-0.44578313253012053,-4.1807228915662655,-0.3703249540159411,-8.706928264868179,-3.835683629675046,3.0,1.3797313797313795,724.778761061947,0.09719713303420506,0.11782530155585477,0.12260357788007731,1317.9487179487178,-1.0,92.15280056245606,1.3773439800491096,
2023-08-11 17:01:57.847000,-8.855421686746988,-0.45783132530120485,-4.144578313253012,-0.33108522378908645,-8.792765174739424,-3.838136112814224,3.0,1.3797313797313795,724.778761061947,0.02086125517160965,-0.30965561447467954,0.07680205116252006,1334.065934065934,-1.0,92.15280056245606,1.3773722162628321,
2023-08-11 17:01:57.855000,-8.843373493975903,-0.45783132530120485,-4.19277108433735,-0.38994481912936846,-8.763335377069282,-3.7621091354996934,3.0,1.3797313797313795,724.778761061947,-0.37608530971388654,-0.4928617213449086,0.0462677000174819,1341.3919413919414,-1.0,92.15280056245606,1.3774002209332874,
2023-08-11 17:01:57.862000,-8.831325301204819,-0.46987951807228917,-4.19277108433735,-0.4095646842427958,-8.71919068056407,-3.7939914163090127,3.0,1.3797313797313795,724.778761061947,-0.6508944700192301,-0.752403706077733,0.21420663131519183,1339.9267399267399,-1.0,92.15280056245606,1.3774279969002028,
2023-08-11 17:01:57.870000,-8.831325301204819,-0.45783132530120485,-4.1807228915662655,-0.3973022685469037,-8.682403433476395,-3.7302268546903736,3.0,1.3797313797313795,724.778761061947,-0.26921508070625294,-0.9814113396655192,0.18367228017015363,1333.3333333333333,-1.0,92.15280056245606,1.377455547329397,
2023-08-11 17:01:57.878000,-8.843373493975903,-0.45783132530120485,-4.156626506024097,-0.3629675045984059,-8.753525444512569,-3.789086450030656,3.0,1.3797313797313795,724.778761061947,-0.5898257677291537,-0.5233960724899467,-0.10640405570770893,1320.14652014652,-1.0,92.15280056245606,1.3774828756924207,
2023-08-11 17:01:57.885000,-8.843373493975903,-0.44578313253012053,-4.120481927710844,-0.3408951563458001,-8.785407725321887,-3.7939914163090127,3.0,1.38017538017538,724.5456007720766,-0.4066196608589247,-0.1722510343220078,0.12260357788007731,1304.0293040293038,-1.0,92.15280056245606,1.3775099857456812,
2023-08-11 17:01:57.893000,-8.855421686746988,-0.4819277108433735,-4.120481927710844,-0.35561005518087063,-8.758430410790925,-3.7400367872470874,3.0,1.3797313797313795,724.778761061947,-0.20814637841617661,-0.37072431676475587,-0.1369384068527471,1284.2490842490843,-1.0,92.15280056245606,1.377536881658394,
2023-08-11 17:01:57.901000,-8.843373493975903,-0.45783132530120485,-4.144578313253012,-0.3727774371551195,-8.746167995095034,-3.715511955855303,3.0,1.38017538017538,724.5456007720766,-0.7730318745993827,-0.1875182098945269,-0.07586970456267077,1264.4688644688645,-1.0,92.15280056245606,1.377563567863428,
2023-08-11 17:01:57.908000,-8.831325301204819,-0.44578313253012053,-4.132530120481928,-0.35561005518087063,-8.711833231146535,-3.7302268546903736,3.0,1.3797313797313795,724.778761061947,-0.25394790513373383,-0.24858691218460321,-0.3354116892954952,1241.7582417582416,-1.0,92.15280056245606,1.377590049025567,
2023-08-11 17:01:57.916000,-8.819277108433736,-0.45783132530120485,-4.1084337349397595,-0.4193746167995095,-8.753525444512569,-3.7228694052728386,3.0,1.38017538017538,724.5456007720766,-0.36081813414136743,0.14835965270089294,-0.45754909387564785,1217.5824175824175,-1.0,92.15280056245606,1.3776163301694035,
2023-08-11 17:01:57.924000,-8.843373493975903,-0.4819277108433735,-4.1084337349397595,-0.3384426732066217,-8.71919068056407,-3.776824034334764,3.0,1.38017538017538,724.5456007720766,0.2346017131868768,0.08729095041081661,-0.3964803915855715,1190.4761904761904,-1.0,92.15280056245606,1.377642416626879,
2023-08-11 17:01:57.931000,-8.843373493975903,-0.4819277108433735,-4.1084337349397595,-0.3531575720416922,-8.697118332311465,-3.713059472716125,3.0,1.38017538017538,724.5456007720766,0.1582658353242814,0.3773672862886792,-0.3354116892954952,1160.4395604395604,-1.0,92.15280056245606,1.377668314027479,
2023-08-11 17:01:57.939000,-8.879518072289157,-0.49397590361445787,-4.132530120481928,-0.37768240343347637,-8.729000613120784,-3.7694665849172284,3.0,1.38017538017538,724.5456007720766,0.4330749956296249,0.14835965270089294,-0.35067886486801425,1132.6007326007325,-1.0,92.15280056245606,1.3776940281396954,
2023-08-11 17:01:57.947000,-8.855421686746988,-0.46987951807228917,-4.132530120481928,-0.4537093807480073,-8.726548129981605,-3.7817290006131206,3.0,1.38017538017538,724.5456007720766,0.4330749956296249,0.14835965270089294,-0.35067886486801425,1109.89010989011,-1.0,92.15280056245606,1.3777195648511473,
2023-08-11 17:01:57.954000,-8.807228915662652,-0.3614457831325301,-4.024096385542169,-0.18148375229920294,-8.640711220110362,-3.676272225628449,3.0,1.38017538017538,724.5456007720766,0.265136064331915,0.5605733931589082,-0.4117475671580906,1091.5750915750914,-1.0,92.15280056245606,1.377744930148639,
2023-08-11 17:01:57.962000,-8.879518072289157,-0.5421686746987953,-4.156626506024097,-0.510116492949111,-8.785407725321887,-3.7621091354996934,3.0,1.3792873792873792,725.0120714630614,-0.6508944700192301,1.430802400792496,-0.5186177961657242,1075.4578754578754,-1.0,92.15280056245606,1.3777701299594642,
2023-08-11 17:01:57.970000,-8.855421686746988,-0.49397590361445787,-4.1807228915662655,-0.34580012262415694,-8.773145309625995,-3.7866339668914772,3.0,1.3797313797313795,724.778761061947,0.265136064331915,1.2017947672047098,-0.7170910786084723,1063.003663003663,-1.0,92.15280056245606,1.3777951701307838,
2023-08-11 17:01:57.977000,-8.855421686746988,-0.46987951807228917,-4.156626506024097,-0.3850398528510116,-8.677498467198038,-3.7572041692213363,3.0,1.38017538017538,724.5456007720766,0.6162811024998539,0.9117184313268472,-0.2285414602878616,1049.084249084249,-1.0,92.15280056245606,1.377820056483829,
2023-08-11 17:01:57.985000,-8.831325301204819,-0.4819277108433735,-4.168674698795181,-0.3261802575107296,-8.760882893930104,-3.7743715511955855,3.0,1.3797313797313795,724.778761061947,0.5399452246372585,0.8048482023192135,-0.27434298700541887,1037.3626373626373,-1.0,92.15280056245606,1.3778447949627841,
2023-08-11 17:01:57.993000,-8.831325301204819,-0.45783132530120485,-4.156626506024097,-0.38994481912936846,-8.724095646842427,-3.7400367872470874,3.0,1.3806193806193807,724.3125904486252,0.37200629333954854,1.3239321717848624,-0.3354116892954952,1027.8388278388277,-1.0,92.15280056245606,1.3778693913575757,
2023-08-11 17:01:58,-8.783132530120483,-0.39759036144578314,-4.072289156626506,-0.3801348865726548,-8.763335377069282,-3.7498467198038012,3.0,1.38017538017538,724.5456007720766,0.6926169803624493,1.3544665229299004,-0.3201445137229761,1021.978021978022,-1.0,92.15280056245606,1.377893851442363,
2023-08-11 17:01:58.008000,-8.855421686746988,-0.4819277108433735,-4.204819277108434,-0.37522992029429797,-8.792765174739424,-3.8454935622317596,3.0,1.38017538017538,724.5456007720766,-0.2234135539886957,2.3010314084260837,-0.16747275799778527,1018.3150183150183,-1.0,92.15280056245606,1.3779181809967294,
2023-08-11 17:01:58.016000,-8.843373493975903,-0.44578313253012053,-4.156626506024097,-0.3678724708767627,-8.741263028816677,-3.7743715511955855,3.0,1.38017538017538,724.5456007720766,1.2880368276906935,1.644542858807763,-0.045335353417632604,1016.8498168498168,-1.0,92.15280056245606,1.377942385507851,
2023-08-11 17:01:58.023000,-8.843373493975903,-0.46987951807228917,-4.204819277108434,-0.3531575720416922,-8.73635806253832,-3.796443899448191,3.0,1.3806193806193807,724.3125904486252,0.47887652234718214,1.7056115610978395,-0.1522055824252662,1019.0476190476189,-1.0,92.15280056245606,1.377966470437491,
2023-08-11 17:01:58.031000,-8.855421686746988,-0.45783132530120485,-4.168674698795181,-0.3507050889025138,-8.724095646842427,-3.8038013488657265,3.0,1.3806193806193807,724.3125904486252,0.7078841559349685,1.644542858807763,-0.24380863586038068,1021.2454212454212,-1.0,92.15280056245606,1.3779904413510518,
2023-08-11 17:01:58.039000,-8.879518072289157,-0.45783132530120485,-4.1807228915662655,-0.3973022685469037,-8.748620478234212,-3.796443899448191,3.0,1.3806193806193807,724.3125904486252,0.9120680613017896,1.1498164442631542,-0.3671114736903443,1024.9084249084249,-1.0,92.15280056245606,1.378014303920078,
2023-08-11 17:01:58.046000,-8.879518072289157,-0.45783132530120485,-4.19277108433735,-0.3678724708767627,-8.817290006131207,-3.7915389331698344,3.0,1.3806193806193807,724.3125904486252,0.5589417866091713,0.815220558242527,-0.07598624788765247,1030.03663003663,-1.0,92.15280056245606,1.3780380637667142,
2023-08-11 17:01:58.054000,-8.843373493975903,-0.45783132530120485,-4.19277108433735,-0.34825260576333533,-8.778050275904352,-3.747394236664623,3.0,1.3806193806193807,724.3125904486252,0.31268574092418827,0.4407668550783757,-0.012353592447992097,1035.164835164835,-1.0,92.15280056245606,1.378061726448008,
2023-08-11 17:01:58.062000,-8.795180722891567,-0.43373493975903615,-4.120481927710844,-0.3507050889025138,-8.618638871857755,-3.7400367872470874,3.0,1.3806193806193807,724.3125904486252,0.5884272478293802,0.53027212866383,-0.255696055008449,1039.5604395604396,-1.0,92.15280056245606,1.3780852974413313,
