Shimmer_F5D4_Timestamp_FormattedUnix_CAL,Shimmer_F5D4_Accel_LN_X_CAL,Shimmer_F5D4_Accel_LN_Y_CAL,Shimmer_F5D4_Accel_LN_Z_CAL,Shimmer_F5D4_Accel_WR_X_CAL,Shimmer_F5D4_Accel_WR_Y_CAL,Shimmer_F5D4_Accel_WR_Z_CAL,Shimmer_F5D4_GSR_Range_CAL,Shimmer_F5D4_GSR_Skin_Conductance_CAL,Shimmer_F5D4_GSR_Skin_Resistance_CAL,Shimmer_F5D4_Gyro_X_CAL,Shimmer_F5D4_Gyro_Y_CAL,Shimmer_F5D4_Gyro_Z_CAL,Shimmer_F5D4_PPG_A13_CAL,Shimmer_F5D4_PPG_IBI_CAL,Shimmer_F5D4_PPGtoHR_CAL,Shimmer_F5D4_GSR_Skin_Conductance_LPF_CAL,
yyyy/mm/dd hh:mm:ss.000,m/(s^2),m/(s^2),m/(s^2),m/(s^2),m/(s^2),m/(s^2),no_units,uS,kOhms,deg/s,deg/s,deg/s,mV,ms,BPM,uS,
2023-08-17 20:09:28.631000,-6.578313253012048,-1.5542168674698795,-7.265060240963856,-1.491109748620478,-6.298589822194972,-6.933169834457388,3.0,0.8833388833388832,1132.0683588841418,-0.5398286813122777,0.10698677233261442,0.01095507254821989,1815.3846153846152,-1.0,-1.0,0.8836349598456001,
2023-08-17 20:09:28.639000,-6.602409638554217,-1.5421686746987953,-7.265060240963856,-1.4886572654812997,-6.362354383813611,-6.911097486204782,3.0,0.8837828837828837,1131.4996232102487,-0.518967426140668,0.09847910960899774,-0.49216246139502356,1804.3956043956043,-1.0,-1.0,0.8836327392421278,
2023-08-17 20:09:28.647000,-6.590361445783133,-1.5421686746987953,-7.253012048192772,-1.5107296137339055,-6.298589822194972,-6.920907418761495,3.0,0.8833388833388832,1132.0683588841418,-0.17376609754676214,-0.07517044461278531,-0.41139793718314766,1780.9523809523807,-1.0,-1.0,0.8836304573924502,
2023-08-17 20:09:28.654000,-6.614457831325302,-1.5421686746987953,-7.265060240963856,-1.4592274678111588,-6.323114653586757,-6.916002452483139,3.0,0.8833388833388832,1132.0683588841418,-0.1242351844298112,-0.34007342229473864,-0.3450847852689237,1746.5201465201465,-1.0,-1.0,0.883628115188299,
2023-08-17 20:09:28.662000,-6.590361445783133,-1.530120481927711,-7.228915662650603,-1.4984671980380133,-6.342734518700183,-6.952789699570815,3.0,0.8833388833388832,1132.0683588841418,-0.018646931996970283,-0.5709457490822217,-0.5430918944117475,1704.0293040293038,-1.0,-1.0,0.8836257134541216,
2023-08-17 20:09:28.670000,-6.590361445783133,-1.5421686746987953,-7.2048192771084345,-1.513182096873084,-6.308399754751686,-6.950337216431636,3.0,0.8833388833388832,1132.0683588841418,-0.2659518676067826,-0.5796864984558001,-0.38925470543674623,1658.6080586080584,-1.0,-1.0,0.8836232532238524,
2023-08-17 20:09:28.677000,-6.614457831325302,-1.5542168674698795,-7.228915662650603,-1.461679950950337,-6.33292458614347,-6.903740036787247,3.0,0.8828948828948829,1132.6376665828514,0.12936309072897842,-0.43284190897966324,-0.11467863178136481,1608.7912087912086,-1.0,-1.0,0.8836207357198078,
2023-08-17 20:09:28.685000,-6.614457831325302,-1.5542168674698795,-7.265060240963856,-1.5156345800122624,-6.386879215205395,-6.933169834457388,3.0,0.8833388833388832,1132.0683588841418,-0.19590932929316449,-0.5771225453062182,-0.4223530097313675,1560.4395604395604,-1.0,-1.0,0.8836181621934088,
2023-08-17 20:09:28.693000,-6.626506024096386,-1.5542168674698795,-7.265060240963856,-1.5156345800122624,-6.374616799509503,-6.920907418761495,3.0,0.8833388833388832,1132.0683588841418,-0.45871452712545924,-0.30895635452479453,-0.4069692908338676,1511.3553113553112,-1.0,-1.0,0.8836155338938259,
2023-08-17 20:09:28.700000,-6.650602409638554,-1.5542168674698795,-7.265060240963856,-1.5622317596566522,-6.406499080318823,-6.952789699570815,3.0,0.8833388833388832,1132.0683588841418,-0.03169978439484827,-0.635044577821805,-0.22504516053843,1464.4688644688645,-1.0,-1.0,0.8836128520994416,
2023-08-17 20:09:28.708000,-6.614457831325302,-1.5542168674698795,-7.228915662650603,-1.4984671980380133,-6.340282035561005,-6.906192519926425,3.0,0.8833388833388832,1132.0683588841418,-0.23471825651185765,-0.4519550142765569,-0.3653633238156283,1420.5128205128203,-1.0,-1.0,0.8836101179891794,
2023-08-17 20:09:28.716000,-6.63855421686747,-1.5421686746987953,-7.228915662650603,-1.496014714898835,-6.354996934396076,-6.938074800735745,3.0,0.8833388833388832,1132.0683588841418,0.1582658353242814,-0.5909912009789637,-0.4739817026979779,1379.4871794871794,-1.0,-1.0,0.8836073326622053,
2023-08-17 20:09:28.723000,-6.63855421686747,-1.5180722891566265,-7.228915662650603,-1.4935622317596566,-6.303494788473329,-6.908645003065604,3.0,0.8833388833388832,1132.0683588841418,-0.19975525901753902,-0.008857292698560929,-0.15418681894994474,1343.5897435897434,-1.0,-1.0,0.8836044972850277,
2023-08-17 20:09:28.731000,-6.602409638554217,-1.530120481927711,-7.1807228915662655,-1.471489883507051,-6.288779889638258,-6.925812385039852,3.0,0.8833388833388832,1132.0683588841418,-0.47910960899714383,-0.2143231746401731,0.31583241069867735,1313.5531135531135,-1.0,-1.0,0.8836016132280529,
2023-08-17 20:09:28.739000,-6.602409638554217,-1.5180722891566265,-7.1807228915662655,-1.5229920294297976,-6.298589822194972,-6.928264868179031,3.0,0.8833388833388832,1132.0683588841418,-0.3553405978672577,0.23518442981178272,0.15954781189907322,1284.9816849816848,-1.0,-1.0,0.8835986819042486,
2023-08-17 20:09:28.746000,-6.614457831325302,-1.5060240963855422,-7.2048192771084345,-1.471489883507051,-6.34763948497854,-6.844880441446965,3.0,0.8833388833388832,1132.0683588841418,-0.461161936950062,0.05116251966668614,0.31175339432434024,1258.6080586080586,-1.0,-1.0,0.8835957046393369,
2023-08-17 20:09:28.754000,-6.590361445783133,-1.5180722891566265,-7.19277108433735,-1.5082771305947271,-6.384426732066217,-6.886572654812998,3.0,0.8833388833388832,1132.0683588841418,-0.1964920459180704,0.03298176096964094,-0.19217994289377077,1233.6996336996335,-1.0,-1.0,0.8835926828186981,
2023-08-17 20:09:28.762000,-6.602409638554217,-1.530120481927711,-7.228915662650603,-1.4028203556100551,-6.33292458614347,-6.874310239117106,3.0,0.8833388833388832,1132.0683588841418,-0.1906648796690164,0.015267175572519083,0.0750539012878036,1211.7216117216117,-1.0,-1.0,0.8835896178849955,
2023-08-17 20:09:28.769000,-6.590361445783133,-1.5180722891566265,-7.19277108433735,-1.4322501532801961,-6.340282035561005,-6.920907418761495,3.0,0.8833388833388832,1132.0683588841418,-0.1537206456500201,0.20849600839111912,9.323465998484274E-4,1194.8717948717947,-1.0,-1.0,0.8835865113358143,
2023-08-17 20:09:28.777000,-6.614457831325302,-1.530120481927711,-7.19277108433735,-1.4347026364193745,-6.359901900674433,-6.942979767014101,3.0,0.8833388833388832,1132.0683588841418,-0.012470135772973802,0.4747975059728459,-0.10080997610861837,1183.150183150183,-1.0,-1.0,0.8835833647213264,
2023-08-17 20:09:28.785000,-6.602409638554217,-1.5542168674698795,-7.19277108433735,-1.5475168608215817,-6.318209687308399,-6.935622317596566,3.0,0.8833388833388832,1132.0683588841418,-0.009323465998484274,0.4655905832993408,-0.09498280985956527,1177.2893772893772,-1.0,-1.0,0.8835801796419752,
2023-08-17 20:09:28.792000,-6.602409638554217,-1.566265060240964,-7.240963855421687,-1.537706928264868,-6.325567136725935,-6.8988350705088894,3.0,0.8833388833388832,1132.0683588841418,0.23914690286113813,0.44169920167822413,0.2608239613076162,1174.3589743589744,-1.0,-1.0,0.883576957746188,
2023-08-17 20:09:28.800000,-6.614457831325302,-1.5421686746987953,-7.253012048192772,-1.4763948497854076,-6.330472103004292,-6.947884733292458,3.0,0.8833388833388832,1132.0683588841418,0.3474156517685452,0.48085775887185983,0.15675077209952792,1169.9633699633698,-1.0,-1.0,0.8835737007281219,
2023-08-17 20:09:28.807000,-6.602409638554217,-1.5421686746987953,-7.2771084337349405,-1.5328019619865112,-6.291232372777436,-6.996934396076027,3.0,0.8833388833388832,1132.0683588841418,0.2559291416584115,0.09766330633413015,0.20558242526659298,1167.7655677655678,-1.0,-1.0,0.8835704103254302,
2023-08-17 20:09:28.815000,-6.55421686746988,-1.5542168674698795,-7.289156626506024,-1.5352544451256898,-6.266707541385653,-6.935622317596566,3.0,0.8833388833388832,1132.0683588841418,0.5428588077617846,-0.23751529631140295,0.31105413437445395,1169.9633699633698,-1.0,-1.0,0.883567088455814,
2023-08-17 20:09:28.823000,-6.590361445783133,-1.5542168674698795,-7.240963855421687,-1.4984671980380133,-6.308399754751686,-6.933169834457388,3.0,0.8833388833388832,1132.0683588841418,0.6154652992249863,-0.6451838470951569,0.21968416758930112,1175.8241758241757,-1.0,-1.0,0.8835637370557241,
2023-08-17 20:09:28.830000,-6.590361445783133,-1.5421686746987953,-7.265060240963856,-1.5107296137339055,-6.301042305334151,-6.940527283874923,3.0,0.8824508824508824,1133.2075471698113,0.4711846628984331,-1.0648563603519612,-0.17854437387098643,1181.6849816849815,-1.0,-1.0,0.8835603579505994,
2023-08-17 20:09:28.838000,-6.578313253012048,-1.5421686746987953,-7.265060240963856,-1.525444512568976,-6.303494788473329,-6.908645003065604,3.0,0.8828948828948829,1132.6376665828514,0.5115086533418806,-0.9622982343686274,-0.02645533477070108,1189.0109890109889,-1.0,-1.0,0.8835569529807542,
2023-08-17 20:09:28.846000,-6.55421686746988,-1.5542168674698795,-7.265060240963856,-1.5867565910484365,-6.247087676272225,-6.8694052728387485,3.0,0.8833388833388832,1132.0683588841418,0.7628926053260291,-0.4916962880951002,0.03146669774488659,1198.5347985347985,-1.0,-1.0,0.8835535240638654,
2023-08-17 20:09:28.853000,-6.578313253012048,-1.5542168674698795,-7.253012048192772,-1.5303494788473329,-6.325567136725935,-6.906192519926425,3.0,0.8833388833388832,1132.0683588841418,0.3737544432142646,-0.34322009206922643,-0.12481790105471711,1209.5238095238094,-1.0,-1.0,0.8835500730645012,
2023-08-17 20:09:28.861000,-6.602409638554217,-1.5421686746987953,-7.240963855421687,-1.5622317596566522,-6.335377069282648,-6.955242182709993,3.0,0.8833388833388832,1132.0683588841418,0.12353592447992617,-0.6871394440883396,0.47083503292348927,1223.4432234432234,-1.0,-1.0,0.8835466017159,
2023-08-17 20:09:28.869000,-6.578313253012048,-1.5542168674698795,-7.253012048192772,-1.4886572654812997,-6.313304721030042,-6.893930104230533,3.0,0.8833388833388832,1132.0683588841418,-0.2308723267874831,-0.12936309072897842,0.08321193403647778,1239.5604395604396,-1.0,-1.0,0.8835431117762357,
2023-08-17 20:09:28.876000,-6.590361445783133,-1.530120481927711,-7.253012048192772,-1.4739423666462292,-6.283874923359901,-6.987124463519313,3.0,0.8833388833388832,1132.0683588841418,-0.1689878212225392,-0.09230231338500125,-0.16432608822329706,1257.142857142857,-1.0,-1.0,0.8835396050250994,
2023-08-17 20:09:28.884000,-6.55421686746988,-1.5180722891566265,-7.253012048192772,-1.4886572654812997,-6.234825260576333,-6.99202942979767,3.0,0.8833388833388832,1132.0683588841418,-0.5061476603927517,0.29275683235242705,-0.1195734514305695,1273.260073260073,-1.0,-1.0,0.883536083260039,
2023-08-17 20:09:28.892000,-6.55421686746988,-1.5180722891566265,-7.2771084337349405,-1.4788473329245861,-6.264255058246475,-6.965052115266707,3.0,0.8833388833388832,1132.0683588841418,-0.6259541984732824,0.32026105704795826,0.0029135831245265527,1289.3772893772893,-1.0,-1.0,0.8835325482931713,
2023-08-17 20:09:28.899000,-6.566265060240964,-1.5421686746987953,-7.240963855421687,-1.4420600858369097,-6.301042305334151,-6.935622317596566,3.0,0.8833388833388832,1132.0683588841418,-0.5321368218635285,0.39100285531146134,8.15803274867591E-4,1304.0293040293038,-1.0,-1.0,0.8835290019478811,
2023-08-17 20:09:28.907000,-6.566265060240964,-1.5421686746987953,-7.240963855421687,-1.5082771305947271,-6.34763948497854,-6.881667688534641,3.0,0.8828948828948829,1132.6376665828514,-0.37678456966377327,0.12493444437969795,-0.10582133908280389,1317.9487179487178,-1.0,-1.0,0.8835254460556082,
2023-08-17 20:09:28.915000,-6.578313253012048,-1.5542168674698795,-7.2771084337349405,-1.537706928264868,-6.296137339055794,-6.920907418761495,3.0,0.8833388833388832,1132.0683588841418,-0.7415651768544961,-0.3088398111998137,-0.22877454693782415,1331.135531135531,-1.0,-1.0,0.8835218824421971,
2023-08-17 20:09:28.922000,-6.566265060240964,-1.5421686746987953,-7.228915662650603,-1.525444512568976,-6.315757204169221,-6.916002452483139,3.0,0.8833388833388832,1132.0683588841418,-0.4160596701823898,-0.1905483363440356,-0.3957811316356856,1341.3919413919414,-1.0,-1.0,0.8835183128931855,
2023-08-17 20:09:28.930000,-6.590361445783133,-1.5421686746987953,-7.240963855421687,-1.5009196811771919,-6.281422440220723,-6.923359901900674,3.0,0.8833388833388832,1132.0683588841418,-0.4446127848027503,-0.13250976050346794,-0.37760037293864,1349.4505494505493,-1.0,-1.0,0.8835147391822467,
2023-08-17 20:09:28.938000,-6.590361445783133,-1.5542168674698795,-7.240963855421687,-1.4862047823421214,-6.308399754751686,-6.947884733292458,3.0,0.8833388833388832,1132.0683588841418,-0.5344676883631487,-0.2729444671056466,-0.08530971388613719,1352.3809523809523,-1.0,-1.0,0.8835111630785952,
2023-08-17 20:09:28.945000,-6.578313253012048,-1.5783132530120483,-7.240963855421687,-1.4420600858369097,-6.288779889638258,-6.947884733292458,3.0,0.8833388833388832,1132.0683588841418,-0.5914573742788889,-0.3958976749606669,-0.28506497290367705,1354.5787545787546,-1.0,-1.0,0.8835075863439811,
2023-08-17 20:09:28.953000,-6.602409638554217,-1.5542168674698795,-7.240963855421687,-1.5401594114040464,-6.291232372777436,-6.889025137952176,3.0,0.8833388833388832,1132.0683588841418,-0.9258201736495544,-0.19707476254297457,-0.37643493968882946,1353.113553113553,-1.0,-1.0,0.883504010729832,
2023-08-17 20:09:28.961000,-6.602409638554217,-1.5783132530120483,-7.228915662650603,-1.5082771305947271,-6.350091968117719,-6.918454935622317,3.0,0.8833388833388832,1132.0683588841418,-0.677466348114911,-0.18297302022026732,-0.7571819824019577,1347.985347985348,-1.0,-1.0,0.8835004381132977,
2023-08-17 20:09:28.968000,-6.590361445783133,-1.5542168674698795,-7.228915662650603,-1.5328019619865112,-6.337829552421827,-6.876762722256284,3.0,0.8833388833388832,1132.0683588841418,-0.5541635102849483,-0.05862129246547356,-0.1743488141716685,1344.3223443223442,-1.0,-1.0,0.8834968703355758,
2023-08-17 20:09:28.976000,-6.602409638554217,-1.566265060240964,-7.216867469879518,-1.4788473329245861,-6.291232372777436,-6.86695278969957,3.0,0.8828948828948829,1132.6376665828514,-0.6733873317405749,-0.006642969523919828,-0.02191014509643978,1340.6593406593406,-1.0,-1.0,0.8834933090719175,
2023-08-17 20:09:28.984000,-6.602409638554217,-1.566265060240964,-7.228915662650603,-1.4837522992029428,-6.345187001839362,-6.91354996934396,3.0,0.8824508824508824,1133.2075471698113,-0.41221374045801523,0.18192413029543805,0.0816968708117243,1334.7985347985348,-1.0,-1.0,0.883489755829215,
2023-08-17 20:09:28.991000,-6.614457831325302,-1.566265060240964,-7.216867469879518,-1.5156345800122624,-6.305947271612507,-6.874310239117106,3.0,0.8828948828948829,1132.6376665828514,-0.27410990035545674,0.26536915098187663,-0.057922032515587675,1328.2051282051282,-1.0,-1.0,0.8834862120500966,
2023-08-17 20:09:28.999000,-6.626506024096386,-1.5421686746987953,-7.216867469879518,-1.4690374003678723,-6.298589822194972,-6.933169834457388,3.0,0.8828948828948829,1132.6376665828514,-0.33715983917021075,0.010139269273351865,0.1362391469028612,1318.6813186813185,-1.0,-1.0,0.8834826791958351,
2023-08-17 20:09:29.007000,-6.614457831325302,-1.566265060240964,-7.228915662650603,-1.513182096873084,-6.369711833231146,-6.942979767014101,3.0,0.8833388833388832,1132.0683588841418,-0.20080414894237003,-0.07656896451255708,0.2825010197540935,1306.227106227106,-1.0,-1.0,0.8834791584871717,
2023-08-17 20:09:29.014000,-6.626506024096386,-1.5421686746987953,-7.216867469879518,-1.513182096873084,-6.313304721030042,-6.942979767014101,3.0,0.8833388833388832,1132.0683588841418,0.23972961948604404,-0.30184721170094964,0.23028961016257807,1294.5054945054944,-1.0,-1.0,0.883475651220259,
2023-08-17 20:09:29.022000,-6.626506024096386,-1.5421686746987953,-7.216867469879518,-1.4984671980380133,-6.337829552421827,-6.859595340282035,3.0,0.8833388833388832,1132.0683588841418,0.4651244099994174,-0.403589534409416,0.20768020511625196,1282.7838827838827,-1.0,-1.0,0.883472158774198,
2023-08-17 20:09:29.030000,-6.626506024096386,-1.5421686746987953,-7.216867469879518,-1.5646842427958307,-6.278969957081545,-6.901287553648069,3.0,0.8833388833388832,1132.0683588841418,0.35347590466756085,-0.7966901695705376,0.032165957694772915,1274.7252747252746,-1.0,-1.0,0.8834686823419077,
2023-08-17 20:09:29.037000,-6.626506024096386,-1.5421686746987953,-7.216867469879518,-1.4788473329245861,-6.342734518700183,-6.864500306560392,3.0,0.8833388833388832,1132.0683588841418,-0.1559349688246612,-0.4730493560981299,0.4857525785210654,1268.8644688644688,-1.0,-1.0,0.8834652230767075,
2023-08-17 20:09:29.045000,-6.602409638554217,-1.530120481927711,-7.240963855421687,-1.461679950950337,-6.39423666462293,-6.920907418761495,3.0,0.8833388833388832,1132.0683588841418,0.30231338500087473,-0.1988229124176906,0.3111706776994348,1265.2014652014652,-1.0,-1.0,0.8834617820898722,
2023-08-17 20:09:29.053000,-6.63855421686747,-1.5421686746987953,-7.228915662650603,-1.4690374003678723,-6.342734518700183,-6.91354996934396,3.0,0.8833388833388832,1132.0683588841418,-0.08286230406153441,0.28821164267816574,0.1692209078725017,1262.2710622710622,-1.0,-1.0,0.8834583604484708,
2023-08-17 20:09:29.060000,-6.614457831325302,-1.530120481927711,-7.2048192771084345,-1.4935622317596566,-6.296137339055794,-6.91354996934396,3.0,0.8833388833388832,1132.0683588841418,-0.08274576073655357,0.2861138628285072,0.16770584464774782,1258.6080586080586,-1.0,-1.0,0.8834549591734986,
2023-08-17 20:09:29.068000,-6.614457831325302,-1.5421686746987953,-7.2048192771084345,-1.4641324340895157,-6.33292458614347,-6.908645003065604,3.0,0.8833388833388832,1132.0683588841418,-0.1744653574966489,0.6352776644717667,0.4244507895810265,1254.9450549450548,-1.0,-1.0,0.883451579238318,
2023-08-17 20:09:29.076000,-6.578313253012048,-1.5180722891566265,-7.253012048192772,-1.5033721643163702,-6.328019619865113,-6.987124463519313,3.0,0.8833388833388832,1132.0683588841418,-0.5545131402598908,0.9830429462152561,0.49880543091894425,1254.9450549450548,-1.0,-1.0,0.8834482215674143,
2023-08-17 20:09:29.083000,-6.578313253012048,-1.530120481927711,-7.253012048192772,-1.4567749846719804,-6.266707541385653,-6.935622317596566,3.0,0.8833388833388832,1132.0683588841418,-0.15383718897500093,1.236408134724084,0.29870054192646095,1255.6776556776556,-1.0,-1.0,0.8834448870354743,
2023-08-17 20:09:29.091000,-6.590361445783133,-1.493975903614458,-7.2771084337349405,-1.496014714898835,-6.264255058246475,-6.920907418761495,3.0,0.8833388833388832,1132.0683588841418,-0.382961365887768,1.444437969815278,0.7564827224520718,1255.6776556776556,-1.0,-1.0,0.8834415764667912,
2023-08-17 20:09:29.099000,-6.602409638554217,-1.5421686746987953,-7.2771084337349405,-1.4322501532801961,-6.308399754751686,-6.994481912936848,3.0,0.8828948828948829,1132.6376665828514,-0.608472699726124,1.484412330283783,0.6588194161179417,1255.6776556776556,-1.0,-1.0,0.883438290635004,
2023-08-17 20:09:29.106000,-6.602409638554217,-1.5180722891566265,-7.301204819277109,-1.4862047823421214,-6.298589822194972,-7.001839362354383,3.0,0.8833388833388832,1132.0683588841418,-0.46547403997435993,1.0617096905774717,0.5038167938931297,1257.8754578754579,-1.0,-1.0,0.8834350301138707,
2023-08-17 20:09:29.114000,-6.590361445783133,-1.530120481927711,-7.2771084337349405,-1.5328019619865112,-6.269160024524831,-6.952789699570815,3.0,0.8833388833388832,1132.0683588841418,-0.18390536682011577,0.44286463492803424,0.5483363440358952,1261.5384615384614,-1.0,-1.0,0.8834317954050861,
2023-08-17 20:09:29.122000,-6.590361445783133,-1.5180722891566265,-7.2771084337349405,-1.4788473329245861,-6.296137339055794,-6.967504598405886,3.0,0.8833388833388832,1132.0683588841418,-0.26944816735621463,0.3780665462385642,0.30103140842608245,1265.2014652014652,-1.0,-1.0,0.8834285870979434,
2023-08-17 20:09:29.129000,-6.578313253012048,-1.5421686746987953,-7.289156626506024,-1.5769466584917229,-6.259350091968117,-6.999386879215205,3.0,0.8828948828948829,1132.6376665828514,-0.2498688887593959,-0.13973544665229368,0.40766855078375397,1267.3992673992673,-1.0,-1.0,0.8834254057314457,
2023-08-17 20:09:29.137000,-6.566265060240964,-1.530120481927711,-7.2771084337349405,-1.4984671980380133,-6.23973022685469,-6.940527283874923,3.0,0.8824508824508824,1133.2075471698113,0.060602528990151255,-0.6716391818658588,0.25511333838354394,1267.3992673992673,-1.0,-1.0,0.8834222516461988,
2023-08-17 20:09:29.145000,-6.55421686746988,-1.530120481927711,-7.253012048192772,-1.4739423666462292,-6.234825260576333,-6.965052115266707,3.0,0.8828948828948829,1132.6376665828514,-0.07039216828856061,-0.6796806712895521,0.1941611794184489,1267.3992673992673,-1.0,-1.0,0.883419125092232,
2023-08-17 20:09:29.152000,-6.55421686746988,-1.5421686746987953,-7.228915662650603,-1.466584917228694,-6.320662170447577,-6.977314530962599,3.0,0.8828948828948829,1132.6376665828514,-0.2628051978322948,-0.6754851115902334,-0.1251675310296605,1266.6666666666665,-1.0,-1.0,0.8834160263157759,
2023-08-17 20:09:29.160000,-6.542168674698796,-1.5180722891566265,-7.253012048192772,-1.491109748620478,-6.264255058246475,-6.925812385039852,3.0,0.8833388833388832,1132.0683588841418,-0.08635860381096644,-0.5520657304352897,-0.15162286580036113,1267.3992673992673,-1.0,-1.0,0.883412955304063,
2023-08-17 20:09:29.168000,-6.530120481927711,-1.5421686746987953,-7.265060240963856,-1.4224402207234825,-6.325567136725935,-6.972409564684242,3.0,0.8833388833388832,1132.0683588841418,-0.049647456441931796,-0.48808344502068557,0.11223122195676248,1266.6666666666665,-1.0,-1.0,0.8834099119665938,
2023-08-17 20:09:29.175000,-6.566265060240964,-1.5421686746987953,-7.228915662650603,-1.4935622317596566,-6.296137339055794,-6.935622317596566,3.0,0.8833388833388832,1132.0683588841418,-0.2104772449157968,-0.27073014393100553,-0.11328011188159218,1265.9340659340658,-1.0,-1.0,0.8834068963059631,
2023-08-17 20:09:29.183000,-6.578313253012048,-1.530120481927711,-7.2048192771084345,-1.4837522992029428,-6.278969957081545,-6.893930104230533,3.0,0.8833388833388832,1132.0683588841418,-0.2664180409067077,-0.008857292698560929,0.060952158965095066,1264.4688644688645,-1.0,-1.0,0.883403908280563,
2023-08-17 20:09:29.190000,-6.55421686746988,-1.5421686746987953,-7.240963855421687,-1.4641324340895157,-6.323114653586757,-6.862047823421213,3.0,0.8833388833388832,1132.0683588841418,-0.35242701474272986,0.15733348872443298,-0.25837655148301386,1260.8058608058607,-1.0,-1.0,0.8834009478063435,
2023-08-17 20:09:29.198000,-6.590361445783133,-1.5421686746987953,-7.228915662650603,-1.5205395462906193,-6.318209687308399,-6.955242182709993,3.0,0.8828948828948829,1132.6376665828514,-0.23984616281102486,0.21700367111473753,-0.22387972728861946,1256.4102564102564,-1.0,-1.0,0.8833980147588592,
2023-08-17 20:09:29.206000,-6.566265060240964,-1.530120481927711,-7.240963855421687,-1.5082771305947271,-6.249540159411404,-6.938074800735745,3.0,0.8833388833388832,1132.0683588841418,-0.17096905774721688,0.7343394907056704,-0.1890332731192821,1254.212454212454,-1.0,-1.0,0.8833951088263287,
2023-08-17 20:09:29.213000,-6.578313253012048,-1.530120481927711,-7.240963855421687,-1.466584917228694,-6.328019619865113,-6.916002452483139,3.0,0.8828948828948829,1132.6376665828514,-0.2887943593030716,0.5468212808111417,-0.03507954081929947,1254.9450549450548,-1.0,-1.0,0.8833922296396769,
2023-08-17 20:09:29.221000,-6.578313253012048,-1.5421686746987953,-7.2771084337349405,-1.5328019619865112,-6.320662170447577,-7.00674432863274,3.0,0.8828948828948829,1132.6376665828514,-0.3610512207913291,0.5569605500844936,-0.1715517743721228,1257.142857142857,-1.0,-1.0,0.8833893767850866,
2023-08-17 20:09:29.229000,-6.602409638554217,-1.530120481927711,-7.265060240963856,-1.5082771305947271,-6.364806866952789,-6.916002452483139,3.0,0.8828948828948829,1132.6376665828514,-0.03484645416933779,0.40149175455975744,-0.0029135831245265527,1260.07326007326,-1.0,-1.0,0.8833865496463577,
2023-08-17 20:09:29.236000,-6.590361445783133,-1.5421686746987953,-7.301204819277109,-1.4886572654812997,-6.281422440220723,-6.977314530962599,3.0,0.8828948828948829,1132.6376665828514,-0.07750131111240552,0.3998601480100223,0.07283957811316338,1263.7362637362637,-1.0,-1.0,0.8833837475452115,
2023-08-17 20:09:29.244000,-6.590361445783133,-1.530120481927711,-7.265060240963856,-1.4420600858369097,-6.301042305334151,-6.942979767014101,3.0,0.8828948828948829,1132.6376665828514,0.39857817143523133,-0.0476662199172541,0.10279121263329649,1265.2014652014652,-1.0,-1.0,0.8833809697429096,
2023-08-17 20:09:29.252000,-6.602409638554217,-1.530120481927711,-7.253012048192772,-1.5229920294297976,-6.303494788473329,-6.901287553648069,3.0,0.8833388833388832,1132.0683588841418,0.2132742847153421,-0.2619893945574272,0.16444263154827787,1268.131868131868,-1.0,-1.0,0.8833782154419272,
2023-08-17 20:09:29.259000,-6.578313253012048,-1.5180722891566265,-7.253012048192772,-1.4567749846719804,-6.303494788473329,-6.911097486204782,3.0,0.8833388833388832,1132.0683588841418,0.2118757648155703,-0.07365538138803097,0.027504224695530342,1273.260073260073,-1.0,-1.0,0.8833754840757204,
2023-08-17 20:09:29.267000,-6.566265060240964,-1.5060240963855422,-7.240963855421687,-1.5058246474555486,-6.323114653586757,-6.955242182709993,3.0,0.8833388833388832,1132.0683588841418,0.17819474389604262,-0.010139269273351865,0.3334304527708175,1280.5860805860805,-1.0,-1.0,0.883372775173244,
2023-08-17 20:09:29.275000,-6.566265060240964,-1.493975903614458,-7.19277108433735,-1.5475168608215817,-6.242182709993869,-6.955242182709993,3.0,0.8833388833388832,1132.0683588841418,0.11735912825592969,-0.19043179301905475,0.4521881009265194,1285.7142857142856,-1.0,-1.0,0.8833700880960855,
2023-08-17 20:09:29.282000,-6.614457831325302,-1.5060240963855422,-7.253012048192772,-1.491109748620478,-6.283874923359901,-6.920907418761495,3.0,0.8833388833388832,1132.0683588841418,0.2693316240312338,-0.13915273002738776,0.3724724666394732,1292.3076923076922,-1.0,-1.0,0.883367422191282,
2023-08-17 20:09:29.290000,-6.602409638554217,-1.5060240963855422,-7.253012048192772,-1.4420600858369097,-6.315757204169221,-6.960147148988351,3.0,0.8824508824508824,1133.2075471698113,0.220383427539187,-0.10279121263329563,0.5387797913874484,1297.4358974358975,-1.0,-1.0,0.883364776795054,
2023-08-17 20:09:29.298000,-6.590361445783133,-1.5060240963855422,-7.253012048192772,-1.4347026364193745,-6.320662170447577,-6.923359901900674,3.0,0.8828948828948829,1132.6376665828514,0.307557834625021,0.1157275217061945,0.39846162811024965,1297.4358974358975,-1.0,-1.0,0.8833621512156435,
2023-08-17 20:09:29.305000,-6.566265060240964,-1.5060240963855422,-7.253012048192772,-1.5058246474555486,-6.310852237890864,-6.933169834457388,3.0,0.8828948828948829,1132.6376665828514,0.19952217236757736,-0.05360992949128891,0.5313210185886601,1294.5054945054944,-1.0,-1.0,0.8833595446634639,
2023-08-17 20:09:29.313000,-6.590361445783133,-1.530120481927711,-7.240963855421687,-1.449417535254445,-6.28632740649908,-6.93071735131821,3.0,0.8833388833388832,1132.0683588841418,0.2904259658528051,-0.36081813414136743,-0.006992599498863639,1290.8424908424909,-1.0,-1.0,0.883356956275774,
2023-08-17 20:09:29.321000,-6.578313253012048,-1.5180722891566265,-7.265060240963856,-1.461679950950337,-6.28632740649908,-6.952789699570815,3.0,0.8833388833388832,1132.0683588841418,0.30452770817551406,-0.23728220966144126,-0.14626187285123224,1289.3772893772893,-1.0,-1.0,0.8833543851410528,
2023-08-17 20:09:29.328000,-6.578313253012048,-1.5180722891566265,-7.253012048192772,-1.471489883507051,-6.328019619865113,-6.947884733292458,3.0,0.8833388833388832,1132.0683588841418,0.2118757648155703,-0.38028086941320355,-0.08379465066138371,1290.10989010989,-1.0,-1.0,0.883351830344307,
2023-08-17 20:09:29.336000,-6.55421686746988,-1.530120481927711,-7.253012048192772,-1.471489883507051,-6.298589822194972,-6.935622317596566,3.0,0.8833388833388832,1132.0683588841418,0.21175922149058948,-0.3820290192879196,-0.08717440708583403,1292.3076923076922,-1.0,-1.0,0.8833492909808254,
2023-08-17 20:09:29.344000,-6.566265060240964,-1.5180722891566265,-7.253012048192772,-1.491109748620478,-6.303494788473329,-6.972409564684242,3.0,0.8833388833388832,1132.0683588841418,0.04195559699318271,-0.2780723734048139,-0.02703805139560613,1293.040293040293,-1.0,-1.0,0.8833467661595397,
2023-08-17 20:09:29.351000,-6.578313253012048,-1.530120481927711,-7.265060240963856,-1.5278969957081545,-6.315757204169221,-6.933169834457388,3.0,0.8833388833388832,1132.0683588841418,0.027271138045567803,0.08530971388613719,-0.24299283258551352,1290.10989010989,-1.0,-1.0,0.8833442550065325,
2023-08-17 20:09:29.359000,-6.590361445783133,-1.5421686746987953,-7.265060240963856,-1.513182096873084,-6.276517473942366,-6.957694665849172,3.0,0.8833388833388832,1132.0683588841418,-0.3088398111998137,-0.14707767612610026,-0.013519025697803066,1287.9120879120878,-1.0,-1.0,0.8833417566686854,
2023-08-17 20:09:29.367000,-6.590361445783133,-1.530120481927711,-7.265060240963856,-1.4739423666462292,-6.247087676272225,-6.93071735131821,3.0,0.8833388833388832,1132.0683588841418,-0.06153487559000141,-0.3626828273410643,0.04451955014276544,1284.9816849816848,-1.0,-1.0,0.8833392703174615,
2023-08-17 20:09:29.374000,-6.55421686746988,-1.5060240963855422,-7.240963855421687,-1.496014714898835,-6.25444512568976,-6.962599632127529,3.0,0.8833388833388832,1132.0683588841418,-0.21315774139036126,0.019812365246780383,-0.03484645416933736,1282.7838827838827,-1.0,-1.0,0.8833367951528056,
2023-08-17 20:09:29.382000,-6.55421686746988,-1.530120481927711,-7.265060240963856,-1.3979153893316982,-6.291232372777436,-6.94543225015328,3.0,0.8828948828948829,1132.6376665828514,-0.4264320261057051,0.37422061651418964,-0.20523279529164962,1279.120879120879,-1.0,-1.0,0.8833343304071584,
2023-08-17 20:09:29.390000,-6.578313253012048,-1.5421686746987953,-7.2771084337349405,-1.466584917228694,-6.318209687308399,-6.974862047823421,3.0,0.8833388833388832,1132.0683588841418,-0.043121030242992804,0.11875764815570147,0.007924946098712067,1276.1904761904761,-1.0,-1.0,0.8833318752002735,
2023-08-17 20:09:29.397000,-6.578313253012048,-1.530120481927711,-7.240963855421687,-1.5082771305947271,-6.303494788473329,-6.916002452483139,3.0,0.8828948828948829,1132.6376665828514,0.21537206456500235,0.15325447235009676,-0.008158032748674174,1268.8644688644688,-1.0,-1.0,0.8833294286708293,
2023-08-17 20:09:29.405000,-6.602409638554217,-1.5180722891566265,-7.265060240963856,-1.4518700183936235,-6.315757204169221,-6.979767014101777,3.0,0.8828948828948829,1132.6376665828514,0.4441466115028269,0.17003671114736846,0.06829438843890208,1263.003663003663,949.8291015625,63.169258450070686,0.8833269899903285,
2023-08-17 20:09:29.413000,-6.578313253012048,-1.530120481927711,-7.253012048192772,-1.4886572654812997,-6.296137339055794,-6.93071735131821,3.0,0.8828948828948829,1132.6376665828514,0.22457898723850578,-0.4217702931064629,0.09894528290892152,1260.07326007326,-1.0,63.169258450070686,0.8833245582065985,
2023-08-17 20:09:29.420000,-6.55421686746988,-1.5060240963855422,-7.228915662650603,-1.4175352544451256,-6.315757204169221,-6.933169834457388,3.0,0.8828948828948829,1132.6376665828514,0.589592681079192,-0.45696637725074324,0.17563079074645987,1258.6080586080586,-1.0,63.169258450070686,0.8833221323850126,
2023-08-17 20:09:29.428000,-6.566265060240964,-1.493975903614458,-7.240963855421687,-1.4886572654812997,-6.291232372777436,-7.009196811771918,3.0,0.8828948828948829,1132.6376665828514,0.5696637725074291,-0.5285239787891157,-0.03985781714352331,1255.6776556776556,-1.0,63.169258450070686,0.8833197116107983,
2023-08-17 20:09:29.436000,-6.590361445783133,-1.5180722891566265,-7.240963855421687,-1.5009196811771919,-6.350091968117719,-6.979767014101777,3.0,0.8828948828948829,1132.6376665828514,0.42841326263038276,-0.3404230522696811,0.08321193403647778,1254.9450549450548,-1.0,63.169258450070686,0.8833172949911717,
2023-08-17 20:09:29.443000,-6.578313253012048,-1.493975903614458,-7.253012048192772,-1.4420600858369097,-6.269160024524831,-6.996934396076027,3.0,0.8824508824508824,1133.2075471698113,0.579103781830896,-0.30930598449973706,0.20558242526659298,1253.4798534798533,-1.0,63.169258450070686,0.8833148817960352,
2023-08-17 20:09:29.451000,-6.566265060240964,-1.493975903614458,-7.2771084337349405,-1.5058246474555486,-6.27161250766401,-6.950337216431636,3.0,0.8824508824508824,1133.2075471698113,0.44065031175339486,-0.3835440825126739,-0.37387098653924583,1252.7472527472526,-1.0,63.169258450070686,0.8833124714288124,
2023-08-17 20:09:29.459000,-6.578313253012048,-1.5180722891566265,-7.2771084337349405,-1.4224402207234825,-6.266707541385653,-6.960147148988351,3.0,0.8828948828948829,1132.6376665828514,0.30522696812540084,0.15208903910028493,-0.06538080531437553,1251.2820512820513,-1.0,63.169258450070686,0.883310063099004,
2023-08-17 20:09:29.466000,-6.590361445783133,-1.5060240963855422,-7.301204819277109,-1.4690374003678723,-6.27161250766401,-6.962599632127529,3.0,0.8828948828948829,1132.6376665828514,0.5221140959151558,-0.1712021443971803,-0.6904026571878095,1254.212454212454,-1.0,63.169258450070686,0.8833076558446394,
2023-08-17 20:09:29.474000,-6.578313253012048,-1.530120481927711,-7.265060240963856,-1.5278969957081545,-6.323114653586757,-6.91354996934396,3.0,0.8828948828948829,1132.6376665828514,0.09696404638424339,-0.11024998543208478,-0.5157042130411981,1262.2710622710622,-1.0,63.169258450070686,0.8833052488625547,
2023-08-17 20:09:29.482000,-6.590361445783133,-1.530120481927711,-7.265060240963856,-1.5499693439607602,-6.274064990803188,-6.928264868179031,3.0,0.8833388833388832,1132.0683588841418,-0.006642969523919828,-0.4763125691975985,-0.20336810209195277,1274.7252747252746,-1.0,63.169258450070686,0.883302841359588,
2023-08-17 20:09:29.489000,-6.602409638554217,-1.530120481927711,-7.265060240963856,-1.5892090741876148,-6.352544451256898,-6.960147148988351,3.0,0.8828948828948829,1132.6376665828514,0.2739933570304759,0.2146728046151156,-0.7508886428529804,1291.5750915750914,-1.0,63.169258450070686,0.8833004325738653,
2023-08-17 20:09:29.497000,-6.566265060240964,-1.5421686746987953,-7.228915662650603,-1.5597792765174738,-6.293684855916616,-6.972409564684242,3.0,0.8828948828948829,1132.6376665828514,-0.25732766155818504,0.1806421537206454,-0.30103140842608245,1315.018315018315,-1.0,63.169258450070686,0.8832980217959014,
2023-08-17 20:09:29.505000,-6.626506024096386,-1.530120481927711,-7.253012048192772,-1.537706928264868,-6.308399754751686,-6.965052115266707,3.0,0.8828948828948829,1132.6376665828514,0.02330866499621242,0.10663714235767191,-0.5885437911543618,1344.3223443223442,-1.0,63.169258450070686,0.8832956082087384,
2023-08-17 20:09:29.512000,-6.602409638554217,-1.5421686746987953,-7.240963855421687,-1.471489883507051,-6.315757204169221,-6.950337216431636,3.0,0.8828948828948829,1132.6376665828514,-0.08018180758696997,0.16933745119748342,-0.3227084668725597,1380.952380952381,-1.0,63.169258450070686,0.8832931910258173,
2023-08-17 20:09:29.520000,-6.566265060240964,-1.5542168674698795,-7.228915662650603,-1.5303494788473329,-6.33292458614347,-6.920907418761495,3.0,0.8828948828948829,1132.6376665828514,-0.1828564768952865,0.21630441116485077,-0.08938873026047427,1426.3736263736262,-1.0,63.169258450070686,0.8832907694899619,
2023-08-17 20:09:29.528000,-6.578313253012048,-1.5542168674698795,-7.253012048192772,-1.5450643776824033,-6.335377069282648,-6.891477621091354,3.0,0.8828948828948829,1132.6376665828514,-0.33028378299632927,0.2981178253015559,-0.28541460287862,1476.1904761904761,-1.0,63.169258450070686,0.883288343011007,
2023-08-17 20:09:29.535000,-6.55421686746988,-1.5783132530120483,-7.240963855421687,-1.5328019619865112,-6.296137339055794,-6.933169834457388,3.0,0.8828948828948829,1132.6376665828514,-0.477244915797447,0.9422527824718835,0.08426082396130749,1528.2051282051282,-1.0,63.169258450070686,0.8832859110054431,
2023-08-17 20:09:29.543000,-6.578313253012048,-1.566265060240964,-7.240963855421687,-1.5646842427958307,-6.274064990803188,-6.893930104230533,3.0,0.8833388833388832,1132.0683588841418,-0.4097663306334125,0.7545014859273932,0.02319212167123115,1580.9523809523807,-1.0,63.169258450070686,0.8832834727675037,
2023-08-17 20:09:29.550000,-6.566265060240964,-1.5542168674698795,-7.228915662650603,-1.5278969957081545,-6.330472103004292,-6.93071735131821,3.0,0.8828948828948829,1132.6376665828514,-0.35860381096672633,1.0866499621234194,0.25033506205932055,1632.2344322344322,-1.0,63.169258450070686,0.883281027766188,
2023-08-17 20:09:29.558000,-6.566265060240964,-1.5421686746987953,-7.253012048192772,-1.5058246474555486,-6.288779889638258,-6.947884733292458,3.0,0.8828948828948829,1132.6376665828514,-0.13996853330225537,1.3214847619602579,0.21805256103956636,1677.6556776556774,-1.0,63.169258450070686,0.8832785755162388,
2023-08-17 20:09:29.566000,-6.55421686746988,-1.5542168674698795,-7.240963855421687,-1.4886572654812997,-6.244635193133047,-6.972409564684242,3.0,0.8828948828948829,1132.6376665828514,-0.19952217236757736,1.0794242759745936,0.32154303362274916,1720.8791208791208,-1.0,63.169258450070686,0.8832761154175709,
2023-08-17 20:09:29.573000,-6.566265060240964,-1.566265060240964,-7.253012048192772,-1.5009196811771919,-6.244635193133047,-6.940527283874923,3.0,0.8828948828948829,1132.6376665828514,-0.029019287920283823,1.3564477594545765,0.3052269681254004,1756.7765567765566,-1.0,63.169258450070686,0.8832736468925745,
2023-08-17 20:09:29.581000,-6.55421686746988,-1.5421686746987953,-7.265060240963856,-1.5082771305947271,-6.247087676272225,-7.011649294911097,3.0,0.8828948828948829,1132.6376665828514,-0.2876289260532598,1.0535516578287976,0.5475205407610281,1783.150183150183,-1.0,63.169258450070686,0.8832711693846707,
2023-08-17 20:09:29.589000,-6.55421686746988,-1.5421686746987953,-7.2771084337349405,-1.5009196811771919,-6.261802575107295,-6.947884733292458,3.0,0.8828948828948829,1132.6376665828514,0.0666627818891669,0.7550842025522991,0.22457898723850578,1797.8021978021977,-1.0,63.169258450070686,0.8832686823568942,
2023-08-17 20:09:29.596000,-6.55421686746988,-1.5421686746987953,-7.289156626506024,-1.4935622317596566,-6.256897608828939,-6.99202942979767,3.0,0.8820068820068818,1133.778001510194,-0.013285939047841392,1.0516869646291007,0.513956063166482,1799.2673992673992,-1.0,63.169258450070686,0.8832661854292665,
2023-08-17 20:09:29.604000,-6.542168674698796,-1.530120481927711,-7.325301204819278,-1.5205395462906193,-6.234825260576333,-6.982219497240956,3.0,0.8828948828948829,1132.6376665828514,0.07668550783753793,0.5670998193578455,0.5132568032165957,1786.8131868131868,-1.0,63.169258450070686,0.8832636781972572,
2023-08-17 20:09:29.612000,-6.55421686746988,-1.5421686746987953,-7.313253012048193,-1.449417535254445,-6.28632740649908,-7.014101778050276,3.0,0.8828948828948829,1132.6376665828514,0.07482081463784107,0.5629042596585284,0.5099935901171262,1765.5677655677655,-1.0,63.169258450070686,0.883261160178254,
2023-08-17 20:09:29.619000,-6.542168674698796,-1.5180722891566265,-7.313253012048193,-1.461679950950337,-6.237277743715512,-7.028816676885346,3.0,0.8828948828948829,1132.6376665828514,0.28378299632888526,0.31373463084901754,0.3377425557951167,1736.9963369963368,-1.0,63.169258450070686,0.8832586310017663,
2023-08-17 20:09:29.627000,-6.542168674698796,-1.530120481927711,-7.301204819277109,-1.4837522992029428,-6.222562844880441,-7.009196811771918,3.0,0.8828948828948829,1132.6376665828514,0.13798729677757768,0.28238447642911174,0.3196783404230523,1704.0293040293038,-1.0,63.169258450070686,0.8832560902805053,
2023-08-17 20:09:29.635000,-6.530120481927711,-1.5180722891566265,-7.313253012048193,-1.4101778050275904,-6.227467811158798,-6.972409564684242,3.0,0.8833388833388832,1132.0683588841418,0.027970397995454557,-0.1611794184488075,0.16327719829846735,1668.8644688644688,-1.0,63.169258450070686,0.8832535374708516,
2023-08-17 20:09:29.642000,-6.518072289156627,-1.5060240963855422,-7.2771084337349405,-1.4543225015328018,-6.278969957081545,-6.938074800735745,3.0,0.8833388833388832,1132.0683588841418,-0.21980071091428283,-0.09777984965911098,0.08542625721111802,1630.03663003663,-1.0,63.169258450070686,0.8832509720417098,
2023-08-17 20:09:29.650000,-6.542168674698796,-1.493975903614458,-7.2771084337349405,-1.4763948497854076,-6.25444512568976,-7.014101778050276,3.0,0.8828948828948829,1132.6376665828514,-0.20604859856651633,0.11782530155585304,-0.25522988170852523,1587.5457875457873,-1.0,63.169258450070686,0.88324839378229,
2023-08-17 20:09:29.658000,-6.530120481927711,-1.5060240963855422,-7.253012048192772,-1.4935622317596566,-6.298589822194972,-6.977314530962599,3.0,0.8828948828948829,1132.6376665828514,-0.29671930540178243,0.009906182623390191,-0.21105996154070272,1545.7875457875457,-1.0,63.169258450070686,0.8832458023546921,
2023-08-17 20:09:29.665000,-6.542168674698796,-1.530120481927711,-7.2771084337349405,-1.5328019619865112,-6.212752912323728,-6.965052115266707,3.0,0.8828948828948829,1132.6376665828514,-0.5237457024648909,0.6336460579220332,-0.4873841850708001,1504.7619047619046,-1.0,63.169258450070686,0.8832431972833397,
2023-08-17 20:09:29.673000,-6.55421686746988,-1.530120481927711,-7.253012048192772,-1.4297976701410178,-6.256897608828939,-6.969957081545064,3.0,0.8828948828948829,1132.6376665828514,-0.5955363906532251,1.1439892780141019,-0.5188508828156867,1468.131868131868,-1.0,63.169258450070686,0.8832405782213579,
2023-08-17 20:09:29.681000,-6.566265060240964,-1.5421686746987953,-7.2771084337349405,-1.491109748620478,-6.264255058246475,-6.962599632127529,3.0,0.8828948828948829,1132.6376665828514,-1.019754093584289,1.2227725657013002,-0.1672396713478236,1438.095238095238,-1.0,63.169258450070686,0.8832379448015525,
2023-08-17 20:09:29.688000,-6.55421686746988,-1.5060240963855422,-7.253012048192772,-1.5009196811771919,-6.266707541385653,-6.947884733292458,3.0,0.8828948828948829,1132.6376665828514,-1.162869296661034,1.301905483363441,-0.4116310238331102,1410.2564102564102,-1.0,63.169258450070686,0.8832352966367495,
2023-08-17 20:09:29.696000,-6.566265060240964,-1.5180722891566265,-7.2771084337349405,-1.4984671980380133,-6.261802575107295,-6.982219497240956,3.0,0.8828948828948829,1132.6376665828514,-1.0782588427247835,1.776120272711381,-0.38167938931297707,1385.3479853479853,-1.0,63.169258450070686,0.8832326333202241,
2023-08-17 20:09:29.704000,-6.55421686746988,-1.5060240963855422,-7.253012048192772,-1.513182096873084,-6.328019619865113,-6.889025137952176,3.0,0.8828948828948829,1132.6376665828514,-0.7519375327778096,1.729502942718956,-0.3213099469727871,1360.4395604395604,-1.0,63.169258450070686,0.8832299542874763,
2023-08-17 20:09:29.711000,-6.566265060240964,-1.5421686746987953,-7.240963855421687,-1.449417535254445,-6.303494788473329,-6.91354996934396,3.0,0.8828948828948829,1132.6376665828514,-0.5774721752811607,1.6958219217994284,-0.18367228017015322,1337.7289377289376,-1.0,63.169258450070686,0.8832272589759971,
2023-08-17 20:09:29.719000,-6.590361445783133,-1.5421686746987953,-7.2048192771084345,-1.466584917228694,-6.340282035561005,-6.896382587369711,3.0,0.8828948828948829,1132.6376665828514,-0.3294679797214617,1.3123943826117352,0.012936309072898016,1319.4139194139193,-1.0,63.169258450070686,0.8832245468148914,
2023-08-17 20:09:29.727000,-6.602409638554217,-1.5421686746987953,-7.216867469879518,-1.4763948497854076,-6.352544451256898,-6.950337216431636,3.0,0.8828948828948829,1132.6376665828514,0.16397645824835452,1.3275450148592736,0.436221665404114,1306.227106227106,-1.0,63.169258450070686,0.883221817097056,
2023-08-17 20:09:29.734000,-6.602409638554217,-1.5542168674698795,-7.168674698795181,-1.5916615573267934,-6.313304721030042,-6.889025137952176,3.0,0.8828948828948829,1132.6376665828514,0.39146902861138644,1.041431152030768,0.5838820581551193,1294.5054945054944,-1.0,63.169258450070686,0.8832190692671581,
2023-08-17 20:09:29.742000,-6.590361445783133,-1.5421686746987953,-7.228915662650603,-1.4420600858369097,-6.281422440220723,-6.893930104230533,3.0,0.8828948828948829,1132.6376665828514,0.5845813181050057,0.9389895693724132,1.0851348988986655,1286.4468864468863,-1.0,63.169258450070686,0.883216302762793,
2023-08-17 20:09:29.750000,-6.578313253012048,-1.530120481927711,-7.240963855421687,-1.461679950950337,-6.283874923359901,-6.957694665849172,3.0,0.8820068820068818,1133.778001510194,0.7313093642561617,1.0849018122487033,0.8180175980420719,1277.6556776556777,-1.0,63.169258450070686,0.883213517026262,
2023-08-17 20:09:29.757000,-6.578313253012048,-1.530120481927711,-7.240963855421687,-1.4862047823421214,-6.264255058246475,-6.955242182709993,3.0,0.8824508824508824,1133.2075471698113,1.242468387623098,0.9992424683876219,1.210535516578288,1271.7948717948716,-1.0,63.169258450070686,0.8832107114744521,
2023-08-17 20:09:29.765000,-6.590361445783133,-1.5180722891566265,-7.2771084337349405,-1.4935622317596566,-6.313304721030042,-6.955242182709993,3.0,0.8824508824508824,1133.2075471698113,1.2020278538546696,0.6850416642386811,1.3366353942077964,1266.6666666666665,-1.0,63.169258450070686,0.8832078852984157,
2023-08-17 20:09:29.773000,-6.578313253012048,-1.530120481927711,-7.337349397590362,-1.4641324340895157,-6.293684855916616,-7.065603923973022,3.0,0.8828948828948829,1132.6376665828514,1.2839578113163574,0.09824602295903433,1.3873317405745584,1264.4688644688645,-1.0,63.169258450070686,0.8832050376343841,
2023-08-17 20:09:29.780000,-6.590361445783133,-1.5060240963855422,-7.337349397590362,-1.3979153893316982,-6.1955855303494785,-7.016554261189454,3.0,0.8828948828948829,1132.6376665828514,1.4264902977681946,-0.1772623972961942,1.1621700367111472,1263.7362637362637,-1.0,63.169258450070686,0.8832021675853746,
2023-08-17 20:09:29.788000,-6.55421686746988,-1.4819277108433735,-7.349397590361447,-1.4567749846719804,-6.229920294297976,-7.045984058859595,3.0,0.8828948828948829,1132.6376665828514,1.3704329584523047,-0.14323174640172398,0.9836256628401607,1267.3992673992673,-1.0,63.169258450070686,0.8831992744027045,
2023-08-17 20:09:29.796000,-6.530120481927711,-1.493975903614458,-7.349397590361447,-1.4739423666462292,-6.2323727774371545,-7.048436541998774,3.0,0.8828948828948829,1132.6376665828514,1.1620534933861664,-0.06363265543965994,0.8674319678340424,1272.5274725274724,-1.0,63.169258450070686,0.883196357477037,
2023-08-17 20:09:29.803000,-6.46987951807229,-1.4698795180722892,-7.325301204819278,-1.4224402207234825,-6.1955855303494785,-7.058246474555487,3.0,0.8828948828948829,1132.6376665828514,1.247130120622342,-0.10687022900763359,0.7394673970048367,1279.120879120879,-1.0,63.169258450070686,0.8831934160529028,
2023-08-17 20:09:29.811000,-6.506024096385542,-1.4819277108433735,-7.349397590361447,-1.4248927038626609,-6.222562844880441,-7.063151440833844,3.0,0.8828948828948829,1132.6376665828514,0.5994988637025822,0.0643319153895467,0.6726880717906881,1284.9816849816848,-1.0,63.169258450070686,0.8831904493905851,
2023-08-17 20:09:29.819000,-6.481927710843374,-1.4698795180722892,-7.337349397590362,-1.4862047823421214,-6.1587982832618025,-7.016554261189454,3.0,0.8828948828948829,1132.6376665828514,0.2919410290775594,0.521414835965269,0.362449740691102,1293.040293040293,-1.0,63.169258450070686,0.8831874567579157,
2023-08-17 20:09:29.826000,-6.481927710843374,-1.4819277108433735,-7.337349397590362,-1.3807480073574494,-6.1735131820968725,-7.050889025137952,3.0,0.8828948828948829,1132.6376665828514,-0.22481207388846747,0.6976283433366357,0.19276265951867602,1303.2967032967033,-1.0,63.169258450070686,0.8831844373046778,
2023-08-17 20:09:29.834000,-6.46987951807229,-1.4819277108433735,-7.337349397590362,-1.4567749846719804,-6.175965665236051,-7.082771305947271,3.0,0.8828948828948829,1132.6376665828514,-0.5232795291649677,1.0830371190490065,0.14579569955130825,1315.018315018315,-1.0,63.169258450070686,0.8831813902140867,
2023-08-17 20:09:29.842000,-6.457831325301205,-1.4698795180722892,-7.337349397590362,-1.4126302881667687,-6.215205395462906,-7.023911710606989,3.0,0.8828948828948829,1132.6376665828514,-0.8357321834391942,0.7293281277314839,-0.39240137521123486,1329.6703296703297,-1.0,63.169258450070686,0.883178314705344,
2023-08-17 20:09:29.849000,-6.481927710843374,-1.4698795180722892,-7.325301204819278,-1.4567749846719804,-6.163703249540159,-7.072961373390558,3.0,0.8828948828948829,1132.6376665828514,-0.9774488666161638,0.9743021968416761,-0.37573567973894295,1345.7875457875457,-1.0,63.169258450070686,0.8831752101752883,
2023-08-17 20:09:29.857000,-6.481927710843374,-1.493975903614458,-7.325301204819278,-1.4641324340895157,-6.225015328019619,-7.043531575720417,3.0,0.8828948828948829,1132.6376665828514,-0.9786142998659757,0.7017073597109719,-0.5877279878794941,1362.6373626373625,-1.0,63.169258450070686,0.8831720760425178,
2023-08-17 20:09:29.865000,-6.481927710843374,-1.5180722891566265,-7.301204819277109,-1.449417535254445,-6.207847946045371,-6.994481912936848,3.0,0.8828948828948829,1132.6376665828514,-1.0741798263504456,0.4474098246022973,-0.570246489132335,1374.3589743589744,-1.0,63.169258450070686,0.8831689117620851,
2023-08-17 20:09:29.872000,-6.518072289156627,-1.5180722891566265,-7.337349397590362,-1.4739423666462292,-6.156345800122624,-7.072961373390558,3.0,0.8828948828948829,1132.6376665828514,-0.8807179068818839,0.2075636617912707,-0.6094050463259715,1383.150183150183,-1.0,63.169258450070686,0.8831657169580869,
2023-08-17 20:09:29.880000,-6.493975903614458,-1.5421686746987953,-7.301204819277109,-1.5156345800122624,-6.163703249540159,-7.004291845493562,3.0,0.8828948828948829,1132.6376665828514,-0.8440067595128492,0.3706077734397768,-0.7579977856768253,1389.7435897435896,-1.0,63.169258450070686,0.8831624912796159,
2023-08-17 20:09:29.888000,-6.481927710843374,-1.5542168674698795,-7.349397590361447,-1.5205395462906193,-6.188228080931943,-7.058246474555487,3.0,0.8828948828948829,1132.6376665828514,-0.837596876638891,0.36466406386574196,-0.7546180292523745,1396.3369963369962,-1.0,63.169258450070686,0.8831592344060578,
2023-08-17 20:09:29.895000,-6.493975903614458,-1.566265060240964,-7.373493975903615,-1.5744941753525443,-6.266707541385653,-7.05334150827713,3.0,0.8828948828948829,1132.6376665828514,-0.879552473632072,-0.21851873433949015,-0.7203542917079422,1404.3956043956043,-1.0,63.169258450070686,0.883155945913673,
2023-08-17 20:09:29.903000,-6.518072289156627,-1.5542168674698795,-7.337349397590362,-1.5499693439607602,-6.188228080931943,-6.984671980380135,3.0,0.8824508824508824,1133.2075471698113,-0.47934269564710724,-0.400093234659984,-0.7769943476487385,1407.3260073260071,-1.0,63.169258450070686,0.8831526254400444,
2023-08-17 20:09:29.911000,-6.518072289156627,-1.566265060240964,-7.337349397590362,-1.5107296137339055,-6.200490496627835,-6.994481912936848,3.0,0.8824508824508824,1133.2075471698113,-0.1883340131693962,-1.0071674144863345,-0.5278247188392285,1409.5238095238094,-1.0,63.169258450070686,0.8831492729451904,
2023-08-17 20:09:29.918000,-6.530120481927711,-1.5783132530120483,-7.301204819277109,-1.5475168608215817,-6.229920294297976,-6.989576946658492,3.0,0.8824508824508824,1133.2075471698113,-0.09684750305926255,-1.718431326845754,-0.5561447468096264,1408.7912087912086,-1.0,63.169258450070686,0.8831458882275591,
2023-08-17 20:09:29.926000,-6.518072289156627,-1.5542168674698795,-7.2771084337349405,-1.4837522992029428,-6.200490496627835,-7.016554261189454,3.0,0.8828948828948829,1132.6376665828514,0.28121904317930163,-2.0763358778625953,-0.829438843890216,1403.6630036630036,-1.0,63.169258450070686,0.8831424708112038,
2023-08-17 20:09:29.933000,-6.506024096385542,-1.5542168674698795,-7.2771084337349405,-1.5180870631514407,-6.242182709993869,-7.016554261189454,3.0,0.8828948828948829,1132.6376665828514,0.44507895810267534,-2.1557018821746996,-1.1324514888409767,1396.3369963369962,-1.0,63.169258450070686,0.8831390203966064,
2023-08-17 20:09:29.941000,-6.55421686746988,-1.5542168674698795,-7.289156626506024,-1.491109748620478,-6.288779889638258,-6.994481912936848,3.0,0.8828948828948829,1132.6376665828514,-0.12540061767962304,-1.684284132626303,-0.3337800827457609,1389.0109890109889,-1.0,63.169258450070686,0.8831355368851723,
2023-08-17 20:09:29.949000,-6.55421686746988,-1.5421686746987953,-7.2771084337349405,-1.4886572654812997,-6.259350091968117,-6.960147148988351,3.0,0.8828948828948829,1132.6376665828514,0.08635860381096644,-1.6906940155002628,-0.5771225453062173,1380.952380952381,-1.0,63.169258450070686,0.883132020244442,
2023-08-17 20:09:29.956000,-6.542168674698796,-1.5421686746987953,-7.289156626506024,-1.5082771305947271,-6.259350091968117,-6.982219497240956,3.0,0.8828948828948829,1132.6376665828514,-0.329934153021385,-1.209370083328478,-0.7132451488840977,1374.3589743589744,-1.0,63.169258450070686,0.8831284703731268,
2023-08-17 20:09:29.964000,-6.542168674698796,-1.5421686746987953,-7.2771084337349405,-1.4837522992029428,-6.256897608828939,-7.023911710606989,3.0,0.8828948828948829,1132.6376665828514,-0.5777052619311224,-0.27212866383077905,-0.6505448400442867,1368.4981684981683,-1.0,63.169258450070686,0.88312488726384,
2023-08-17 20:09:29.972000,-6.578313253012048,-1.5180722891566265,-7.289156626506024,-1.513182096873084,-6.305947271612507,-6.935622317596566,3.0,0.8828948828948829,1132.6376665828514,-0.5316706485636035,0.5970514538779794,-0.6522929899190026,1360.4395604395604,-1.0,63.169258450070686,0.8831212711341011,
2023-08-17 20:09:29.979000,-6.578313253012048,-1.5180722891566265,-7.265060240963856,-1.4763948497854076,-6.259350091968117,-6.960147148988351,3.0,0.8828948828948829,1132.6376665828514,-0.5766563720062932,0.6666278188916724,-0.5885437911543618,1349.4505494505493,-1.0,63.169258450070686,0.8831176222804041,
2023-08-17 20:09:29.987000,-6.578313253012048,-1.493975903614458,-7.253012048192772,-1.4763948497854076,-6.27161250766401,-6.893930104230533,3.0,0.8828948828948829,1132.6376665828514,-0.40848435405862155,0.6901695705378466,-0.5393625080123534,1336.9963369963368,-1.0,63.169258450070686,0.8831139410813429,
2023-08-17 20:09:29.995000,-6.578313253012048,-1.530120481927711,-7.289156626506024,-1.466584917228694,-6.264255058246475,-6.99202942979767,3.0,0.8828948828948829,1132.6376665828514,-0.6212924654740403,0.9133500378765805,-0.2912417691276736,1326.7399267399267,-1.0,63.169258450070686,0.883110228000475,
2023-08-17 20:09:30.002000,-6.578313253012048,-1.5180722891566265,-7.2771084337349405,-1.4592274678111588,-6.330472103004292,-6.957694665849172,3.0,0.8828948828948829,1132.6376665828514,-0.22073305751413125,0.631548278072373,-0.09183614008507704,1317.216117216117,-1.0,63.169258450070686,0.8831064835889125,
2023-08-17 20:09:30.010000,-6.578313253012048,-1.5180722891566265,-7.301204819277109,-1.466584917228694,-6.259350091968117,-6.916002452483139,3.0,0.8828948828948829,1132.6376665828514,-0.06794475846395957,0.21245848144047624,0.306042771400268,1310.6227106227104,-1.0,63.169258450070686,0.8831027084876213,
2023-08-17 20:09:30.018000,-6.578313253012048,-1.5060240963855422,-7.289156626506024,-1.419987737584304,-6.234825260576333,-6.94543225015328,3.0,0.8828948828948829,1132.6376665828514,0.1305285239787885,-0.3873900122370485,0.5951867606782821,1307.6923076923076,-1.0,63.169258450070686,0.8830989034294182,
2023-08-17 20:09:30.025000,-6.566265060240964,-1.530120481927711,-7.313253012048193,-1.4984671980380133,-6.269160024524831,-6.91354996934396,3.0,0.8828948828948829,1132.6376665828514,0.11712604160596629,-0.49589184779441725,0.2252782471883921,1306.227106227106,-1.0,63.169258450070686,0.8830950692406461,
2023-08-17 20:09:30.033000,-6.55421686746988,-1.5421686746987953,-7.313253012048193,-1.4543225015328018,-6.278969957081545,-6.994481912936848,3.0,0.8828948828948829,1132.6376665828514,0.5941378707534534,-0.7112639123594195,0.590874657653983,1304.7619047619046,-1.0,63.169258450070686,0.8830912068425308,
2023-08-17 20:09:30.041000,-6.542168674698796,-1.5180722891566265,-7.289156626506024,-1.5156345800122624,-6.207847946045371,-7.058246474555487,3.0,0.8828948828948829,1132.6376665828514,0.9598508245440246,-1.4165841151448044,0.4485752578521065,1303.2967032967033,-1.0,63.169258450070686,0.8830873172521865,
2023-08-17 20:09:30.048000,-6.530120481927711,-1.5060240963855422,-7.301204819277109,-1.4788473329245861,-6.259350091968117,-7.001839362354383,3.0,0.8828948828948829,1132.6376665828514,1.0441116485053326,-1.3049356098129479,0.9367752461977739,1300.3663003663003,-1.0,63.169258450070686,0.8830834015832845,
2023-08-17 20:09:30.056000,-6.518072289156627,-1.5180722891566265,-7.313253012048193,-1.4837522992029428,-6.207847946045371,-7.011649294911097,3.0,0.8824508824508824,1133.2075471698113,0.9632305809684758,-1.3599440592040086,0.47339898607307285,1299.6336996336995,-1.0,63.169258450070686,0.8830794610463623,
2023-08-17 20:09:30.064000,-6.506024096385542,-1.530120481927711,-7.325301204819278,-1.4690374003678723,-6.220110361741263,-7.033721643163703,3.0,0.8824508824508824,1133.2075471698113,0.5746751354816154,-1.2275508420255232,0.4857525785210654,1299.6336996336995,-1.0,63.169258450070686,0.8830754969382316,
2023-08-17 20:09:30.071000,-6.506024096385542,-1.5060240963855422,-7.2771084337349405,-1.4788473329245861,-6.178418148375229,-6.982219497240956,3.0,0.8828948828948829,1132.6376665828514,0.7997202960200446,-1.0502884447293273,0.6048598566517103,1298.9010989010987,-1.0,63.169258450070686,0.8830715104605609,
2023-08-17 20:09:30.079000,-6.506024096385542,-1.5180722891566265,-7.289156626506024,-1.496014714898835,-6.207847946045371,-6.996934396076027,3.0,0.8828948828948829,1132.6376665828514,0.533768428413262,-0.7952916496707658,0.5418099178369558,1298.9010989010987,-1.0,63.169258450070686,0.883067502877839,
2023-08-17 20:09:30.087000,-6.493975903614458,-1.5060240963855422,-7.289156626506024,-1.4592274678111588,-6.171060698957694,-6.99202942979767,3.0,0.8828948828948829,1132.6376665828514,0.38902161878678365,-0.21886836431443438,0.052327952916496674,1296.7032967032967,-1.0,63.169258450070686,0.883063475685333,
2023-08-17 20:09:30.094000,-6.46987951807229,-1.5180722891566265,-7.289156626506024,-1.4592274678111588,-6.139178418148375,-7.019006744328633,3.0,0.8828948828948829,1132.6376665828514,-0.1333255637783338,0.37049123011479596,0.038342753918769394,1293.040293040293,-1.0,63.169258450070686,0.8830594304682701,
2023-08-17 20:09:30.102000,-6.493975903614458,-1.493975903614458,-7.313253012048193,-1.3782955242182708,-6.217657878602084,-7.031269160024524,3.0,0.8828948828948829,1132.6376665828514,-0.45498514072606555,0.8501835557368457,-0.18577006001981217,1291.5750915750914,-1.0,63.169258450070686,0.8830553688994336,
2023-08-17 20:09:30.110000,-6.493975903614458,-1.5060240963855422,-7.325301204819278,-1.4445125689760883,-6.171060698957694,-7.043531575720417,3.0,0.8828948828948829,1132.6376665828514,-0.5469378241361226,0.7922615232212572,-0.14929199930074008,1290.10989010989,-1.0,63.169258450070686,0.8830512927364236,
2023-08-17 20:09:30.117000,-6.518072289156627,-1.493975903614458,-7.36144578313253,-1.5107296137339055,-6.222562844880441,-7.023911710606989,3.0,0.8828948828948829,1132.6376665828514,-0.34706602179360097,0.8690635743837777,-0.2821513897791505,1291.5750915750914,-1.0,63.169258450070686,0.8830472038186075,
2023-08-17 20:09:30.125000,-6.506024096385542,-1.5060240963855422,-7.349397590361447,-1.4812998160637645,-6.168608215818516,-7.009196811771918,3.0,0.8828948828948829,1132.6376665828514,-0.23821455626128968,0.7268807179068812,-0.3220092069226734,1291.5750915750914,-1.0,63.169258450070686,0.8830431040637616,
2023-08-17 20:09:30.133000,-6.518072289156627,-1.5060240963855422,-7.349397590361447,-1.4690374003678723,-6.198038013488657,-7.117106069895769,3.0,0.8828948828948829,1132.6376665828514,-0.4667560165491526,0.050929433016724465,-0.5313210185886601,1292.3076923076922,-1.0,63.169258450070686,0.8830389953256782,
2023-08-17 20:09:30.140000,-6.506024096385542,-1.493975903614458,-7.337349397590362,-1.4592274678111588,-6.190680564071122,-7.065603923973022,3.0,0.8824508824508824,1133.2075471698113,-0.4796923256220497,0.06316648213973486,-0.43284190897966324,1293.7728937728937,-1.0,63.169258450070686,0.8830348795493809,
2023-08-17 20:09:30.148000,-6.542168674698796,-1.530120481927711,-7.36144578313253,-1.4739423666462292,-6.215205395462906,-6.989576946658492,3.0,0.8828948828948829,1132.6376665828514,-0.13903618670240694,-0.21886836431443438,-0.2904259658528055,1295.970695970696,-1.0,63.169258450070686,0.8830307587452695,
2023-08-17 20:09:30.156000,-6.530120481927711,-1.5180722891566265,-7.337349397590362,-1.471489883507051,-6.220110361741263,-7.021459227467811,3.0,0.8828948828948829,1132.6376665828514,-0.12260357788007775,-1.0027387681370556,-0.653341879843832,1297.4358974358975,-1.0,63.169258450070686,0.8830266349630351,
2023-08-17 20:09:30.163000,-6.542168674698796,-1.5421686746987953,-7.337349397590362,-1.4837522992029428,-6.266707541385653,-7.00674432863274,3.0,0.8824508824508824,1133.2075471698113,-0.12306975118000109,-1.002039508187169,-0.6494959501194569,1301.098901098901,-1.0,63.169258450070686,0.8830225104461709,
2023-08-17 20:09:30.171000,-6.530120481927711,-1.530120481927711,-7.337349397590362,-1.5058246474555486,-6.323114653586757,-6.994481912936848,3.0,0.8824508824508824,1133.2075471698113,-0.24439135248528618,-1.1836140085076627,-0.3863411223122197,1305.4945054945053,-1.0,63.169258450070686,0.8830183873391155,
2023-08-17 20:09:30.179000,-6.518072289156627,-1.5421686746987953,-7.325301204819278,-1.4862047823421214,-6.225015328019619,-7.001839362354383,3.0,0.8828948828948829,1132.6376665828514,0.09346774663481136,-1.2564535866208262,-0.1842549967950587,1310.6227106227104,-1.0,63.169258450070686,0.8830142675216405,
2023-08-17 20:09:30.186000,-6.518072289156627,-1.530120481927711,-7.337349397590362,-1.5450643776824033,-6.2323727774371545,-7.048436541998774,3.0,0.8824508824508824,1133.2075471698113,0.2900763358778626,-1.1744070858341593,-0.13810384010255808,1315.018315018315,-1.0,63.169258450070686,0.8830101530491999,
2023-08-17 20:09:30.194000,-6.542168674698796,-1.530120481927711,-7.337349397590362,-1.5622317596566522,-6.242182709993869,-6.999386879215205,3.0,0.8828948828948829,1132.6376665828514,-0.23285356331216078,-1.106229240720238,-0.27422644368043847,1320.14652014652,-1.0,63.169258450070686,0.8830060461459861,
2023-08-17 20:09:30.202000,-6.542168674698796,-1.5421686746987953,-7.289156626506024,-1.437155119558553,-6.256897608828939,-6.974862047823421,3.0,0.8824508824508824,1133.2075471698113,-0.3555736845172194,-0.9303653633238157,-0.12167123128022846,1324.5421245421244,-1.0,63.169258450070686,0.883001949038768,
2023-08-17 20:09:30.209000,-6.542168674698796,-1.5180722891566265,-7.337349397590362,-1.5303494788473329,-6.23973022685469,-6.965052115266707,3.0,0.8820068820068818,1133.778001510194,-0.0643319153895467,-0.9995920983625661,0.060485985665171285,1325.2747252747251,-1.0,63.169258450070686,0.8829978639609345,
2023-08-17 20:09:30.217000,-6.518072289156627,-1.5180722891566265,-7.301204819277109,-1.4420600858369097,-6.210300429184549,-6.952789699570815,3.0,0.8824508824508824,1133.2075471698113,0.1335586504282972,-0.81999883456675,-0.3539420779674842,1320.8791208791208,-1.0,63.169258450070686,0.8829937929754946,
2023-08-17 20:09:30.225000,-6.530120481927711,-1.5060240963855422,-7.313253012048193,-1.4445125689760883,-6.27161250766401,-6.957694665849172,3.0,0.8824508824508824,1133.2075471698113,-0.327486743196784,-0.8568265252607655,-6.992599498863206E-4,1315.018315018315,-1.0,63.169258450070686,0.8829897380745982,
2023-08-17 20:09:30.232000,-6.518072289156627,-1.530120481927711,-7.301204819277109,-1.5058246474555486,-6.264255058246475,-6.994481912936848,3.0,0.8828948828948829,1132.6376665828514,-0.41920633995687934,-0.7099819357846269,-0.2924072023774841,1309.1575091575091,-1.0,63.169258450070686,0.8829857012031724,
2023-08-17 20:09:30.240000,-6.530120481927711,-1.5060240963855422,-7.313253012048193,-1.471489883507051,-6.217657878602084,-6.923359901900674,3.0,0.8828948828948829,1132.6376665828514,-0.4161762135073706,-0.21420663131519224,-0.12260357788007688,1303.2967032967033,-1.0,63.169258450070686,0.8829816844105666,
2023-08-17 20:09:30.248000,-6.542168674698796,-1.5060240963855422,-7.289156626506024,-1.4788473329245861,-6.234825260576333,-6.974862047823421,3.0,0.8828948828948829,1132.6376665828514,-0.4287628926053253,-0.3786492628634701,-0.1672396713478236,1300.3663003663003,-1.0,63.169258450070686,0.8829776898641444,
2023-08-17 20:09:30.255000,-6.530120481927711,-1.5060240963855422,-7.2771084337349405,-1.5009196811771919,-6.244635193133047,-6.918454935622317,3.0,0.8824508824508824,1133.2075471698113,0.020395081871686302,0.1571004020744713,-0.2723617504807412,1298.168498168498,-1.0,63.169258450070686,0.8829737197039065,
2023-08-17 20:09:30.263000,-6.55421686746988,-1.5060240963855422,-7.2771084337349405,-1.4567749846719804,-6.259350091968117,-6.999386879215205,3.0,0.8828948828948829,1132.6376665828514,-0.5428588077617846,0.4123302837829961,-0.11665986830604294,1298.168498168498,-1.0,63.169258450070686,0.8829697758867526,
2023-08-17 20:09:30.271000,-6.542168674698796,-1.5180722891566265,-7.301204819277109,-1.419987737584304,-6.23973022685469,-7.0680564071122,3.0,0.8828948828948829,1132.6376665828514,-0.017831128722102692,0.39216828856127317,-0.2685158207563662,1299.6336996336995,-1.0,63.169258450070686,0.8829658603076791,
2023-08-17 20:09:30.278000,-6.55421686746988,-1.5421686746987953,-7.289156626506024,-1.5401594114040464,-6.261802575107295,-6.967504598405886,3.0,0.8824508824508824,1133.2075471698113,-0.24509061243517294,0.40312336110949265,-0.18786783986947156,1302.5641025641025,-1.0,63.169258450070686,0.8829619749527651,
2023-08-17 20:09:30.286000,-6.530120481927711,-1.493975903614458,-7.313253012048193,-1.5009196811771919,-6.225015328019619,-6.994481912936848,3.0,0.8828948828948829,1132.6376665828514,-0.31839636384826137,0.09195268341005701,-0.5190839694656488,1304.7619047619046,-1.0,63.169258450070686,0.882958121605275,
2023-08-17 20:09:30.294000,-6.542168674698796,-1.530120481927711,-7.289156626506024,-1.491109748620478,-6.237277743715512,-7.0410790925812385,3.0,0.8828948828948829,1132.6376665828514,0.006992599498864074,-0.2776062001048888,-0.02389138162111747,1305.4945054945053,-1.0,63.169258450070686,0.8829543019675649,
2023-08-17 20:09:30.301000,-6.542168674698796,-1.530120481927711,-7.349397590361447,-1.4248927038626609,-6.237277743715512,-7.050889025137952,3.0,0.8828948828948829,1132.6376665828514,0.1616455917487326,0.08868947031058838,-0.29450498222714305,1306.9597069597069,-1.0,63.169258450070686,0.8829505178148678,
2023-08-17 20:09:30.309000,-6.55421686746988,-1.530120481927711,-7.337349397590362,-1.4862047823421214,-6.217657878602084,-6.99202942979767,3.0,0.8824508824508824,1133.2075471698113,0.5143056931414258,-0.1874016665695478,-0.106054425732766,1309.1575091575091,-1.0,63.169258450070686,0.8829467708516043,
2023-08-17 20:09:30.316000,-6.530120481927711,-1.530120481927711,-7.313253012048193,-1.4763948497854076,-6.256897608828939,-6.967504598405886,3.0,0.8824508824508824,1133.2075471698113,0.03904201386865485,-0.24893654215954747,0.0667793252141486,1312.087912087912,-1.0,63.169258450070686,0.8829430625575739,
2023-08-17 20:09:30.324000,-6.530120481927711,-1.5421686746987953,-7.301204819277109,-1.5058246474555486,-6.207847946045371,-6.969957081545064,3.0,0.8824508824508824,1133.2075471698113,0.10244158265835313,-0.19019870636909308,0.09684750305926212,1312.8205128205127,-1.0,63.169258450070686,0.8829393941620208,
2023-08-17 20:09:30.332000,-6.518072289156627,-1.5060240963855422,-7.2771084337349405,-1.4788473329245861,-6.23973022685469,-7.016554261189454,3.0,0.8824508824508824,1133.2075471698113,-0.03298176096964094,-0.0393916438435991,0.26303828448225647,1315.7509157509157,-1.0,63.169258450070686,0.8829357667771186,
2023-08-17 20:09:30.339000,-6.493975903614458,-1.5180722891566265,-7.289156626506024,-1.4420600858369097,-6.266707541385653,-7.004291845493562,3.0,0.8824508824508824,1133.2075471698113,-0.2901928792028434,0.03286521764465837,-0.02960200454518974,1318.6813186813185,-1.0,63.169258450070686,0.8829321813930131,
2023-08-17 20:09:30.347000,-6.518072289156627,-1.5180722891566265,-7.337349397590362,-1.461679950950337,-6.237277743715512,-7.026364193746168,3.0,0.8824508824508824,1133.2075471698113,-0.24007924946098655,0.4556844006759523,0.2448575257852104,1321.6117216117216,-1.0,63.169258450070686,0.882928638873212,
2023-08-17 20:09:30.355000,-6.530120481927711,-1.5180722891566265,-7.36144578313253,-1.4126302881667687,-6.261802575107295,-7.009196811771918,3.0,0.8824508824508824,1133.2075471698113,-0.2832002797039794,0.43330808227958656,0.1360060602528991,1324.5421245421244,-1.0,63.169258450070686,0.8829251399503317,
2023-08-17 20:09:30.362000,-6.542168674698796,-1.493975903614458,-7.36144578313253,-1.4812998160637645,-6.234825260576333,-7.065603923973022,3.0,0.8820068820068818,1133.778001510194,-0.3108210477244914,0.03216595769477335,0.05687314259075841,1326.7399267399267,-1.0,63.169258450070686,0.8829216852222386,
2023-08-17 20:09:30.370000,-6.530120481927711,-1.5180722891566265,-7.36144578313253,-1.5082771305947271,-6.23973022685469,-7.011649294911097,3.0,0.8820068820068818,1133.778001510194,-0.17283375094691372,-0.23028961016257718,-0.004661732999242571,1326.7399267399267,1026.42822265625,58.45513468514004,0.8829182752768046,
2023-08-17 20:09:30.378000,-6.518072289156627,-1.5060240963855422,-7.349397590361447,-1.449417535254445,-6.261802575107295,-7.001839362354383,3.0,0.8824508824508824,1133.2075471698113,0.04230522696812521,0.04195559699318271,-0.09579861313443243,1325.2747252747251,-1.0,58.45513468514004,0.8829149104875021,
2023-08-17 20:09:30.385000,-6.518072289156627,-1.5180722891566265,-7.325301204819278,-1.4788473329245861,-6.229920294297976,-7.016554261189454,3.0,0.8824508824508824,1133.2075471698113,-0.23390245323699005,-0.14299865975176232,0.1185245615057398,1323.076923076923,-1.0,58.45513468514004,0.8829115908828371,
2023-08-17 20:09:30.393000,-6.506024096385542,-1.5180722891566265,-7.337349397590362,-1.5303494788473329,-6.178418148375229,-7.00674432863274,3.0,0.8824508824508824,1133.2075471698113,0.024707184895985928,-0.3391410756948902,0.2230639240137523,1320.8791208791208,-1.0,58.45513468514004,0.8829083163348379,
2023-08-17 20:09:30.401000,-6.518072289156627,-1.530120481927711,-7.337349397590362,-1.4886572654812997,-6.308399754751686,-7.026364193746168,3.0,0.8824508824508824,1133.2075471698113,0.03997436046850501,-0.3830779092127506,0.4047549676592274,1319.4139194139193,-1.0,58.45513468514004,0.8829050865670314,
2023-08-17 20:09:30.408000,-6.518072289156627,-1.5180722891566265,-7.313253012048193,-1.449417535254445,-6.220110361741263,-6.965052115266707,3.0,0.8824508824508824,1133.2075471698113,0.16397645824835452,-0.41116485053318597,0.08111415418681882,1322.3443223443223,-1.0,58.45513468514004,0.882901901152407,
2023-08-17 20:09:30.416000,-6.518072289156627,-1.5180722891566265,-7.313253012048193,-1.5082771305947271,-6.259350091968117,-6.969957081545064,3.0,0.8824508824508824,1133.2075471698113,0.6857409241885678,-0.43890216187867714,0.2795874366295669,1329.6703296703297,-1.0,58.45513468514004,0.8828987595119214,
2023-08-17 20:09:30.424000,-6.530120481927711,-1.493975903614458,-7.301204819277109,-1.5058246474555486,-6.242182709993869,-6.99202942979767,3.0,0.8824508824508824,1133.2075471698113,0.25534642503350563,-0.6999592098362576,0.17143523104714195,1339.9267399267399,-1.0,58.45513468514004,0.8828956609135804,
2023-08-17 20:09:30.431000,-6.542168674698796,-1.5060240963855422,-7.265060240963856,-1.5107296137339055,-6.28632740649908,-7.050889025137952,3.0,0.8824508824508824,1133.2075471698113,0.47223355282326235,-0.37923197948837434,0.2478876522347182,1351.6483516483515,-1.0,58.45513468514004,0.8828926044721022,
2023-08-17 20:09:30.439000,-6.530120481927711,-1.5180722891566265,-7.2771084337349405,-1.542611894543225,-6.220110361741263,-6.974862047823421,3.0,0.8824508824508824,1133.2075471698113,0.4736320727230341,-0.38214556261290217,0.24578987238505925,1365.5677655677655,-1.0,58.45513468514004,0.8828895891491876,
2023-08-17 20:09:30.447000,-6.566265060240964,-1.5180722891566265,-7.265060240963856,-1.4739423666462292,-6.25444512568976,-7.011649294911097,3.0,0.8828948828948829,1132.6376665828514,0.2449740691101921,-0.15465299224986853,0.10721985898257652,1382.4175824175823,-1.0,58.45513468514004,0.882886613893156,
2023-08-17 20:09:30.454000,-6.542168674698796,-1.530120481927711,-7.289156626506024,-1.513182096873084,-6.261802575107295,-6.955242182709993,3.0,0.8828948828948829,1132.6376665828514,0.18716857991958438,-0.18821746984441537,0.5049822271429403,1403.6630036630036,-1.0,58.45513468514004,0.8828836776306224,
2023-08-17 20:09:30.462000,-6.55421686746988,-1.530120481927711,-7.289156626506024,-1.461679950950337,-6.278969957081545,-6.987124463519313,3.0,0.8824508824508824,1133.2075471698113,0.4951925878445305,-0.054192646116194836,0.6815453644892491,1430.03663003663,-1.0,58.45513468514004,0.8828807791629065,
2023-08-17 20:09:30.470000,-6.530120481927711,-1.5060240963855422,-7.313253012048193,-1.4935622317596566,-6.276517473942366,-7.014101778050276,3.0,0.8824508824508824,1133.2075471698113,0.4792261523221264,-0.19194685624380908,0.32468970339723785,1463.003663003663,-1.0,58.45513468514004,0.8828779170315579,
2023-08-17 20:09:30.477000,-6.542168674698796,-1.5060240963855422,-7.301204819277109,-1.4690374003678723,-6.264255058246475,-7.001839362354383,3.0,0.8824508824508824,1133.2075471698113,0.19019870636909308,-0.14789347940096786,0.33214847619602567,1504.0293040293038,-1.0,58.45513468514004,0.8828750895015772,
2023-08-17 20:09:30.485000,-6.518072289156627,-1.5180722891566265,-7.325301204819278,-1.4788473329245861,-6.205395462906192,-6.996934396076027,3.0,0.8824508824508824,1133.2075471698113,0.6176796223996274,-0.04265485694306946,0.34077268224462454,1550.9157509157508,-1.0,58.45513468514004,0.8828722947043918,
2023-08-17 20:09:30.493000,-6.518072289156627,-1.530120481927711,-7.289156626506024,-1.5156345800122624,-6.225015328019619,-6.999386879215205,3.0,0.8824508824508824,1133.2075471698113,0.5067303770176559,0.07423809801293689,0.7790921274983975,1600.0,-1.0,58.45513468514004,0.8828695306426947,
2023-08-17 20:09:30.500000,-6.481927710843374,-1.530120481927711,-7.2771084337349405,-1.4739423666462292,-6.205395462906192,-7.014101778050276,3.0,0.8824508824508824,1133.2075471698113,0.2154886078899832,-0.18623623331973768,0.7670881650253483,1647.6190476190475,-1.0,58.45513468514004,0.8828667951958927,
2023-08-17 20:09:30.508000,-6.481927710843374,-1.5542168674698795,-7.301204819277109,-1.5009196811771919,-6.188228080931943,-7.019006744328633,3.0,0.8824508824508824,1133.2075471698113,0.19719130586795713,-0.017481498747160183,0.666860905541635,1693.040293040293,-1.0,58.45513468514004,0.8828640861261395,
2023-08-17 20:09:30.516000,-6.457831325301205,-1.530120481927711,-7.325301204819278,-1.4984671980380133,-6.1955855303494785,-6.987124463519313,3.0,0.8820068820068818,1133.778001510194,0.2574442048831659,0.1188741914806823,0.9315307965736261,1734.065934065934,-1.0,58.45513468514004,0.8828614012236947,
2023-08-17 20:09:30.523000,-6.46987951807229,-1.5180722891566265,-7.337349397590362,-1.5328019619865112,-6.212752912323728,-7.019006744328633,3.0,0.8824508824508824,1133.2075471698113,0.026338791445719375,0.5599906765340023,0.8754734572577354,1767.7655677655675,-1.0,58.45513468514004,0.8828587382831626,
2023-08-17 20:09:30.531000,-6.493975903614458,-1.5180722891566265,-7.325301204819278,-1.5180870631514407,-6.212752912323728,-6.979767014101777,3.0,0.8824508824508824,1133.2075471698113,0.22364664063865736,0.7232678748324683,0.821513897791504,1792.6739926739926,-1.0,58.45513468514004,0.882856094931478,
2023-08-17 20:09:30.539000,-6.506024096385542,-1.5060240963855422,-7.337349397590362,-1.4812998160637645,-6.2323727774371545,-7.043531575720417,3.0,0.8824508824508824,1133.2075471698113,-0.009206922673503438,0.8705786376085303,0.9037934852281337,1806.5934065934064,-1.0,58.45513468514004,0.8828534686685241,
2023-08-17 20:09:30.546000,-6.46987951807229,-1.5180722891566265,-7.349397590361447,-1.5352544451256898,-6.161250766400981,-7.0410790925812385,3.0,0.8824508824508824,1133.2075471698113,0.06386574208962162,1.082687489074064,0.942369325796865,1807.3260073260071,-1.0,58.45513468514004,0.8828508567481211,
2023-08-17 20:09:30.554000,-6.481927710843374,-1.5180722891566265,-7.36144578313253,-1.466584917228694,-6.175965665236051,-7.016554261189454,3.0,0.8828948828948829,1132.6376665828514,0.09102033681020859,0.7421478934794002,0.5373812714876756,1795.6043956043954,-1.0,58.45513468514004,0.8828482562078496,
2023-08-17 20:09:30.562000,-6.46987951807229,-1.5180722891566265,-7.373493975903615,-1.5107296137339055,-6.198038013488657,-7.004291845493562,3.0,0.8824508824508824,1133.2075471698113,0.16409300157333537,0.7273468912068063,0.5493852339607247,1771.4285714285713,-1.0,58.45513468514004,0.882845664176013,
2023-08-17 20:09:30.569000,-6.457831325301205,-1.5180722891566265,-7.36144578313253,-1.4347026364193745,-6.210300429184549,-7.0410790925812385,3.0,0.8824508824508824,1133.2075471698113,0.0397412738185416,0.6534584231688119,0.7289784977565408,1737.7289377289376,-1.0,58.45513468514004,0.8828430777529963,
2023-08-17 20:09:30.577000,-6.445783132530121,-1.5060240963855422,-7.36144578313253,-1.4469650521152666,-6.205395462906192,-7.055793991416309,3.0,0.8824508824508824,1133.2075471698113,0.5570770934094744,0.7310762776062,0.4499737777518792,1698.9010989010987,-1.0,58.45513468514004,0.8828404938614797,
2023-08-17 20:09:30.585000,-6.457831325301205,-1.5060240963855422,-7.337349397590362,-1.5180870631514407,-6.1931330472103,-7.021459227467811,3.0,0.8824508824508824,1133.2075471698113,0.384709515762484,0.2912417691276727,0.35615640114212443,1658.6080586080584,-1.0,58.45513468514004,0.8828379093948711,
2023-08-17 20:09:30.592000,-6.457831325301205,-1.5180722891566265,-7.337349397590362,-1.4886572654812997,-6.190680564071122,-7.004291845493562,3.0,0.8828948828948829,1132.6376665828514,0.2574442048831659,0.29532078550201063,0.24963580210943423,1618.3150183150183,-1.0,58.45513468514004,0.8828353212272968,
2023-08-17 20:09:30.600000,-6.445783132530121,-1.5060240963855422,-7.36144578313253,-1.4347026364193745,-6.153893316983446,-7.058246474555487,3.0,0.8828948828948829,1132.6376665828514,0.42386807295612144,0.3735213565643029,0.2330866499621231,1579.4871794871794,-1.0,58.45513468514004,0.8828327263731562,
2023-08-17 20:09:30.608000,-6.46987951807229,-1.493975903614458,-7.385542168674699,-1.437155119558553,-6.153893316983446,-7.124463519313304,3.0,0.8824508824508824,1133.2075471698113,0.13041198065380769,-0.05034671639181855,-0.1170094982809861,1539.9267399267399,-1.0,58.45513468514004,0.8828301220194895,
2023-08-17 20:09:30.615000,-6.481927710843374,-1.493975903614458,-7.373493975903615,-1.4837522992029428,-6.215205395462906,-7.072961373390558,3.0,0.8824508824508824,1133.2075471698113,-0.022725948371306502,0.04451955014276631,-0.082745760736554,1500.3663003663003,-1.0,58.45513468514004,0.8828275052503135,
2023-08-17 20:09:30.623000,-6.481927710843374,-1.493975903614458,-7.36144578313253,-1.3782955242182708,-6.207847946045371,-7.087676272225628,3.0,0.8824508824508824,1133.2075471698113,-0.022026688421421484,-0.2429928325855144,-0.18611968999475578,1463.7362637362637,-1.0,58.45513468514004,0.8828248730374519,
2023-08-17 20:09:30.631000,-6.506024096385542,-1.5180722891566265,-7.36144578313253,-1.4592274678111588,-6.210300429184549,-7.095033721643163,3.0,0.8824508824508824,1133.2075471698113,-0.12656605092943313,-0.011071615873200292,-0.1983567391177668,1430.03663003663,-1.0,58.45513468514004,0.8828222223905995,
2023-08-17 20:09:30.638000,-6.493975903614458,-1.5060240963855422,-7.36144578313253,-1.537706928264868,-6.198038013488657,-7.0778663396689145,3.0,0.8828948828948829,1132.6376665828514,-0.30767437795000363,-0.1475438494260236,0.01841384534700796,1402.9304029304028,-1.0,58.45513468514004,0.8828195505074207,
2023-08-17 20:09:30.646000,-6.481927710843374,-1.4819277108433735,-7.349397590361447,-1.5082771305947271,-6.205395462906192,-7.0705088902513795,3.0,0.8824508824508824,1133.2075471698113,-0.16758930132276742,-0.2863469494784689,-0.5920400909037937,1380.952380952381,-1.0,58.45513468514004,0.882816854775064,
2023-08-17 20:09:30.654000,-6.481927710843374,-1.493975903614458,-7.337349397590362,-1.4543225015328018,-6.244635193133047,-7.031269160024524,3.0,0.8824508824508824,1133.2075471698113,-0.25942544140784357,-0.026688421420663622,-0.4961249344443798,1364.102564102564,-1.0,58.45513468514004,0.8828141325264232,
2023-08-17 20:09:30.661000,-6.506024096385542,-1.493975903614458,-7.36144578313253,-1.4543225015328018,-6.217657878602084,-7.063151440833844,3.0,0.8824508824508824,1133.2075471698113,-0.2588427247829377,0.21735330108968004,-0.14393100635161138,1352.3809523809523,-1.0,58.45513468514004,0.8828113810414822,
2023-08-17 20:09:30.669000,-6.506024096385542,-1.5060240963855422,-7.337349397590362,-1.437155119558553,-6.207847946045371,-6.987124463519313,3.0,0.8820068820068818,1133.778001510194,0.07691859448750134,0.03123361109492492,-0.37422061651418903,1342.1245421245421,-1.0,58.45513468514004,0.882808597835828,
2023-08-17 20:09:30.677000,-6.506024096385542,-1.5060240963855422,-7.325301204819278,-1.5009196811771919,-6.251992642550582,-6.99202942979767,3.0,0.8824508824508824,1133.2075471698113,-0.003845929724374546,0.21770293106462255,-0.3300506963463665,1334.7985347985348,-1.0,58.45513468514004,0.8828057806405235,
2023-08-17 20:09:30.684000,-6.506024096385542,-1.5180722891566265,-7.301204819277109,-1.471489883507051,-6.261802575107295,-7.028816676885346,3.0,0.8824508824508824,1133.2075471698113,-0.34415243866907486,0.4678049064739819,-0.05745585921566346,1328.2051282051282,-1.0,58.45513468514004,0.8828029272329361,
2023-08-17 20:09:30.692000,-6.506024096385542,-1.5180722891566265,-7.325301204819278,-1.4862047823421214,-6.251992642550582,-6.967504598405886,3.0,0.8824508824508824,1133.2075471698113,0.01713186877221594,0.7320086242060484,-0.043820290192878905,1323.076923076923,-1.0,58.45513468514004,0.8828000354793762,
2023-08-17 20:09:30.699000,-6.518072289156627,-1.4819277108433735,-7.325301204819278,-1.4518700183936235,-6.215205395462906,-7.009196811771918,3.0,0.8824508824508824,1133.2075471698113,0.008041489423693338,0.46057922032515614,0.02890274459530342,1317.216117216117,-1.0,58.45513468514004,0.882797103217262,
2023-08-17 20:09:30.707000,-6.530120481927711,-1.5060240963855422,-7.337349397590362,-1.4175352544451256,-6.259350091968117,-7.072961373390558,3.0,0.8824508824508824,1133.2075471698113,0.07586970456267034,0.2713128605559115,0.1623448516986187,1311.3553113553112,-1.0,58.45513468514004,0.8827941282852669,
2023-08-17 20:09:30.715000,-6.55421686746988,-1.4819277108433735,-7.385542168674699,-1.437155119558553,-6.249540159411404,-7.045984058859595,3.0,0.8824508824508824,1133.2075471698113,0.0692267350387505,0.2818017598042076,0.1577996620243574,1306.227106227106,-1.0,58.45513468514004,0.8827911086804364,
2023-08-17 20:09:30.722000,-6.530120481927711,-1.5060240963855422,-7.373493975903615,-1.4641324340895157,-6.298589822194972,-7.065603923973022,3.0,0.8824508824508824,1133.2075471698113,-0.04300448691801197,0.3837771691626356,0.2153720645650019,1301.098901098901,-1.0,58.45513468514004,0.8827880425655418,
2023-08-17 20:09:30.730000,-6.530120481927711,-1.5060240963855422,-7.349397590361447,-1.4739423666462292,-6.234825260576333,-7.058246474555487,3.0,0.8824508824508824,1133.2075471698113,0.6108035662257442,-0.05209486626653457,0.33506205932055244,1297.4358974358975,-1.0,58.45513468514004,0.882784928275921,
2023-08-17 20:09:30.738000,-6.530120481927711,-1.5180722891566265,-7.313253012048193,-1.491109748620478,-6.269160024524831,-7.043531575720417,3.0,0.8824508824508824,1133.2075471698113,0.1335586504282972,-0.07214031816327662,0.30441116485053327,1295.970695970696,-1.0,58.45513468514004,0.8827817644645337,
2023-08-17 20:09:30.745000,-6.530120481927711,-1.5060240963855422,-7.325301204819278,-1.449417535254445,-6.178418148375229,-7.038626609442059,3.0,0.8828948828948829,1132.6376665828514,0.24182739933570255,-0.4451955014276562,0.473632072723035,1296.7032967032967,-1.0,58.45513468514004,0.8827785499485782,
2023-08-17 20:09:30.753000,-6.530120481927711,-1.493975903614458,-7.337349397590362,-1.4469650521152666,-6.256897608828939,-6.972409564684242,3.0,0.8824508824508824,1133.2075471698113,0.3813297593380346,-0.35802109434182217,0.37060777343977613,1298.168498168498,-1.0,58.45513468514004,0.8827752838750758,
2023-08-17 20:09:30.761000,-6.518072289156627,-1.493975903614458,-7.313253012048193,-1.471489883507051,-6.207847946045371,-6.987124463519313,3.0,0.8824508824508824,1133.2075471698113,0.3224753802225976,-0.07179068818833412,-0.02365829497115558,1301.098901098901,-1.0,58.45513468514004,0.8827719657267137,
2023-08-17 20:09:30.768000,-6.506024096385542,-1.5060240963855422,-7.313253012048193,-1.4396076026977314,-6.198038013488657,-6.984671980380135,3.0,0.8824508824508824,1133.2075471698113,0.40545422760911287,-0.09358428995979219,0.4430977215779966,1305.4945054945053,-1.0,58.45513468514004,0.8827685950186323,
2023-08-17 20:09:30.776000,-6.506024096385542,-1.5060240963855422,-7.325301204819278,-1.419987737584304,-6.247087676272225,-7.065603923973022,3.0,0.8824508824508824,1133.2075471698113,0.30441116485053327,0.35580677116718107,0.5715284657071268,1312.087912087912,-1.0,58.45513468514004,0.8827651714415278,
2023-08-17 20:09:30.784000,-6.506024096385542,-1.5060240963855422,-7.349397590361447,-1.4518700183936235,-6.200490496627835,-7.036174126302881,3.0,0.8824508824508824,1133.2075471698113,-0.10046034613367542,0.4767787424975236,0.2567449449332787,1318.6813186813185,-1.0,58.45513468514004,0.8827616948651411,
2023-08-17 20:09:30.791000,-6.506024096385542,-1.5060240963855422,-7.385542168674699,-1.4297976701410178,-6.198038013488657,-7.080318822808093,3.0,0.8824508824508824,1133.2075471698113,0.20127032224229335,0.3046442515004949,0.41605967018239065,1328.2051282051282,-1.0,58.45513468514004,0.882758165202119,
2023-08-17 20:09:30.799000,-6.506024096385542,-1.493975903614458,-7.385542168674699,-1.4396076026977314,-6.175965665236051,-7.063151440833844,3.0,0.8824508824508824,1133.2075471698113,0.0882232970106633,0.2561622283083732,0.34391935201911317,1338.4615384615383,-1.0,58.45513468514004,0.8827545824301173,
2023-08-17 20:09:30.807000,-6.506024096385542,-1.493975903614458,-7.373493975903615,-1.4567749846719804,-6.198038013488657,-7.043531575720417,3.0,0.8824508824508824,1133.2075471698113,0.15779966202435805,0.3307499562962526,0.622690985373813,1349.4505494505493,-1.0,58.45513468514004,0.8827509467406336,
2023-08-17 20:09:30.814000,-6.493975903614458,-1.5060240963855422,-7.36144578313253,-1.4935622317596566,-6.207847946045371,-7.048436541998774,3.0,0.8824508824508824,1133.2075471698113,-0.24567332906007885,0.25173358195909273,0.822096614416409,1360.4395604395604,-1.0,58.45513468514004,0.8827472585378607,
2023-08-17 20:09:30.822000,-6.481927710843374,-1.5180722891566265,-7.349397590361447,-1.4812998160637645,-6.14653586756591,-7.065603923973022,3.0,0.8820068820068818,1133.778001510194,0.14299865975176232,0.18984907639414883,0.500437037468679,1367.032967032967,-1.0,58.45513468514004,0.8827435184368636,
2023-08-17 20:09:30.830000,-6.481927710843374,-1.5060240963855422,-7.36144578313253,-1.461679950950337,-6.156345800122624,-7.0778663396689145,3.0,0.8824508824508824,1133.2075471698113,-0.08426082396130792,0.40673620418390555,0.45370316415127376,1370.6959706959706,-1.0,58.45513468514004,0.882739727389297,
2023-08-17 20:09:30.837000,-6.46987951807229,-1.530120481927711,-7.373493975903615,-1.4543225015328018,-6.2029429797670135,-7.104843654199877,3.0,0.8824508824508824,1133.2075471698113,-0.19159722626886486,0.48598566517102704,0.3755025930889806,1374.3589743589744,-1.0,58.45513468514004,0.8827358866281705,
2023-08-17 20:09:30.845000,-6.445783132530121,-1.5180722891566265,-7.385542168674699,-1.4837522992029428,-6.190680564071122,-7.043531575720417,3.0,0.8824508824508824,1133.2075471698113,-0.04090670706835344,-0.04300448691801197,0.12959617737894094,1377.2893772893772,-1.0,58.45513468514004,0.8827319975474007,
2023-08-17 20:09:30.853000,-6.433734939759036,-1.493975903614458,-7.397590361445784,-1.5352544451256898,-6.171060698957694,-7.065603923973022,3.0,0.8824508824508824,1133.2075471698113,-0.06176796223996309,-0.051395606316647816,0.18681894994464143,1379.4871794871794,-1.0,58.45513468514004,0.8827280615699269,
2023-08-17 20:09:30.860000,-6.433734939759036,-1.5180722891566265,-7.421686746987953,-1.4862047823421214,-6.13182096873084,-7.082771305947271,3.0,0.8828948828948829,1132.6376665828514,-0.5111590233669363,0.21712021443971838,0.35056232154303385,1379.4871794871794,-1.0,58.45513468514004,0.8827240801636224,
2023-08-17 20:09:30.868000,-6.457831325301205,-1.5180722891566265,-7.409638554216868,-1.4812998160637645,-6.124463519313305,-7.0680564071122,3.0,0.8824508824508824,1133.2075471698113,-0.43820290192879213,0.02365829497115493,0.17551424742147884,1378.7545787545787,-1.0,58.45513468514004,0.8827200551333515,
2023-08-17 20:09:30.876000,-6.445783132530121,-1.5180722891566265,-7.373493975903615,-1.4518700183936235,-6.063151440833844,-7.065603923973022,3.0,0.8824508824508824,1133.2075471698113,-0.4124468271079769,-0.12435172775479376,0.2461395023600024,1378.7545787545787,-1.0,58.45513468514004,0.8827159884864919,
2023-08-17 20:09:30.883000,-6.445783132530121,-1.530120481927711,-7.373493975903615,-1.5229920294297976,-6.188228080931943,-7.095033721643163,3.0,0.8824508824508824,1133.2075471698113,-0.3091894411747562,-0.45615057397587566,-0.18798438319445285,1375.091575091575,-1.0,58.45513468514004,0.8827118822664415,
2023-08-17 20:09:30.891000,-6.433734939759036,-1.530120481927711,-7.36144578313253,-1.466584917228694,-6.1661557326793375,-7.058246474555487,3.0,0.8824508824508824,1133.2075471698113,-0.43552240545422766,-0.6314317347473921,0.06701241186411028,1369.9633699633698,-1.0,58.45513468514004,0.8827077386835435,
2023-08-17 20:09:30.899000,-6.433734939759036,-1.5421686746987953,-7.337349397590362,-1.4788473329245861,-6.134273451870018,-7.117106069895769,3.0,0.8824508824508824,1133.2075471698113,-0.5151214964162935,-1.019054833634404,-0.3211934036478058,1362.6373626373625,-1.0,58.45513468514004,0.8827035601068268,
2023-08-17 20:09:30.906000,-6.445783132530121,-1.5180722891566265,-7.325301204819278,-1.466584917228694,-6.109748620478234,-7.0999386879215205,3.0,0.8824508824508824,1133.2075471698113,-0.6708233785909913,-0.7515879028028671,-0.35510751121729517,1353.113553113553,-1.0,58.45513468514004,0.8826993490553713,
2023-08-17 20:09:30.914000,-6.445783132530121,-1.530120481927711,-7.36144578313253,-1.4592274678111588,-6.134273451870018,-7.028816676885346,3.0,0.8824508824508824,1133.2075471698113,-0.48645183847095214,-0.6554396596934913,-0.38925470543674623,1344.3223443223442,-1.0,58.45513468514004,0.8826951081893091,
2023-08-17 20:09:30.922000,-6.457831325301205,-1.530120481927711,-7.337349397590362,-1.491109748620478,-6.148988350705088,-7.00674432863274,3.0,0.8824508824508824,1133.2075471698113,-0.9577530446943643,-0.07610279121263375,-0.48237282209661464,1336.9963369963368,-1.0,58.45513468514004,0.8826908404392695,
2023-08-17 20:09:30.929000,-6.46987951807229,-1.5180722891566265,-7.36144578313253,-1.4690374003678723,-6.210300429184549,-7.08522378908645,3.0,0.8824508824508824,1133.2075471698113,-0.7224520715576007,0.21851873433949015,-0.7429636967542688,1328.2051282051282,-1.0,58.45513468514004,0.882686548837674,
2023-08-17 20:09:30.937000,-6.46987951807229,-1.530120481927711,-7.397590361445784,-1.4518700183936235,-6.185775597792765,-7.0410790925812385,3.0,0.8824508824508824,1133.2075471698113,-1.0050696346366759,0.004195559699318791,-0.8204650078666742,1320.8791208791208,-1.0,58.45513468514004,0.8826822365200597,
2023-08-17 20:09:30.945000,-6.493975903614458,-1.5180722891566265,-7.373493975903615,-1.4052728387492335,-6.210300429184549,-7.0680564071122,3.0,0.8824508824508824,1133.2075471698113,-0.8719771575083037,0.29450498222714305,-0.6707068352660099,1313.5531135531135,-1.0,58.45513468514004,0.8826779068437921,
2023-08-17 20:09:30.952000,-6.506024096385542,-1.530120481927711,-7.397590361445784,-1.4567749846719804,-6.244635193133047,-7.126916002452483,3.0,0.8824508824508824,1133.2075471698113,-1.0189382903094233,-0.10104306275858134,-0.9435347590466756,1307.6923076923076,-1.0,58.45513468514004,0.8826735632297156,
2023-08-17 20:09:30.960000,-6.518072289156627,-1.530120481927711,-7.397590361445784,-1.5009196811771919,-6.249540159411404,-7.0705088902513795,3.0,0.8824508824508824,1133.2075471698113,-0.674552764990385,0.055824252665928276,-1.1703280694598217,1300.3663003663003,-1.0,58.45513468514004,0.8826692091527906,
2023-08-17 20:09:30.968000,-6.518072289156627,-1.5180722891566265,-7.349397590361447,-1.466584917228694,-6.178418148375229,-7.023911710606989,3.0,0.8824508824508824,1133.2075471698113,-1.083969465648855,-0.6857409241885678,-1.0452770817551424,1294.5054945054944,-1.0,58.45513468514004,0.8826648481324568,
2023-08-17 20:09:30.975000,-6.506024096385542,-1.5060240963855422,-7.325301204819278,-1.5180870631514407,-6.163703249540159,-7.038626609442059,3.0,0.8815628815628815,1134.3490304709142,-0.9119515179768071,-0.36116776411630996,-1.0275624963580212,1289.3772893772893,-1.0,58.45513468514004,0.8826604837227766,
2023-08-17 20:09:30.983000,-6.506024096385542,-1.5180722891566265,-7.337349397590362,-1.4812998160637645,-6.1367259350091965,-7.009196811771918,3.0,0.8820068820068818,1133.778001510194,-0.7714002680496475,-0.09346774663481136,-0.7046209428354991,1285.7142857142856,-1.0,58.45513468514004,0.8826561193425503,
2023-08-17 20:09:30.991000,-6.493975903614458,-1.5060240963855422,-7.349397590361447,-1.5156345800122624,-6.242182709993869,-6.977314530962599,3.0,0.8824508824508824,1133.2075471698113,-0.7696521181749315,-0.0867082337859107,-0.7042713128605562,1283.5164835164835,-1.0,58.45513468514004,0.8826517583502989,
2023-08-17 20:09:30.998000,-6.493975903614458,-1.493975903614458,-7.325301204819278,-1.5401594114040464,-6.1931330472103,-6.947884733292458,3.0,0.8824508824508824,1133.2075471698113,-0.9192937474506153,-0.2781889167297947,-0.45929724375036407,1280.5860805860805,-1.0,58.45513468514004,0.8826474041925434,
2023-08-17 20:09:31.006000,-6.493975903614458,-1.5180722891566265,-7.313253012048193,-1.496014714898835,-6.1931330472103,-7.016554261189454,3.0,0.8824508824508824,1133.2075471698113,-1.1915389546063753,0.0374104073189214,-0.5196666860905543,1276.923076923077,-1.0,58.45513468514004,0.8826430602960358,
2023-08-17 20:09:31.014000,-6.506024096385542,-1.5060240963855422,-7.349397590361447,-1.3709380748007356,-6.1931330472103,-7.036174126302881,3.0,0.8824508824508824,1133.2075471698113,-0.7869005302721283,-0.03309830429462177,-0.25744420488316544,1276.1904761904761,-1.0,58.45513468514004,0.8826387300670547,
2023-08-17 20:09:31.021000,-6.481927710843374,-1.5060240963855422,-7.36144578313253,-1.4175352544451256,-6.163703249540159,-7.060698957694665,3.0,0.8824508824508824,1133.2075471698113,-1.0406153487559004,0.229706893537673,-0.009440009323465979,1276.1904761904761,-1.0,58.45513468514004,0.8826344167414909,
2023-08-17 20:09:31.029000,-6.493975903614458,-1.493975903614458,-7.325301204819278,-1.4812998160637645,-6.1955855303494785,-7.0410790925812385,3.0,0.8824508824508824,1133.2075471698113,-0.9854903560398571,0.08903910028553089,0.4373870986539245,1277.6556776556777,-1.0,58.45513468514004,0.8826301235329433,
2023-08-17 20:09:31.037000,-6.506024096385542,-1.5060240963855422,-7.325301204819278,-1.4469650521152666,-6.215205395462906,-7.014101778050276,3.0,0.8824508824508824,1133.2075471698113,-0.8697628343336626,0.024940271545947603,0.12994580735388367,1279.8534798534797,-1.0,58.45513468514004,0.882625853749502,
2023-08-17 20:09:31.044000,-6.481927710843374,-1.493975903614458,-7.313253012048193,-1.5229920294297976,-6.178418148375229,-7.001839362354383,3.0,0.8824508824508824,1133.2075471698113,-0.5069634636676176,0.1276149408542624,0.19404463609346784,1282.051282051282,-1.0,58.45513468514004,0.8826216106340682,
2023-08-17 20:09:31.052000,-6.493975903614458,-1.4819277108433735,-7.325301204819278,-1.4567749846719804,-6.227467811158798,-7.001839362354383,3.0,0.8824508824508824,1133.2075471698113,-0.7547345725773549,0.11724258493094886,0.18029252374570223,1285.7142857142856,-1.0,58.45513468514004,0.882617397354275,
2023-08-17 20:09:31.060000,-6.493975903614458,-1.4819277108433735,-7.337349397590362,-1.4763948497854076,-6.256897608828939,-7.023911710606989,3.0,0.8824508824508824,1133.2075471698113,-0.5112755666919172,0.4740982460229592,0.002447409824602122,1287.179487179487,-1.0,58.45513468514004,0.8826132169927636,
2023-08-17 20:09:31.067000,-6.46987951807229,-1.493975903614458,-7.36144578313253,-1.4886572654812997,-6.180870631514408,-7.072961373390558,3.0,0.8824508824508824,1133.2075471698113,-0.5602237631839639,0.40020977798496654,0.0515121496416293,1290.10989010989,-1.0,58.45513468514004,0.8826090725378641,
2023-08-17 20:09:31.075000,-6.457831325301205,-1.4819277108433735,-7.373493975903615,-1.4248927038626609,-6.109748620478234,-7.063151440833844,3.0,0.8824508824508824,1133.2075471698113,-0.5200163160654973,0.6177961657246083,-0.26606841093176403,1292.3076923076922,-1.0,58.45513468514004,0.8826049668747242,
2023-08-17 20:09:31.082000,-6.445783132530121,-1.493975903614458,-7.36144578313253,-1.4445125689760883,-6.198038013488657,-7.075413856529736,3.0,0.8824508824508824,1133.2075471698113,-0.21875182098945356,0.4074354641337923,-0.10698677233261486,1293.040293040293,-1.0,58.45513468514004,0.8826009026381834,
2023-08-17 20:09:31.090000,-6.481927710843374,-1.4698795180722892,-7.385542168674699,-1.4518700183936235,-6.190680564071122,-7.082771305947271,3.0,0.8824508824508824,1133.2075471698113,-0.21175922149058948,0.6584697861429982,0.0657304352893189,1293.040293040293,-1.0,58.45513468514004,0.8825968823640586,
2023-08-17 20:09:31.098000,-6.457831325301205,-1.457831325301205,-7.373493975903615,-1.4150827713059473,-6.229920294297976,-7.058246474555487,3.0,0.8824508824508824,1133.2075471698113,-0.1752811607715165,0.5606899364838873,-0.5451896742614065,1292.3076923076922,-1.0,58.45513468514004,0.8825929086094875,
2023-08-17 20:09:31.105000,-6.493975903614458,-1.4819277108433735,-7.373493975903615,-1.3733905579399142,-6.190680564071122,-7.043531575720417,3.0,0.8824508824508824,1133.2075471698113,-0.631548278072373,0.2237631839636382,-0.23553405978672612,1292.3076923076922,-1.0,58.45513468514004,0.8825889837971657,
2023-08-17 20:09:31.113000,-6.481927710843374,-1.4819277108433735,-7.385542168674699,-1.4543225015328018,-6.225015328019619,-7.087676272225628,3.0,0.8824508824508824,1133.2075471698113,-0.6592855894178659,0.30522696812540084,-0.2963696754268399,1290.8424908424909,-1.0,58.45513468514004,0.882585110209517,
2023-08-17 20:09:31.121000,-6.46987951807229,-1.4698795180722892,-7.349397590361447,-1.4224402207234825,-6.156345800122624,-7.001839362354383,3.0,0.8824508824508824,1133.2075471698113,0.030068177845113085,0.4467105646524088,-0.06642969523920522,1288.6446886446886,-1.0,58.45513468514004,0.882581289983525,
2023-08-17 20:09:31.128000,-6.46987951807229,-1.457831325301205,-7.36144578313253,-1.466584917228694,-6.171060698957694,-6.996934396076027,3.0,0.8815628815628815,1134.3490304709142,-0.6430860672454983,0.7556669191772033,-0.17516461744653566,1287.9120879120878,-1.0,58.45513468514004,0.8825775251062484,
2023-08-17 20:09:31.136000,-6.493975903614458,-1.4819277108433735,-7.337349397590362,-1.471489883507051,-6.126916002452483,-7.048436541998774,3.0,0.8820068820068818,1133.778001510194,-0.48586912184604625,0.801701532544724,0.25091777868422604,1289.3772893772893,-1.0,58.45513468514004,0.8825738173899472,
2023-08-17 20:09:31.144000,-6.493975903614458,-1.4698795180722892,-7.313253012048193,-1.449417535254445,-6.171060698957694,-7.063151440833844,3.0,0.8824508824508824,1133.2075471698113,-0.6827107977390591,1.2544723500961485,0.07668550783753836,1293.040293040293,-1.0,58.45513468514004,0.8825701682563,
2023-08-17 20:09:31.151000,-6.46987951807229,-1.457831325301205,-7.337349397590362,-1.3979153893316982,-6.124463519313305,-7.0680564071122,3.0,0.8824508824508824,1133.2075471698113,-1.0460928850300102,1.1847794417574729,0.20977798496591113,1298.168498168498,-1.0,58.45513468514004,0.8825665789241244,
2023-08-17 20:09:31.159000,-6.46987951807229,-1.457831325301205,-7.373493975903615,-1.4739423666462292,-6.151440833844267,-7.055793991416309,3.0,0.8824508824508824,1133.2075471698113,-1.1598391702115252,1.5256686673270792,0.26653458423168785,1302.5641025641025,-1.0,58.45513468514004,0.8825630505870264,
2023-08-17 20:09:31.167000,-6.457831325301205,-1.457831325301205,-7.397590361445784,-1.4052728387492335,-6.1146535867565905,-7.023911710606989,3.0,0.8824508824508824,1133.2075471698113,-0.8450556494376785,2.224345900588544,0.3963638482605909,1306.9597069597069,-1.0,58.45513468514004,0.8825595842728382,
2023-08-17 20:09:31.174000,-6.481927710843374,-1.457831325301205,-7.385542168674699,-1.466584917228694,-6.183323114653587,-7.026364193746168,3.0,0.8824508824508824,1133.2075471698113,-1.1890915447817725,2.4137288036827695,0.4488083445020684,1312.087912087912,-1.0,58.45513468514004,0.8825561807038226,
2023-08-17 20:09:31.182000,-6.518072289156627,-1.457831325301205,-7.373493975903615,-1.4837522992029428,-6.27161250766401,-7.087676272225628,3.0,0.8824508824508824,1133.2075471698113,-1.2413029543732896,1.9893945574267229,0.9607831711438726,1318.6813186813185,-1.0,58.45513468514004,0.8825528403167783,
2023-08-17 20:09:31.190000,-6.530120481927711,-1.457831325301205,-7.36144578313253,-1.4297976701410178,-6.225015328019619,-7.0999386879215205,3.0,0.8824508824508824,1133.2075471698113,-0.8782704970572811,1.1858283316823022,0.5848144047549677,1324.5421245421244,-1.0,58.45513468514004,0.8825495635502761,
2023-08-17 20:09:31.197000,-6.506024096385542,-1.4819277108433735,-7.397590361445784,-1.3930104230533413,-6.234825260576333,-7.0705088902513795,3.0,0.8824508824508824,1133.2075471698113,-1.1118233203193286,1.4574908222131577,0.6852747508886428,1332.6007326007325,-1.0,58.45513468514004,0.8825463508244413,
2023-08-17 20:09:31.205000,-6.46987951807229,-1.4819277108433735,-7.409638554216868,-1.449417535254445,-6.1587982832618025,-7.082771305947271,3.0,0.8824508824508824,1133.2075471698113,-0.6757181982401951,1.467863178136473,0.7075345259600254,1339.9267399267399,-1.0,58.45513468514004,0.882543202394075,
2023-08-17 20:09:31.213000,-6.46987951807229,-1.4457831325301205,-7.421686746987953,-1.3733905579399142,-6.175965665236051,-7.065603923973022,3.0,0.8824508824508824,1133.2075471698113,-0.8392284831886245,1.2044752636792724,0.7917953499213334,1347.985347985348,-1.0,58.45513468514004,0.8825401183518198,
2023-08-17 20:09:31.220000,-6.445783132530121,-1.4698795180722892,-7.421686746987953,-1.385652973635806,-6.156345800122624,-7.148988350705088,3.0,0.8824508824508824,1133.2075471698113,-0.9076394149525074,0.7438960433541163,0.9072897849775655,1353.8461538461538,-1.0,58.45513468514004,0.8825370986320411,
2023-08-17 20:09:31.228000,-6.445783132530121,-1.4698795180722892,-7.421686746987953,-1.3807480073574494,-6.112201103617412,-7.112201103617412,3.0,0.8824508824508824,1133.2075471698113,-1.248761727172077,0.8070625254938529,0.9576365013693839,1357.5091575091574,-1.0,58.45513468514004,0.8825341430154143,
2023-08-17 20:09:31.236000,-6.457831325301205,-1.457831325301205,-7.397590361445784,-1.390557939914163,-6.185775597792765,-7.050889025137952,3.0,0.8824508824508824,1133.2075471698113,-0.9189441174756712,0.8387623098887012,1.1323349455159955,1358.2417582417581,-1.0,58.45513468514004,0.8825312511341776,
2023-08-17 20:09:31.243000,-6.457831325301205,-1.457831325301205,-7.373493975903615,-1.3586756591048437,-6.148988350705088,-7.0705088902513795,3.0,0.8824508824508824,1133.2075471698113,-1.233494551599558,1.1154361633937415,1.3644892488782703,1357.5091575091574,-1.0,58.45513468514004,0.8825284224780249,
2023-08-17 20:09:31.251000,-6.445783132530121,-1.4698795180722892,-7.385542168674699,-1.4543225015328018,-6.156345800122624,-7.072961373390558,3.0,0.8824508824508824,1133.2075471698113,-1.3623914690286112,1.6837014160013988,1.2449157974477014,1354.5787545787546,-1.0,58.45513468514004,0.8825256564006011,
2023-08-17 20:09:31.259000,-6.457831325301205,-1.4698795180722892,-7.385542168674699,-1.4150827713059473,-6.1661557326793375,-7.058246474555487,3.0,0.8824508824508824,1133.2075471698113,-1.7193636734456041,1.5592331449216241,1.4158848551949188,1347.985347985348,-1.0,58.45513468514004,0.8825229521265586,
2023-08-17 20:09:31.266000,-6.493975903614458,-1.4698795180722892,-7.337349397590362,-1.461679950950337,-6.225015328019619,-7.1072961373390555,3.0,0.8824508824508824,1133.2075471698113,-1.7342812190431791,1.6228658003612841,1.9357846279354347,1342.8571428571427,-1.0,58.45513468514004,0.8825203087591403,
2023-08-17 20:09:31.274000,-6.518072289156627,-1.457831325301205,-7.373493975903615,-1.4763948497854076,-6.249540159411404,-7.080318822808093,3.0,0.8820068820068818,1133.778001510194,-1.7227434298700537,1.6115610978381205,1.918419672513257,1339.9267399267399,-1.0,58.45513468514004,0.8825177252882362,
2023-08-17 20:09:31.282000,-6.493975903614458,-1.4819277108433735,-7.409638554216868,-1.4641324340895157,-6.237277743715512,-7.080318822808093,3.0,0.8815628815628815,1134.3490304709142,-1.6767088165025348,1.7222772565701303,1.3808053143756187,1335.5311355311355,-1.0,58.45513468514004,0.8825152004495782,
2023-08-17 20:09:31.289000,-6.481927710843374,-1.5180722891566265,-7.457831325301205,-1.537706928264868,-6.151440833844267,-7.1293684855916615,3.0,0.8820068820068818,1133.778001510194,-1.8463958976749588,1.6031699784394846,1.7026979779733116,1334.065934065934,-1.0,58.45513468514004,0.8825127328399425,
2023-08-17 20:09:31.297000,-6.506024096385542,-1.5421686746987953,-7.385542168674699,-1.466584917228694,-6.237277743715512,-7.1367259350091965,3.0,0.8824508824508824,1133.2075471698113,-2.2442748091603053,2.4749140492978268,1.7293863993939746,1333.3333333333333,-1.0,58.45513468514004,0.8825103210113222,
2023-08-17 20:09:31.305000,-6.493975903614458,-1.5421686746987953,-7.397590361445784,-1.471489883507051,-6.247087676272225,-7.1735131820968725,3.0,0.8824508824508824,1133.2075471698113,-3.064040557077092,3.703513781248179,2.6296835848726765,1332.6007326007325,-1.0,58.45513468514004,0.8825079635111606,
2023-08-17 20:09:31.312000,-6.481927710843374,-1.530120481927711,-7.457831325301205,-1.5009196811771919,-6.291232372777436,-7.171060698957694,3.0,0.8824508824508824,1133.2075471698113,-3.4487500728395775,4.2077967484412335,2.9865392459646873,1330.4029304029302,-1.0,58.45513468514004,0.8825056587844036,
2023-08-17 20:09:31.320000,-6.518072289156627,-1.5060240963855422,-7.457831325301205,-1.4420600858369097,-6.28632740649908,-7.1931330472103,3.0,0.8824508824508824,1133.2075471698113,-4.316182040673622,5.118116659868305,3.9831012178777456,1329.6703296703297,965.14892578125,62.16657180800607,0.8825034050650138,
2023-08-17 20:09:31.328000,-6.602409638554217,-1.4819277108433735,-7.421686746987953,-1.4543225015328018,-6.408951563458001,-7.124463519313304,3.0,0.8824508824508824,1133.2075471698113,-4.7070683526601025,5.730668375968768,4.774663481149116,1331.135531135531,-1.0,62.16657180800607,0.882501200533819,
2023-08-17 20:09:31.335000,-6.650602409638554,-1.4337349397590362,-7.421686746987953,-1.4028203556100551,-6.389331698344574,-7.141630901287553,3.0,0.8824508824508824,1133.2075471698113,-4.849950469086882,6.247071848959848,5.071615873200862,1336.263736263736,-1.0,62.16657180800607,0.8824990433271889,
2023-08-17 20:09:31.343000,-6.662650602409639,-1.421686746987952,-7.433734939759036,-1.4396076026977314,-6.413856529736358,-7.117106069895769,3.0,0.8824508824508824,1133.2075471698113,-5.740574558592158,7.142008041489422,5.428354990967892,1339.194139194139,-1.0,62.16657180800607,0.8824969315458006,
2023-08-17 20:09:31.351000,-6.674698795180723,-1.3975903614457832,-7.409638554216868,-1.361128142244022,-6.323114653586757,-7.1587982832618025,3.0,0.8824508824508824,1133.2075471698113,-6.351261581492921,7.462618728512323,6.2985839986014795,1343.5897435897434,-1.0,62.16657180800607,0.8824948632634522,
2023-08-17 20:09:31.358000,-6.626506024096386,-1.349397590361446,-7.385542168674699,-1.2679337829552422,-6.325567136725935,-7.1072961373390555,3.0,0.8824508824508824,1133.2075471698113,-6.488666161645593,8.393916438435987,6.573393158906823,1348.7179487179487,-1.0,62.16657180800607,0.8824928365358904,
2023-08-17 20:09:31.366000,-6.602409638554217,-1.313253012048193,-7.397590361445784,-1.2973635806253832,-6.337829552421827,-7.175965665236051,3.0,0.8824508824508824,1133.2075471698113,-7.389429520424219,9.416817201794766,7.1993473573801054,1358.2417582417581,-1.0,62.16657180800607,0.8824908494096031,
2023-08-17 20:09:31.374000,-6.566265060240964,-1.2891566265060241,-7.421686746987953,-1.2483139178418148,-6.264255058246475,-7.095033721643163,3.0,0.8824508824508824,1133.2075471698113,-8.21385700134025,11.17254239263446,8.329118349746517,1373.6263736263736,-1.0,62.16657180800607,0.8824888999305509,
2023-08-17 20:09:31.381000,-6.55421686746988,-1.2650602409638554,-7.385542168674699,-1.2777437155119558,-6.296137339055794,-7.063151440833844,3.0,0.8824508824508824,1133.2075471698113,-8.732940970805899,12.897733232329117,9.138278655090028,1396.3369963369962,-1.0,62.16657180800607,0.8824869861527949,
2023-08-17 20:09:31.389000,-6.506024096385542,-1.2771084337349399,-7.397590361445784,-1.2188841201716738,-6.225015328019619,-7.102391171060699,3.0,0.8824508824508824,1133.2075471698113,-9.755841734164678,14.271779033855834,9.245148884097663,1429.3040293040292,-1.0,62.16657180800607,0.8824851061469784,
2023-08-17 20:09:31.397000,-6.445783132530121,-1.2650602409638554,-7.397590361445784,-1.2630288166768853,-6.1367259350091965,-7.156345800122624,3.0,0.8824508824508824,1133.2075471698113,-10.36652875706544,15.966435522405453,9.550492395548044,1468.131868131868,-1.0,62.16657180800607,0.882483258008639,
2023-08-17 20:09:31.404000,-6.409638554216868,-1.2891566265060241,-7.445783132530121,-1.2630288166768853,-6.1293684855916615,-7.1514408338442665,3.0,0.8824508824508824,1133.2075471698113,-11.02301730668376,17.615290484237512,9.62682827341064,1511.3553113553112,-1.0,62.16657180800607,0.8824814398663037,
2023-08-17 20:09:31.412000,-6.385542168674699,-1.3253012048192772,-7.457831325301205,-1.2752912323727774,-6.045984058859595,-7.153893316983446,3.0,0.8824508824508824,1133.2075471698113,-11.404696695996737,19.18780956820698,9.932171784861021,1554.5787545787546,-1.0,62.16657180800607,0.8824796498893398,
2023-08-17 20:09:31.420000,-6.349397590361446,-1.2891566265060241,-7.481927710843374,-1.2237890864500305,-6.009196811771918,-7.188228080931943,3.0,0.8820068820068818,1133.778001510194,-12.274925703630325,21.03513781248179,10.313851174173998,1594.8717948717947,-1.0,62.16657180800607,0.882477886295529,
2023-08-17 20:09:31.427000,-6.265060240963856,-1.2891566265060241,-7.493975903614459,-1.231146535867566,-5.916002452483139,-7.185775597792765,3.0,0.8824508824508824,1133.2075471698113,-11.877979138744829,21.737427888817667,10.497057281044228,1630.03663003663,-1.0,62.16657180800607,0.8824761472090376,
2023-08-17 20:09:31.435000,-6.228915662650603,-1.2650602409638554,-7.530120481927711,-1.2017167381974247,-5.920907418761495,-7.20784794604537,3.0,0.8815628815628815,1134.3490304709142,-12.04591807004254,22.775595827748965,10.619194685624379,1656.4102564102564,-1.0,62.16657180800607,0.882474430794762,
2023-08-17 20:09:31.442000,-6.19277108433735,-1.2409638554216869,-7.590361445783133,-1.2286940527283874,-5.874310239117106,-7.23973022685469,3.0,0.8820068820068818,1133.778001510194,-11.740574558592158,22.943534759046674,10.970339723792318,1675.4578754578754,-1.0,62.16657180800607,0.8824727352639904,
2023-08-17 20:09:31.450000,-6.1325301204819285,-1.2289156626506024,-7.590361445783133,-1.2286940527283874,-5.793378295524218,-7.249540159411404,3.0,0.8824508824508824,1133.2075471698113,-11.129887535691394,22.760328652176444,11.09247712837247,1684.9816849816848,-1.0,62.16657180800607,0.8824710588268015,
2023-08-17 20:09:31.458000,-6.0843373493975905,-1.180722891566265,-7.638554216867471,-1.196811771919068,-5.719803801348865,-7.281422440220723,3.0,0.8824508824508824,1133.2075471698113,-10.122253947905135,21.722160713245145,10.817667968067127,1687.9120879120878,-1.0,62.16657180800607,0.882469399994948,
2023-08-17 20:09:31.465000,-6.024096385542169,-1.1927710843373494,-7.662650602409639,-1.1060698957694666,-5.65113427345187,-7.33292458614347,3.0,0.8824508824508824,1133.2075471698113,-9.343627993706662,21.03513781248179,10.497057281044228,1679.8534798534797,-1.0,62.16657180800607,0.882467757330439,
2023-08-17 20:09:31.473000,-5.963855421686747,-1.1686746987951808,-7.674698795180723,-1.0472103004291844,-5.587369711833231,-7.345187001839362,3.0,0.8824508824508824,1133.2075471698113,-7.969582192179944,19.5236874308024,10.329118349746517,1663.003663003663,-1.0,62.16657180800607,0.8824661293322565,
2023-08-17 20:09:31.481000,-5.927710843373494,-1.1325301204819278,-7.674698795180723,-1.1011649294911097,-5.567749846719804,-7.374616799509503,3.0,0.8824508824508824,1133.2075471698113,-6.656605092943303,18.66872559874133,9.581026746693082,1638.095238095238,-1.0,62.16657180800607,0.8824645145888192,
2023-08-17 20:09:31.488000,-5.855421686746988,-1.0843373493975905,-7.710843373493976,-1.0079705702023298,-5.491722869405272,-7.438381361128142,3.0,0.8820068820068818,1133.778001510194,-5.35889516927918,17.5236874308024,9.306217586387739,1605.8608058608058,-1.0,62.16657180800607,0.8824629117807284,
2023-08-17 20:09:31.496000,-5.783132530120482,-1.0843373493975905,-7.759036144578314,-1.015328019619865,-5.445125689760882,-7.396689147762109,3.0,0.8824508824508824,1133.2075471698113,-3.7558417341646773,16.210710331565757,8.771866441349571,1568.4981684981683,-1.0,62.16657180800607,0.8824613195338018,
2023-08-17 20:09:31.504000,-5.771084337349398,-1.0602409638554218,-7.771084337349398,-1.0226854690374003,-5.408338442673206,-7.421213979153893,3.0,0.8824508824508824,1133.2075471698113,-2.5344676883631503,14.485519491871102,8.023774838296136,1526.7399267399267,-1.0,62.16657180800607,0.8824597365484047,
2023-08-17 20:09:31.511000,-5.746987951807229,-1.036144578313253,-7.83132530120482,-1.0104230533415082,-5.3960760269773145,-7.467811158798283,3.0,0.8824508824508824,1133.2075471698113,-1.5726356272944482,13.264145446069575,7.413087815395373,1485.7142857142856,-1.0,62.16657180800607,0.8824581617598962,
2023-08-17 20:09:31.519000,-5.734939759036145,-1.0,-7.91566265060241,-0.9466584917228693,-5.400980993255671,-7.556100551808706,3.0,0.8824508824508824,1133.2075471698113,-0.7176737952333795,12.027504224695528,6.542858807761785,1446.153846153846,-1.0,62.16657180800607,0.8824565942008025,
2023-08-17 20:09:31.527000,-5.710843373493976,-1.0120481927710845,-7.891566265060241,-0.8853464132434089,-5.32495401594114,-7.62722256284488,3.0,0.8820068820068818,1133.778001510194,0.3968300215605136,10.439717965153545,5.45888934211293,1406.5934065934066,-1.0,62.16657180800607,0.882455033001363,
2023-08-17 20:09:31.534000,-5.650602409638554,-0.9759036144578314,-7.9397590361445785,-0.9147762109135499,-5.302881667688534,-7.637032495401594,3.0,0.8820068820068818,1133.778001510194,1.0075170444612769,9.538954606374919,4.222248120738884,1370.6959706959706,-1.0,62.16657180800607,0.882453477240415,
2023-08-17 20:09:31.542000,-5.63855421686747,-0.9518072289156627,-7.963855421686747,-0.9393010423053341,-5.253832004904966,-7.656652360515021,3.0,0.8820068820068818,1133.778001510194,1.7098071207971548,7.8442981178253,3.061942777227434,1337.7289377289376,-1.0,62.16657180800607,0.8824519259233482,
2023-08-17 20:09:31.550000,-5.650602409638554,-0.9879518072289157,-7.927710843373494,-0.8877988963825874,-5.241569589209074,-7.656652360515021,3.0,0.8820068820068818,1133.778001510194,1.7098071207971548,7.8442981178253,3.061942777227434,1309.1575091575091,-1.0,62.16657180800607,0.8824503781186683,
2023-08-17 20:09:31.557000,-5.650602409638554,-0.9759036144578314,-7.951807228915663,-0.8951563458001226,-5.253832004904966,-7.717964438994482,3.0,0.8820068820068818,1133.778001510194,2.45789872385059,6.302313385000873,2.1459122428762893,1285.7142857142856,-1.0,62.16657180800607,0.8824488329553023,
2023-08-17 20:09:31.565000,-5.626506024096386,-0.963855421686747,-8.0,-0.9025137952176578,-5.283261802575107,-7.747394236664623,3.0,0.8820068820068818,1133.778001510194,2.9311811665986816,5.172542392634461,0.832935143639648,1266.6666666666665,-1.0,62.16657180800607,0.8824472896194417,
2023-08-17 20:09:31.573000,-5.626506024096386,-0.963855421686747,-8.048192771084338,-0.9049662783568363,-5.32495401594114,-7.742489270386265,3.0,0.8820068820068818,1133.778001510194,3.0685857467513533,4.027504224695529,-0.23576714643668778,1253.4798534798533,-1.0,62.16657180800607,0.8824457473509411,
2023-08-17 20:09:31.580000,-5.63855421686747,-0.963855421686747,-8.096385542168676,-0.9025137952176578,-5.297976701410177,-7.8111587982832615,3.0,0.8820068820068818,1133.778001510194,3.2975933803391393,2.9740691101917127,-1.5029427189557718,1244.6886446886447,-1.0,62.16657180800607,0.8824442054393062,
2023-08-17 20:09:31.588000,-5.650602409638554,-0.9518072289156627,-8.144578313253012,-0.8976088289393009,-5.32495401594114,-7.8479460453709375,3.0,0.881118881118881,1134.920634920635,3.0685857467513533,2.0427714002680486,-2.3731717265893595,1238.8278388278388,-1.0,62.16657180800607,0.8824426632193183,
2023-08-17 20:09:31.596000,-5.674698795180723,-0.9397590361445783,-8.144578313253012,-0.8461066830165542,-5.278356836296751,-7.830778663396689,3.0,0.8815628815628815,1134.3490304709142,3.0685857467513533,0.8977332323291173,-2.9380572227725654,1235.164835164835,-1.0,62.16657180800607,0.882441119906482,
2023-08-17 20:09:31.603000,-5.674698795180723,-0.9397590361445783,-8.144578313253012,-0.8828939301042305,-5.383813611281422,-7.8749233599019,3.0,0.8815628815628815,1134.3490304709142,2.8090437620185287,-0.35417516461744764,-3.884622108268749,1232.2344322344322,-1.0,62.16657180800607,0.8824395746771858,
2023-08-17 20:09:31.611000,-5.698795180722892,-0.963855421686747,-8.156626506024097,-0.9294911097486205,-5.3813611281422435,-7.950950337216431,3.0,0.8820068820068818,1133.778001510194,2.106753685682651,-0.23203776003729495,-4.556377833459589,1232.2344322344322,-1.0,62.16657180800607,0.8824380266727078,
2023-08-17 20:09:31.619000,-5.746987951807229,-0.9879518072289157,-8.156626506024097,-0.9319435928877988,-5.405885959534028,-7.9141630901287545,3.0,0.8820068820068818,1133.778001510194,1.8472117009498266,-0.9801293630907301,-5.1517976807878325,1232.2344322344322,-1.0,62.16657180800607,0.8824364750237295,
2023-08-17 20:09:31.626000,-5.759036144578314,-0.9879518072289157,-8.144578313253012,-0.9589209074187615,-5.391171060698958,-7.823421213979153,3.0,0.8820068820068818,1133.778001510194,0.9159139910261624,-1.163335469960959,-5.960957986131344,1236.6300366300366,-1.0,62.16657180800607,0.8824349190132745,
2023-08-17 20:09:31.634000,-5.771084337349398,-1.0240963855421688,-8.144578313253012,-0.9368485591661557,-5.52605763335377,-7.82832618025751,3.0,0.8820068820068818,1133.778001510194,0.44263154827807083,-1.3923431035487452,-6.235767146436688,1243.956043956044,-1.0,62.16657180800607,0.8824333579311496,
2023-08-17 20:09:31.642000,-5.807228915662651,-1.0120481927710845,-8.096385542168676,-0.9760882893930104,-5.4402207234825255,-7.776824034334764,3.0,0.8815628815628815,1134.3490304709142,-0.442864634928036,-1.2091369966785164,-6.831186993764931,1254.9450549450548,-1.0,62.16657180800607,0.882431791067128,
2023-08-17 20:09:31.649000,-5.807228915662651,-1.0240963855421688,-8.060240963855422,-0.9515634580012262,-5.430410790925812,-7.759656652360515,3.0,0.8820068820068818,1133.778001510194,-1.343627993706662,-0.5679156226327148,-7.426606841093176,1270.3296703296703,-1.0,62.16657180800607,0.8824302175548847,
