Shimmer_F5D4_Timestamp_FormattedUnix_CAL,Shimmer_F5D4_Accel_LN_X_CAL,Shimmer_F5D4_Accel_LN_Y_CAL,Shimmer_F5D4_Accel_LN_Z_CAL,Shimmer_F5D4_Accel_WR_X_CAL,Shimmer_F5D4_Accel_WR_Y_CAL,Shimmer_F5D4_Accel_WR_Z_CAL,Shimmer_F5D4_GSR_Range_CAL,Shimmer_F5D4_GSR_Skin_Conductance_CAL,Shimmer_F5D4_GSR_Skin_Resistance_CAL,Shimmer_F5D4_Gyro_X_CAL,Shimmer_F5D4_Gyro_Y_CAL,Shimmer_F5D4_Gyro_Z_CAL,Shimmer_F5D4_PPG_A13_CAL,Shimmer_F5D4_PPG_IBI_CAL,Shimmer_F5D4_PPGtoHR_CAL,Shimmer_F5D4_GSR_Skin_Conductance_LPF_CAL,
yyyy/mm/dd hh:mm:ss.000,m/(s^2),m/(s^2),m/(s^2),m/(s^2),m/(s^2),m/(s^2),no_units,uS,kOhms,deg/s,deg/s,deg/s,mV,ms,BPM,uS,
2023-08-15 18:21:38.608000,-5.048192771084338,1.1325301204819278,-8.481927710843374,1.184549356223176,-4.618638871857756,-8.250153280196198,3.0,1.3308913308913308,751.3761467889908,0.30499388147543915,-0.0397412738185416,0.06293339548977318,1277.6556776556777,-1.0,86.07679173416226,1.3316575131677693,
2023-08-15 18:21:38.615000,-5.024096385542169,1.1325301204819278,-8.457831325301205,1.2998160637645615,-4.726548129981606,-8.228080931943593,3.0,1.3304473304473305,751.6268980477223,0.06036944234018958,0.2370491230114796,-0.3155993240487152,1269.5970695970695,-1.0,86.07679173416226,1.3316437830835048,
2023-08-15 18:21:38.623000,-5.0120481927710845,1.1204819277108435,-8.481927710843374,1.2286940527283874,-4.694665849172287,-8.198651134273451,3.0,1.3304473304473305,751.6268980477223,0.20301847211700938,0.09626478643435664,0.06071907231513295,1257.8754578754579,-1.0,86.07679173416226,1.3316301946446454,
2023-08-15 18:21:38.631000,-5.024096385542169,1.1204819277108435,-8.518072289156628,1.231146535867566,-4.702023298589822,-8.252605763335376,3.0,1.3304473304473305,751.6268980477223,-0.06608006526426272,0.06165141891498225,-0.08461045393625086,1246.153846153846,-1.0,86.07679173416226,1.331616748815716,
2023-08-15 18:21:38.638000,-5.024096385542169,1.1204819277108435,-8.481927710843374,1.2115266707541386,-4.6995708154506435,-8.225628448804414,3.0,1.3308913308913308,751.3761467889908,-0.011421245848144537,0.012586679097954637,-0.18110832702057003,1237.3626373626373,-1.0,86.07679173416226,1.3316034464344308,
2023-08-15 18:21:38.646000,-5.0120481927710845,1.1204819277108435,-8.493975903614459,1.2998160637645615,-4.679950950337216,-8.164316370324954,3.0,1.3308913308913308,751.3761467889908,0.1029077559582782,0.10279121263329563,0.05978672571528453,1229.3040293040292,-1.0,86.07679173416226,1.3315902881939508,
2023-08-15 18:21:38.654000,-5.024096385542169,1.1325301204819278,-8.457831325301205,1.2066217044757817,-4.6627835683629675,-8.18638871857756,3.0,1.3300033300033303,751.8778167250875,-0.10710331565759526,0.728046151156693,0.15593496882466032,1218.3150183150183,-1.0,86.07679173416226,1.331577274391698,
2023-08-15 18:21:38.661000,-5.024096385542169,1.1566265060240966,-8.506024096385543,1.2434089515634579,-4.630901287553648,-8.193746167995094,3.0,1.3300033300033303,751.8778167250875,0.07610279121263375,0.354058621292465,0.1286638307790921,1208.058608058608,-1.0,86.07679173416226,1.331564405074,
2023-08-15 18:21:38.669000,-5.048192771084338,1.1204819277108435,-8.46987951807229,1.25567136725935,-4.650521152667075,-8.193746167995094,3.0,1.3304473304473305,751.6268980477223,0.28331682302896016,-0.09195268341005701,-0.07260649146320128,1200.0,-1.0,86.07679173416226,1.331551679938023,
2023-08-15 18:21:38.677000,-5.024096385542169,1.1204819277108435,-8.506024096385543,1.2360515021459226,-4.6995708154506435,-8.21827099938688,3.0,1.3304473304473305,751.6268980477223,0.2447409824602304,-0.10896800885729212,-0.166423868072956,1192.6739926739926,-1.0,86.07679173416226,1.331539098329628,
2023-08-15 18:21:38.684000,-5.048192771084338,1.1325301204819278,-8.46987951807229,1.2213366033108521,-4.731453096259963,-8.215818516247701,3.0,1.3308913308913308,751.3761467889908,-0.16152904842375176,0.30033214847619527,0.1823903035953614,1186.8131868131868,-1.0,86.07679173416226,1.3315266592738897,
2023-08-15 18:21:38.692000,-5.048192771084338,1.144578313253012,-8.46987951807229,1.2115266707541386,-4.6922133660331085,-8.250153280196198,3.0,1.3304473304473305,751.6268980477223,0.3221257502476551,0.48027504224695566,0.4852864052211412,1180.952380952381,-1.0,86.07679173416226,1.3315143616456302,
2023-08-15 18:21:38.700000,-5.0602409638554215,1.1566265060240966,-8.506024096385543,1.2360515021459226,-4.6701410177805025,-8.191293684855916,3.0,1.3304473304473305,751.6268980477223,-0.03531262746926114,0.38214556261290217,0.14474680962647876,1177.2893772893772,-1.0,86.07679173416226,1.3315022041717695,
2023-08-15 18:21:38.707000,-5.0602409638554215,1.144578313253012,-8.506024096385543,1.2924586143470262,-4.6701410177805025,-8.142244022072347,3.0,1.3304473304473305,751.6268980477223,-0.06782821513897873,0.3618670240661967,0.37433715983917004,1177.2893772893772,-1.0,86.07679173416226,1.3314901851267673,
2023-08-15 18:21:38.715000,-5.0361445783132535,1.144578313253012,-8.457831325301205,1.2654812998160636,-4.704475781729,-8.174126302881668,3.0,1.3304473304473305,751.6268980477223,0.20814637841617661,-0.11864110483072063,-0.09894528290892152,1180.952380952381,-1.0,86.07679173416226,1.331478302476569,
2023-08-15 18:21:38.723000,-5.048192771084338,1.1566265060240966,-8.46987951807229,1.2164316370324952,-4.645616186388718,-8.16922133660331,3.0,1.3304473304473305,751.6268980477223,0.08565934386107969,-0.03041780782005733,0.1636268282734107,1189.0109890109889,-1.0,86.07679173416226,1.3314665538851354,
2023-08-15 18:21:38.730000,-5.0361445783132535,1.1325301204819278,-8.46987951807229,1.2924586143470262,-4.679950950337216,-8.213366033108523,3.0,1.3304473304473305,751.6268980477223,-0.035196084144280305,-0.049997086416876044,0.010605442573276513,1197.069597069597,-1.0,86.07679173416226,1.3314549367223223,
2023-08-15 18:21:38.738000,-5.0361445783132535,1.1566265060240966,-8.506024096385543,1.2728387492335989,-4.6701410177805025,-8.181483752299203,3.0,1.3304473304473305,751.6268980477223,0.14696113280111944,0.31175339432433985,0.1827399335703048,1204.3956043956043,-1.0,86.07679173416226,1.3314434480730746,
2023-08-15 18:21:38.746000,-5.024096385542169,1.1566265060240966,-8.493975903614459,1.3464132434089515,-4.652973635806253,-8.21827099938688,3.0,1.3304473304473305,751.6268980477223,0.48132393217178493,0.5329526251383944,0.3054600547753629,1209.5238095238094,-1.0,86.07679173416226,1.3314320847479393,
2023-08-15 18:21:38.753000,-5.0,1.144578313253012,-8.530120481927712,1.2066217044757817,-4.616186388718577,-8.18638871857756,3.0,1.3304473304473305,751.6268980477223,0.5993823203775996,0.14171668317697136,0.39671347823553404,1212.4542124542124,-1.0,86.07679173416226,1.3314208432948678,
2023-08-15 18:21:38.761000,-4.975903614457832,1.144578313253012,-8.493975903614459,1.2041692213366033,-4.59656652360515,-8.196198651134273,3.0,1.3304473304473305,751.6268980477223,0.6677932521414843,-0.12295320785502026,0.27306101043062747,1213.1868131868132,-1.0,86.07679173416226,1.3314097200122683,
2023-08-15 18:21:38.768000,-5.0,1.1325301204819278,-8.493975903614459,1.280196198651134,-4.655426118945432,-8.240343347639485,3.0,1.3304473304473305,751.6268980477223,0.46081230697511777,-0.12493444437969795,0.577588718606142,1214.6520146520145,-1.0,86.07679173416226,1.3313987109632908,
2023-08-15 18:21:38.776000,-4.9879518072289155,1.1204819277108435,-8.506024096385543,1.2703862660944205,-4.68976088289393,-8.183936235438381,3.0,1.3304473304473305,751.6268980477223,0.5091777868422587,0.13460754035312647,0.3577880076918596,1216.117216117216,-1.0,86.07679173416226,1.3313878119912639,
2023-08-15 18:21:38.784000,-5.0,1.144578313253012,-8.506024096385543,1.2703862660944205,-4.6407112201103615,-8.225628448804414,3.0,1.3304473304473305,751.6268980477223,0.37620185303886733,0.34671639181865843,0.4597634170502885,1215.3846153846152,-1.0,86.07679173416226,1.331377018736274,
2023-08-15 18:21:38.791000,-5.0120481927710845,1.144578313253012,-8.530120481927712,1.2041692213366033,-4.682403433476394,-8.26241569589209,3.0,1.3300033300033303,751.8778167250875,0.6724549851407264,0.2666511275566693,0.636210011071616,1213.9194139194137,-1.0,86.07679173416226,1.331366326652787,
2023-08-15 18:21:38.799000,-5.0120481927710845,1.1566265060240966,-8.46987951807229,1.2581238503985284,-4.672593500919681,-8.203556100551808,3.0,1.3304473304473305,751.6268980477223,0.969057747217528,0.24707184895985063,0.6728046151156694,1213.9194139194137,-1.0,86.07679173416226,1.3313557308789812,
2023-08-15 18:21:38.807000,-5.0120481927710845,1.1566265060240966,-8.493975903614459,1.2286940527283874,-4.6774984671980375,-8.237890864500306,3.0,1.3295593295593295,752.1289029888128,0.5907581143290022,0.2742264436804376,0.25289901520890373,1216.8498168498168,-1.0,86.07679173416226,1.3313452263837042,
2023-08-15 18:21:38.814000,-5.0120481927710845,1.180722891566265,-8.481927710843374,1.2826486817903127,-4.62844880441447,-8.203556100551808,3.0,1.3300033300033303,751.8778167250875,1.085018355573684,0.08810675368568247,0.2476545655847561,1227.106227106227,-1.0,86.07679173416226,1.3313348081247112,
2023-08-15 18:21:38.822000,-5.024096385542169,1.1686746987951808,-8.518072289156628,1.3586756591048437,-4.714285714285714,-8.237890864500306,3.0,1.3300033300033303,751.8778167250875,1.0889808286230414,0.08682477711089152,0.3377425557951167,1251.2820512820513,-1.0,86.07679173416226,1.3313244709956562,
2023-08-15 18:21:38.830000,-5.024096385542169,1.180722891566265,-8.518072289156628,1.2826486817903127,-4.6774984671980375,-8.255058246474555,3.0,1.3304473304473305,751.6268980477223,0.9880543091894408,0.3757356797389423,0.24357554921041902,1291.5750915750914,-1.0,86.07679173416226,1.3313142097089936,
2023-08-15 18:21:38.837000,-5.0,1.180722891566265,-8.46987951807229,1.2532188841201717,-4.6701410177805025,-8.188841201716738,3.0,1.3300033300033303,751.8778167250875,0.9210418973253314,0.5071965503175809,0.9273352368743079,1348.7179487179487,-1.0,86.07679173416226,1.3313040188492746,
2023-08-15 18:21:38.845000,-5.0361445783132535,1.1927710843373494,-8.518072289156628,1.3071735131820967,-4.586756591048436,-8.235438381361128,3.0,1.3304473304473305,751.6268980477223,0.913699667851523,0.500087407493736,0.9211584406503114,1421.245421245421,-1.0,86.07679173416226,1.3312938929160218,
2023-08-15 18:21:38.853000,-4.9879518072289155,1.1566265060240966,-8.542168674698795,1.2630288166768853,-4.657878602084611,-8.220723482526058,3.0,1.3304473304473305,751.6268980477223,0.6461161936950053,0.32597167997202964,0.2729444671056466,1507.6923076923076,-1.0,86.07679173416226,1.3312838263351339,
2023-08-15 18:21:38.860000,-5.0,1.1566265060240966,-8.46987951807229,1.30226854690374,-4.655426118945432,-8.203556100551808,3.0,1.3304473304473305,751.6268980477223,0.22842491696288034,-0.04545189674261474,0.22574442048831675,1606.5934065934066,-1.0,86.07679173416226,1.3312738133632058,
2023-08-15 18:21:38.868000,-5.0120481927710845,1.1204819277108435,-8.493975903614459,1.2360515021459226,-4.6922133660331085,-8.198651134273451,3.0,1.3304473304473305,751.6268980477223,0.10174232270846637,-0.04486918011770882,0.40883398403356447,1708.4249084249084,-1.0,86.07679173416226,1.3312638482898005,
2023-08-15 18:21:38.876000,-4.9879518072289155,1.1325301204819278,-8.506024096385543,1.2286940527283874,-4.645616186388718,-8.203556100551808,3.0,1.3304473304473305,751.6268980477223,0.21816910436454764,-0.13728803682769092,-0.177612027271138,1810.989010989011,-1.0,86.07679173416226,1.3312539257154308,
2023-08-15 18:21:38.883000,-4.9879518072289155,1.0963855421686748,-8.518072289156628,1.1919068056407112,-4.621091354996934,-8.206008583690986,3.0,1.3304473304473305,751.6268980477223,0.14870928267583544,0.4093001573334891,0.40312336110949265,1908.4249084249084,-1.0,86.07679173416226,1.3312440402760173,
2023-08-15 18:21:38.891000,-4.9879518072289155,1.108433734939759,-8.518072289156628,1.213979153893317,-4.616186388718577,-8.20110361741263,3.0,1.3304473304473305,751.6268980477223,0.5701299458073541,0.17458190082162975,-0.02843657129537877,1991.9413919413919,-1.0,86.07679173416226,1.3312341866657629,
2023-08-15 18:21:38.899000,-5.0,1.1204819277108435,-8.493975903614459,1.2409564684242795,-4.635806253832005,-8.235438381361128,3.0,1.3308913308913308,751.3761467889908,0.3627993706660451,0.32200920692267426,0.12225394790513394,2058.6080586080584,-1.0,86.07679173416226,1.3312243596597448,
2023-08-15 18:21:38.906000,-5.0,1.108433734939759,-8.481927710843374,1.20907418761496,-4.591661557326793,-8.228080931943593,3.0,1.3308913308913308,751.3761467889908,0.24613950236000218,0.10057688945865627,0.10453936250801209,2109.157509157509,-1.0,86.07679173416226,1.3312145544242076,
2023-08-15 18:21:38.914000,-5.0,1.108433734939759,-8.506024096385543,1.260576333537707,-4.6922133660331085,-8.18638871857756,3.0,1.3308913308913308,751.3761467889908,0.2257444204883159,-0.1964920459180704,-0.00512790629916635,2140.6593406593406,-1.0,86.07679173416226,1.3312047665398556,
2023-08-15 18:21:38.922000,-5.0120481927710845,1.1204819277108435,-8.493975903614459,1.2507664009809931,-4.684855916615573,-8.20110361741263,3.0,1.3308913308913308,751.3761467889908,-0.08635860381096644,0.07097488491346653,-0.14299865975176274,2149.4505494505493,-1.0,86.07679173416226,1.3311949915993246,
2023-08-15 18:21:38.929000,-5.024096385542169,1.108433734939759,-8.530120481927712,1.1722869405272838,-4.657878602084611,-8.296750459840588,3.0,1.3308913308913308,751.3761467889908,0.24357554921041857,0.03414719421945104,0.010605442573276513,2138.461538461538,-1.0,86.07679173416226,1.3311852252512062,
2023-08-15 18:21:38.937000,-5.024096385542169,1.108433734939759,-8.518072289156628,1.226241569589209,-4.687308399754752,-8.230533415082771,3.0,1.3308913308913308,751.3761467889908,-0.07190723151331495,0.07656896451255708,-0.03717732066895886,2104.7619047619046,-1.0,86.07679173416226,1.3311754633709671,
2023-08-15 18:21:38.945000,-5.0361445783132535,1.108433734939759,-8.506024096385543,1.2826486817903127,-4.675045984058859,-8.210913549969343,3.0,1.3308913308913308,751.3761467889908,0.08647514713594728,0.1018588660334472,-0.05326029951634554,2056.4102564102564,-1.0,86.07679173416226,1.3311657022207415,
2023-08-15 18:21:38.952000,-5.048192771084338,1.108433734939759,-8.506024096385543,1.2654812998160636,-4.697118332311465,-8.193746167995094,3.0,1.3308913308913308,751.3761467889908,-0.011770875823087047,-0.1642095448983162,0.00769185944874996,1999.2673992673992,-1.0,86.07679173416226,1.3311559383105542,
2023-08-15 18:21:38.960000,-5.048192771084338,1.1566265060240966,-8.506024096385543,1.2385039852851012,-4.675045984058859,-8.223175965665236,3.0,1.3300033300033303,751.8778167250875,0.36244974069110264,0.12085542800536173,0.20534933861663046,1932.6007326007325,-1.0,86.07679173416226,1.3311461682903114,
2023-08-15 18:21:38.968000,-5.0361445783132535,1.144578313253012,-8.530120481927712,1.2630288166768853,-4.657878602084611,-8.206008583690986,3.0,1.3304473304473305,751.6268980477223,0.537264728162694,-0.06841093176388291,0.09603169978439496,1863.003663003663,-1.0,86.07679173416226,1.3311363890965615,
2023-08-15 18:21:38.975000,-5.024096385542169,1.144578313253012,-8.481927710843374,1.231146535867566,-4.68976088289393,-8.264868179031268,3.0,1.3304473304473305,751.6268980477223,0.5275916321892655,0.17469844414661231,0.03204941436979165,1789.7435897435896,-1.0,86.07679173416226,1.3311265980349294,
2023-08-15 18:21:38.983000,-5.024096385542169,1.1325301204819278,-8.481927710843374,1.2115266707541386,-4.672593500919681,-8.230533415082771,3.0,1.3308913308913308,751.3761467889908,0.39799545481032544,0.36804382029019317,0.16607423809801306,1715.7509157509157,-1.0,86.07679173416226,1.3311167926580423,
2023-08-15 18:21:38.991000,-5.024096385542169,1.144578313253012,-8.46987951807229,1.280196198651134,-4.623543838136112,-8.237890864500306,3.0,1.3304473304473305,751.6268980477223,0.3784161762135067,-0.2336693665870284,0.024823728220965898,1644.6886446886447,681.732177734375,88.01110166077264,1.3311069708122025,
2023-08-15 18:21:38.998000,-5.0120481927710845,1.1325301204819278,-8.481927710843374,1.2286940527283874,-4.675045984058859,-8.223175965665236,3.0,1.3308913308913308,751.3761467889908,0.15989744187401658,0.1475438494260236,-0.024590641571004226,1578.7545787545787,-1.0,88.01110166077264,1.3310971305332853,
2023-08-15 18:21:39.006000,-5.0120481927710845,1.144578313253012,-8.493975903614459,1.213979153893317,-4.616186388718577,-8.237890864500306,3.0,1.3308913308913308,751.3761467889908,0.11036652875706562,0.05291066954140216,-0.12143814463026635,1519.4139194139193,-1.0,88.01110166077264,1.3310872702074532,
2023-08-15 18:21:39.014000,-5.048192771084338,1.1325301204819278,-8.481927710843374,1.2213366033108521,-4.687308399754752,-8.230533415082771,3.0,1.3304473304473305,751.6268980477223,-0.16968708117242592,0.0981294796340535,-0.12609987762950892,1465.201465201465,-1.0,88.01110166077264,1.3310773888692513,
2023-08-15 18:21:39.021000,-5.048192771084338,1.1204819277108435,-8.493975903614459,1.2728387492335989,-4.6701410177805025,-8.208461066830164,3.0,1.3304473304473305,751.6268980477223,0.04242177029310605,-0.14509643960142257,-0.1928792028436571,1416.8498168498168,-1.0,88.01110166077264,1.3310674856356453,
2023-08-15 18:21:39.029000,-5.0602409638554215,1.1204819277108435,-8.518072289156628,1.2385039852851012,-4.7069282648681785,-8.24770079705702,3.0,1.3304473304473305,751.6268980477223,0.008624206048599255,-0.1574500320494138,-0.22865800361284289,1375.8241758241757,-1.0,88.01110166077264,1.3310575597132253,
2023-08-15 18:21:39.037000,-5.0361445783132535,1.108433734939759,-8.530120481927712,1.1894543225015328,-4.64316370324954,-8.196198651134273,3.0,1.3304473304473305,751.6268980477223,0.008740749373580091,-0.23075578346250228,0.24089505273585457,1339.9267399267399,-1.0,88.01110166077264,1.331047610690477,
2023-08-15 18:21:39.044000,-5.024096385542169,1.1204819277108435,-8.506024096385543,1.2335990190067443,-4.75107296137339,-8.21827099938688,3.0,1.3304473304473305,751.6268980477223,0.037993123943825584,0.013052852397879719,-0.08286230406153484,1306.9597069597069,-1.0,88.01110166077264,1.331037638540554,
2023-08-15 18:21:39.052000,-5.024096385542169,1.1325301204819278,-8.493975903614459,1.2213366033108521,-4.682403433476394,-8.127529123237277,3.0,1.3304473304473305,751.6268980477223,0.06969290833867559,-0.05116251966668614,-0.24835382553464241,1278.3882783882782,-1.0,88.01110166077264,1.33102764362257,
2023-08-15 18:21:39.060000,-5.0120481927710845,1.1325301204819278,-8.481927710843374,1.2507664009809931,-4.667688534641324,-8.188841201716738,3.0,1.3304473304473305,751.6268980477223,0.31571586737369695,-0.1426490297768198,-0.06083561564011423,1256.4102564102564,-1.0,88.01110166077264,1.3310176266814149,
2023-08-15 18:21:39.067000,-5.0120481927710845,1.1204819277108435,-8.493975903614459,1.1992642550582464,-4.599019006744328,-8.264868179031268,3.0,1.3304473304473305,751.6268980477223,0.08752403706077655,-0.10838529223238792,0.3730551832643787,1241.0256410256409,-1.0,88.01110166077264,1.3310075888461137,
2023-08-15 18:21:39.075000,-5.048192771084338,1.1204819277108435,-8.518072289156628,1.2286940527283874,-4.7069282648681785,-8.223175965665236,3.0,1.3304473304473305,751.6268980477223,0.26024124468271115,-0.026688421420663622,0.2547637084086006,1229.3040293040292,-1.0,88.01110166077264,1.330997531626729,
2023-08-15 18:21:39.083000,-5.0120481927710845,1.108433734939759,-8.506024096385543,1.1870018393623543,-4.6774984671980375,-8.203556100551808,3.0,1.3304473304473305,751.6268980477223,0.5520657304352897,-0.07097488491346653,0.2876289260532607,1217.5824175824175,-1.0,88.01110166077264,1.3309874569098428,
2023-08-15 18:21:39.090000,-5.0120481927710845,1.1325301204819278,-8.493975903614459,1.213979153893317,-4.625996321275291,-8.206008583690986,3.0,1.3304473304473305,751.6268980477223,0.39857817143523133,0.050579803041780225,0.27341064040557084,1205.128205128205,-1.0,88.01110166077264,1.3309773669526173,
2023-08-15 18:21:39.098000,-5.0120481927710845,1.1204819277108435,-8.493975903614459,1.2237890864500305,-4.684855916615573,-8.225628448804414,3.0,1.3304473304473305,751.6268980477223,0.5351669483130355,0.15418681894994518,0.07703513781248174,1191.9413919413919,-1.0,88.01110166077264,1.3309672643755002,
2023-08-15 18:21:39.106000,-5.024096385542169,1.108433734939759,-8.518072289156628,1.2826486817903127,-4.650521152667075,-8.269773145309626,3.0,1.3304473304473305,751.6268980477223,0.5050987704679207,0.3389079890449268,0.20243575549210432,1180.952380952381,-1.0,88.01110166077264,1.3309571522923296,
2023-08-15 18:21:39.113000,-5.024096385542169,1.1204819277108435,-8.530120481927712,1.1919068056407112,-4.6922133660331085,-8.228080931943593,3.0,1.3295593295593295,752.1289029888128,0.32562204999708716,0.0033797564244512,0.22038342753918785,1174.3589743589744,-1.0,88.01110166077264,1.3309470341412668,
2023-08-15 18:21:39.121000,-5.024096385542169,1.1204819277108435,-8.518072289156628,1.2581238503985284,-4.638258736971183,-8.277130594727161,3.0,1.3300033300033303,751.8778167250875,0.37853271953848755,0.2829671930540177,-0.38610803566225754,1173.6263736263736,-1.0,88.01110166077264,1.3309369135249063,
2023-08-15 18:21:39.129000,-5.0361445783132535,1.1325301204819278,-8.518072289156628,1.2777437155119558,-4.68976088289393,-8.252605763335376,3.0,1.3300033300033303,751.8778167250875,0.38529223238738997,0.28121904317930163,-0.37993123943826107,1178.7545787545787,-1.0,88.01110166077264,1.3309267944117695,
2023-08-15 18:21:39.136000,-5.024096385542169,1.1566265060240966,-8.506024096385543,1.30226854690374,-4.6701410177805025,-8.24770079705702,3.0,1.3304473304473305,751.6268980477223,0.06771167181399616,0.1468445894761386,-0.18763475321950945,1188.278388278388,-1.0,88.01110166077264,1.33091668112259,
2023-08-15 18:21:39.144000,-5.024096385542169,1.144578313253012,-8.493975903614459,1.1894543225015328,-4.6922133660331085,-8.245248313917841,3.0,1.3304473304473305,751.6268980477223,-0.0640988287395833,-0.1272653108793199,-0.2573276615581846,1201.4652014652013,-1.0,88.01110166077264,1.3309065781874474,
2023-08-15 18:21:39.151000,-5.024096385542169,1.144578313253012,-8.530120481927712,1.280196198651134,-4.709380748007357,-8.250153280196198,3.0,1.3304473304473305,751.6268980477223,-0.0916030534351145,0.19672513256803206,0.3107045043995106,1216.117216117216,-1.0,88.01110166077264,1.3308964903717886,
2023-08-15 18:21:39.159000,-5.024096385542169,1.1204819277108435,-8.518072289156628,1.2237890864500305,-4.679950950337216,-8.264868179031268,3.0,1.3304473304473305,751.6268980477223,0.183206106870229,0.33273119282093033,0.07738476778742512,1232.967032967033,-1.0,88.01110166077264,1.3308864226696275,
2023-08-15 18:21:39.167000,-5.0361445783132535,1.1204819277108435,-8.542168674698795,1.1919068056407112,-4.684855916615573,-8.27958307786634,3.0,1.3304473304473305,751.6268980477223,0.3169978439484879,-0.1582658353242814,0.19905599906765314,1251.2820512820513,-1.0,88.01110166077264,1.3308763802851975,
2023-08-15 18:21:39.174000,-5.0361445783132535,1.1204819277108435,-8.518072289156628,1.2213366033108521,-4.684855916615573,-8.242795830778663,3.0,1.3304473304473305,751.6268980477223,0.33925761901987106,0.10267466930831479,-0.15418681894994432,1269.5970695970695,-1.0,88.01110166077264,1.3308663686136872,
2023-08-15 18:21:39.182000,-5.0,1.1325301204819278,-8.518072289156628,1.3120784794604536,-4.645616186388718,-8.269773145309626,3.0,1.3304473304473305,751.6268980477223,0.272711380455685,0.1501078025756072,0.1666569547229181,1288.6446886446886,-1.0,88.01110166077264,1.330856393221165,
2023-08-15 18:21:39.190000,-5.0,1.144578313253012,-8.530120481927712,1.25567136725935,-4.606376456161864,-8.225628448804414,3.0,1.3304473304473305,751.6268980477223,0.054192646116193094,0.06223413553988644,0.0692267350387505,1304.7619047619046,-1.0,88.01110166077264,1.3308464599625462,
2023-08-15 18:21:39.197000,-5.0,1.1204819277108435,-8.518072289156628,1.1771919068056407,-4.638258736971183,-8.286940527283875,3.0,1.3304473304473305,751.6268980477223,0.1579162053493389,-0.36221665404113923,0.13985198997727366,1319.4139194139193,-1.0,88.01110166077264,1.330836574801081,
2023-08-15 18:21:39.205000,-4.9879518072289155,1.1325301204819278,-8.530120481927712,1.3169834457388105,-4.645616186388718,-8.282035561005518,3.0,1.3304473304473305,751.6268980477223,0.3211934036478067,-0.37538604976399975,0.1471942194510811,1335.5311355311355,-1.0,88.01110166077264,1.3308267437976211,
2023-08-15 18:21:39.213000,-5.0120481927710845,1.1204819277108435,-8.530120481927712,1.2581238503985284,-4.6407112201103615,-8.210913549969343,3.0,1.3304473304473305,751.6268980477223,-0.11246430860672414,-0.31268574092418827,0.003496299749432037,1347.2527472527472,-1.0,88.01110166077264,1.3308169730783412,
2023-08-15 18:21:39.220000,-5.0120481927710845,1.1204819277108435,-8.493975903614459,1.2360515021459226,-4.667688534641324,-8.245248313917841,3.0,1.3304473304473305,751.6268980477223,-0.422469553056348,-0.26257211118233137,0.05698968591573925,1356.7765567765566,-1.0,88.01110166077264,1.330807268823158,
2023-08-15 18:21:39.228000,-5.0120481927710845,1.144578313253012,-8.518072289156628,1.2385039852851012,-4.6112814224402205,-8.21827099938688,3.0,1.3300033300033303,751.8778167250875,0.24520715576015376,0.5806188450556502,0.03542917079424284,1363.3699633699632,-1.0,88.01110166077264,1.3307976373715902,
2023-08-15 18:21:39.236000,-5.0,1.1204819277108435,-8.493975903614459,1.1649294911097485,-4.684855916615573,-8.255058246474555,3.0,1.3304473304473305,751.6268980477223,0.09871219625895941,0.1475438494260236,-0.04859856651710253,1368.4981684981683,-1.0,88.01110166077264,1.330788084902381,
2023-08-15 18:21:39.243000,-5.024096385542169,1.1204819277108435,-8.493975903614459,1.231146535867566,-4.6407112201103615,-8.179031269160024,3.0,1.3304473304473305,751.6268980477223,0.07470427131286024,-0.604976399976692,-0.3149000640988285,1372.8937728937728,-1.0,88.01110166077264,1.3307786175390037,
2023-08-15 18:21:39.251000,-5.0361445783132535,1.1204819277108435,-8.481927710843374,1.2360515021459226,-4.652973635806253,-8.230533415082771,3.0,1.3304473304473305,751.6268980477223,-0.1602470718489591,-0.46407552007458813,-0.45533477070100803,1371.4285714285713,-1.0,88.01110166077264,1.3307692414866932,
2023-08-15 18:21:39.259000,-5.024096385542169,1.1204819277108435,-8.493975903614459,1.2041692213366033,-4.682403433476394,-8.242795830778663,3.0,1.3308913308913308,751.3761467889908,-0.20861255171609994,0.1199230814055133,-0.3185129071732414,1369.230769230769,-1.0,88.01110166077264,1.330759962871718,
2023-08-15 18:21:39.266000,-5.024096385542169,1.108433734939759,-8.493975903614459,1.213979153893317,-4.6627835683629675,-8.179031269160024,3.0,1.3300033300033303,751.8778167250875,-0.19555969931822195,-0.033447934269564286,-0.1825068469203427,1362.6373626373625,-1.0,88.01110166077264,1.3307507877301792,
2023-08-15 18:21:39.274000,-4.9879518072289155,1.1325301204819278,-8.506024096385543,1.2581238503985284,-4.6627835683629675,-8.242795830778663,3.0,1.3300033300033303,751.8778167250875,0.0802983509119508,-0.03426373754443188,-0.06130178894003844,1354.5787545787546,-1.0,88.01110166077264,1.3307417221465399,
2023-08-15 18:21:39.282000,-5.0,1.1204819277108435,-8.493975903614459,1.2507664009809931,-4.652973635806253,-8.193746167995094,3.0,1.3300033300033303,751.8778167250875,0.04661732999242484,-0.01992890857176122,-0.18588660334479346,1340.6593406593406,-1.0,88.01110166077264,1.3307327719999837,
2023-08-15 18:21:39.289000,-4.975903614457832,1.108433734939759,-8.44578313253012,1.213979153893317,-4.645616186388718,-8.245248313917841,3.0,1.3304473304473305,751.6268980477223,-0.0632830254647157,0.07295612143814421,-0.26606841093176387,1325.2747252747251,-1.0,88.01110166077264,1.3307239427953597,
2023-08-15 18:21:39.297000,-5.0361445783132535,1.108433734939759,-8.506024096385543,1.260576333537707,-4.675045984058859,-8.228080931943593,3.0,1.3304473304473305,751.6268980477223,0.3122195676242649,-0.15861546529922566,-0.22143231746401712,1307.6923076923076,-1.0,88.01110166077264,1.3307152398027564,
2023-08-15 18:21:39.305000,-5.024096385542169,1.1204819277108435,-8.542168674698795,1.290006131207848,-4.711833231146535,-8.215818516247701,3.0,1.3304473304473305,751.6268980477223,-0.03274867431967753,-0.1899656197191314,-0.05500844939106112,1290.10989010989,-1.0,88.01110166077264,1.3307066680798914,
2023-08-15 18:21:39.312000,-5.0361445783132535,1.108433734939759,-8.530120481927712,1.2434089515634579,-4.738810545677498,-8.242795830778663,3.0,1.3304473304473305,751.6268980477223,-0.09976108618378868,-0.35778800769185876,-0.17982635044577824,1273.260073260073,-1.0,88.01110166077264,1.3306982324636798,
2023-08-15 18:21:39.320000,-5.0120481927710845,1.108433734939759,-8.506024096385543,1.2581238503985284,-4.6774984671980375,-8.296750459840588,3.0,1.3304473304473305,751.6268980477223,-0.19497698269331604,0.18087524037060707,0.06083561564011423,1258.6080586080586,-1.0,88.01110166077264,1.3306899375522625,
2023-08-15 18:21:39.328000,-5.0361445783132535,1.1204819277108435,-8.55421686746988,1.231146535867566,-4.6995708154506435,-8.27958307786634,3.0,1.3304473304473305,751.6268980477223,-0.1665404113979364,-0.036011887419147896,-0.0788998310121786,1246.153846153846,-1.0,88.01110166077264,1.3306817876881332,
2023-08-15 18:21:39.335000,-5.0602409638554215,1.1204819277108435,-8.542168674698795,1.2409564684242795,-4.719190680564071,-8.206008583690986,3.0,1.3304473304473305,751.6268980477223,-0.38144630266301544,0.11502826175630776,0.02820348464541688,1233.6996336996335,-1.0,88.01110166077264,1.3306737869424394,
2023-08-15 18:21:39.343000,-5.048192771084338,1.1325301204819278,-8.481927710843374,1.2581238503985284,-4.6774984671980375,-8.223175965665236,3.0,1.3304473304473305,751.6268980477223,-0.19474389604335438,0.44939106112697325,-0.17271720762193332,1221.9780219780218,-1.0,88.01110166077264,1.3306659391005824,
2023-08-15 18:21:39.351000,-5.024096385542169,1.1325301204819278,-8.506024096385543,1.2335990190067443,-4.660331085223789,-8.245248313917841,3.0,1.3304473304473305,751.6268980477223,0.06304993881475403,0.33879144571994596,-0.09509935318454632,1209.5238095238094,-1.0,88.01110166077264,1.3306582476491424,
2023-08-15 18:21:39.358000,-5.0120481927710845,1.1325301204819278,-8.530120481927712,1.2286940527283874,-4.694665849172287,-8.176578786020846,3.0,1.3304473304473305,751.6268980477223,-0.2130411980653804,-0.0737719247130118,0.04102325039333384,1202.197802197802,-1.0,88.01110166077264,1.330650715764245,
2023-08-15 18:21:39.366000,-5.0,1.1325301204819278,-8.46987951807229,1.2483139178418148,-4.704475781729,-8.237890864500306,3.0,1.3304473304473305,751.6268980477223,-0.2731775537556083,-0.22469553056348662,0.13274284715342918,1199.2673992673992,-1.0,88.01110166077264,1.3306433463013974,
2023-08-15 18:21:39.374000,-4.9879518072289155,1.108433734939759,-8.493975903614459,1.2924586143470262,-4.667688534641324,-8.255058246474555,3.0,1.3304473304473305,751.6268980477223,0.14299865975176232,-0.20569896859157383,-0.03531262746926157,1197.8021978021977,-1.0,88.01110166077264,1.3306361417868653,
2023-08-15 18:21:39.381000,-5.0,1.1204819277108435,-8.518072289156628,1.1722869405272838,-4.7069282648681785,-8.223175965665236,3.0,1.3304473304473305,751.6268980477223,-0.16094633179884585,-0.4639589767496073,0.055591166015966385,1197.8021978021977,-1.0,88.01110166077264,1.3306291044106218,
2023-08-15 18:21:39.389000,-5.0120481927710845,1.1325301204819278,-8.530120481927712,1.2483139178418148,-4.657878602084611,-8.245248313917841,3.0,1.3304473304473305,751.6268980477223,-0.2483538255346433,-0.18670240661966103,-0.26245556785735097,1201.4652014652013,-1.0,88.01110166077264,1.3306222360209117,
2023-08-15 18:21:39.397000,-5.0120481927710845,1.1204819277108435,-8.518072289156628,1.2017167381974247,-4.645616186388718,-8.259963212752911,3.0,1.3304473304473305,751.6268980477223,0.045684983392576414,0.10628751238272767,-0.07318920808810676,1208.7912087912086,-1.0,88.01110166077264,1.3306155381204594,
2023-08-15 18:21:39.404000,-5.0120481927710845,1.144578313253012,-8.506024096385543,1.2237890864500305,-4.621091354996934,-8.235438381361128,3.0,1.3304473304473305,751.6268980477223,0.04673387331740568,0.10850183555736877,-0.06841093176388335,1214.6520146520145,-1.0,88.01110166077264,1.330609011864308,
2023-08-15 18:21:39.412000,-5.0,1.1204819277108435,-8.493975903614459,1.1477621091354997,-4.608828939301042,-8.267320662170446,3.0,1.3304473304473305,751.6268980477223,-0.22527824718839254,0.06235067886486727,-0.3845929724375036,1221.245421245421,-1.0,88.01110166077264,1.3306026580593369,
2023-08-15 18:21:39.420000,-5.0,1.1204819277108435,-8.481927710843374,1.2581238503985284,-4.645616186388718,-8.198651134273451,3.0,1.3295593295593295,752.1289029888128,-0.37363789988928375,-0.01794767204708353,-0.25604568498339236,1225.6410256410256,-1.0,88.01110166077264,1.3305964771654182,
2023-08-15 18:21:39.427000,-5.0361445783132535,1.108433734939759,-8.481927710843374,1.25567136725935,-4.665236051502146,-8.154506437768239,3.0,1.3300033300033303,751.8778167250875,-0.5059145737427883,0.1339082804032397,-0.2807528698793774,1230.03663003663,-1.0,88.01110166077264,1.3305904692771284,
2023-08-15 18:21:39.435000,-5.0361445783132535,1.1204819277108435,-8.481927710843374,1.2188841201716738,-4.684855916615573,-8.13733905579399,3.0,1.3300033300033303,751.8778167250875,-0.9127673212516746,0.3306334129712718,-0.7788590408484354,1233.6996336996335,-1.0,88.01110166077264,1.3305846341929444,
2023-08-15 18:21:39.443000,-5.0602409638554215,1.108433734939759,-8.493975903614459,1.1649294911097485,-4.672593500919681,-8.188841201716738,3.0,1.3300033300033303,751.8778167250875,-0.5334187984383195,-0.30988870112464295,-1.0275624963580212,1237.3626373626373,-1.0,88.01110166077264,1.330578971282504,
2023-08-15 18:21:39.450000,-5.024096385542169,1.108433734939759,-8.493975903614459,1.2286940527283874,-4.6995708154506435,-8.210913549969343,3.0,1.3300033300033303,751.8778167250875,-0.41897325330691765,-0.5204824893654223,-0.5577763533593612,1238.8278388278388,-1.0,88.01110166077264,1.330573479375926,
2023-08-15 18:21:39.458000,-5.0361445783132535,1.0843373493975905,-8.518072289156628,1.1673819742489269,-4.682403433476394,-8.230533415082771,3.0,1.3304473304473305,751.6268980477223,-0.138453470077501,-0.42503350620593155,-0.3209603169978441,1241.7582417582416,-1.0,88.01110166077264,1.330568156920412,
2023-08-15 18:21:39.466000,-5.0120481927710845,1.0963855421686748,-8.518072289156628,1.1673819742489269,-4.68976088289393,-8.230533415082771,3.0,1.3304473304473305,751.6268980477223,0.33622749257036233,0.4943767845696629,0.1560515121496416,1243.956043956044,-1.0,88.01110166077264,1.3305630021379498,
2023-08-15 18:21:39.473000,-5.0120481927710845,1.0963855421686748,-8.542168674698795,1.1870018393623543,-4.6627835683629675,-8.272225628448805,3.0,1.3300033300033303,751.8778167250875,0.21036070159081596,-0.027853854670473722,0.4187401666569547,1246.153846153846,-1.0,88.01110166077264,1.3305580130566228,
2023-08-15 18:21:39.481000,-5.0,1.0843373493975905,-8.530120481927712,1.2385039852851012,-4.638258736971183,-8.235438381361128,3.0,1.3300033300033303,751.8778167250875,0.022959035021269912,0.26630149758172683,0.7070683526601013,1248.3516483516482,-1.0,88.01110166077264,1.330553187095949,
2023-08-15 18:21:39.489000,-5.0120481927710845,1.0843373493975905,-8.518072289156628,1.2360515021459226,-4.694665849172287,-8.203556100551808,3.0,1.3300033300033303,751.8778167250875,0.09859565293397857,-0.1911310529689415,-0.07680205116251963,1249.8168498168498,-1.0,88.01110166077264,1.3305485212173922,
2023-08-15 18:21:39.496000,-5.024096385542169,1.0843373493975905,-8.518072289156628,1.1894543225015328,-4.682403433476394,-8.166768853464133,3.0,1.3304473304473305,751.6268980477223,0.021560515121496402,-0.3576714643668779,0.03368102091952683,1251.2820512820513,-1.0,88.01110166077264,1.3305440122033676,
2023-08-15 18:21:39.504000,-5.048192771084338,1.108433734939759,-8.481927710843374,1.1771919068056407,-4.711833231146535,-8.203556100551808,3.0,1.3304473304473305,751.6268980477223,-0.6045102266767669,-0.6489132334945523,0.03204941436979208,1252.014652014652,-1.0,88.01110166077264,1.3305396566708982,
2023-08-15 18:21:39.511000,-5.0602409638554215,1.1204819277108435,-8.506024096385543,1.2434089515634579,-4.6701410177805025,-8.225628448804414,3.0,1.3300033300033303,751.8778167250875,0.11584406503117535,-0.4032399044344735,-0.16863819124759624,1252.7472527472526,-1.0,88.01110166077264,1.3305354511079104,
2023-08-15 18:21:39.519000,-5.048192771084338,1.144578313253012,-8.493975903614459,1.1919068056407112,-4.719190680564071,-8.188841201716738,3.0,1.3304473304473305,751.6268980477223,0.4032399044344735,-0.021793601771458074,3.4962997494337723E-4,1260.07326007326,-1.0,88.01110166077264,1.3305313916019876,
2023-08-15 18:21:39.527000,-5.048192771084338,1.144578313253012,-8.46987951807229,1.3169834457388105,-4.709380748007357,-8.242795830778663,3.0,1.3304473304473305,751.6268980477223,0.6110366528757059,0.024124468271080012,0.166423868072956,1275.4578754578754,-1.0,88.01110166077264,1.330527473985383,
2023-08-15 18:21:39.534000,-5.0602409638554215,1.144578313253012,-8.530120481927712,1.2777437155119558,-4.6701410177805025,-8.23298589822195,3.0,1.3304473304473305,751.6268980477223,0.816502534817318,0.19217994289377077,0.45381970747625416,1298.168498168498,-1.0,88.01110166077264,1.3305236940122993,
2023-08-15 18:21:39.542000,-5.048192771084338,1.1566265060240966,-8.518072289156628,1.2826486817903127,-4.704475781729,-8.206008583690986,3.0,1.3304473304473305,751.6268980477223,0.49985432084377435,0.17551424742147817,0.3414719421945108,1329.6703296703297,-1.0,88.01110166077264,1.330520047238928,
2023-08-15 18:21:39.550000,-5.0361445783132535,1.144578313253012,-8.46987951807229,1.3047210300429184,-4.709380748007357,-8.257510729613733,3.0,1.3304473304473305,751.6268980477223,0.29275683235242705,-0.054425732766156504,0.3190956237981468,1377.2893772893772,-1.0,88.01110166077264,1.3305165290428211,
2023-08-15 18:21:39.557000,-5.048192771084338,1.180722891566265,-8.46987951807229,1.3218884120171672,-4.6333537706928265,-8.23298589822195,3.0,1.3304473304473305,751.6268980477223,-0.0658469786142993,-0.20872909504108078,0.050929433016724035,1438.095238095238,-1.0,88.01110166077264,1.3305131346427506,
2023-08-15 18:21:39.565000,-5.048192771084338,1.1566265060240966,-8.46987951807229,1.2581238503985284,-4.623543838136112,-8.198651134273451,3.0,1.3308913308913308,751.3761467889908,-0.054192646116193094,-0.28553114620360126,0.24567332906007797,1517.216117216117,-1.0,88.01110166077264,1.3305098591189635,
2023-08-15 18:21:39.573000,-5.048192771084338,1.144578313253012,-8.481927710843374,1.2507664009809931,-4.7363580625383195,-8.193746167995094,3.0,1.3300033300033303,751.8778167250875,-0.028786201270322147,0.01841384534700861,0.16432608822329706,1608.058608058608,-1.0,88.01110166077264,1.3305066974443067,
2023-08-15 18:21:39.580000,-5.0120481927710845,1.108433734939759,-8.493975903614459,1.2017167381974247,-4.694665849172287,-8.235438381361128,3.0,1.3300033300033303,751.8778167250875,-0.27842200337975637,0.07575316123768949,0.5110424800419555,1706.9597069597069,-1.0,88.01110166077264,1.3305036446649452,
2023-08-15 18:21:39.588000,-5.0120481927710845,1.108433734939759,-8.493975903614459,1.1894543225015328,-4.687308399754752,-8.179031269160024,3.0,1.3304473304473305,751.6268980477223,-0.3728220966144162,0.22387972728861905,0.5962356506031118,1805.8608058608058,-1.0,88.01110166077264,1.3305006956885945,
2023-08-15 18:21:39.596000,-5.0361445783132535,1.0963855421686748,-8.493975903614459,1.2409564684242795,-4.682403433476394,-8.198651134273451,3.0,1.3304473304473305,751.6268980477223,-0.20721403181632816,0.40114212458481496,0.39286754851115907,1893.7728937728937,-1.0,88.01110166077264,1.330497845306084,
2023-08-15 18:21:39.603000,-5.0120481927710845,1.108433734939759,-8.506024096385543,1.2409564684242795,-4.652973635806253,-8.240343347639485,3.0,1.3304473304473305,751.6268980477223,0.04754967659227327,0.06083561564011466,0.5091777868422587,1972.161172161172,-1.0,88.01110166077264,1.330495088382899,
2023-08-15 18:21:39.611000,-5.0,1.072289156626506,-8.506024096385543,1.1722869405272838,-4.645616186388718,-8.230533415082771,3.0,1.3308913308913308,751.3761467889908,-0.26082396130761537,0.07283957811316338,0.10745294563253907,2035.164835164835,-1.0,88.01110166077264,1.3304924197419408,
2023-08-15 18:21:39.619000,-5.0120481927710845,1.0963855421686748,-8.506024096385543,1.2017167381974247,-4.638258736971183,-8.20110361741263,3.0,1.3304473304473305,751.6268980477223,0.27504224695530516,-0.17376609754676214,0.13682186352776626,2082.0512820512818,-1.0,88.01110166077264,1.3304898341951934,
2023-08-15 18:21:39.626000,-5.0,1.0963855421686748,-8.530120481927712,1.1649294911097485,-4.68976088289393,-8.210913549969343,3.0,1.3308913308913308,751.3761467889908,0.026338791445719375,0.026338791445719375,0.16304411164850524,2106.9597069597066,-1.0,88.01110166077264,1.330487326457322,
2023-08-15 18:21:39.634000,-5.0120481927710845,1.108433734939759,-8.530120481927712,1.2041692213366033,-4.738810545677498,-8.26241569589209,3.0,1.3308913308913308,751.3761467889908,-0.3873900122370485,0.1475438494260236,0.39030359536157566,2112.087912087912,-1.0,88.01110166077264,1.3304848914428282,
2023-08-15 18:21:39.642000,-5.0,1.108433734939759,-8.506024096385543,1.2507664009809931,-4.6333537706928265,-8.210913549969343,3.0,1.3308913308913308,751.3761467889908,-0.18938290309422548,0.5423926344618613,0.4161762135073713,2097.4358974358975,-1.0,88.01110166077264,1.330482524286079,
2023-08-15 18:21:39.649000,-5.0,1.1204819277108435,-8.518072289156628,1.2752912323727774,-4.711833231146535,-8.208461066830164,3.0,1.3308913308913308,751.3761467889908,-0.03834275391876983,0.3842433424625607,0.2425266592855893,2067.399267399267,-1.0,88.01110166077264,1.330480220094637,
2023-08-15 18:21:39.657000,-5.0120481927710845,1.1325301204819278,-8.481927710843374,1.2188841201716738,-4.6627835683629675,-8.21827099938688,3.0,1.3308913308913308,751.3761467889908,0.02074471184662881,0.06001981236524707,0.041372880368277,2024.1758241758241,-1.0,88.01110166077264,1.330477974256413,
2023-08-15 18:21:39.665000,-5.0120481927710845,1.1204819277108435,-8.506024096385543,1.2630288166768853,-4.682403433476394,-8.206008583690986,3.0,1.3308913308913308,751.3761467889908,0.30674203135015515,-0.3333139094458362,-0.23390245323699094,1971.4285714285713,-1.0,88.01110166077264,1.3304757822991904,
2023-08-15 18:21:39.672000,-5.0120481927710845,1.1325301204819278,-8.518072289156628,1.2924586143470262,-4.721643163703249,-8.245248313917841,3.0,1.3308913308913308,751.3761467889908,0.10337392925820155,-0.06992599498863726,-0.0187634753219509,1909.1575091575091,-1.0,88.01110166077264,1.3304736399198778,
2023-08-15 18:21:39.680000,-5.024096385542169,1.1686746987951808,-8.530120481927712,1.2973635806253832,-4.667688534641324,-8.240343347639485,3.0,1.3308913308913308,751.3761467889908,0.10162577938348553,-0.07144105821339161,-0.020511625196666706,1841.7582417582416,-1.0,88.01110166077264,1.3304715431307435,
2023-08-15 18:21:39.688000,-5.024096385542169,1.144578313253012,-8.518072289156628,1.30226854690374,-4.630901287553648,-8.277130594727161,3.0,1.3308913308913308,751.3761467889908,0.008041489423693338,0.4154769535574856,-0.25196666860905553,1770.6959706959706,-1.0,88.01110166077264,1.3304694879893375,
2023-08-15 18:21:39.695000,-5.024096385542169,1.1686746987951808,-8.506024096385543,1.2875536480686696,-4.657878602084611,-8.274678111587983,3.0,1.3308913308913308,751.3761467889908,-0.13367519375327805,0.30639240137521095,-0.17364955422178174,1700.3663003663003,-1.0,88.01110166077264,1.3304674706359065,
2023-08-15 18:21:39.703000,-5.0,1.1686746987951808,-8.518072289156628,1.3071735131820967,-4.630901287553648,-8.228080931943593,3.0,1.3308913308913308,751.3761467889908,-0.36221665404113923,-0.24322591923547607,-0.26152322125750255,1631.5018315018315,697.052001953125,86.07679173416226,1.3304654874574406,
2023-08-15 18:21:39.711000,-5.024096385542169,1.144578313253012,-8.493975903614459,1.2826486817903127,-4.665236051502146,-8.242795830778663,3.0,1.3308913308913308,751.3761467889908,-0.5153545830662551,-0.1786609171959677,-0.5497348639356683,1564.102564102564,-1.0,86.07679173416226,1.3304635351015843,
2023-08-15 18:21:39.718000,-5.0361445783132535,1.1566265060240966,-8.506024096385543,1.25567136725935,-4.665236051502146,-8.225628448804414,3.0,1.3313353313353316,751.1255627813906,-0.6217586387739636,0.32806945982168817,-0.5744420488316533,1502.5641025641025,-1.0,86.07679173416226,1.3304616104896554,
2023-08-15 18:21:39.726000,-5.0120481927710845,1.1204819277108435,-8.530120481927712,1.2679337829552422,-4.606376456161864,-8.225628448804414,3.0,1.3300033300033303,751.8778167250875,-0.5267758289143997,0.1250509877046788,-0.434590058854379,1445.4212454212454,-1.0,86.07679173416226,1.3304597109780216,
2023-08-15 18:21:39.734000,-5.0361445783132535,1.1325301204819278,-8.506024096385543,1.2532188841201717,-4.655426118945432,-8.18638871857756,3.0,1.3304473304473305,751.6268980477223,-0.5708292057572409,-0.10628751238272767,-0.4464774780024476,1398.5347985347985,-1.0,86.07679173416226,1.3304578339431825,
2023-08-15 18:21:39.741000,-5.0361445783132535,1.1325301204819278,-8.481927710843374,1.2164316370324952,-4.68976088289393,-8.16922133660331,3.0,1.3304473304473305,751.6268980477223,-0.41699201678223824,-0.4275974593555152,-0.15407027562496348,1356.7765567765566,-1.0,86.07679173416226,1.3304559767384383,
2023-08-15 18:21:39.749000,-5.048192771084338,1.1325301204819278,-8.506024096385543,1.3047210300429184,-4.6995708154506435,-8.237890864500306,3.0,1.3308913308913308,751.3761467889908,0.027154594720586966,-0.31618204067362027,-0.32061068702290074,1317.216117216117,-1.0,86.07679173416226,1.3304541371378225,
2023-08-15 18:21:39.757000,-5.048192771084338,1.1325301204819278,-8.493975903614459,1.2630288166768853,-4.721643163703249,-8.213366033108523,3.0,1.3308913308913308,751.3761467889908,-0.12493444437969795,-0.21910145096439607,-0.48493677524619777,1282.051282051282,-1.0,86.07679173416226,1.3304523133526476,
2023-08-15 18:21:39.764000,-5.0602409638554215,1.144578313253012,-8.518072289156628,1.226241569589209,-4.660331085223789,-8.23298589822195,3.0,1.3308913308913308,751.3761467889908,0.03041780782005733,-0.0340306508944702,-0.21980071091428238,1251.2820512820513,-1.0,86.07679173416226,1.3304505040580819,
2023-08-15 18:21:39.772000,-5.0602409638554215,1.1204819277108435,-8.46987951807229,1.2532188841201717,-4.6701410177805025,-8.193746167995094,3.0,1.3308913308913308,751.3761467889908,-0.5171027329409711,-0.020278538546705464,-0.30872326787483245,1227.106227106227,-1.0,86.07679173416226,1.330448708259441,
2023-08-15 18:21:39.780000,-5.024096385542169,1.108433734939759,-8.46987951807229,1.2581238503985284,-4.625996321275291,-8.198651134273451,3.0,1.3308913308913308,751.3761467889908,-0.5886603344793419,0.08496008391119467,-0.196142415943127,1205.128205128205,-1.0,86.07679173416226,1.3304469251573323,
2023-08-15 18:21:39.787000,-5.024096385542169,1.108433734939759,-8.44578313253012,1.2237890864500305,-4.660331085223789,-8.196198651134273,3.0,1.3308913308913308,751.3761467889908,-0.3538255346425034,-0.022376318396363993,-0.360818134141367,1183.8827838827838,-1.0,86.07679173416226,1.330445154309488,
2023-08-15 18:21:39.795000,-5.0361445783132535,1.0963855421686748,-8.457831325301205,1.1919068056407112,-4.667688534641324,-8.242795830778663,3.0,1.3308913308913308,751.3761467889908,-0.1064040557077085,0.1475438494260236,0.01095507254821989,1167.032967032967,-1.0,86.07679173416226,1.330443395759911,
2023-08-15 18:21:39.803000,-5.024096385542169,1.108433734939759,-8.46987951807229,1.2507664009809931,-4.660331085223789,-8.213366033108523,3.0,1.3308913308913308,751.3761467889908,-0.011188159198181129,-0.12714876755433904,0.1065205990326902,1157.5091575091574,-1.0,86.07679173416226,1.330441649890105,
2023-08-15 18:21:39.810000,-5.0120481927710845,1.1204819277108435,-8.493975903614459,1.1992642550582464,-4.62844880441447,-8.21827099938688,3.0,1.3304473304473305,751.6268980477223,0.20779674844123236,0.39403298176097007,0.18646931996969893,1153.8461538461538,-1.0,86.07679173416226,1.3304399174184107,
2023-08-15 18:21:39.818000,-5.0,1.1204819277108435,-8.493975903614459,1.1992642550582464,-4.608828939301042,-8.21827099938688,3.0,1.3308913308913308,751.3761467889908,0.26968125400617626,0.6977448866616165,0.07948254763708408,1152.3809523809523,-1.0,86.07679173416226,1.3304381992488459,
2023-08-15 18:21:39.826000,-5.048192771084338,1.108433734939759,-8.481927710843374,1.2703862660944205,-4.665236051502146,-8.228080931943593,3.0,1.3308913308913308,751.3761467889908,0.19754093584289967,0.05116251966668614,-0.08775712371073952,1153.113553113553,-1.0,86.07679173416226,1.330436496595461,
2023-08-15 18:21:39.833000,-5.024096385542169,1.1204819277108435,-8.457831325301205,1.2335990190067443,-4.68976088289393,-8.23298589822195,3.0,1.3304473304473305,751.6268980477223,0.5688479692325614,-0.07144105821339161,0.06759512848901576,1157.5091575091574,-1.0,86.07679173416226,1.3304348111370308,
2023-08-15 18:21:39.841000,-5.048192771084338,1.144578313253012,-8.530120481927712,1.2703862660944205,-4.6333537706928265,-8.255058246474555,3.0,1.3308913308913308,751.3761467889908,0.43284190897966324,0.4350562321543026,-0.359069984266651,1165.5677655677655,-1.0,86.07679173416226,1.3304331447233966,
2023-08-15 18:21:39.849000,-5.0361445783132535,1.144578313253012,-8.493975903614459,1.2581238503985284,-4.724095646842428,-8.188841201716738,3.0,1.3308913308913308,751.3761467889908,0.5416933745119745,0.25173358195909273,-0.4260823961307617,1178.021978021978,-1.0,86.07679173416226,1.330431499496127,
2023-08-15 18:21:39.856000,-5.0602409638554215,1.144578313253012,-8.493975903614459,1.2752912323727774,-4.687308399754752,-8.230533415082771,3.0,1.3308913308913308,751.3761467889908,-0.2815686731542459,0.32935143639648085,-0.33984033564477606,1194.1391941391942,-1.0,86.07679173416226,1.3304298780395496,
2023-08-15 18:21:39.864000,-5.0361445783132535,1.144578313253012,-8.481927710843374,1.2703862660944205,-4.630901287553648,-8.210913549969343,3.0,1.3308913308913308,751.3761467889908,0.04451955014276631,0.3898374220616513,0.03100052444496238,1213.9194139194137,-1.0,86.07679173416226,1.3304282833715697,
2023-08-15 18:21:39.872000,-5.024096385542169,1.144578313253012,-8.518072289156628,1.2409564684242795,-4.657878602084611,-8.21827099938688,3.0,1.3313353313353316,751.1255627813906,-0.24567332906007885,-0.056756599265776704,0.13915273002738776,1233.6996336996335,-1.0,86.07679173416226,1.3304267189130332,
2023-08-15 18:21:39.879000,-5.024096385542169,1.144578313253012,-8.493975903614459,1.1894543225015328,-4.694665849172287,-8.220723482526058,3.0,1.3300033300033303,751.8778167250875,-0.244507895810267,0.15651768544956537,0.04941436979197012,1254.212454212454,-1.0,86.07679173416226,1.3304251883389882,
2023-08-15 18:21:39.887000,-5.0,1.1204819277108435,-8.493975903614459,1.2434089515634579,-4.599019006744328,-8.20110361741263,3.0,1.3304473304473305,751.6268980477223,-0.08973836023541765,0.30639240137521095,0.16968708117242592,1274.7252747252746,-1.0,86.07679173416226,1.3304236955781203,
2023-08-15 18:21:39.894000,-5.0120481927710845,1.1325301204819278,-8.493975903614459,1.25567136725935,-4.645616186388718,-8.210913549969343,3.0,1.3308913308913308,751.3761467889908,-0.34881417166831696,0.29135831245265353,0.09498280985956527,1293.7728937728937,-1.0,86.07679173416226,1.3304222446951357,
2023-08-15 18:21:39.902000,-5.0120481927710845,1.1204819277108435,-8.493975903614459,1.2630288166768853,-4.625996321275291,-8.176578786020846,3.0,1.3308913308913308,751.3761467889908,-0.236233319736612,-0.2291241769127671,-0.08927218693549344,1312.8205128205127,-1.0,86.07679173416226,1.3304208398980975,
2023-08-15 18:21:39.910000,-5.0,1.108433734939759,-8.506024096385543,1.226241569589209,-4.6995708154506435,-8.21827099938688,3.0,1.3308913308913308,751.3761467889908,0.05722277256570179,-0.27119631723093063,-0.08775712371073952,1329.6703296703297,-1.0,86.07679173416226,1.330419485575963,
2023-08-15 18:21:39.917000,-5.024096385542169,1.1204819277108435,-8.506024096385543,1.125689760882894,-4.660331085223789,-8.213366033108523,3.0,1.3308913308913308,751.3761467889908,0.17970980712079695,-0.17714585397121335,-0.19322883281860045,1343.5897435897434,-1.0,86.07679173416226,1.3304181862928877,
2023-08-15 18:21:39.925000,-5.0361445783132535,1.0963855421686748,-8.506024096385543,1.260576333537707,-4.660331085223789,-8.240343347639485,3.0,1.3308913308913308,751.3761467889908,-0.15686731542450963,-0.14707767612610026,-0.25289901520890373,1357.5091575091574,-1.0,86.07679173416226,1.3304169467710678,
2023-08-15 18:21:39.933000,-5.048192771084338,1.108433734939759,-8.530120481927712,1.226241569589209,-4.724095646842428,-8.225628448804414,3.0,1.3313353313353316,751.1255627813906,-0.09626478643435664,-0.08461045393625043,-0.16048015849892205,1369.9633699633698,-1.0,86.07679173416226,1.3304157718727558,
2023-08-15 18:21:39.940000,-5.0120481927710845,1.1204819277108435,-8.46987951807229,1.2483139178418148,-4.6407112201103615,-8.193746167995094,3.0,1.3308913308913308,751.3761467889908,-0.14043470660217872,0.2366994930365371,-0.29660276207680203,1380.952380952381,-1.0,86.07679173416226,1.33041466673082,
2023-08-15 18:21:39.948000,-5.048192771084338,1.1325301204819278,-8.493975903614459,1.2360515021459226,-4.6701410177805025,-8.242795830778663,3.0,1.3308913308913308,751.3761467889908,0.21036070159081596,0.08262921741157274,-0.508361983567391,1389.0109890109889,-1.0,86.07679173416226,1.3304136366019146,
2023-08-15 18:21:39.956000,-5.0361445783132535,1.1204819277108435,-8.506024096385543,1.2237890864500305,-4.650521152667075,-8.223175965665236,3.0,1.3313353313353316,751.1255627813906,0.20861255171609994,0.08262921741157274,-0.5048656838179595,1392.6739926739926,-1.0,86.07679173416226,1.3304126868263122,
2023-08-15 18:21:39.963000,-5.024096385542169,1.1204819277108435,-8.493975903614459,1.2581238503985284,-4.650521152667075,-8.230533415082771,3.0,1.3313353313353316,751.1255627813906,-0.20604859856651633,-0.1636268282734103,-0.5161703863411223,1388.278388278388,-1.0,86.07679173416226,1.3304118229365243,
2023-08-15 18:21:39.971000,-5.048192771084338,1.108433734939759,-8.530120481927712,1.179644389944819,-4.687308399754752,-8.223175965665236,3.0,1.3313353313353316,751.1255627813906,0.07237340481324003,0.3728220966144162,-0.17469844414661145,1381.6849816849815,-1.0,86.07679173416226,1.3304110505308673,
2023-08-15 18:21:39.979000,-5.0120481927710845,1.0963855421686748,-8.481927710843374,1.1943592887798895,-4.682403433476394,-8.24770079705702,3.0,1.3313353313353316,751.1255627813906,-0.07738476778742467,0.29310646232736953,0.11759221490589136,1372.161172161172,-1.0,86.07679173416226,1.3304103754032324,
2023-08-15 18:21:39.986000,-5.0361445783132535,1.0963855421686748,-8.506024096385543,1.1820968730839976,-4.6480686695278965,-8.206008583690986,3.0,1.3313353313353316,751.1255627813906,-0.5923897208787373,0.17003671114736846,-0.46302663014975803,1361.904761904762,-1.0,86.07679173416226,1.3304098033643978,
2023-08-15 18:21:39.994000,-5.024096385542169,1.108433734939759,-8.493975903614459,1.1428571428571428,-4.64316370324954,-8.18638871857756,3.0,1.3313353313353316,751.1255627813906,-0.3868072956121443,-0.17959326379581614,-0.22900763358778625,1350.9157509157508,-1.0,86.07679173416226,1.3304093400949009,
2023-08-15 18:21:40.002000,-5.024096385542169,1.0963855421686748,-8.46987951807229,1.2188841201716738,-4.719190680564071,-8.215818516247701,3.0,1.3313353313353316,751.1255627813906,-0.22865800361284375,-0.10360701590816322,-0.5321368218635277,1340.6593406593406,-1.0,86.07679173416226,1.3304089912747685,
2023-08-15 18:21:40.009000,-5.024096385542169,1.072289156626506,-8.518072289156628,1.231146535867566,-4.741263028816677,-8.213366033108523,3.0,1.3313353313353316,751.1255627813906,-0.3175805605733938,-0.17796165724608096,-0.31420080414894214,1331.135531135531,-1.0,86.07679173416226,1.3304087625641523,
2023-08-15 18:21:40.017000,-5.048192771084338,1.0843373493975905,-8.530120481927712,1.20907418761496,-4.6701410177805025,-8.313917841814837,3.0,1.3313353313353316,751.1255627813906,-0.02447409824602252,0.15978089854903574,-0.2207330575141308,1320.14652014652,-1.0,86.07679173416226,1.3304086597230298,
2023-08-15 18:21:40.025000,-5.072289156626506,1.108433734939759,-8.55421686746988,1.150214592274678,-4.679950950337216,-8.318822808093193,3.0,1.3317793317793318,750.8751458576429,-0.07155760153837244,0.1899656197191314,-0.11269739525668669,1305.4945054945053,-1.0,86.07679173416226,1.3304086884334,
2023-08-15 18:21:40.032000,-5.0602409638554215,1.1204819277108435,-8.55421686746988,1.2483139178418148,-4.763335377069282,-8.27958307786634,3.0,1.3308913308913308,751.3761467889908,-0.4220033797564246,0.32492279004720037,-0.05174523629159119,1287.179487179487,-1.0,86.07679173416226,1.3304088543027386,
2023-08-15 18:21:40.040000,-5.072289156626506,1.144578313253012,-8.530120481927712,1.2237890864500305,-4.682403433476394,-8.250153280196198,3.0,1.3308913308913308,751.3761467889908,-0.5104597634170496,0.21443971796515393,-0.20523279529164962,1268.8644688644688,-1.0,86.07679173416226,1.3304091629961898,
2023-08-15 18:21:40.048000,-5.048192771084338,1.1325301204819278,-8.493975903614459,1.2286940527283874,-4.697118332311465,-8.181483752299203,3.0,1.3313353313353316,751.1255627813906,-0.8730260474331331,0.42480041955596987,-0.30814055124992695,1253.4798534798533,-1.0,86.07679173416226,1.3304096198589412,
2023-08-15 18:21:40.055000,-5.048192771084338,1.1204819277108435,-8.481927710843374,1.1698344573881054,-4.714285714285714,-8.176578786020846,3.0,1.3313353313353316,751.1255627813906,-0.4081347240836773,0.17737894062117676,-0.3974127381854204,1242.4908424908424,-1.0,86.07679173416226,1.3304102300492668,
2023-08-15 18:21:40.063000,-5.048192771084338,1.1204819277108435,-8.481927710843374,1.1894543225015328,-4.7069282648681785,-8.17167381974249,3.0,1.3317793317793318,750.8751458576429,-0.29765165200163085,-0.11444554513140184,-0.0750539012878036,1236.6300366300366,-1.0,86.07679173416226,1.3304109986929706,
2023-08-15 18:21:40.071000,-5.0361445783132535,1.108433734939759,-8.481927710843374,1.2679337829552422,-4.68976088289393,-8.250153280196198,3.0,1.3313353313353316,751.1255627813906,-0.27772274342986963,0.08379465066138284,-0.028553114620360042,1233.6996336996335,-1.0,86.07679173416226,1.3304119308792957,
2023-08-15 18:21:40.078000,-5.024096385542169,1.0843373493975905,-8.506024096385543,1.150214592274678,-4.675045984058859,-8.20110361741263,3.0,1.3313353313353316,751.1255627813906,-0.2749257036303243,-0.07039216828856061,-0.07074179826350442,1230.03663003663,-1.0,86.07679173416226,1.3304130313807336,
2023-08-15 18:21:40.086000,-5.024096385542169,1.0843373493975905,-8.530120481927712,1.1354996934396075,-4.704475781729,-8.255058246474555,3.0,1.3313353313353316,751.1255627813906,-0.2097779849659118,-0.5587086999592096,0.008624206048598388,1225.6410256410256,-1.0,86.07679173416226,1.3304143046398929,
2023-08-15 18:21:40.094000,-5.0,1.108433734939759,-8.530120481927712,1.2115266707541386,-4.6112814224402205,-8.26241569589209,3.0,1.3313353313353316,751.1255627813906,-0.1276149408542624,0.11665986830604294,0.22504516053843,1223.4432234432234,-1.0,86.07679173416226,1.3304157548846995,
2023-08-15 18:21:40.101000,-5.0,1.1204819277108435,-8.530120481927712,1.2679337829552422,-4.638258736971183,-8.206008583690986,3.0,1.3317793317793318,750.8751458576429,-0.09300157333488801,-0.006060252899015646,0.027504224695530342,1221.245421245421,-1.0,86.07679173416226,1.3304173861267856,
2023-08-15 18:21:40.109000,-5.0,1.1204819277108435,-8.481927710843374,1.2483139178418148,-4.608828939301042,-8.282035561005518,3.0,1.3317793317793318,750.8751458576429,-0.30184721170094964,0.5294563253889641,0.12003962473049327,1216.8498168498168,-1.0,86.07679173416226,1.3304192024277521,
2023-08-15 18:21:40.117000,-5.0120481927710845,1.1325301204819278,-8.481927710843374,1.280196198651134,-4.569589209074187,-8.213366033108523,3.0,1.3317793317793318,750.8751458576429,-0.7383019637550258,0.3752695064390189,-0.3520773847677873,1211.7216117216117,-1.0,86.07679173416226,1.3304212077621462,
2023-08-15 18:21:40.124000,-5.0,1.1204819277108435,-8.493975903614459,1.213979153893317,-4.608828939301042,-8.240343347639485,3.0,1.3317793317793318,750.8751458576429,-0.6536915098187753,0.5708292057572409,-0.5761901987063689,1208.7912087912086,-1.0,86.07679173416226,1.330423405732899,
2023-08-15 18:21:40.132000,-4.9879518072289155,1.1325301204819278,-8.493975903614459,1.2630288166768853,-4.618638871857756,-8.252605763335376,3.0,1.3317793317793318,750.8751458576429,-1.0883981119981354,0.23262047666219912,-0.9253540003496301,1208.058608058608,-1.0,86.07679173416226,1.3304257995857096,
2023-08-15 18:21:40.140000,-5.0120481927710845,1.108433734939759,-8.518072289156628,1.2507664009809931,-4.6627835683629675,-8.215818516247701,3.0,1.3317793317793318,750.8751458576429,-0.741099003554571,-0.16409300157333537,-0.3558067711671815,1210.989010989011,-1.0,86.07679173416226,1.3304283924908737,
2023-08-15 18:21:40.147000,-5.0,1.1325301204819278,-8.518072289156628,1.2434089515634579,-4.616186388718577,-8.235438381361128,3.0,1.3317793317793318,750.8751458576429,-0.749956296253132,-0.19241302954373243,-0.4151273235825418,1217.5824175824175,-1.0,86.07679173416226,1.3304311873791859,
2023-08-15 18:21:40.155000,-5.0,1.108433734939759,-8.506024096385543,1.2335990190067443,-4.7069282648681785,-8.208461066830164,3.0,1.3317793317793318,750.8751458576429,-0.6376085309713886,-0.0393916438435991,0.05978672571528453,1223.4432234432234,-1.0,86.07679173416226,1.3304341869493963,
2023-08-15 18:21:40.163000,-5.0120481927710845,1.0963855421686748,-8.493975903614459,1.2164316370324952,-4.660331085223789,-8.237890864500306,3.0,1.3317793317793318,750.8751458576429,-0.4041722510343219,-0.17516461744653566,-0.24322591923547562,1227.8388278388277,-1.0,86.07679173416226,1.3304373937944725,
2023-08-15 18:21:40.170000,-5.0120481927710845,1.1204819277108435,-8.55421686746988,1.1771919068056407,-4.702023298589822,-8.286940527283875,3.0,1.3317793317793318,750.8751458576429,-0.4451955014276562,0.17970980712079695,-0.36244974069110175,1231.5018315018315,-1.0,86.07679173416226,1.3304408102521785,
2023-08-15 18:21:40.178000,-5.0361445783132535,1.108433734939759,-8.530120481927712,1.30226854690374,-4.716738197424893,-8.316370324954015,3.0,1.3322233322233323,750.6248958506915,-0.5306217586387743,0.34496824194394243,-0.14393100635161118,1230.7692307692307,-1.0,86.07679173416226,1.3304444382671925,
2023-08-15 18:21:40.186000,-5.048192771084338,1.1204819277108435,-8.518072289156628,1.2066217044757817,-4.738810545677498,-8.223175965665236,3.0,1.3313353313353316,751.1255627813906,-0.20290192879202854,0.2819183031291884,-0.4640755200745877,1225.6410256410256,-1.0,86.07679173416226,1.3304482795625954,
2023-08-15 18:21:40.193000,-5.0602409638554215,1.1325301204819278,-8.506024096385543,1.331698344573881,-4.657878602084611,-8.225628448804414,3.0,1.3317793317793318,750.8751458576429,-0.5193170561156105,0.15861546529922566,-0.5197832294155351,1220.5128205128203,-1.0,86.07679173416226,1.3304523357913756,
2023-08-15 18:21:40.201000,-5.0602409638554215,1.144578313253012,-8.46987951807229,1.2164316370324952,-4.684855916615573,-8.228080931943593,3.0,1.3317793317793318,750.8751458576429,-0.43796981527883044,0.050812889691743635,-0.2856476895285821,1219.047619047619,-1.0,86.07679173416226,1.3304566084666254,
2023-08-15 18:21:40.209000,-5.0361445783132535,1.144578313253012,-8.457831325301205,1.1870018393623543,-4.721643163703249,-8.174126302881668,3.0,1.3322233322233323,750.6248958506915,-0.4937940679447587,0.001631606549735182,-0.022143231746401454,1220.5128205128203,-1.0,86.07679173416226,1.3304610988281507,
2023-08-15 18:21:40.216000,-5.0361445783132535,1.144578313253012,-8.481927710843374,1.3439607602697732,-4.716738197424893,-8.269773145309626,3.0,1.3322233322233323,750.6248958506915,-0.7921449798962763,0.19695821921799375,0.2700308839811197,1227.106227106227,-1.0,86.07679173416226,1.3304658078800078,
2023-08-15 18:21:40.224000,-5.0120481927710845,1.144578313253012,-8.493975903614459,1.2728387492335989,-4.635806253832005,-8.134886572654812,3.0,1.3322233322233323,750.6248958506915,-0.3891381621117645,0.05535807936600493,0.10092651943359965,1243.956043956044,-1.0,86.07679173416226,1.3304707364287043,
2023-08-15 18:21:40.232000,-5.0120481927710845,1.144578313253012,-8.493975903614459,1.2532188841201717,-4.675045984058859,-8.225628448804414,3.0,1.3322233322233323,750.6248958506915,-0.3884389021618795,0.052561039566459654,0.10150923605850469,1271.7948717948716,-1.0,86.07679173416226,1.3304758851116496,
2023-08-15 18:21:40.239000,-5.0120481927710845,1.144578313253012,-8.481927710843374,1.2237890864500305,-4.638258736971183,-8.210913549969343,3.0,1.3322233322233323,750.6248958506915,-0.18413845347007743,0.17831128722102518,0.17831128722102432,1313.5531135531135,-1.0,86.07679173416226,1.3304812545335591,
2023-08-15 18:21:40.247000,-5.0120481927710845,1.1566265060240966,-8.481927710843374,1.2507664009809931,-4.665236051502146,-8.225628448804414,3.0,1.3322233322233323,750.6248958506915,-0.3640813472408361,0.05559116601596661,0.2844822562787716,1372.161172161172,-1.0,86.07679173416226,1.3304868451267795,
2023-08-15 18:21:40.255000,-5.0120481927710845,1.1204819277108435,-8.46987951807229,1.314530962599632,-4.621091354996934,-8.176578786020846,3.0,1.3322233322233323,750.6248958506915,-0.35953615756657475,-0.056640055940795866,-0.2075636617912707,1446.8864468864467,-1.0,86.07679173416226,1.3304926571614608,
2023-08-15 18:21:40.262000,-5.024096385542169,1.1325301204819278,-8.493975903614459,1.3047210300429184,-4.655426118945432,-8.196198651134273,3.0,1.3326673326673328,750.374812593703,-0.5399452246372585,0.03146669774488659,-0.055707709340947445,1534.7985347985348,-1.0,86.07679173416226,1.3304986907561929,
2023-08-15 18:21:40.270000,-5.0361445783132535,1.1325301204819278,-8.46987951807229,1.2483139178418148,-4.709380748007357,-8.18638871857756,3.0,1.3326673326673328,750.374812593703,-0.5819008216304412,0.4439135248528635,-0.2856476895285821,1633.6996336996335,-1.0,86.07679173416226,1.3305049460382965,
2023-08-15 18:21:40.277000,-5.0843373493975905,1.1204819277108435,-8.481927710843374,1.2360515021459226,-4.687308399754752,-8.193746167995094,3.0,1.3326673326673328,750.374812593703,-0.6386574208962179,0.3482314550434128,-0.2685158207563662,1737.7289377289376,-1.0,86.07679173416226,1.3305114231769726,
2023-08-15 18:21:40.285000,-5.072289156626506,1.108433734939759,-8.493975903614459,1.25567136725935,-4.719190680564071,-8.225628448804414,3.0,1.3326673326673328,750.374812593703,-1.2272012120505789,0.13111124060369442,-0.4643086067245498,1842.4908424908424,-1.0,86.07679173416226,1.3305181222576787,
2023-08-15 18:21:40.293000,-5.048192771084338,1.1204819277108435,-8.493975903614459,1.1477621091354997,-4.709380748007357,-8.237890864500306,3.0,1.3331113331113331,750.1248959200666,-0.6816619078142299,0.38902161878678365,-0.06409882873958415,1939.9267399267399,-1.0,86.07679173416226,1.3305250432955278,
2023-08-15 18:21:40.300000,-5.0361445783132535,1.108433734939759,-8.493975903614459,1.2458614347026364,-4.675045984058859,-8.203556100551808,3.0,1.3331113331113331,750.1248959200666,-1.0723151331507488,0.6303828448225629,-0.01864693199696985,2023.4432234432234,-1.0,86.07679173416226,1.3305321863981163,
2023-08-15 18:21:40.308000,-5.024096385542169,1.108433734939759,-8.481927710843374,1.226241569589209,-4.6774984671980375,-8.24770079705702,3.0,1.3331113331113331,750.1248959200666,-0.43412388555445414,0.3185129071732422,0.08787366703572036,2089.3772893772893,-1.0,86.07679173416226,1.330539551800986,
2023-08-15 18:21:40.316000,-5.0,1.108433734939759,-8.481927710843374,1.1747394236664623,-4.660331085223789,-8.210913549969343,3.0,1.3326673326673328,750.374812593703,-0.33762601247013585,-0.006526426198938992,-0.20208612551716096,2133.333333333333,-1.0,86.07679173416226,1.3305471397440791,
2023-08-15 18:21:40.323000,-5.024096385542169,1.108433734939759,-8.493975903614459,1.2066217044757817,-4.616186388718577,-8.215818516247701,3.0,1.3331113331113331,750.1248959200666,-0.3796981527882994,-0.16246139502360019,0.1504574325505506,2156.776556776557,-1.0,86.07679173416226,1.3305549503376435,
2023-08-15 18:21:40.331000,-5.024096385542169,1.108433734939759,-8.506024096385543,1.2286940527283874,-4.618638871857756,-8.223175965665236,3.0,1.3331113331113331,750.1248959200666,-0.11677641163102377,-0.252083211934037,0.21210885146553243,2157.5091575091574,-1.0,86.07679173416226,1.3305629838434911,
2023-08-15 18:21:40.339000,-5.0120481927710845,1.1204819277108435,-8.493975903614459,1.2237890864500305,-4.606376456161864,-8.198651134273451,3.0,1.3322233322233323,750.6248958506915,-0.542625721111823,0.008507662723616683,0.5012528407435466,2136.263736263736,-1.0,86.07679173416226,1.3305712406896575,
2023-08-15 18:21:40.346000,-5.024096385542169,1.1325301204819278,-8.46987951807229,1.2360515021459226,-4.613733905579399,-8.188841201716738,3.0,1.3326673326673328,750.374812593703,-0.20348464541693448,0.32935143639648085,0.300448691801177,2096.7032967032965,-1.0,86.07679173416226,1.3305797211972554,
2023-08-15 18:21:40.354000,-5.0120481927710845,1.1325301204819278,-8.493975903614459,1.2066217044757817,-4.694665849172287,-8.237890864500306,3.0,1.3326673326673328,750.374812593703,-0.04871510984208337,0.23809801293630886,0.4202552298817086,2042.4908424908424,-1.0,86.07679173416226,1.3305884256694405,
2023-08-15 18:21:40.362000,-5.024096385542169,1.1204819277108435,-8.493975903614459,1.2703862660944205,-4.665236051502146,-8.24770079705702,3.0,1.3331113331113331,750.1248959200666,0.10687022900763359,0.3757356797389423,0.38704038226210596,1978.021978021978,-1.0,86.07679173416226,1.3305973544248455,
2023-08-15 18:21:40.369000,-5.0361445783132535,1.1325301204819278,-8.506024096385543,1.2777437155119558,-4.684855916615573,-8.257510729613733,3.0,1.3331113331113331,750.1248959200666,0.014917545597576574,0.3565060311170678,0.15663422877454708,1905.4945054945053,-1.0,86.07679173416226,1.3306065078298674,
2023-08-15 18:21:40.377000,-5.024096385542169,1.1566265060240966,-8.493975903614459,1.3047210300429184,-4.6039239730226855,-8.245248313917841,3.0,1.3331113331113331,750.1248959200666,-0.09206922673503957,0.5805023017306676,-0.14766039275100531,1831.5018315018315,-1.0,86.07679173416226,1.3306158864896833,
2023-08-15 18:21:40.385000,-5.024096385542169,1.180722891566265,-8.46987951807229,1.331698344573881,-4.594114040465971,-8.196198651134273,3.0,1.3326673326673328,750.374812593703,-0.48516986189615946,0.2685158207563662,-0.11502826175630776,1758.974358974359,-1.0,86.07679173416226,1.3306254911087956,
2023-08-15 18:21:40.392000,-5.0,1.1686746987951808,-8.493975903614459,1.290006131207848,-4.655426118945432,-8.245248313917841,3.0,1.3331113331113331,750.1248959200666,-0.5264261989394554,-0.012586679097954637,-0.23460171318687725,1689.3772893772893,-1.0,86.07679173416226,1.3306353222222902,
2023-08-15 18:21:40.400000,-5.0,1.1686746987951808,-8.481927710843374,1.2630288166768853,-4.709380748007357,-8.181483752299203,3.0,1.3331113331113331,750.1248959200666,-0.32375735679738854,0.09218577006002042,-0.41675893013227655,1624.9084249084249,-1.0,86.07679173416226,1.3306453804794667,
2023-08-15 18:21:40.408000,-5.0361445783132535,1.1566265060240966,-8.530120481927712,1.2017167381974247,-4.75107296137339,-8.225628448804414,3.0,1.3331113331113331,750.1248959200666,-0.5020686440184138,0.25942544140784357,-0.09230231338500082,1564.8351648351647,-1.0,86.07679173416226,1.3306556668085674,
2023-08-15 18:21:40.415000,-5.0602409638554215,1.1566265060240966,-8.530120481927712,1.2532188841201717,-4.711833231146535,-8.23298589822195,3.0,1.3326673326673328,750.374812593703,-0.48050812889691735,0.3337800827457613,0.15337101567507716,1510.6227106227104,712.371826171875,84.22567793342758,1.3306661822824488,
2023-08-15 18:21:40.423000,-5.048192771084338,1.1325301204819278,-8.530120481927712,1.2360515021459226,-4.697118332311465,-8.16922133660331,3.0,1.3331113331113331,750.1248959200666,-0.14055124992715953,0.1018588660334472,-0.18542043004486924,1459.3406593406592,-1.0,84.22567793342758,1.3306769279724477,
2023-08-15 18:21:40.431000,-5.048192771084338,1.1566265060240966,-8.506024096385543,1.2630288166768853,-4.719190680564071,-8.240343347639485,3.0,1.3331113331113331,750.1248959200666,-0.18600314666977427,-0.2815686731542459,0.013635569022784335,1412.4542124542124,-1.0,84.22567793342758,1.3306879050776712,
2023-08-15 18:21:40.438000,-5.0120481927710845,1.1566265060240966,-8.518072289156628,1.2017167381974247,-4.6922133660331085,-8.269773145309626,3.0,1.3326673326673328,750.374812593703,-0.11001689878212137,0.34671639181865843,0.24147776936076004,1369.230769230769,-1.0,84.22567793342758,1.3306991149457035,
2023-08-15 18:21:40.446000,-5.0120481927710845,1.144578313253012,-8.493975903614459,1.2875536480686696,-4.726548129981606,-8.206008583690986,3.0,1.3331113331113331,750.1248959200666,0.038575840568731506,0.4373870986539245,0.18891672979430127,1329.6703296703297,-1.0,84.22567793342758,1.330710558803889,
2023-08-15 18:21:40.454000,-5.0,1.144578313253012,-8.493975903614459,1.2826486817903127,-4.660331085223789,-8.223175965665236,3.0,1.3326673326673328,750.374812593703,0.0666627818891669,0.7362041839053672,0.058388205815511886,1295.2380952380952,-1.0,84.22567793342758,1.3307222380322798,
2023-08-15 18:21:40.461000,-5.024096385542169,1.144578313253012,-8.457831325301205,1.2385039852851012,-4.608828939301042,-8.274678111587983,3.0,1.3326673326673328,750.374812593703,-0.21001107161587346,0.29823436862653674,-0.03717732066895886,1267.3992673992673,-1.0,84.22567793342758,1.3307341541682784,
2023-08-15 18:21:40.469000,-5.0120481927710845,1.1204819277108435,-8.457831325301205,1.2335990190067443,-4.675045984058859,-8.250153280196198,3.0,1.3331113331113331,750.1248959200666,-0.4519550142765569,-0.3037119049006465,-0.31350154419905585,1243.2234432234432,-1.0,84.22567793342758,1.3307463087395823,
2023-08-15 18:21:40.477000,-5.0361445783132535,1.1204819277108435,-8.506024096385543,1.2654812998160636,-4.623543838136112,-8.213366033108523,3.0,1.3326673326673328,750.374812593703,-0.5510168405104605,-0.35976924421653816,-0.12609987762950892,1222.7106227106226,-1.0,84.22567793342758,1.3307587035428559,
2023-08-15 18:21:40.484000,-5.0361445783132535,1.1204819277108435,-8.506024096385543,1.1575720416922133,-4.638258736971183,-8.24770079705702,3.0,1.3331113331113331,750.1248959200666,-0.39065322533651886,-0.3735213565643029,0.03135015441990576,1207.3260073260074,-1.0,84.22567793342758,1.3307713405055128,
2023-08-15 18:21:40.492000,-5.0361445783132535,1.1204819277108435,-8.493975903614459,1.2654812998160636,-4.679950950337216,-8.20110361741263,3.0,1.3322233322233323,750.6248958506915,-0.15651768544956537,-0.07959909096206579,0.03717732066895886,1194.1391941391942,-1.0,84.22567793342758,1.330784221663854,
2023-08-15 18:21:40.500000,-5.048192771084338,1.1204819277108435,-8.493975903614459,1.2409564684242795,-4.7290006131207845,-8.225628448804414,3.0,1.3322233322233323,750.6248958506915,0.15278829905017166,0.17807820057106177,-0.008740749373579224,1186.080586080586,-1.0,84.22567793342758,1.33079734928918,
2023-08-15 18:21:40.507000,-5.048192771084338,1.144578313253012,-8.518072289156628,1.2041692213366033,-4.650521152667075,-8.176578786020846,3.0,1.3326673326673328,750.374812593703,0.15383718897500093,0.1729502942718963,-0.00769185944874996,1182.4175824175823,-1.0,84.22567793342758,1.3308107255126806,
2023-08-15 18:21:40.515000,-5.0120481927710845,1.1325301204819278,-8.493975903614459,1.2507664009809931,-4.6627835683629675,-8.183936235438381,3.0,1.3326673326673328,750.374812593703,-0.06363265543965994,0.30301264495075975,0.06969290833867473,1179.4871794871794,-1.0,84.22567793342758,1.3308243524589936,
2023-08-15 18:21:40.523000,-5.024096385542169,1.1566265060240966,-8.457831325301205,1.3292458614347025,-4.625996321275291,-8.16922133660331,3.0,1.3326673326673328,750.374812593703,0.30615931472524927,0.12854728745411081,0.2671173008565935,1180.952380952381,-1.0,84.22567793342758,1.33083823226044,
2023-08-15 18:21:40.530000,-5.0120481927710845,1.1566265060240966,-8.46987951807229,1.280196198651134,-4.62844880441447,-8.23298589822195,3.0,1.3331113331113331,750.1248959200666,0.5074296369675426,0.4315599324048723,0.08262921741157274,1188.278388278388,-1.0,84.22567793342758,1.3308523670592933,
2023-08-15 18:21:40.538000,-5.0120481927710845,1.1686746987951808,-8.481927710843374,1.2998160637645615,-4.714285714285714,-8.237890864500306,3.0,1.3326673326673328,750.374812593703,-0.08507662723617551,0.2287745469378246,0.35883689761668885,1199.2673992673992,-1.0,84.22567793342758,1.3308667591264924,
2023-08-15 18:21:40.546000,-5.0,1.1566265060240966,-8.457831325301205,1.2998160637645615,-4.672593500919681,-8.220723482526058,3.0,1.3326673326673328,750.374812593703,-0.16758930132276742,0.10512207913291756,-0.326670939921916,1213.1868131868132,-1.0,84.22567793342758,1.3308814105847957,
2023-08-15 18:21:40.553000,-4.975903614457832,1.1566265060240966,-8.493975903614459,1.2654812998160636,-4.64316370324954,-8.225628448804414,3.0,1.3326673326673328,750.374812593703,-0.4960083911193981,0.1196899947555499,0.18308956354524772,1230.7692307692307,-1.0,84.22567793342758,1.3308963235149067,
2023-08-15 18:21:40.561000,-4.9879518072289155,1.1566265060240966,-8.481927710843374,1.2483139178418148,-4.64316370324954,-8.282035561005518,3.0,1.3326673326673328,750.374812593703,0.138453470077501,0.3155993240487144,0.01713186877221594,1249.8168498168498,-1.0,84.22567793342758,1.3309115000501843,
2023-08-15 18:21:40.569000,-5.0120481927710845,1.144578313253012,-8.493975903614459,1.2041692213366033,-4.613733905579399,-8.213366033108523,3.0,1.3326673326673328,750.374812593703,-0.2574442048831659,0.2798205232795299,0.3542917079424276,1267.3992673992673,-1.0,84.22567793342758,1.330926942204217,
2023-08-15 18:21:40.576000,-5.024096385542169,1.144578313253012,-8.493975903614459,1.2409564684242795,-4.694665849172287,-8.203556100551808,3.0,1.3326673326673328,750.374812593703,0.23530097313676357,0.30476079482547574,-0.34776528174348814,1284.2490842490843,-1.0,84.22567793342758,1.3309426518468401,
2023-08-15 18:21:40.584000,-5.0602409638554215,1.1325301204819278,-8.518072289156628,1.2385039852851012,-4.711833231146535,-8.289393010423053,3.0,1.3326673326673328,750.374812593703,0.19019870636909308,0.05698968591573838,-0.2664180409067068,1302.5641025641025,-1.0,84.22567793342758,1.3309586306794163,
2023-08-15 18:21:40.592000,-5.072289156626506,1.1566265060240966,-8.530120481927712,1.3096259963212753,-4.7290006131207845,-8.26241569589209,3.0,1.3326673326673328,750.374812593703,0.09777984965911098,0.4069692908338672,-0.0913699667851524,1322.3443223443223,-1.0,84.22567793342758,1.3309748802095118,
2023-08-15 18:21:40.599000,-5.0602409638554215,1.1566265060240966,-8.518072289156628,1.25567136725935,-4.714285714285714,-8.242795830778663,3.0,1.3326673326673328,750.374812593703,-0.055707709340947445,0.266884214206631,-0.11537789173125114,1342.1245421245421,-1.0,84.22567793342758,1.330991401725097,
2023-08-15 18:21:40.607000,-5.0602409638554215,1.1686746987951808,-8.481927710843374,1.2752912323727774,-4.694665849172287,-8.223175965665236,3.0,1.3326673326673328,750.374812593703,0.05279412621642132,0.20558242526659298,0.07307266476312549,1361.904761904762,-1.0,84.22567793342758,1.3310081962684086,
2023-08-15 18:21:40.615000,-5.0361445783132535,1.1566265060240966,-8.481927710843374,1.2826486817903127,-4.682403433476394,-8.154506437768239,3.0,1.3326673326673328,750.374812593703,-0.21921799428937688,0.004778276324222974,0.15418681894994474,1378.021978021978,-1.0,84.22567793342758,1.3310252646096266,
2023-08-15 18:21:40.622000,-5.024096385542169,1.1325301204819278,-8.481927710843374,1.25567136725935,-4.665236051502146,-8.203556100551808,3.0,1.3326673326673328,750.374812593703,-0.04871510984208337,0.004079016374337954,0.38435988578754154,1387.5457875457876,-1.0,84.22567793342758,1.3310426072205073,
2023-08-15 18:21:40.630000,-5.0120481927710845,1.144578313253012,-8.506024096385543,1.213979153893317,-4.630901287553648,-8.26241569589209,3.0,1.3326673326673328,750.374812593703,0.002447409824602773,0.01678223879727343,0.41454460695763634,1394.8717948717947,-1.0,84.22567793342758,1.3310602242481278,
2023-08-15 18:21:40.638000,-5.0120481927710845,1.1204819277108435,-8.518072289156628,1.2777437155119558,-4.54996934396076,-8.255058246474555,3.0,1.3326673326673328,750.374812593703,0.09719713303420506,-0.30499388147543915,0.3225919235475789,1400.7326007326005,-1.0,84.22567793342758,1.3310781154888958,
2023-08-15 18:21:40.645000,-5.0,1.1204819277108435,-8.506024096385543,1.2213366033108521,-4.625996321275291,-8.188841201716738,3.0,1.3322233322233323,750.6248958506915,0.05069634636676106,-0.3638482605908744,0.47736145912242867,1399.2673992673992,-1.0,84.22567793342758,1.331096280362991,
2023-08-15 18:21:40.653000,-4.975903614457832,1.1204819277108435,-8.518072289156628,1.2409564684242795,-4.650521152667075,-8.17167381974249,3.0,1.3322233322233323,750.6248958506915,0.4182739933570309,-0.03752695064390224,0.3716566633646056,1395.6043956043954,-1.0,84.22567793342758,1.3311147180175804,
2023-08-15 18:21:40.660000,-4.9879518072289155,1.1325301204819278,-8.493975903614459,1.231146535867566,-4.630901287553648,-8.203556100551808,3.0,1.3322233322233323,750.6248958506915,0.20406736204183865,0.0867082337859107,0.3265543965969347,1390.4761904761904,-1.0,84.22567793342758,1.3311334271012025,
2023-08-15 18:21:40.668000,-5.0120481927710845,1.1566265060240966,-8.518072289156628,1.2654812998160636,-4.635806253832005,-8.208461066830164,3.0,1.3326673326673328,750.374812593703,0.28203484645416926,-0.14358137637666823,0.3108210477244914,1381.6849816849815,-1.0,84.22567793342758,1.3311524056018709,
2023-08-15 18:21:40.676000,-5.0120481927710845,1.144578313253012,-8.506024096385543,1.3096259963212753,-4.623543838136112,-8.220723482526058,3.0,1.3322233322233323,750.6248958506915,0.33109958627119684,-0.06980945166365643,0.07936600431210324,1373.6263736263736,-1.0,84.22567793342758,1.3311716509836626,
2023-08-15 18:21:40.683000,-5.024096385542169,1.144578313253012,-8.518072289156628,1.2630288166768853,-4.702023298589822,-8.240343347639485,3.0,1.3326673326673328,750.374812593703,0.2561622283083732,-0.1778451139211001,-0.011304702523162832,1365.5677655677655,-1.0,84.22567793342758,1.3311911600572557,
2023-08-15 18:21:40.691000,-5.0120481927710845,1.144578313253012,-8.518072289156628,1.2581238503985284,-4.645616186388718,-8.193746167995094,3.0,1.3326673326673328,750.374812593703,0.28867781597808906,0.2798205232795299,-0.31501660742380977,1356.7765567765566,-1.0,84.22567793342758,1.3312109290968526,
2023-08-15 18:21:40.699000,-5.0361445783132535,1.1566265060240966,-8.506024096385543,1.2164316370324952,-4.645616186388718,-8.23298589822195,3.0,1.3326673326673328,750.374812593703,-0.07668550783753793,0.34077268224462365,0.19101450964396022,1348.7179487179487,-1.0,84.22567793342758,1.3312309539796237,
2023-08-15 18:21:40.706000,-5.0,1.144578313253012,-8.493975903614459,1.2949110974862048,-4.621091354996934,-8.240343347639485,3.0,1.3322233322233323,750.6248958506915,-0.16549152147310714,0.1256337043295847,0.1288969174290542,1342.1245421245421,-1.0,84.22567793342758,1.3312512300289783,
2023-08-15 18:21:40.714000,-5.024096385542169,1.1325301204819278,-8.493975903614459,1.3586756591048437,-4.6627835683629675,-8.210913549969343,3.0,1.3326673326673328,750.374812593703,0.29427189557718136,0.35067886486801386,-0.04032399044344752,1334.7985347985348,-1.0,84.22567793342758,1.33127175184914,
2023-08-15 18:21:40.722000,-5.0,1.144578313253012,-8.506024096385543,1.2409564684242795,-4.667688534641324,-8.196198651134273,3.0,1.3322233322233323,750.6248958506915,0.01654915214731002,0.2690985373812721,0.03379756424450766,1326.007326007326,-1.0,84.22567793342758,1.3312925134384348,
2023-08-15 18:21:40.729000,-5.0120481927710845,1.1204819277108435,-8.542168674698795,1.2532188841201717,-4.697118332311465,-8.240343347639485,3.0,1.3322233322233323,750.6248958506915,0.3813297593380346,0.19194685624380908,-0.21350737136530507,1314.2857142857142,-1.0,84.22567793342758,1.331313508186926,
2023-08-15 18:21:40.737000,-5.0120481927710845,1.144578313253012,-8.506024096385543,1.2777437155119558,-4.675045984058859,-8.274678111587983,3.0,1.3322233322233323,750.6248958506915,-0.11094924538197154,-0.023541751646174093,0.10698677233261486,1301.8315018315018,-1.0,84.22567793342758,1.3313347287058432,
2023-08-15 18:21:40.745000,-5.0120481927710845,1.1325301204819278,-8.530120481927712,1.2483139178418148,-4.638258736971183,-8.250153280196198,3.0,1.3322233322233323,750.6248958506915,0.2856476895285821,0.4936775246197779,0.3485810850183557,1289.3772893772893,-1.0,84.22567793342758,1.331356166957073,
2023-08-15 18:21:40.752000,-5.0361445783132535,1.144578313253012,-8.530120481927712,1.290006131207848,-4.726548129981606,-8.21827099938688,3.0,1.3322233322233323,750.6248958506915,-0.1287803741040725,-0.17108560107219944,0.02563953149583349,1273.9926739926739,-1.0,84.22567793342758,1.3313778142461803,
2023-08-15 18:21:40.760000,-5.0361445783132535,1.1686746987951808,-8.518072289156628,1.2998160637645615,-4.6701410177805025,-8.206008583690986,3.0,1.3322233322233323,750.6248958506915,-0.2313385000874082,-0.29567041547695316,-0.03659460404405338,1258.6080586080586,-1.0,84.22567793342758,1.3313996612178176,
2023-08-15 18:21:40.768000,-5.0120481927710845,1.1566265060240966,-8.518072289156628,1.2115266707541386,-4.6407112201103615,-8.301655426118945,3.0,1.3322233322233323,750.6248958506915,0.15430336227492603,-0.15908163859914898,-0.038575840568731506,1243.2234432234432,-1.0,84.22567793342758,1.3314216979923603,
2023-08-15 18:21:40.775000,-5.0361445783132535,1.1686746987951808,-8.518072289156628,1.331698344573881,-4.684855916615573,-8.257510729613733,3.0,1.3322233322233323,750.6248958506915,-0.17936017714585445,-0.28168521647922673,0.17516461744653566,1228.5714285714284,-1.0,84.22567793342758,1.3314439140072107,
2023-08-15 18:21:40.783000,-5.0120481927710845,1.1566265060240966,-8.506024096385543,1.2949110974862048,-4.650521152667075,-8.23298589822195,3.0,1.3322233322233323,750.6248958506915,-0.17877746052094853,-0.28110249985432084,0.17283375094691458,1214.6520146520145,-1.0,84.22567793342758,1.3314662978922336,
2023-08-15 18:21:40.791000,-5.0120481927710845,1.1566265060240966,-8.542168674698795,1.2385039852851012,-4.6774984671980375,-8.191293684855916,3.0,1.3322233322233323,750.6248958506915,-0.16351028494842945,0.19357846279354426,-0.1187576481557019,1205.8608058608058,-1.0,84.22567793342758,1.331488837624576,
2023-08-15 18:21:40.798000,-5.0120481927710845,1.1566265060240966,-8.518072289156628,1.2752912323727774,-4.638258736971183,-8.240343347639485,3.0,1.3313353313353316,751.1255627813906,-0.10080997610861794,0.2516170386341119,-0.07353883806305013,1200.0,-1.0,84.22567793342758,1.3315115203981474,
2023-08-15 18:21:40.806000,-4.975903614457832,1.1566265060240966,-8.530120481927712,1.3047210300429184,-4.687308399754752,-8.198651134273451,3.0,1.3317793317793318,750.8751458576429,-0.28098595652934,0.4173416467571825,0.3405395955946624,1199.2673992673992,-1.0,84.22567793342758,1.3315343326338835,
2023-08-15 18:21:40.814000,-5.0,1.144578313253012,-8.493975903614459,1.2458614347026364,-4.6407112201103615,-8.18638871857756,3.0,1.3322233322233323,750.6248958506915,-0.2453236990851346,-0.10733640230755867,0.2941553522521997,1199.2673992673992,-1.0,84.22567793342758,1.3315572602062444,
2023-08-15 18:21:40.821000,-4.9879518072289155,1.1325301204819278,-8.46987951807229,1.2507664009809931,-4.601471489883507,-8.159411404046597,3.0,1.3322233322233323,750.6248958506915,-0.34566750189382917,-0.16607423809801306,-0.056640055940795866,1200.0,-1.0,84.22567793342758,1.3315802886079033,
2023-08-15 18:21:40.829000,-5.0,1.144578313253012,-8.481927710843374,1.2066217044757817,-4.616186388718577,-8.225628448804414,3.0,1.3322233322233323,750.6248958506915,0.16595769477303224,0.31233611094924574,-0.4361051220791327,1200.0,-1.0,84.22567793342758,1.331603402712589,
2023-08-15 18:21:40.837000,-5.0120481927710845,1.144578313253012,-8.493975903614459,1.2164316370324952,-4.645616186388718,-8.176578786020846,3.0,1.3322233322233323,750.6248958506915,-0.04440300681778374,0.04941436979197012,-0.09638132975933834,1199.2673992673992,-1.0,84.22567793342758,1.3316265866792298,
2023-08-15 18:21:40.844000,-5.024096385542169,1.180722891566265,-8.542168674698795,1.2654812998160636,-4.675045984058859,-8.15695892090742,3.0,1.3322233322233323,750.6248958506915,-0.08239613076161106,0.07761785443738635,-0.2771400268049646,1196.3369963369962,-1.0,84.22567793342758,1.3316498241249561,
2023-08-15 18:21:40.852000,-5.0120481927710845,1.1566265060240966,-8.506024096385543,1.290006131207848,-4.657878602084611,-8.166768853464133,3.0,1.3322233322233323,750.6248958506915,0.3674611036652873,0.07889983101217903,-0.2918244857525786,1192.6739926739926,-1.0,84.22567793342758,1.3316730981514842,
2023-08-15 18:21:40.860000,-5.0,1.1325301204819278,-8.518072289156628,1.2458614347026364,-4.635806253832005,-8.252605763335376,3.0,1.3322233322233323,750.6248958506915,0.18880018646931956,-0.07388846803799265,0.013635569022784335,1189.7435897435896,-1.0,84.22567793342758,1.3316963913740907,
2023-08-15 18:21:40.867000,-5.0,1.1325301204819278,-8.506024096385543,1.2752912323727774,-4.62844880441447,-8.215818516247701,3.0,1.3322233322233323,750.6248958506915,0.21898490763941522,0.35522405454227685,-0.18646931996969848,1186.080586080586,-1.0,84.22567793342758,1.3317196859531326,
2023-08-15 18:21:40.875000,-5.0,1.144578313253012,-8.493975903614459,1.260576333537707,-4.613733905579399,-8.213366033108523,3.0,1.3322233322233323,750.6248958506915,-0.11502826175630776,0.17085251442223603,-0.09218577006001955,1185.3479853479853,-1.0,84.22567793342758,1.331742963628006,
2023-08-15 18:21:40.883000,-5.024096385542169,1.1566265060240966,-8.506024096385543,1.2483139178418148,-4.6480686695278965,-8.289393010423053,3.0,1.3322233322233323,750.6248958506915,0.11619369500611786,-2.3308664996167294E-4,-0.043587203542917015,1189.7435897435896,-1.0,84.22567793342758,1.3317662057534518,
2023-08-15 18:21:40.890000,-5.0120481927710845,1.1325301204819278,-8.506024096385543,1.2286940527283874,-4.652973635806253,-8.20110361741263,3.0,1.3322233322233323,750.6248958506915,0.16246139502360019,-0.5042829671930549,-0.37771691626362086,1199.2673992673992,-1.0,84.22567793342758,1.3317893933381146,
2023-08-15 18:21:40.898000,-5.024096385542169,1.108433734939759,-8.518072289156628,1.2532188841201717,-4.711833231146535,-8.245248313917841,3.0,1.3322233322233323,750.6248958506915,0.25534642503350563,-0.3621001107161584,-0.326670939921916,1210.2564102564102,-1.0,84.22567793342758,1.3318125070851943,
2023-08-15 18:21:40.906000,-5.048192771084338,1.108433734939759,-8.506024096385543,1.25567136725935,-4.702023298589822,-8.311465358675658,3.0,1.3322233322233323,750.6248958506915,0.1165433249810621,-0.633296427947089,-0.20022143231746412,1221.9780219780218,-1.0,84.22567793342758,1.3318355274350906,
2023-08-15 18:21:40.913000,-5.048192771084338,1.1686746987951808,-8.542168674698795,1.2703862660944205,-4.6922133660331085,-8.299202942979766,3.0,1.3317793317793318,750.8751458576429,0.5292232387390007,-0.3567391177670295,0.5040498805430919,1239.5604395604396,-1.0,84.22567793342758,1.3318584346098683,
2023-08-15 18:21:40.921000,-5.048192771084338,1.1927710843373494,-8.493975903614459,1.2826486817903127,-4.724095646842428,-8.240343347639485,3.0,1.3317793317793318,750.8751458576429,0.46768836314900103,-0.32690402657187806,0.5617388264087174,1263.7362637362637,-1.0,84.22567793342758,1.3318812085101044,
2023-08-15 18:21:40.929000,-5.048192771084338,1.1927710843373494,-8.506024096385543,1.2973635806253832,-4.682403433476394,-8.230533415082771,3.0,1.3317793317793318,750.8751458576429,0.4838878853213685,-0.12866383077909166,0.49600839111939854,1295.2380952380952,-1.0,84.22567793342758,1.3319038287406586,
2023-08-15 18:21:40.936000,-5.0361445783132535,1.180722891566265,-8.493975903614459,1.2434089515634579,-4.675045984058859,-8.255058246474555,3.0,1.3317793317793318,750.8751458576429,0.5279412621642098,-0.45078958102674677,0.5676825359827513,1334.7985347985348,-1.0,84.22567793342758,1.3319262747967007,
2023-08-15 18:21:40.944000,-5.0361445783132535,1.180722891566265,-8.493975903614459,1.2679337829552422,-4.679950950337216,-8.174126302881668,3.0,1.3322233322233323,750.6248958506915,0.5721111823320318,-0.46465823669949236,0.7616106287512382,1387.5457875457876,-1.0,84.22567793342758,1.3319485261119501,
2023-08-15 18:21:40.952000,-5.024096385542169,1.1686746987951808,-8.518072289156628,1.2483139178418148,-4.657878602084611,-8.191293684855916,3.0,1.3313353313353316,751.1255627813906,0.06596352193928014,-0.07901637433715986,0.449157974477012,1453.4798534798533,-1.0,84.22567793342758,1.331970562256976,
2023-08-15 18:21:40.959000,-5.024096385542169,1.1686746987951808,-8.493975903614459,1.280196198651134,-4.657878602084611,-8.193746167995094,3.0,1.3313353313353316,751.1255627813906,-0.21991725423926364,-0.4455451314025987,0.3969465648854962,1534.7985347985348,-1.0,84.22567793342758,1.3319923629895798,
2023-08-15 18:21:40.967000,-5.0,1.144578313253012,-8.46987951807229,1.2728387492335989,-4.6407112201103615,-8.16922133660331,3.0,1.3317793317793318,750.8751458576429,-0.32037760037293905,-0.3207272303478816,0.20768020511625196,1630.03663003663,-1.0,84.22567793342758,1.3320139079444497,
2023-08-15 18:21:40.975000,-5.0,1.1325301204819278,-8.481927710843374,1.290006131207848,-4.6922133660331085,-8.215818516247701,3.0,1.3317793317793318,750.8751458576429,-0.3162985839986011,-0.6872559874133204,0.21816910436454764,1738.4615384615383,-1.0,84.22567793342758,1.3320351768330234,
2023-08-15 18:21:40.982000,-5.0120481927710845,1.1325301204819278,-8.493975903614459,1.25567136725935,-4.535254445125689,-8.16922133660331,3.0,1.3322233322233323,750.6248958506915,0.2700308839811205,-0.6346949478468625,0.3837771691626365,1849.084249084249,-1.0,84.22567793342758,1.332056149664049,
2023-08-15 18:21:40.990000,-5.0,1.1325301204819278,-8.493975903614459,1.2066217044757817,-4.650521152667075,-8.193746167995094,3.0,1.3322233322233323,750.6248958506915,-0.24847036885962412,-0.17085251442223603,0.015966435522405405,1953.8461538461538,-1.0,84.22567793342758,1.3320768068046218,
2023-08-15 18:21:40.998000,-5.0120481927710845,1.1325301204819278,-8.481927710843374,1.2875536480686696,-4.650521152667075,-8.203556100551808,3.0,1.3322233322233323,750.6248958506915,0.24066196608589246,-0.12365246780490702,0.379348522813356,2045.4212454212452,-1.0,84.22567793342758,1.3320971289132302,
2023-08-15 18:21:41.005000,-5.0120481927710845,1.1204819277108435,-8.493975903614459,1.2654812998160636,-4.6774984671980375,-8.181483752299203,3.0,1.3322233322233323,750.6248958506915,0.376434939688829,0.4243342462560448,0.08519317056115591,2118.6813186813183,-1.0,84.22567793342758,1.3321170968722302,
2023-08-15 18:21:41.013000,-5.0,1.1325301204819278,-8.481927710843374,1.285101164929491,-4.660331085223789,-8.203556100551808,3.0,1.3322233322233323,750.6248958506915,0.3443855253190365,-0.09999417283375035,-0.010605442573276513,2169.230769230769,-1.0,84.22567793342758,1.3321366921246782,
2023-08-15 18:21:41.021000,-5.0120481927710845,1.1204819277108435,-8.542168674698795,1.2335990190067443,-4.613733905579399,-8.26241569589209,3.0,1.3322233322233323,750.6248958506915,0.08286230406153441,-0.49880543091894336,-0.012470135772973802,2198.5347985347985,-1.0,84.22567793342758,1.3321558967019862,
2023-08-15 18:21:41.028000,-5.024096385542169,1.1204819277108435,-8.493975903614459,1.2532188841201717,-4.655426118945432,-8.193746167995094,3.0,1.3322233322233323,750.6248958506915,0.3751529631140381,-0.2813355865042825,0.01689878212225383,2206.5934065934066,-1.0,84.22567793342758,1.3321746931230514,
2023-08-15 18:21:41.036000,-5.024096385542169,1.1204819277108435,-8.518072289156628,1.231146535867566,-4.652973635806253,-8.237890864500306,3.0,1.3322233322233323,750.6248958506915,-0.006876056173883237,-0.004195559699318791,0.0926519433599442,2192.6739926739924,-1.0,84.22567793342758,1.332193064302618,
2023-08-15 18:21:41.043000,-5.048192771084338,1.1204819277108435,-8.518072289156628,1.213979153893317,-4.635806253832005,-8.267320662170446,3.0,1.3322233322233323,750.6248958506915,-0.08332847736145949,-0.04871510984208337,0.1682885612726533,2161.172161172161,-1.0,84.22567793342758,1.3322109936172988,
2023-08-15 18:21:41.051000,-5.0361445783132535,1.1325301204819278,-8.518072289156628,1.2581238503985284,-4.7290006131207845,-8.264868179031268,3.0,1.3322233322233323,750.6248958506915,-0.053027212866383,-0.5059145737427883,0.2727113804556841,2114.285714285714,-1.0,84.22567793342758,1.3322284652363179,
2023-08-15 18:21:41.059000,-5.0602409638554215,1.1566265060240966,-8.518072289156628,1.2507664009809931,-4.721643163703249,-8.230533415082771,3.0,1.3322233322233323,750.6248958506915,-0.05629042596585336,-0.4999708641687552,0.268632364081347,2052.747252747253,-1.0,84.22567793342758,1.3322454640034702,
2023-08-15 18:21:41.066000,-5.0602409638554215,1.1566265060240966,-8.493975903614459,1.3120784794604536,-4.684855916615573,-8.21827099938688,3.0,1.3322233322233323,750.6248958506915,0.2798205232795299,-0.1752811607715165,0.12644950760445187,1981.6849816849815,-1.0,84.22567793342758,1.3322619753488367,
2023-08-15 18:21:41.074000,-5.0602409638554215,1.1566265060240966,-8.506024096385543,1.3513182096873084,-4.7069282648681785,-8.220723482526058,3.0,1.3322233322233323,750.6248958506915,0.17143523104714195,-0.11479517510634608,0.24730493560981315,1906.9597069597069,-1.0,84.22567793342758,1.3322779854753068,
2023-08-15 18:21:41.082000,-5.0361445783132535,1.1686746987951808,-8.506024096385543,1.260576333537707,-4.719190680564071,-8.208461066830164,3.0,1.3322233322233323,750.6248958506915,0.2013868655672742,-0.14486335295145916,0.26070741798263497,1832.234432234432,-1.0,84.22567793342758,1.3322934813937548,
2023-08-15 18:21:41.089000,-5.0120481927710845,1.180722891566265,-8.481927710843374,1.3169834457388105,-4.711833231146535,-8.198651134273451,3.0,1.3322233322233323,750.6248958506915,0.0020977798496585277,-0.3896043354116896,0.15150632247537987,1757.5091575091574,-1.0,84.22567793342758,1.3323084509560452,
2023-08-15 18:21:41.097000,-5.024096385542169,1.1686746987951808,-8.481927710843374,1.2532188841201717,-4.6627835683629675,-8.206008583690986,3.0,1.3322233322233323,750.6248958506915,-0.2257444204883159,-0.8499504690868823,0.18110832702056961,1685.7142857142856,-1.0,84.22567793342758,1.3323228828857292,
2023-08-15 18:21:41.105000,-5.024096385542169,1.1566265060240966,-8.506024096385543,1.290006131207848,-4.657878602084611,-8.174126302881668,3.0,1.3313353313353316,751.1255627813906,-0.008507662723616683,-0.38564186236233244,0.2426432026105706,1613.186813186813,-1.0,84.22567793342758,1.3323367666675925,
2023-08-15 18:21:41.112000,-5.0120481927710845,1.1686746987951808,-8.506024096385543,1.3120784794604536,-4.6480686695278965,-8.191293684855916,3.0,1.3317793317793318,750.8751458576429,-0.15908163859914898,-0.6738535050404982,0.47013577297360293,1547.985347985348,712.371826171875,84.22567793342758,1.3323500925727196,
2023-08-15 18:21:41.120000,-5.0120481927710845,1.1566265060240966,-8.46987951807229,1.2507664009809931,-4.657878602084611,-8.215818516247701,3.0,1.3317793317793318,750.8751458576429,0.22422935726356327,-0.6351611211467858,0.23856418623623307,1489.3772893772893,-1.0,84.22567793342758,1.3323628518944315,
2023-08-15 18:21:41.128000,-5.0,1.1686746987951808,-8.46987951807229,1.2507664009809931,-4.655426118945432,-8.203556100551808,3.0,1.3317793317793318,750.8751458576429,0.326437853271953,-0.3688596235650608,0.29520424217702895,1439.5604395604394,-1.0,84.22567793342758,1.3323750368289176,
2023-08-15 18:21:41.135000,-5.0120481927710845,1.180722891566265,-8.493975903614459,1.260576333537707,-4.638258736971183,-8.20110361741263,3.0,1.3317793317793318,750.8751458576429,0.4436804382029019,-0.39310063516112165,0.34962997494318543,1394.139194139194,-1.0,84.22567793342758,1.3323866403738085,
2023-08-15 18:21:41.143000,-5.0,1.1566265060240966,-8.481927710843374,1.2630288166768853,-4.6112814224402205,-8.223175965665236,3.0,1.3317793317793318,750.8751458576429,0.724549851407261,-0.05326029951634467,0.17190140434706616,1354.5787545787546,-1.0,84.22567793342758,1.3323976564899227,
2023-08-15 18:21:41.151000,-4.9879518072289155,1.144578313253012,-8.493975903614459,1.2949110974862048,-4.665236051502146,-8.20110361741263,3.0,1.3317793317793318,750.8751458576429,0.3034788182506848,0.18938290309422548,0.12190431793019056,1319.4139194139193,-1.0,84.22567793342758,1.332408079971919,
2023-08-15 18:21:41.158000,-5.0,1.1686746987951808,-8.46987951807229,1.2360515021459226,-4.625996321275291,-8.203556100551808,3.0,1.3317793317793318,750.8751458576429,0.511392110016898,-0.07388846803799265,0.0870578637608532,1285.7142857142856,-1.0,84.22567793342758,1.332417906613777,
2023-08-15 18:21:41.166000,-5.0120481927710845,1.144578313253012,-8.493975903614459,1.30226854690374,-4.675045984058859,-8.18638871857756,3.0,1.3317793317793318,750.8751458576429,0.6879552473632072,0.06293339548977318,0.040790163743371737,1254.9450549450548,-1.0,84.22567793342758,1.3324271332009399,
2023-08-15 18:21:41.174000,-5.048192771084338,1.1566265060240966,-8.481927710843374,1.2385039852851012,-4.68976088289393,-8.193746167995094,3.0,1.3317793317793318,750.8751458576429,0.4984558009440009,-0.260357788007692,0.16048015849892205,1227.8388278388277,-1.0,84.22567793342758,1.3324357573818117,
2023-08-15 18:21:41.181000,-5.0602409638554215,1.180722891566265,-8.493975903614459,1.2875536480686696,-4.7069282648681785,-8.230533415082771,3.0,1.3317793317793318,750.8751458576429,0.5848144047549673,-0.5632538896334709,0.01876347532195112,1200.7326007326008,-1.0,84.22567793342758,1.3324437778131173,
2023-08-15 18:21:41.189000,-5.0602409638554215,1.1566265060240966,-8.493975903614459,1.2532188841201717,-4.657878602084611,-8.191293684855916,3.0,1.3317793317793318,750.8751458576429,0.8224462443913528,-0.38925470543674534,-0.12027271138045581,1178.7545787545787,-1.0,84.22567793342758,1.3324511941531452,
2023-08-15 18:21:41.197000,-5.0843373493975905,1.1686746987951808,-8.481927710843374,1.280196198651134,-4.758430410790925,-8.267320662170446,3.0,1.3317793317793318,750.8751458576429,1.0148592739350852,-0.0643319153895467,0.27364372705553297,1164.102564102564,-1.0,84.22567793342758,1.3324580070522138,
2023-08-15 18:21:41.204000,-5.072289156626506,1.1686746987951808,-8.506024096385543,1.331698344573881,-4.731453096259963,-8.223175965665236,3.0,1.3313353313353316,751.1255627813906,0.775828914398928,-0.18553697336985095,0.541926461161937,1151.6483516483515,-1.0,84.22567793342758,1.3324642181404183,
2023-08-15 18:21:41.212000,-5.048192771084338,1.1686746987951808,-8.506024096385543,1.2826486817903127,-4.679950950337216,-8.27958307786634,3.0,1.3313353313353316,751.1255627813906,1.0124118641104825,0.1361226035778808,0.5045160538430161,1147.985347985348,-1.0,84.22567793342758,1.3324698298634086,
2023-08-15 18:21:41.220000,-5.0120481927710845,1.180722891566265,-8.493975903614459,1.2434089515634579,-4.64316370324954,-8.16922133660331,3.0,1.3313353313353316,751.1255627813906,1.0481906648796686,-0.12516753102965963,0.591457374278888,1151.6483516483515,-1.0,84.22567793342758,1.3324748454430138,
2023-08-15 18:21:41.227000,-5.0120481927710845,1.1927710843373494,-8.518072289156628,1.2875536480686696,-4.682403433476394,-8.250153280196198,3.0,1.3313353313353316,751.1255627813906,0.8675485111590233,-0.16922090787250085,1.0157916205349338,1160.4395604395604,-1.0,84.22567793342758,1.3324792689942844,
2023-08-15 18:21:41.235000,-5.0,1.180722891566265,-8.506024096385543,1.2679337829552422,-4.645616186388718,-8.228080931943593,3.0,1.3317793317793318,750.8751458576429,0.9202260940504637,-0.32084377367286243,0.8554280053609928,1169.9633699633698,-1.0,84.22567793342758,1.3324831055011963,
2023-08-15 18:21:41.243000,-4.951807228915663,1.144578313253012,-8.518072289156628,1.2630288166768853,-4.675045984058859,-8.267320662170446,3.0,1.3313353313353316,751.1255627813906,0.3006817784511395,-0.13542334362799405,0.6656954722918249,1181.6849816849815,-1.0,84.22567793342758,1.3324863609391546,
2023-08-15 18:21:41.250000,-4.9879518072289155,1.144578313253012,-8.493975903614459,1.2507664009809931,-4.618638871857756,-8.286940527283875,3.0,1.3317793317793318,750.8751458576429,0.42013868655672776,-0.1794767204708353,0.6916846337626014,1198.5347985347985,-1.0,84.22567793342758,1.332489042118422,
2023-08-15 18:21:41.258000,-4.951807228915663,1.144578313253012,-8.518072289156628,1.2924586143470262,-4.608828939301042,-8.208461066830164,3.0,1.3308913308913308,751.3761467889908,0.6899364838878849,-0.010372355923315273,0.6113862828506492,1215.3846153846152,-1.0,84.22567793342758,1.3324911565043316,
2023-08-15 18:21:41.266000,-4.963855421686747,1.1566265060240966,-8.530120481927712,1.2703862660944205,-4.562231759656652,-8.215818516247701,3.0,1.3308913308913308,751.3761467889908,0.7744303944991544,-0.13344210710331636,0.2989336285764231,1237.3626373626373,-1.0,84.22567793342758,1.33249271248265,
2023-08-15 18:21:41.273000,-4.975903614457832,1.1566265060240966,-8.542168674698795,1.2581238503985284,-4.608828939301042,-8.26241569589209,3.0,1.3308913308913308,751.3761467889908,0.26140667793252126,-0.392284831886254,0.18845055649437661,1264.4688644688645,-1.0,84.22567793342758,1.3324937190915982,
2023-08-15 18:21:41.281000,-4.963855421686747,1.144578313253012,-8.542168674698795,1.3194359288779889,-4.645616186388718,-8.299202942979766,3.0,1.3313353313353316,751.1255627813906,0.37783345958860254,0.04102325039333428,-0.07563661791270954,1292.3076923076922,-1.0,84.22567793342758,1.33249418583608,
2023-08-15 18:21:41.289000,-4.9879518072289155,1.1686746987951808,-8.530120481927712,1.2728387492335989,-4.6407112201103615,-8.267320662170446,3.0,1.3313353313353316,751.1255627813906,0.20278538546704772,0.0734222947380693,0.028786201270322147,1319.4139194139193,-1.0,84.22567793342758,1.332494122808212,
2023-08-15 18:21:41.296000,-4.9879518072289155,1.1686746987951808,-8.530120481927712,1.2752912323727774,-4.6407112201103615,-8.225628448804414,3.0,1.3313353313353316,751.1255627813906,-0.38773964221199275,0.04288794359303113,-0.38820581551191696,1346.5201465201465,-1.0,84.22567793342758,1.332493540688407,
2023-08-15 18:21:41.304000,-5.0,1.1686746987951808,-8.481927710843374,1.280196198651134,-4.599019006744328,-8.210913549969343,3.0,1.3313353313353316,751.1255627813906,-0.08426082396130792,-0.229706893537673,-0.12726531087931903,1372.161172161172,-1.0,84.22567793342758,1.3324924507134577,
2023-08-15 18:21:41.312000,-5.0,1.1686746987951808,-8.518072289156628,1.3243408951563458,-4.584304107909258,-8.26241569589209,3.0,1.3313353313353316,751.1255627813906,0.01538371889749992,-0.025056814870928437,-0.6923838937124877,1393.4065934065934,-1.0,84.22567793342758,1.3324908646329707,
2023-08-15 18:21:41.319000,-5.0,1.1686746987951808,-8.518072289156628,1.2973635806253832,-4.6774984671980375,-8.245248313917841,3.0,1.3313353313353316,751.1255627813906,-0.2168871277897567,-0.4502068644018408,-0.3821455626129013,1409.5238095238094,-1.0,84.22567793342758,1.3324887946648902,
2023-08-15 18:21:41.327000,-5.024096385542169,1.1686746987951808,-8.518072289156628,1.2507664009809931,-4.591661557326793,-8.29429797670141,3.0,1.3313353313353316,751.1255627813906,0.026571878095682785,-0.24858691218460496,-0.3512615814929202,1424.9084249084249,-1.0,84.22567793342758,1.3324862534503024,
2023-08-15 18:21:41.335000,-5.0120481927710845,1.1686746987951808,-8.518072289156628,1.2728387492335989,-4.591661557326793,-8.272225628448805,3.0,1.3313353313353316,751.1255627813906,0.023541751646174093,-0.2481207388846799,-0.3484645416933745,1437.3626373626373,-1.0,84.22567793342758,1.3324832540077258,
2023-08-15 18:21:41.342000,-5.024096385542169,1.1686746987951808,-8.506024096385543,1.3415082771305946,-4.667688534641324,-8.240343347639485,3.0,1.3313353313353316,751.1255627813906,-0.06911019171376967,-0.17201794767204787,-0.19252957286871414,1444.6886446886447,-1.0,84.22567793342758,1.332479809687071,
2023-08-15 18:21:41.350000,-5.024096385542169,1.1686746987951808,-8.518072289156628,1.2703862660944205,-4.6774984671980375,-8.228080931943593,3.0,1.3313353313353316,751.1255627813906,-0.3780665462385642,-0.21665404113979328,-0.41722510343220076,1445.4212454212454,-1.0,84.22567793342758,1.3324759342622348,
2023-08-15 18:21:41.358000,-5.0120481927710845,1.1325301204819278,-8.530120481927712,1.2703862660944205,-4.694665849172287,-8.27958307786634,3.0,1.3308913308913308,751.3761467889908,-0.20884563836606335,-0.8386457665637204,-0.5500844939106112,1440.2930402930401,-1.0,84.22567793342758,1.3324716417258768,
2023-08-15 18:21:41.365000,-5.0602409638554215,1.1686746987951808,-8.506024096385543,1.231146535867566,-4.731453096259963,-8.245248313917841,3.0,1.3313353313353316,751.1255627813906,-0.4519550142765569,-0.5405279412621644,-0.49775654099411454,1431.5018315018315,-1.0,84.22567793342758,1.332466945966681,
2023-08-15 18:21:41.373000,-5.0602409638554215,1.1566265060240966,-8.493975903614459,1.2875536480686696,-4.687308399754752,-8.245248313917841,3.0,1.3313353313353316,751.1255627813906,-0.46302663014975887,-0.5947205873783575,-0.6750189382903091,1419.7802197802198,-1.0,84.22567793342758,1.3324618611392474,
2023-08-15 18:21:41.381000,-5.072289156626506,1.144578313253012,-8.493975903614459,1.2777437155119558,-4.679950950337216,-8.250153280196198,3.0,1.3313353313353316,751.1255627813906,-0.6426198939455751,-0.29741856535166916,-0.8068294388438904,1402.9304029304028,-1.0,84.22567793342758,1.33245640161896,
2023-08-15 18:21:41.388000,-5.0361445783132535,1.1686746987951808,-8.44578313253012,1.2458614347026364,-4.716738197424893,-8.18638871857756,3.0,1.3308913308913308,751.3761467889908,-0.6536915098187753,-0.44333080822795934,-0.7719829846745525,1386.080586080586,-1.0,84.22567793342758,1.3324505816913246,
2023-08-15 18:21:41.396000,-5.0120481927710845,1.1566265060240966,-8.457831325301205,1.1698344573881054,-4.64316370324954,-8.228080931943593,3.0,1.3308913308913308,751.3761467889908,-0.53027212866383,-0.5293397820639816,-0.29438843890216176,1371.4285714285713,-1.0,84.22567793342758,1.3324444155084725,
2023-08-15 18:21:41.403000,-5.048192771084338,1.144578313253012,-8.46987951807229,1.2385039852851012,-4.665236051502146,-8.181483752299203,3.0,1.3313353313353316,751.1255627813906,-0.34706602179360097,-0.3572052910669546,-0.3709574034147193,1355.3113553113553,-1.0,84.22567793342758,1.3324379170249776,
2023-08-15 18:21:41.411000,-5.0361445783132535,1.1325301204819278,-8.481927710843374,1.2483139178418148,-4.613733905579399,-8.154506437768239,3.0,1.3304473304473305,751.6268980477223,-0.3011479517510629,-0.6282850649729044,-0.32620476662199177,1339.9267399267399,-1.0,84.22567793342758,1.3324311001044837,
2023-08-15 18:21:41.419000,-5.0361445783132535,1.108433734939759,-8.46987951807229,1.213979153893317,-4.665236051502146,-8.203556100551808,3.0,1.3308913308913308,751.3761467889908,-0.10430627585804997,-0.14789347940096786,-0.08088106753685671,1327.4725274725274,-1.0,84.22567793342758,1.3324239786382788,
2023-08-15 18:21:41.426000,-5.0361445783132535,1.108433734939759,-8.493975903614459,1.231146535867566,-4.599019006744328,-8.215818516247701,3.0,1.3308913308913308,751.3761467889908,-0.32107686032282584,-0.25068469203426347,-0.35464133791737096,1315.7509157509157,-1.0,84.22567793342758,1.3324165664220164,
2023-08-15 18:21:41.434000,-5.048192771084338,1.1204819277108435,-8.481927710843374,1.2115266707541386,-4.682403433476394,-8.240343347639485,3.0,1.3308913308913308,751.3761467889908,-0.014567915622632328,0.3020802983509113,-0.09451663655964106,1304.0293040293038,-1.0,84.22567793342758,1.332408876851881,
2023-08-15 18:21:41.442000,-5.0602409638554215,1.144578313253012,-8.44578313253012,1.2679337829552422,-4.721643163703249,-8.181483752299203,3.0,1.3308913308913308,751.3761467889908,0.16712312802284232,-0.053027212866383,-0.09440009323465978,1287.9120879120878,-1.0,84.22567793342758,1.3324009229201341,
2023-08-15 18:21:41.449000,-5.0602409638554215,1.1325301204819278,-8.46987951807229,1.260576333537707,-4.697118332311465,-8.159411404046597,3.0,1.3308913308913308,751.3761467889908,0.11899073480566313,0.24054542276091162,-0.3062758580502301,1272.5274725274724,-1.0,84.22567793342758,1.332392717329402,
2023-08-15 18:21:41.457000,-5.0361445783132535,1.144578313253012,-8.46987951807229,1.2434089515634579,-4.672593500919681,-8.176578786020846,3.0,1.3308913308913308,751.3761467889908,-0.06503117533943172,0.10512207913291756,-0.10465590583299335,1260.07326007326,-1.0,84.22567793342758,1.3323842724597024,
2023-08-15 18:21:41.465000,-5.0361445783132535,1.1566265060240966,-8.457831325301205,1.2409564684242795,-4.68976088289393,-8.164316370324954,3.0,1.3308913308913308,751.3761467889908,0.21059378824077765,-0.19486043936833522,-0.24136122603577878,1249.8168498168498,-1.0,84.22567793342758,1.3323756003375873,
2023-08-15 18:21:41.472000,-5.0361445783132535,1.144578313253012,-8.433734939759036,1.2188841201716738,-4.721643163703249,-8.206008583690986,3.0,1.3308913308913308,751.3761467889908,0.3751529631140381,0.19124759629392235,-0.2861138628285063,1242.4908424908424,-1.0,84.22567793342758,1.3323667124687817,
2023-08-15 18:21:41.480000,-5.0361445783132535,1.1325301204819278,-8.481927710843374,1.2752912323727774,-4.675045984058859,-8.18638871857756,3.0,1.3304473304473305,751.6268980477223,0.18542043004486836,0.31035487442456805,-0.088339840335645,1237.3626373626373,-1.0,84.22567793342758,1.3323576199710288,
2023-08-15 18:21:41.488000,-5.048192771084338,1.144578313253012,-8.506024096385543,1.1894543225015328,-4.7290006131207845,-8.210913549969343,3.0,1.3308913308913308,751.3761467889908,0.7901637433715987,0.06165141891498225,0.17038634112231227,1235.164835164835,-1.0,84.22567793342758,1.3323483335285338,
2023-08-15 18:21:41.495000,-5.0361445783132535,1.144578313253012,-8.493975903614459,1.231146535867566,-4.665236051502146,-8.149601471489882,3.0,1.3304473304473305,751.6268980477223,0.6585863294679791,0.08950527358545597,8.15803274867591E-4,1235.8974358974358,-1.0,84.22567793342758,1.3323388632101434,
2023-08-15 18:21:41.503000,-5.048192771084338,1.1566265060240966,-8.493975903614459,1.2679337829552422,-4.6922133660331085,-8.26241569589209,3.0,1.3304473304473305,751.6268980477223,0.3006817784511395,0.40941670065846997,0.12260357788007688,1237.3626373626373,-1.0,84.22567793342758,1.3323292184807165,
2023-08-15 18:21:41.511000,-5.0120481927710845,1.1325301204819278,-8.506024096385543,1.3292458614347025,-4.697118332311465,-8.240343347639485,3.0,1.3304473304473305,751.6268980477223,0.5126740865916907,0.7746634811491179,0.22784220033797573,1235.164835164835,-1.0,84.22567793342758,1.3323194081722338,
2023-08-15 18:21:41.518000,-5.0120481927710845,1.144578313253012,-8.493975903614459,1.2066217044757817,-4.667688534641324,-8.196198651134273,3.0,1.3308913308913308,751.3761467889908,0.26501952100693416,0.8928384126799134,-0.1562845987996037,1232.2344322344322,-1.0,84.22567793342758,1.33230944060612,
2023-08-15 18:21:41.526000,-5.0120481927710845,1.144578313253012,-8.493975903614459,1.2458614347026364,-4.638258736971183,-8.149601471489882,3.0,1.3304473304473305,751.6268980477223,0.06339956878969827,0.5073130936425618,-0.338441815745003,1227.106227106227,-1.0,84.22567793342758,1.3322993237287701,
2023-08-15 18:21:41.534000,-5.024096385542169,1.1204819277108435,-8.46987951807229,1.2237890864500305,-4.665236051502146,-8.242795830778663,3.0,1.3304473304473305,751.6268980477223,-0.11864110483072063,0.45929724375036346,-0.3192121671231281,1223.4432234432234,-1.0,84.22567793342758,1.3322890649730263,
2023-08-15 18:21:41.541000,-5.024096385542169,1.1204819277108435,-8.481927710843374,1.2409564684242795,-4.657878602084611,-8.21827099938688,3.0,1.3304473304473305,751.6268980477223,-0.6794475846395905,0.23075578346250228,-0.5610395664588311,1221.9780219780218,-1.0,84.22567793342758,1.3322786710908148,
2023-08-15 18:21:41.549000,-5.0120481927710845,1.1204819277108435,-8.46987951807229,1.2630288166768853,-4.679950950337216,-8.181483752299203,3.0,1.3304473304473305,751.6268980477223,-0.38552531903735165,-0.1960258726181453,-0.829438843890216,1220.5128205128203,-1.0,84.22567793342758,1.3322681482863066,
2023-08-15 18:21:41.557000,-5.024096385542169,1.108433734939759,-8.506024096385543,1.179644389944819,-4.6701410177805025,-8.188841201716738,3.0,1.3308913308913308,751.3761467889908,-0.15558533884971695,-0.20826292174115743,-0.8261756307907465,1220.5128205128203,-1.0,84.22567793342758,1.3322575022129617,
2023-08-15 18:21:41.564000,-5.0120481927710845,1.0963855421686748,-8.506024096385543,1.260576333537707,-4.75107296137339,-8.196198651134273,3.0,1.3295593295593295,752.1289029888128,0.11584406503117535,0.03927510051861826,-0.3610512207913291,1219.047619047619,-1.0,84.22567793342758,1.332246737983708,
2023-08-15 18:21:41.572000,-5.0361445783132535,1.1204819277108435,-8.518072289156628,1.25567136725935,-4.621091354996934,-8.179031269160024,3.0,1.3300033300033303,751.8778167250875,0.542625721111823,-0.03414719421945104,-0.12971272070392179,1219.7802197802198,-1.0,84.22567793342758,1.3322358600449922,
2023-08-15 18:21:41.580000,-5.024096385542169,1.108433734939759,-8.518072289156628,1.226241569589209,-4.6701410177805025,-8.230533415082771,3.0,1.3300033300033303,751.8778167250875,0.2760911368801344,-0.07668550783753793,-0.004428646349280464,1221.9780219780218,-1.0,84.22567793342758,1.3322248722352863,
2023-08-15 18:21:41.587000,-5.048192771084338,1.144578313253012,-8.493975903614459,1.1771919068056407,-4.665236051502146,-8.311465358675658,3.0,1.3304473304473305,751.6268980477223,0.5190839694656488,-0.561389196433774,0.2366994930365362,1224.1758241758241,-1.0,84.22567793342758,1.3322137777912504,
2023-08-15 18:21:41.595000,-5.0843373493975905,1.1325301204819278,-8.530120481927712,1.3047210300429184,-4.682403433476394,-8.210913549969343,3.0,1.3304473304473305,751.6268980477223,0.4239846162811023,-0.15873200862420647,0.09486626653458399,1227.8388278388277,-1.0,84.22567793342758,1.3322025793874939,
2023-08-15 18:21:41.603000,-5.0843373493975905,1.1325301204819278,-8.530120481927712,1.290006131207848,-4.682403433476394,-8.206008583690986,3.0,1.3304473304473305,751.6268980477223,0.09987762950876951,-0.8556610920109554,0.12330283782996321,1233.6996336996335,-1.0,84.22567793342758,1.3321912791783908,
2023-08-15 18:21:41.610000,-5.0602409638554215,1.144578313253012,-8.493975903614459,1.2679337829552422,-4.665236051502146,-8.21827099938688,3.0,1.3304473304473305,751.6268980477223,0.09766330633413015,-0.845987996037527,0.12073888468038002,1241.0256410256409,-1.0,84.22567793342758,1.3321798788315184,
2023-08-15 18:21:41.618000,-5.0602409638554215,1.1686746987951808,-8.46987951807229,1.2654812998160636,-4.704475781729,-8.206008583690986,3.0,1.3304473304473305,751.6268980477223,0.1420663131519139,-0.04288794359303113,0.42491696288095115,1251.2820512820513,-1.0,84.22567793342758,1.3321683796704085,
2023-08-15 18:21:41.626000,-5.048192771084338,1.1686746987951808,-8.506024096385543,1.3218884120171672,-4.665236051502146,-8.166768853464133,3.0,1.3304473304473305,751.6268980477223,0.22982343686265383,0.3862245789872384,0.6968125400617681,1266.6666666666665,-1.0,84.22567793342758,1.332156782542548,
