Shimmer_F5D4_Timestamp_FormattedUnix_CAL,Shimmer_F5D4_Accel_LN_X_CAL,Shimmer_F5D4_Accel_LN_Y_CAL,Shimmer_F5D4_Accel_LN_Z_CAL,Shimmer_F5D4_Accel_WR_X_CAL,Shimmer_F5D4_Accel_WR_Y_CAL,Shimmer_F5D4_Accel_WR_Z_CAL,Shimmer_F5D4_GSR_Range_CAL,Shimmer_F5D4_GSR_Skin_Conductance_CAL,Shimmer_F5D4_GSR_Skin_Resistance_CAL,Shimmer_F5D4_Gyro_X_CAL,Shimmer_F5D4_Gyro_Y_CAL,Shimmer_F5D4_Gyro_Z_CAL,Shimmer_F5D4_PPG_A13_CAL,Shimmer_F5D4_PPG_IBI_CAL,Shimmer_F5D4_PPGtoHR_CAL,Shimmer_F5D4_GSR_Skin_Conductance_LPF_CAL,
yyyy/mm/dd hh:mm:ss.000,m/(s^2),m/(s^2),m/(s^2),m/(s^2),m/(s^2),m/(s^2),no_units,uS,kOhms,deg/s,deg/s,deg/s,mV,ms,BPM,uS,
2023-08-17 19:40:52.520000,-8.66265060240964,-0.710843373493976,-4.506024096385542,-0.5885959534028203,-8.503372164316369,-4.220723482526058,3.0,1.0196470196470195,980.7315480078381,-0.01713186877221594,-0.19497698269331604,-0.46372589009964477,1178.021978021978,-1.0,73.2054957739137,1.0211866580389841,
2023-08-17 19:40:52.528000,-8.66265060240964,-0.6987951807228916,-4.506024096385542,-0.5321888412017167,-8.50091968117719,-4.24770079705702,3.0,1.0196470196470195,980.7315480078381,0.029019287920283823,0.114329001806421,-0.2040673620418391,1183.150183150183,-1.0,73.2054957739137,1.021170989988446,
2023-08-17 19:40:52.535000,-8.66265060240964,-0.674698795180723,-4.506024096385542,-0.5763335377069282,-8.545064377682403,-4.2035561005518085,3.0,1.0196470196470195,980.7315480078381,-0.10687022900763359,-0.051861779616572894,-0.09859565293397814,1189.0109890109889,-1.0,73.2054957739137,1.021155360646388,
2023-08-17 19:40:52.543000,-8.63855421686747,-0.710843373493976,-4.542168674698796,-0.6376456161863887,-8.461679950950337,-4.186388718577559,3.0,1.0196470196470195,980.7315480078381,-0.22784220033797614,-4.661732999250815E-4,-0.1443971796515354,1194.1391941391942,-1.0,73.2054957739137,1.0211397667647097,
2023-08-17 19:40:52.551000,-8.66265060240964,-0.6987951807228916,-4.530120481927711,-0.6695278969957081,-8.510729613733906,-4.208461066830165,3.0,1.0196470196470195,980.7315480078381,-0.3019637550259305,0.27632422353009783,-0.03869238389371234,1199.2673992673992,-1.0,73.2054957739137,1.0211242051949365,
2023-08-17 19:40:52.558000,-8.674698795180724,-0.7228915662650602,-4.530120481927711,-0.6523605150214592,-8.537706928264868,-4.228080931943593,3.0,1.0196470196470195,980.7315480078381,-0.14521298292640342,0.05897092244041781,0.06724549851407281,1204.3956043956043,-1.0,73.2054957739137,1.021108672895875,
2023-08-17 19:40:52.566000,-8.686746987951807,-0.7228915662650602,-4.566265060240964,-0.6719803801348866,-8.525444512568976,-4.228080931943593,3.0,1.0196470196470195,980.7315480078381,-0.4175747334071441,-0.6429695239205175,0.3565060311170678,1208.058608058608,-1.0,73.2054957739137,1.0210931670799146,
2023-08-17 19:40:52.574000,-8.734939759036145,-0.710843373493976,-4.542168674698796,-0.6204782342121398,-8.584304107909258,-4.208461066830165,3.0,1.0196470196470195,980.7315480078381,-0.41559349688246644,-0.6376085309713886,0.3521939280927686,1210.989010989011,-1.0,73.2054957739137,1.0210776850613776,
2023-08-17 19:40:52.581000,-8.72289156626506,-0.7228915662650602,-4.530120481927711,-0.6180257510729613,-8.589209074187615,-4.220723482526058,3.0,1.0187590187590185,981.586402266289,0.03146669774488659,-0.5697803158324098,0.16747275799778572,1211.7216117216117,-1.0,73.2054957739137,1.0210622239975349,
2023-08-17 19:40:52.589000,-8.698795180722891,-0.7349397590361446,-4.530120481927711,-0.627835683629675,-8.58185162477008,-4.228080931943593,3.0,1.019203019203019,981.1587889348727,0.15476953557484935,-0.5632538896334709,-0.12330283782996321,1207.3260073260074,-1.0,73.2054957739137,1.0210467813217694,
2023-08-17 19:40:52.597000,-8.674698795180724,-0.7228915662650602,-4.542168674698796,-0.5640711220110362,-8.493562231759656,-4.242795830778663,3.0,1.019203019203019,981.1587889348727,-0.1956762426432028,0.14742730610104277,-0.5650020395081874,1204.3956043956043,-1.0,73.2054957739137,1.021031355061316,
2023-08-17 19:40:52.604000,-8.686746987951807,-0.7228915662650602,-4.506024096385542,-0.5763335377069282,-8.542611894543224,-4.213366033108522,3.0,1.0196470196470195,980.7315480078381,0.06491463201445088,0.07470427131286024,-0.43785327195384877,1204.3956043956043,-1.0,73.2054957739137,1.021015943387906,
2023-08-17 19:40:52.612000,-8.650602409638555,-0.7228915662650602,-4.530120481927711,-0.5910484365419988,-8.449417535254444,-4.208461066830165,3.0,1.0196470196470195,980.7315480078381,0.14078433657712294,-0.22481207388846747,0.07248994813822043,1208.7912087912086,-1.0,73.2054957739137,1.0210005443701229,
2023-08-17 19:40:52.620000,-8.66265060240964,-0.6987951807228916,-4.518072289156627,-0.5885959534028203,-8.518087063151441,-4.179031269160024,3.0,1.0196470196470195,980.7315480078381,-0.13565643027795574,-0.4916962880951002,-0.2598916147077678,1214.6520146520145,-1.0,73.2054957739137,1.0209851560332686,
2023-08-17 19:40:52.627000,-8.674698795180724,-0.710843373493976,-4.542168674698796,-0.6082158185162476,-8.473942366646229,-4.186388718577559,3.0,1.0196470196470195,980.7315480078381,0.0030301264495069553,0.09824602295903433,-0.24147776936076004,1219.047619047619,-1.0,73.2054957739137,1.02096977639685,
2023-08-17 19:40:52.635000,-8.650602409638555,-0.7349397590361446,-4.518072289156627,-0.6229307173513182,-8.530349478847333,-4.156958920907418,3.0,1.0196470196470195,980.7315480078381,-0.19206339956878993,-0.054425732766156504,0.23576714643668778,1222.7106227106226,-1.0,73.2054957739137,1.0209544036286198,
2023-08-17 19:40:52.642000,-8.686746987951807,-0.7228915662650602,-4.493975903614458,-0.6180257510729613,-8.576946658491723,-4.161863887185775,3.0,1.0196470196470195,980.7315480078381,-0.0048948196492038095,-0.025289901520890112,0.20383427539187698,1222.7106227106226,-1.0,73.2054957739137,1.0209390360490347,
2023-08-17 19:40:52.650000,-8.686746987951807,-0.710843373493976,-4.493975903614458,-0.6351931330472103,-8.552421827099938,-4.208461066830165,3.0,1.0196470196470195,980.7315480078381,-0.04953091311695096,0.10990035545714054,-0.040790163743371737,1221.9780219780218,-1.0,73.2054957739137,1.0209236722741757,
2023-08-17 19:40:52.658000,-8.674698795180724,-0.6867469879518072,-4.506024096385542,-0.6008583690987124,-8.572041692213366,-4.188841201716738,3.0,1.0196470196470195,980.7315480078381,0.04382029019287956,-0.12178777460521016,-0.16432608822329706,1221.245421245421,-1.0,73.2054957739137,1.0209083110605195,
2023-08-17 19:40:52.665000,-8.66265060240964,-0.710843373493976,-4.518072289156627,-0.6327406499080318,-8.564684242795831,-4.242795830778663,3.0,1.0196470196470195,980.7315480078381,0.011188159198181129,0.3401899656197195,-0.2999825185012528,1220.5128205128203,-1.0,73.2054957739137,1.020892951180969,
2023-08-17 19:40:52.673000,-8.674698795180724,-0.7349397590361446,-4.566265060240964,-0.6302881667688535,-8.576946658491723,-4.169221336603311,3.0,1.0196470196470195,980.7315480078381,0.1927626595186767,0.14066779325214213,-0.1304119806538081,1221.245421245421,-1.0,73.2054957739137,1.0208775917160902,
2023-08-17 19:40:52.681000,-8.686746987951807,-0.746987951807229,-4.578313253012048,-0.5763335377069282,-8.562231759656651,-4.164316370324954,3.0,1.019203019203019,981.1587889348727,0.17504807412155482,0.052561039566459654,0.44041722510343234,1220.5128205128203,-1.0,73.2054957739137,1.0208622320366925,
2023-08-17 19:40:52.688000,-8.710843373493976,-0.7349397590361446,-4.542168674698796,-0.5763335377069282,-8.545064377682403,-4.2182709993868786,3.0,1.0196470196470195,980.7315480078381,0.25254938523396037,-0.384010255812599,0.38051395606316657,1221.9780219780218,-1.0,73.2054957739137,1.0208468715092667,
2023-08-17 19:40:52.696000,-8.698795180722891,-0.7228915662650602,-4.493975903614458,-0.6891477621091354,-8.554874310239116,-4.206008583690987,3.0,1.0196470196470195,980.7315480078381,0.3262047666219913,-0.10314084260823987,0.21327428471534296,1221.245421245421,-1.0,73.2054957739137,1.0208315096270268,
2023-08-17 19:40:52.704000,-8.674698795180724,-0.710843373493976,-4.493975903614458,-0.6180257510729613,-8.584304107909258,-4.191293684855917,3.0,1.019203019203019,981.1587889348727,0.3397237923197944,0.02214323174640232,0.12446827107977373,1217.5824175824175,-1.0,73.2054957739137,1.0208161461720549,
2023-08-17 19:40:52.711000,-8.66265060240964,-0.6867469879518072,-4.481927710843374,-0.615573267933783,-8.545064377682403,-4.1667688534641325,3.0,1.0196470196470195,980.7315480078381,0.19754093584289967,-0.11479517510634608,-0.2097779849659109,1214.6520146520145,-1.0,73.2054957739137,1.0208007810686384,
2023-08-17 19:40:52.719000,-8.66265060240964,-0.710843373493976,-4.518072289156627,-0.6229307173513182,-8.466584917228694,-4.2109135499693435,3.0,1.0196470196470195,980.7315480078381,0.014218285647689819,-0.1491754559757588,-0.1786609171959677,1213.9194139194137,-1.0,73.2054957739137,1.0207854143538144,
2023-08-17 19:40:52.727000,-8.66265060240964,-0.710843373493976,-4.55421686746988,-0.615573267933783,-8.464132434089516,-4.191293684855917,3.0,1.0196470196470195,980.7315480078381,-0.08857292698560755,-0.07691859448750134,-0.177612027271138,1214.6520146520145,-1.0,73.2054957739137,1.0207700462105833,
2023-08-17 19:40:52.734000,-8.63855421686747,-0.6867469879518072,-4.530120481927711,-0.5836909871244634,-8.493562231759656,-4.191293684855917,3.0,1.0183150183150182,982.0143884892087,0.048248936542160024,-0.004079016374337954,0.08053143756191378,1216.8498168498168,-1.0,73.2054957739137,1.0207546771183642,
2023-08-17 19:40:52.742000,-8.674698795180724,-0.6867469879518072,-4.530120481927711,-0.5591661557326794,-8.564684242795831,-4.213366033108522,3.0,1.019203019203019,981.1587889348727,-0.13600606025289824,0.30184721170094964,0.3224753802225976,1218.3150183150183,-1.0,73.2054957739137,1.0207393075243119,
2023-08-17 19:40:52.750000,-8.650602409638555,-0.710843373493976,-4.493975903614458,-0.6499080318822807,-8.466584917228694,-4.277130594727161,3.0,1.019203019203019,981.1587889348727,-0.04638424334246317,0.344035895344094,0.19707476254297543,1217.5824175824175,-1.0,73.2054957739137,1.0207239377696808,
2023-08-17 19:40:52.757000,-8.650602409638555,-0.710843373493976,-4.530120481927711,-0.640098099325567,-8.53525444512569,-4.2329858982219495,3.0,1.019203019203019,981.1587889348727,-0.12540061767962304,0.34007342229473864,0.10314084260823944,1219.047619047619,-1.0,73.2054957739137,1.020708568418481,
2023-08-17 19:40:52.765000,-8.674698795180724,-0.6987951807228916,-4.542168674698796,-0.640098099325567,-8.532801961986511,-4.237890864500306,3.0,1.019203019203019,981.1587889348727,0.07039216828856061,0.2449740691101921,0.15034088922556976,1218.3150183150183,-1.0,73.2054957739137,1.0206931999889557,
2023-08-17 19:40:52.773000,-8.686746987951807,-0.6987951807228916,-4.530120481927711,-0.6646229307173512,-8.54996934396076,-4.20110361741263,3.0,1.019203019203019,981.1587889348727,0.14323174640172398,-0.1994056290425965,0.1956762426432028,1216.117216117216,-1.0,73.2054957739137,1.0206778331105226,
2023-08-17 19:40:52.780000,-8.710843373493976,-0.6987951807228916,-4.530120481927711,-0.6989576946658491,-8.525444512568976,-4.237890864500306,3.0,1.019203019203019,981.1587889348727,0.22935726356272876,-0.029485461220208904,0.11887419148068273,1210.989010989011,-1.0,73.2054957739137,1.0206624686486434,
2023-08-17 19:40:52.788000,-8.686746987951807,-0.710843373493976,-4.542168674698796,-0.6106683016554261,-8.48620478234212,-4.2109135499693435,3.0,1.019203019203019,981.1587889348727,-0.0510459763417053,0.06246722218984984,-0.2777227434298701,1208.058608058608,-1.0,73.2054957739137,1.0206471075524426,
2023-08-17 19:40:52.796000,-8.698795180722891,-0.6867469879518072,-4.518072289156627,-0.5591661557326794,-8.547516860821581,-4.235438381361128,3.0,1.019203019203019,981.1587889348727,-0.0048948196492038095,0.05897092244041781,-0.22621059378824096,1205.8608058608058,-1.0,73.2054957739137,1.0206317508511549,
2023-08-17 19:40:52.803000,-8.686746987951807,-0.6867469879518072,-4.518072289156627,-0.6351931330472103,-8.54996934396076,-4.223175965665236,3.0,1.019203019203019,981.1587889348727,-0.03507954081929947,-0.20651477186644143,-0.006876056173882803,1202.197802197802,-1.0,73.2054957739137,1.0206163996501207,
2023-08-17 19:40:52.811000,-8.674698795180724,-0.6987951807228916,-4.542168674698796,-0.6008583690987124,-8.576946658491723,-4.20110361741263,3.0,1.019203019203019,981.1587889348727,-0.14288211642678147,-0.25791037818308926,-0.0045451896742613,1200.7326007326008,-1.0,73.2054957739137,1.0206010551264142,
2023-08-17 19:40:52.819000,-8.674698795180724,-0.6987951807228916,-4.55421686746988,-0.6253832004904966,-8.510729613733906,-4.291845493562231,3.0,1.019203019203019,981.1587889348727,0.10162577938348553,-0.1984732824427481,0.053959559466231426,1200.7326007326008,911.529541015625,65.8234289731829,1.020585718524106,
2023-08-17 19:40:52.826000,-8.66265060240964,-0.6987951807228916,-4.506024096385542,-0.640098099325567,-8.503372164316369,-4.191293684855917,3.0,1.019203019203019,981.1587889348727,0.13006235067886518,-0.014917545597576574,-0.2235300973136765,1200.0,-1.0,65.8234289731829,1.0205703911492765,
2023-08-17 19:40:52.834000,-8.674698795180724,-0.710843373493976,-4.518072289156627,-0.615573267933783,-8.530349478847333,-4.259963212752912,3.0,1.019203019203019,981.1587889348727,-0.2541809917836955,0.04451955014276631,-0.18029252374570245,1198.5347985347985,-1.0,65.8234289731829,1.0205550743647622,
2023-08-17 19:40:52.842000,-8.686746987951807,-0.710843373493976,-4.530120481927711,-0.6106683016554261,-8.569589209074188,-4.230533415082771,3.0,1.019203019203019,981.1587889348727,-0.25289901520890457,0.08682477711089152,0.0032632130994699297,1200.0,-1.0,65.8234289731829,1.0205397695847507,
2023-08-17 19:40:52.849000,-8.66265060240964,-0.710843373493976,-4.55421686746988,-0.615573267933783,-8.530349478847333,-4.272225628448804,3.0,1.019203019203019,981.1587889348727,-0.6790979546646463,0.35825418099178385,0.004661732999242571,1201.4652014652013,-1.0,65.8234289731829,1.0205244782692353,
2023-08-17 19:40:52.857000,-8.674698795180724,-0.7349397590361446,-4.566265060240964,-0.6916002452483139,-8.58185162477008,-4.208461066830165,3.0,1.019203019203019,981.1587889348727,-0.6731542450906132,0.3518442981178257,0.006176796223996482,1201.4652014652013,-1.0,65.8234289731829,1.0205092019184068,
2023-08-17 19:40:52.865000,-8.698795180722891,-0.7349397590361446,-4.55421686746988,-0.6376456161863887,-8.64316370324954,-4.2256284488044145,3.0,1.019203019203019,981.1587889348727,-0.055241536041024095,0.21129304819066438,0.2702639706310822,1198.5347985347985,-1.0,65.8234289731829,1.0204939420670305,
2023-08-17 19:40:52.872000,-8.698795180722891,-0.746987951807229,-4.506024096385542,-0.6253832004904966,-8.562231759656651,-4.2158185162477,3.0,1.019203019203019,981.1587889348727,-0.40557077093409544,-0.20208612551716096,0.34718256511858264,1194.1391941391942,-1.0,65.8234289731829,1.0204787002788562,
2023-08-17 19:40:52.880000,-8.686746987951807,-0.7349397590361446,-4.542168674698796,-0.6351931330472103,-8.56713672593501,-4.255058246474555,3.0,1.019203019203019,981.1587889348727,-0.09521589650952737,-0.9328127731484185,0.02494027154594717,1194.1391941391942,-1.0,65.8234289731829,1.0204634782798756,
2023-08-17 19:40:52.888000,-8.66265060240964,-0.7228915662650602,-4.542168674698796,-0.6082158185162476,-8.488657265481299,-4.171673819742489,3.0,1.0183150183150182,982.0143884892087,0.07586970456267034,-0.7135947788590415,-0.12609987762950892,1197.069597069597,-1.0,65.8234289731829,1.02044827779383,
2023-08-17 19:40:52.895000,-8.650602409638555,-0.7228915662650602,-4.506024096385542,-0.657265481299816,-8.491109748620477,-4.206008583690987,3.0,1.0187590187590185,981.586402266289,-0.012353592447992964,-0.5582425266592863,-0.11001689878212224,1199.2673992673992,-1.0,65.8234289731829,1.0204331002496023,
2023-08-17 19:40:52.903000,-8.626506024096386,-0.6987951807228916,-4.530120481927711,-0.640098099325567,-8.437155119558552,-4.267320662170447,3.0,1.019203019203019,981.1587889348727,-0.13122778392867526,-0.11444554513140184,0.16537497814812674,1202.9304029304028,-1.0,65.8234289731829,1.020417947149288,
2023-08-17 19:40:52.911000,-8.63855421686747,-0.6987951807228916,-4.55421686746988,-0.5836909871244634,-8.522992029429798,-4.208461066830165,3.0,1.019203019203019,981.1587889348727,-0.14404754967659159,0.480041955596994,0.027620768020511614,1202.197802197802,-1.0,65.8234289731829,1.0204028202015252,
2023-08-17 19:40:52.918000,-8.674698795180724,-0.674698795180723,-4.55421686746988,-0.6131207847946045,-8.518087063151441,-4.2329858982219495,3.0,1.019203019203019,981.1587889348727,-0.2771400268049654,0.44169920167822413,0.3485810850183557,1200.7326007326008,-1.0,65.8234289731829,1.0203877210715298,
2023-08-17 19:40:52.926000,-8.698795180722891,-0.710843373493976,-4.518072289156627,-0.551808706315144,-8.589209074187615,-4.2158185162477,3.0,1.019203019203019,981.1587889348727,0.11164850533185655,0.14789347940096786,0.20791329176621406,1200.0,-1.0,65.8234289731829,1.0203726512489082,
2023-08-17 19:40:52.934000,-8.72289156626506,-0.6987951807228916,-4.506024096385542,-0.615573267933783,-8.660331085223788,-4.164316370324954,3.0,1.019203019203019,981.1587889348727,0.12738185420430073,-0.5075461802925234,0.2826175630790747,1200.0,-1.0,65.8234289731829,1.0203576122030382,
2023-08-17 19:40:52.941000,-8.710843373493976,-0.6867469879518072,-4.518072289156627,-0.6082158185162476,-8.584304107909258,-4.191293684855917,3.0,1.019203019203019,981.1587889348727,0.1139793718314785,-1.0345550958568848,0.3373929258201738,1200.7326007326008,-1.0,65.8234289731829,1.0203426055072238,
2023-08-17 19:40:52.949000,-8.698795180722891,-0.6867469879518072,-4.506024096385542,-0.645003065603924,-8.54996934396076,-4.2182709993868786,3.0,1.019203019203019,981.1587889348727,-0.0102558125983327,-1.100518617796165,0.19684167589301332,1202.197802197802,-1.0,65.8234289731829,1.0203276326864636,
2023-08-17 19:40:52.957000,-8.698795180722891,-0.674698795180723,-4.506024096385542,-0.598405885959534,-8.508277130594728,-4.206008583690987,3.0,1.019203019203019,981.1587889348727,0.43202610570479566,-0.5851640347299115,0.18075869704562667,1202.9304029304028,-1.0,65.8234289731829,1.020312695214893,
2023-08-17 19:40:52.964000,-8.66265060240964,-0.674698795180723,-4.518072289156627,-0.5542611894543225,-8.540159411404046,-4.2158185162477,3.0,1.019203019203019,981.1587889348727,0.016082978847386676,-0.4412330283782991,-0.09358428995979262,1206.5934065934066,-1.0,65.8234289731829,1.020297794513625,
2023-08-17 19:40:52.972000,-8.66265060240964,-0.6867469879518072,-4.506024096385542,-0.5959534028203556,-8.50091968117719,-4.2403433476394845,3.0,1.019203019203019,981.1587889348727,0.0924188567099821,0.09591515645941413,-0.33576131927043856,1216.8498168498168,-1.0,65.8234289731829,1.020282931949044,
2023-08-17 19:40:52.980000,-8.650602409638555,-0.674698795180723,-4.493975903614458,-0.6499080318822807,-8.503372164316369,-4.213366033108522,3.0,1.019203019203019,981.1587889348727,0.18623623331973596,0.03484645416933779,-0.5131402598916149,1237.3626373626373,-1.0,65.8234289731829,1.0202681088315613,
2023-08-17 19:40:52.987000,-8.66265060240964,-0.6867469879518072,-4.506024096385542,-0.6351931330472103,-8.537706928264868,-4.1667688534641325,3.0,1.019203019203019,981.1587889348727,-0.3933337218110833,0.2292407202377479,-0.036011887419147896,1270.3296703296703,-1.0,65.8234289731829,1.0202533264148808,
2023-08-17 19:40:52.995000,-8.674698795180724,-0.6987951807228916,-4.518072289156627,-0.6916002452483139,-8.513182096873084,-4.2158185162477,3.0,1.019203019203019,981.1587889348727,0.040440533768428356,0.04079016374337087,0.3627993706660451,1317.216117216117,-1.0,65.8234289731829,1.0202385858957854,
2023-08-17 19:40:53.002000,-8.72289156626506,-0.710843373493976,-4.457831325301205,-0.6253832004904966,-8.537706928264868,-4.152053954629062,3.0,1.019203019203019,981.1587889348727,0.1630441116485061,-0.39042013868655717,0.07167414486335284,1377.2893772893772,-1.0,65.8234289731829,1.0202238884144623,
2023-08-17 19:40:53.010000,-8.710843373493976,-0.710843373493976,-4.46987951807229,-0.657265481299816,-8.606376456161863,-4.171673819742489,3.0,1.019203019203019,981.1587889348727,0.4546355107511213,-0.4178078200571058,0.06911019171376967,1449.084249084249,-1.0,65.8234289731829,1.0202092350553924,
2023-08-17 19:40:53.018000,-8.698795180722891,-0.7228915662650602,-4.481927710843374,-0.6351931330472103,-8.53525444512569,-4.176578786020846,3.0,1.019203019203019,981.1587889348727,0.31152030767437816,-0.8981994056290423,0.4351727754792843,1533.3333333333333,-1.0,65.8234289731829,1.020194626848806,
2023-08-17 19:40:53.025000,-8.674698795180724,-0.7349397590361446,-4.493975903614458,-0.6621704475781729,-8.530349478847333,-4.1446965052115265,3.0,1.019203019203019,981.1587889348727,0.29532078550201063,-0.3983450847852697,0.18973253306916843,1621.245421245421,-1.0,65.8234289731829,1.0201800647727088,
2023-08-17 19:40:53.033000,-8.674698795180724,-0.7349397590361446,-4.481927710843374,-0.645003065603924,-8.446965052115265,-4.152053954629062,3.0,1.019203019203019,981.1587889348727,0.660917195967601,-0.2838995396538661,0.12936309072897842,1715.7509157509157,-1.0,65.8234289731829,1.0201655498942463,
2023-08-17 19:40:53.041000,-8.614457831325302,-0.7349397590361446,-4.506024096385542,-0.5763335377069282,-8.505824647455547,-4.152053954629062,3.0,1.0183150183150182,982.0143884892087,0.39717965153545787,0.27177903385583657,0.14824310937591037,1806.5934065934064,-1.0,65.8234289731829,1.0201510832137486,
2023-08-17 19:40:53.048000,-8.626506024096386,-0.7228915662650602,-4.518072289156627,-0.6499080318822807,-8.508277130594728,-4.169221336603311,3.0,1.0187590187590185,981.586402266289,0.10349047258318238,0.8385292232387395,-0.01794767204708353,1891.5750915750914,-1.0,65.8234289731829,1.0201366655197766,
2023-08-17 19:40:53.056000,-8.650602409638555,-0.710843373493976,-4.542168674698796,-0.6229307173513182,-8.491109748620477,-4.2035561005518085,3.0,1.0187590187590185,981.586402266289,0.3771341996387158,0.8588077617854433,0.38389371248761733,1969.230769230769,-1.0,65.8234289731829,1.020122297468556,
2023-08-17 19:40:53.064000,-8.698795180722891,-0.7228915662650602,-4.530120481927711,-0.6695278969957081,-8.576946658491723,-4.220723482526058,3.0,1.019203019203019,981.1587889348727,0.5099935901171262,0.8021677058446474,0.33809218577006006,2036.6300366300366,-1.0,65.8234289731829,1.0201079796090016,
2023-08-17 19:40:53.071000,-8.698795180722891,-0.746987951807229,-4.55421686746988,-0.6253832004904966,-8.606376456161863,-4.186388718577559,3.0,1.019203019203019,981.1587889348727,0.472466639473224,0.31804673387331717,0.3659460404405338,2093.7728937728934,-1.0,65.8234289731829,1.0200937125465672,
2023-08-17 19:40:53.079000,-8.734939759036145,-0.746987951807229,-4.518072289156627,-0.5935009196811771,-8.584304107909258,-4.15450643776824,3.0,1.019203019203019,981.1587889348727,0.5752578521065214,0.4193228832818602,0.572344268981994,2132.6007326007325,-1.0,65.8234289731829,1.020079496830507,
2023-08-17 19:40:53.087000,-8.72289156626506,-0.7228915662650602,-4.542168674698796,-0.6523605150214592,-8.638258736971183,-4.2182709993868786,3.0,1.019203019203019,981.1587889348727,0.8896917429054256,-0.4390187052036597,0.32014451372297653,2155.3113553113553,-1.0,65.8234289731829,1.0200653328414415,
2023-08-17 19:40:53.094000,-8.698795180722891,-0.6987951807228916,-4.493975903614458,-0.6351931330472103,-8.574494175352545,-4.1446965052115265,3.0,1.019203019203019,981.1587889348727,0.9723209603169983,-0.7399335703047609,0.20837946506613828,2161.172161172161,-1.0,65.8234289731829,1.020051220945593,
2023-08-17 19:40:53.102000,-8.698795180722891,-0.6867469879518072,-4.518072289156627,-0.6106683016554261,-8.542611894543224,-4.15450643776824,3.0,1.019203019203019,981.1587889348727,0.6851582075636619,-0.5965852805780544,-0.26804964745644194,2150.1831501831502,-1.0,65.8234289731829,1.0200371615001897,
2023-08-17 19:40:53.110000,-8.66265060240964,-0.6867469879518072,-4.518072289156627,-0.6204782342121398,-8.488657265481299,-4.193746167995095,3.0,1.019203019203019,981.1587889348727,0.34100576889458706,0.03333139094458345,0.024590641571004226,2121.6117216117214,-1.0,65.8234289731829,1.0200231548593253,
2023-08-17 19:40:53.117000,-8.66265060240964,-0.674698795180723,-4.55421686746988,-0.640098099325567,-8.483752299202942,-4.223175965665236,3.0,1.019203019203019,981.1587889348727,0.1074529456325395,0.5366820115377898,-0.05419264611619396,2079.8534798534797,-1.0,65.8234289731829,1.020009201518994,
2023-08-17 19:40:53.125000,-8.674698795180724,-0.674698795180723,-4.530120481927711,-0.5861434702636419,-8.503372164316369,-4.267320662170447,3.0,1.019203019203019,981.1587889348727,-0.06456500203950837,1.097488491346658,0.01864693199696985,2027.8388278388277,-1.0,65.8234289731829,1.0199953021033898,
2023-08-17 19:40:53.133000,-8.66265060240964,-0.6987951807228916,-4.530120481927711,-0.6474555487431024,-8.564684242795831,-4.2035561005518085,3.0,1.019203019203019,981.1587889348727,-0.06817784511392125,1.0861837888234942,0.014334828972670657,1970.6959706959706,-1.0,65.8234289731829,1.0199814572239565,
2023-08-17 19:40:53.140000,-8.698795180722891,-0.6987951807228916,-4.530120481927711,-0.6768853464132434,-8.522992029429798,-4.171673819742489,3.0,1.019203019203019,981.1587889348727,0.1313443272536561,0.7855020103723565,0.5615057397587553,1912.087912087912,-1.0,65.8234289731829,1.0199676674878553,
2023-08-17 19:40:53.148000,-8.710843373493976,-0.710843373493976,-4.506024096385542,-0.6253832004904966,-8.594114040465971,-4.230533415082771,3.0,1.019203019203019,981.1587889348727,0.03985781714352244,0.27259483713070415,0.5099935901171262,1852.7472527472526,-1.0,65.8234289731829,1.0199539335065173,
2023-08-17 19:40:53.156000,-8.72289156626506,-0.7349397590361446,-4.518072289156627,-0.6523605150214592,-8.586756591048436,-4.257510729613734,3.0,1.019203019203019,981.1587889348727,0.25266592855894116,0.1480100227259487,0.4436804382029019,1790.4761904761904,-1.0,65.8234289731829,1.0199402559042392,
2023-08-17 19:40:53.163000,-8.698795180722891,-0.6987951807228916,-4.530120481927711,-0.645003065603924,-8.53525444512569,-4.235438381361128,3.0,1.019203019203019,981.1587889348727,0.32538896334712375,-0.8283899539653858,0.11945690810558822,1726.7399267399267,-1.0,65.8234289731829,1.019926635326778,
2023-08-17 19:40:53.171000,-8.686746987951807,-0.6987951807228916,-4.518072289156627,-0.615573267933783,-8.503372164316369,-4.098099325567136,3.0,1.019203019203019,981.1587889348727,0.3674611036652873,-0.2700308839811205,0.05524153604102323,1665.9340659340658,-1.0,65.8234289731829,1.019913072449894,
2023-08-17 19:40:53.179000,-8.66265060240964,-0.6867469879518072,-4.493975903614458,-0.6033108522378908,-8.542611894543224,-4.186388718577559,3.0,1.019203019203019,981.1587889348727,0.44030068177845066,-0.21735330108968004,-0.4618611968999475,1611.7216117216117,-1.0,65.8234289731829,1.0198995679878073,
2023-08-17 19:40:53.186000,-8.674698795180724,-0.674698795180723,-4.481927710843374,-0.5787860208461066,-8.518087063151441,-4.176578786020846,3.0,1.019203019203019,981.1587889348727,0.37655148301380986,-0.012936309072897147,0.030650894470019438,1563.3699633699632,-1.0,65.8234289731829,1.01988612270152,
2023-08-17 19:40:53.194000,-8.66265060240964,-0.6626506024096386,-4.481927710843374,-0.6057633353770693,-8.518087063151441,-4.15450643776824,3.0,1.0183150183150182,982.0143884892087,0.20709748849134735,-0.3348289726705906,-0.04626770001748146,1519.4139194139193,-1.0,65.8234289731829,1.0198727374069514,
2023-08-17 19:40:53.202000,-8.650602409638555,-0.674698795180723,-4.493975903614458,-0.522378908645003,-8.537706928264868,-4.191293684855917,3.0,1.0187590187590185,981.586402266289,0.2544140784336572,-0.5630208029835092,-0.001981236524678125,1482.051282051282,-1.0,65.8234289731829,1.0198594129617629,
2023-08-17 19:40:53.209000,-8.66265060240964,-0.674698795180723,-4.481927710843374,-0.6180257510729613,-8.508277130594728,-4.188841201716738,3.0,1.0187590187590185,981.586402266289,0.39065322533651886,0.052211409591515406,-0.4618611968999475,1445.4212454212454,-1.0,65.8234289731829,1.01984615019903,
2023-08-17 19:40:53.217000,-8.650602409638555,-0.674698795180723,-4.445783132530121,-0.615573267933783,-8.557326793378294,-4.176578786020846,3.0,1.0187590187590185,981.586402266289,0.18880018646931956,0.9247712837247251,-0.04731658994231116,1409.5238095238094,-1.0,65.8234289731829,1.0198329499549663,
2023-08-17 19:40:53.225000,-8.674698795180724,-0.6987951807228916,-4.493975903614458,-0.6008583690987124,-8.552421827099938,-4.171673819742489,3.0,1.019203019203019,981.1587889348727,0.5232795291649677,0.8584581318105007,-0.15348755900005842,1375.091575091575,-1.0,65.8234289731829,1.0198198129465341,
2023-08-17 19:40:53.232000,-8.686746987951807,-0.6867469879518072,-4.506024096385542,-0.6376456161863887,-8.542611894543224,-4.171673819742489,3.0,1.019203019203019,981.1587889348727,0.3372763824951933,0.9463317988462215,-0.09276848668492503,1343.5897435897434,-1.0,65.8234289731829,1.019806739946174,
2023-08-17 19:40:53.240000,-8.686746987951807,-0.6867469879518072,-4.518072289156627,-0.5910484365419988,-8.54996934396076,-4.176578786020846,3.0,1.0187590187590185,981.586402266289,0.5627877163335475,0.44030068177845066,0.1499912592506264,1316.4835164835165,-1.0,65.8234289731829,1.019793731955951,
2023-08-17 19:40:53.248000,-8.698795180722891,-0.674698795180723,-4.493975903614458,-0.5885959534028203,-8.493562231759656,-4.220723482526058,3.0,1.0187590187590185,981.586402266289,0.5439076976866156,0.19952217236757736,0.1659576947730318,1289.3772893772893,-1.0,65.8234289731829,1.0197807899235647,
2023-08-17 19:40:53.255000,-8.686746987951807,-0.6987951807228916,-4.506024096385542,-0.5738810545677498,-8.576946658491723,-4.252605763335377,3.0,1.019203019203019,981.1587889348727,0.3731717265893604,0.21921799428937688,0.04253831361808732,1264.4688644688645,-1.0,65.8234289731829,1.0197679147241057,
2023-08-17 19:40:53.263000,-8.698795180722891,-0.710843373493976,-4.518072289156627,-0.6351931330472103,-8.59656652360515,-4.156958920907418,3.0,1.019203019203019,981.1587889348727,0.678049064739817,0.7085834158848552,-0.1545364489248877,1242.4908424908424,-1.0,65.8234289731829,1.0197551074495985,
2023-08-17 19:40:53.271000,-8.686746987951807,-0.710843373493976,-4.530120481927711,-0.6180257510729613,-8.525444512568976,-4.183936235438381,3.0,1.0187590187590185,981.586402266289,0.7667385350504053,0.3518442981178257,-0.019579278596818277,1224.9084249084249,-1.0,65.8234289731829,1.0197423695704864,
2023-08-17 19:40:53.278000,-8.686746987951807,-0.6867469879518072,-4.506024096385542,-0.6817903126916002,-8.518087063151441,-4.176578786020846,3.0,1.019203019203019,981.1587889348727,0.4861022084960079,0.20709748849134735,-0.06631315191422396,1215.3846153846152,-1.0,65.8234289731829,1.019729702490366,
2023-08-17 19:40:53.286000,-8.686746987951807,-0.674698795180723,-4.493975903614458,-0.6302881667688535,-8.530349478847333,-4.193746167995095,3.0,1.019203019203019,981.1587889348727,0.7421478934794002,-0.07295612143814421,-0.2523162985839987,1212.4542124542124,-1.0,65.8234289731829,1.019717107547239,
2023-08-17 19:40:53.294000,-8.686746987951807,-0.710843373493976,-4.518072289156627,-0.645003065603924,-8.525444512568976,-4.2256284488044145,3.0,1.0187590187590185,981.586402266289,0.42806363265544023,0.2483538255346433,-0.06771167181399702,1217.5824175824175,-1.0,65.8234289731829,1.0197045864612784,
2023-08-17 19:40:53.301000,-8.650602409638555,-0.710843373493976,-4.530120481927711,-0.6523605150214592,-8.559779276517473,-4.252605763335377,3.0,1.019203019203019,981.1587889348727,0.3907697686614997,0.17318338092185798,-0.3441524386690753,1230.03663003663,-1.0,65.8234289731829,1.019692140887802,
2023-08-17 19:40:53.309000,-8.66265060240964,-0.7228915662650602,-4.542168674698796,-0.6597179644389944,-8.537706928264868,-4.223175965665236,3.0,1.0187590187590185,981.586402266289,0.26210593788240805,0.8161529048423755,-0.46582366994930374,1249.084249084249,-1.0,65.8234289731829,1.019679772416763,
2023-08-17 19:40:53.317000,-8.686746987951807,-0.7228915662650602,-4.530120481927711,-0.6916002452483139,-8.50091968117719,-4.2158185162477,3.0,1.019203019203019,981.1587889348727,0.12178777460521016,0.9535574849950472,0.2838995396538661,1271.062271062271,-1.0,65.8234289731829,1.019667482730735,
2023-08-17 19:40:53.324000,-8.674698795180724,-0.7228915662650602,-4.542168674698796,-0.6621704475781729,-8.50091968117719,-4.161863887185775,3.0,1.0187590187590185,981.586402266289,0.07283957811316338,0.952508595070218,0.4509061243517276,1295.2380952380952,-1.0,65.8234289731829,1.0196552737307496,
2023-08-17 19:40:53.332000,-8.710843373493976,-0.746987951807229,-4.542168674698796,-0.7259350091968118,-8.532801961986511,-4.193746167995095,3.0,1.0187590187590185,981.586402266289,0.025173358195909275,0.504865683817959,0.2973020220266883,1317.216117216117,-1.0,65.8234289731829,1.0196431475235646,
2023-08-17 19:40:53.340000,-8.710843373493976,-0.7349397590361446,-4.530120481927711,-0.6866952789699571,-8.562231759656651,-4.282035561005518,3.0,1.0187590187590185,981.586402266289,0.25266592855894116,0.36291591399102596,-0.16024707184895995,1339.194139194139,-1.0,65.8234289731829,1.019631106110459,
2023-08-17 19:40:53.347000,-8.72289156626506,-0.7228915662650602,-4.518072289156627,-0.6548129981606376,-8.562231759656651,-4.267320662170447,3.0,1.0187590187590185,981.586402266289,0.28168521647922673,0.13985198997727452,-0.082745760736554,1358.974358974359,-1.0,65.8234289731829,1.01961915152243,
2023-08-17 19:40:53.355000,-8.698795180722891,-0.7590361445783133,-4.518072289156627,-0.6719803801348866,-8.56713672593501,-4.230533415082771,3.0,1.0187590187590185,981.586402266289,0.3097721577996621,-0.018996561971912792,0.2487034555095858,1375.091575091575,-1.0,65.8234289731829,1.019607285954649,
2023-08-17 19:40:53.363000,-8.686746987951807,-0.7590361445783133,-4.55421686746988,-0.6425505824647455,-8.613733905579398,-4.237890864500306,3.0,1.0187590187590185,981.586402266289,0.32154303362274916,-0.3735213565643029,-0.12225394790513394,1385.3479853479853,-1.0,65.8234289731829,1.0195955117410787,
2023-08-17 19:40:53.370000,-8.63855421686747,-0.7349397590361446,-4.542168674698796,-0.6180257510729613,-8.496014714898834,-4.2256284488044145,3.0,1.019203019203019,981.1587889348727,0.04428646349280291,0.02587261814579603,-0.3079074645999648,1392.6739926739926,-1.0,65.8234289731829,1.0195838310620486,
2023-08-17 19:40:53.378000,-8.626506024096386,-0.7228915662650602,-4.518072289156627,-0.6891477621091354,-8.45677498467198,-4.213366033108522,3.0,1.019203019203019,981.1587889348727,0.2561622283083732,-0.07750131111240552,-0.2772565701299458,1396.3369963369962,-1.0,65.8234289731829,1.019572246108719,
2023-08-17 19:40:53.385000,-8.602409638554217,-0.7349397590361446,-4.542168674698796,-0.6916002452483139,-8.493562231759656,-4.2403433476394845,3.0,1.019203019203019,981.1587889348727,-0.054192646116193094,0.21816910436454764,-0.1243517277547929,1394.139194139194,-1.0,65.8234289731829,1.0195607592469569,
2023-08-17 19:40:53.393000,-8.614457831325302,-0.7349397590361446,-4.566265060240964,-0.6768853464132434,-8.493562231759656,-4.245248313917841,3.0,1.0187590187590185,981.586402266289,0.13903618670240694,0.328186003146669,0.07761785443738722,1387.5457875457876,-1.0,65.8234289731829,1.0195493728724416,
2023-08-17 19:40:53.401000,-8.614457831325302,-0.7228915662650602,-4.55421686746988,-0.6253832004904966,-8.552421827099938,-4.291845493562231,3.0,1.019203019203019,981.1587889348727,-0.0621175922149056,0.6200104888992476,0.11036652875706562,1378.021978021978,-1.0,65.8234289731829,1.0195380892549428,
2023-08-17 19:40:53.408000,-8.650602409638555,-0.6987951807228916,-4.578313253012048,-0.627835683629675,-8.464132434089516,-4.198651134273452,3.0,1.019203019203019,981.1587889348727,-0.0632830254647157,0.6162811024998539,0.11258085193170542,1367.032967032967,-1.0,65.8234289731829,1.0195269106590696,
2023-08-17 19:40:53.416000,-8.66265060240964,-0.7228915662650602,-4.578313253012048,-0.657265481299816,-8.476394849785407,-4.257510729613734,3.0,1.0187590187590185,981.586402266289,0.02925237457024723,0.5608064798088681,0.14299865975176274,1357.5091575091574,-1.0,65.8234289731829,1.0195158394963584,
2023-08-17 19:40:53.424000,-8.698795180722891,-0.710843373493976,-4.578313253012048,-0.6670754138565297,-8.52053954629062,-4.286940527283875,3.0,1.0187590187590185,981.586402266289,0.10593788240778515,0.5367985548627707,0.2819183031291884,1347.985347985348,-1.0,65.8234289731829,1.0195048780300664,
2023-08-17 19:40:53.431000,-8.734939759036145,-0.746987951807229,-4.530120481927711,-0.6131207847946045,-8.559779276517473,-4.213366033108522,3.0,1.019203019203019,981.1587889348727,-0.0033797564244512,-0.23728220966144126,0.5070800069925997,1336.9963369963368,-1.0,65.8234289731829,1.0194940283460785,
2023-08-17 19:40:53.439000,-8.710843373493976,-0.710843373493976,-4.566265060240964,-0.615573267933783,-8.545064377682403,-4.242795830778663,3.0,1.0187590187590185,981.586402266289,-0.003263213099470364,0.022026688421421484,0.3506788648680147,1328.937728937729,-1.0,65.8234289731829,1.0194832926320274,
2023-08-17 19:40:53.447000,-8.650602409638555,-0.6987951807228916,-4.55421686746988,-0.6474555487431024,-8.52053954629062,-4.223175965665236,3.0,1.0187590187590185,981.586402266289,0.45335353417633034,-0.8332847736145914,0.2098945282908922,1322.3443223443223,-1.0,65.8234289731829,1.0194726730408312,
2023-08-17 19:40:53.454000,-8.686746987951807,-0.710843373493976,-4.55421686746988,-0.6106683016554261,-8.594114040465971,-4.2182709993868786,3.0,1.0187590187590185,981.586402266289,0.15931472524911067,-0.6589359594429234,-0.20698094516636564,1315.018315018315,-1.0,65.8234289731829,1.019462171522635,
2023-08-17 19:40:53.462000,-8.686746987951807,-0.710843373493976,-4.530120481927711,-0.615573267933783,-8.478847332924586,-4.250153280196199,3.0,1.0187590187590185,981.586402266289,0.2498688887593959,-0.6504282967193049,-0.02319212167123115,1309.1575091575091,-1.0,65.8234289731829,1.019451789954623,
2023-08-17 19:40:53.470000,-8.650602409638555,-0.6867469879518072,-4.542168674698796,-0.6057633353770693,-8.491109748620477,-4.223175965665236,3.0,1.0187590187590185,981.586402266289,0.10920109550725551,-0.7638249519258793,0.14404754967659245,1301.098901098901,-1.0,65.8234289731829,1.0194415301321313,
2023-08-17 19:40:53.477000,-8.63855421686747,-0.674698795180723,-4.530120481927711,-0.6106683016554261,-8.496014714898834,-4.2256284488044145,3.0,1.0187590187590185,981.586402266289,0.15080706252549397,-0.17737894062117676,-0.34648330516869635,1289.3772893772893,-1.0,65.8234289731829,1.0194313937598796,
2023-08-17 19:40:53.485000,-8.650602409638555,-0.6867469879518072,-4.542168674698796,-0.640098099325567,-8.493562231759656,-4.208461066830165,3.0,1.0187590187590185,981.586402266289,-0.06736204183905366,0.25336518850882794,-0.06666278188916733,1275.4578754578754,-1.0,65.8234289731829,1.0194213824433775,
2023-08-17 19:40:53.493000,-8.66265060240964,-0.7228915662650602,-4.542168674698796,-0.5640711220110362,-8.496014714898834,-4.208461066830165,3.0,1.0187590187590185,981.586402266289,-0.265136064331915,0.35825418099178385,0.43901870520365927,1263.003663003663,-1.0,65.8234289731829,1.0194114976805708,
2023-08-17 19:40:53.500000,-8.66265060240964,-0.6867469879518072,-4.530120481927711,-0.6131207847946045,-8.530349478847333,-4.208461066830165,3.0,1.0178710178710177,982.4427480916032,0.14929199930073964,0.21618786783986993,0.2693316240312338,1249.8168498168498,-1.0,65.8234289731829,1.0194017408537903,
2023-08-17 19:40:53.508000,-8.674698795180724,-0.6987951807228916,-4.518072289156627,-0.6033108522378908,-8.53525444512569,-4.206008583690987,3.0,1.0183150183150182,982.0143884892087,0.19590932929316449,0.22702639706310856,0.2204999708641687,1235.164835164835,-1.0,65.8234289731829,1.0193921132009631,
2023-08-17 19:40:53.516000,-8.686746987951807,-0.6987951807228916,-4.530120481927711,-0.598405885959534,-8.564684242795831,-4.1961986511342735,3.0,1.0187590187590185,981.586402266289,0.055824252665928276,0.05733931589068263,0.26525260765689623,1222.7106227106226,-1.0,65.8234289731829,1.0193826157343693,
2023-08-17 19:40:53.523000,-8.698795180722891,-0.6867469879518072,-4.518072289156627,-0.6033108522378908,-8.530349478847333,-4.188841201716738,3.0,1.0187590187590185,981.586402266289,0.6040440533768435,-0.5385467047374867,0.3516112114678631,1213.1868131868132,-1.0,65.8234289731829,1.019373249403512,
2023-08-17 19:40:53.531000,-8.698795180722891,-0.6987951807228916,-4.518072289156627,-0.5910484365419988,-8.574494175352545,-4.2256284488044145,3.0,1.0187590187590185,981.586402266289,0.7049705728104423,-0.7190723151331513,0.2687489074063283,1205.8608058608058,-1.0,65.8234289731829,1.0193640151200938,
2023-08-17 19:40:53.539000,-8.710843373493976,-0.674698795180723,-4.542168674698796,-0.6082158185162476,-8.508277130594728,-4.188841201716738,3.0,1.0187590187590185,981.586402266289,0.7596293922265605,-0.6668609055416359,0.24951925878445297,1201.4652014652013,-1.0,65.8234289731829,1.0193549134749658,
2023-08-17 19:40:53.546000,-8.686746987951807,-0.6867469879518072,-4.518072289156627,-0.5738810545677498,-8.559779276517473,-4.208461066830165,3.0,1.0187590187590185,981.586402266289,0.32422353009731364,-0.814754384942602,-0.013052852397878852,1195.6043956043954,-1.0,65.8234289731829,1.0193459447534015,
2023-08-17 19:40:53.554000,-8.686746987951807,-0.6867469879518072,-4.493975903614458,-0.5861434702636419,-8.493562231759656,-4.186388718577559,3.0,1.0187590187590185,981.586402266289,0.8071790688188337,-0.3504457782180522,0.12295320785502026,1194.1391941391942,-1.0,65.8234289731829,1.0193371090784904,
2023-08-17 19:40:53.562000,-8.686746987951807,-0.674698795180723,-4.493975903614458,-0.6180257510729613,-8.522992029429798,-4.1446965052115265,3.0,1.019203019203019,981.1587889348727,0.5987996037526955,-0.2234135539886957,-0.18402191014509658,1193.4065934065934,-1.0,65.8234289731829,1.0193284064059958,
2023-08-17 19:40:53.569000,-8.63855421686747,-0.6867469879518072,-4.518072289156627,-0.615573267933783,-8.52053954629062,-4.1741263028816675,3.0,1.019203019203019,981.1587889348727,0.43890216187867886,0.11479517510634608,-0.014567915622632762,1193.4065934065934,-1.0,65.8234289731829,1.019319836808052,
2023-08-17 19:40:53.577000,-8.63855421686747,-0.6867469879518072,-4.493975903614458,-0.598405885959534,-8.508277130594728,-4.176578786020846,3.0,1.019203019203019,981.1587889348727,0.49181283142008103,0.384010255812599,-0.07318920808810676,1194.1391941391942,-1.0,65.8234289731829,1.0193114003324226,
2023-08-17 19:40:53.585000,-8.63855421686747,-0.7228915662650602,-4.493975903614458,-0.5861434702636419,-8.508277130594728,-4.208461066830165,3.0,1.019203019203019,981.1587889348727,0.6358603810966726,0.3915855719363673,0.05186177961657246,1194.8717948717947,-1.0,65.8234289731829,1.0193030967352121,
2023-08-17 19:40:53.592000,-8.650602409638555,-0.7228915662650602,-4.506024096385542,-0.6499080318822807,-8.496014714898834,-4.2403433476394845,3.0,1.0187590187590185,981.586402266289,0.6905192005127908,-0.13484062700308813,0.5409941145620886,1195.6043956043954,-1.0,65.8234289731829,1.0192949256301505,
2023-08-17 19:40:53.600000,-8.66265060240964,-0.7349397590361446,-4.55421686746988,-0.6474555487431024,-8.569589209074188,-4.223175965665236,3.0,1.0187590187590185,981.586402266289,0.6082396130761606,0.35032923489307133,1.0699842666511277,1196.3369963369962,-1.0,65.8234289731829,1.0192868864791567,
2023-08-17 19:40:53.608000,-8.698795180722891,-0.7590361445783133,-4.518072289156627,-0.6302881667688535,-8.572041692213366,-4.20110361741263,3.0,1.019203019203019,981.1587889348727,0.936075986247887,-0.10943418215721719,1.1335003787658062,1199.2673992673992,-1.0,65.8234289731829,1.019278978552324,
2023-08-17 19:40:53.615000,-8.72289156626506,-0.7590361445783133,-4.518072289156627,-0.6695278969957081,-8.496014714898834,-4.220723482526058,3.0,1.0187590187590185,981.586402266289,0.8969174290542514,-0.5052153137929033,0.6324806246722219,1203.6630036630036,-1.0,65.8234289731829,1.0192712010696676,
2023-08-17 19:40:53.623000,-8.710843373493976,-0.746987951807229,-4.530120481927711,-0.6817903126916002,-8.53525444512569,-4.228080931943593,3.0,1.0187590187590185,981.586402266289,1.0265136064331915,-0.014801002272594002,0.38331099586271183,1211.7216117216117,-1.0,65.8234289731829,1.0192635530774454,
2023-08-17 19:40:53.631000,-8.674698795180724,-0.7349397590361446,-4.518072289156627,-0.6302881667688535,-8.547516860821581,-4.255058246474555,3.0,1.0187590187590185,981.586402266289,0.832352427014743,-0.11036652875706562,-0.08029835091195167,1219.7802197802198,-1.0,65.8234289731829,1.0192560332937166,
2023-08-17 19:40:53.638000,-8.63855421686747,-0.7228915662650602,-4.566265060240964,-0.6302881667688535,-8.513182096873084,-4.1667688534641325,3.0,1.0187590187590185,981.586402266289,0.6864401841384529,-0.0023308664996219363,0.05512499271604239,1228.5714285714284,-1.0,65.8234289731829,1.0192486402524938,
2023-08-17 19:40:53.646000,-8.63855421686747,-0.7228915662650602,-4.566265060240964,-0.6033108522378908,-8.491109748620477,-4.223175965665236,3.0,1.019203019203019,981.1587889348727,0.7385350504049873,-0.24742147893479485,0.2847153429287337,1236.6300366300366,-1.0,65.8234289731829,1.0192413723098765,
2023-08-17 19:40:53.654000,-8.66265060240964,-0.6987951807228916,-4.566265060240964,-0.645003065603924,-8.542611894543224,-4.24770079705702,3.0,1.0183150183150182,982.0143884892087,0.8678981411339658,-0.2919410290775594,0.5886603344793427,1242.4908424908424,-1.0,65.8234289731829,1.0192342278001603,
2023-08-17 19:40:53.661000,-8.674698795180724,-0.7228915662650602,-4.55421686746988,-0.6817903126916002,-8.557326793378294,-4.208461066830165,3.0,1.0183150183150182,982.0143884892087,0.6752520249402717,-0.5488025173358194,0.5830662548802518,1249.084249084249,-1.0,65.8234289731829,1.0192272050441236,
2023-08-17 19:40:53.669000,-8.686746987951807,-0.7228915662650602,-4.566265060240964,-0.6229307173513182,-8.532801961986511,-4.2035561005518085,3.0,1.0187590187590185,981.586402266289,0.19462735271837353,-0.500087407493736,0.5918070042538314,1252.014652014652,-1.0,65.8234289731829,1.019220301996842,
2023-08-17 19:40:53.677000,-8.686746987951807,-0.710843373493976,-4.542168674698796,-0.615573267933783,-8.562231759656651,-4.24770079705702,3.0,1.0187590187590185,981.586402266289,0.35860381096672633,-0.4329584523046441,0.08029835091195167,1254.9450549450548,-1.0,65.8234289731829,1.0192135164061287,
2023-08-17 19:40:53.684000,-8.686746987951807,-0.7228915662650602,-4.518072289156627,-0.6646229307173512,-8.601471489883506,-4.282035561005518,3.0,1.019203019203019,981.1587889348727,0.3547578812423518,-0.42887943593030786,0.07773439776236805,1255.6776556776556,-1.0,65.8234289731829,1.0192068458535,
2023-08-17 19:40:53.692000,-8.674698795180724,-0.7349397590361446,-4.566265060240964,-0.6621704475781729,-8.505824647455547,-4.220723482526058,3.0,1.0187590187590185,981.586402266289,0.06071907231513382,-0.4407668550783757,-0.14952508595070219,1254.212454212454,-1.0,65.8234289731829,1.0192002877954938,
2023-08-17 19:40:53.700000,-8.66265060240964,-0.7349397590361446,-4.518072289156627,-0.645003065603924,-8.496014714898834,-4.164316370324954,3.0,1.0187590187590185,981.586402266289,0.27329409708058916,-0.37958160946331854,0.11304702523163007,1249.8168498168498,-1.0,65.8234289731829,1.0191938395949507,
2023-08-17 19:40:53.707000,-8.626506024096386,-0.7349397590361446,-4.530120481927711,-0.5935009196811771,-8.498467198038012,-4.306560392397302,3.0,1.019203019203019,981.1587889348727,-0.12586679097954637,-0.835848726764175,-0.05512499271604239,1248.3516483516482,-1.0,65.8234289731829,1.0191874985107212,
2023-08-17 19:40:53.715000,-8.63855421686747,-0.7590361445783133,-4.566265060240964,-0.6916002452483139,-8.451870018393624,-4.206008583690987,3.0,1.0187590187590185,981.586402266289,-0.09440009323465978,-0.5701299458073541,0.2200337975642445,1248.3516483516482,-1.0,65.8234289731829,1.0191812618370932,
2023-08-17 19:40:53.723000,-8.66265060240964,-0.7710843373493976,-4.55421686746988,-0.657265481299816,-8.532801961986511,-4.213366033108522,3.0,1.0187590187590185,981.586402266289,0.2563953149583349,-0.23110541343744478,0.3225919235475789,1250.5494505494505,-1.0,65.8234289731829,1.0191751267984257,
2023-08-17 19:40:53.730000,-8.698795180722891,-0.7590361445783133,-4.518072289156627,-0.7161250766400981,-8.545064377682403,-4.24770079705702,3.0,1.0187590187590185,981.586402266289,0.2825010197540943,-0.35289318804265496,0.5314375619136411,1253.4798534798533,-1.0,65.8234289731829,1.0191690905301993,
2023-08-17 19:40:53.738000,-8.710843373493976,-0.7590361445783133,-4.530120481927711,-0.6695278969957081,-8.530349478847333,-4.20110361741263,3.0,1.0187590187590185,981.586402266289,0.0632830254647157,-0.6716391818658588,0.4027737311345493,1254.9450549450548,-1.0,65.8234289731829,1.0191631500813316,
2023-08-17 19:40:53.746000,-8.686746987951807,-0.746987951807229,-4.493975903614458,-0.6474555487431024,-8.522992029429798,-4.230533415082771,3.0,1.0187590187590185,981.586402266289,0.19789056581784217,-0.7430802400792487,0.5060311170677699,1258.6080586080586,-1.0,65.8234289731829,1.0191573024271015,
2023-08-17 19:40:53.753000,-8.710843373493976,-0.746987951807229,-4.518072289156627,-0.615573267933783,-8.50091968117719,-4.1961986511342735,3.0,1.0187590187590185,981.586402266289,0.16211176504865768,-0.8726764174581906,-0.015616805547462026,1259.3406593406592,-1.0,65.8234289731829,1.0191515444820662,
2023-08-17 19:40:53.761000,-8.710843373493976,-0.7349397590361446,-4.506024096385542,-0.6768853464132434,-8.542611894543224,-4.1667688534641325,3.0,1.019203019203019,981.1587889348727,0.050929433016724465,-0.6497290367694182,-0.10675368568265231,1258.6080586080586,-1.0,65.8234289731829,1.0191458731129517,
2023-08-17 19:40:53.768000,-8.674698795180724,-0.7349397590361446,-4.506024096385542,-0.5763335377069282,-8.532801961986511,-4.171673819742489,3.0,1.0187590187590185,981.586402266289,0.0621175922149056,-0.6116193695006118,0.13798729677757723,1257.8754578754579,-1.0,65.8234289731829,1.0191402853007276,
2023-08-17 19:40:53.776000,-8.686746987951807,-0.710843373493976,-4.493975903614458,-0.6376456161863887,-8.527896995708154,-4.129981606376456,3.0,1.0187590187590185,981.586402266289,-0.016898782122254267,-0.8187168579919591,-0.04626770001748146,1258.6080586080586,-1.0,65.8234289731829,1.019134777887087,
2023-08-17 19:40:53.784000,-8.650602409638555,-0.6987951807228916,-4.493975903614458,-0.6204782342121398,-8.530349478847333,-4.188841201716738,3.0,1.0187590187590185,981.586402266289,-0.15581842549968036,-0.08099761086183756,-0.10663714235767126,1257.8754578754579,-1.0,65.8234289731829,1.0191293475871008,
2023-08-17 19:40:53.791000,-8.698795180722891,-0.6987951807228916,-4.481927710843374,-0.6033108522378908,-8.584304107909258,-4.129981606376456,3.0,1.0187590187590185,981.586402266289,-0.3693257968649841,-0.004079016374337954,8.15803274867157E-4,1257.8754578754579,-1.0,65.8234289731829,1.0191239912679915,
2023-08-17 19:40:53.799000,-8.686746987951807,-0.6867469879518072,-4.481927710843374,-0.6057633353770693,-8.513182096873084,-4.176578786020846,3.0,1.0187590187590185,981.586402266289,-0.14055124992716128,0.04242177029310605,0.1654915214731078,1254.9450549450548,-1.0,65.8234289731829,1.019118705812164,
2023-08-17 19:40:53.807000,-8.686746987951807,-0.710843373493976,-4.481927710843374,-0.5885959534028203,-8.522992029429798,-4.186388718577559,3.0,1.0183150183150182,982.0143884892087,-0.21851873433949015,-0.39997669133500313,0.08496008391119424,1252.7472527472526,-1.0,65.8234289731829,1.0191134881292057,
2023-08-17 19:40:53.814000,-8.698795180722891,-0.6987951807228916,-4.506024096385542,-0.6253832004904966,-8.56713672593501,-4.1446965052115265,3.0,1.0187590187590185,981.586402266289,-0.15873200862420647,-0.382961365887768,0.3883223588368976,1250.5494505494505,-1.0,65.8234289731829,1.0191083351569612,
2023-08-17 19:40:53.822000,-8.710843373493976,-0.710843373493976,-4.518072289156627,-0.6425505824647455,-8.53525444512569,-4.1741263028816675,3.0,1.0187590187590185,981.586402266289,0.09824602295903433,-0.564885496183206,0.41454460695763656,1247.6190476190475,-1.0,65.8234289731829,1.019103243841032,
2023-08-17 19:40:53.830000,-8.72289156626506,-0.7349397590361446,-4.518072289156627,-0.657265481299816,-8.572041692213366,-4.1961986511342735,3.0,1.0187590187590185,981.586402266289,0.03449682419439355,-0.6533418798438311,0.4562671173008565,1243.2234432234432,-1.0,65.8234289731829,1.0190982111768518,
2023-08-17 19:40:53.837000,-8.72289156626506,-0.710843373493976,-4.530120481927711,-0.6474555487431024,-8.584304107909258,-4.208461066830165,3.0,1.0187590187590185,981.586402266289,0.03251558766971586,-0.6633646057922038,0.25126740865916875,1237.3626373626373,-1.0,65.8234289731829,1.019093234230114,
2023-08-17 19:40:53.845000,-8.698795180722891,-0.710843373493976,-4.506024096385542,-0.6204782342121398,-8.591661557326793,-4.188841201716738,3.0,1.019203019203019,981.1587889348727,0.08868947031058838,-0.4743313326729208,-0.07400501136297413,1230.7692307692307,-1.0,65.8234289731829,1.0190883101461274,
2023-08-17 19:40:53.853000,-8.686746987951807,-0.710843373493976,-4.493975903614458,-0.6131207847946045,-8.542611894543224,-4.2158185162477,3.0,1.0187590187590185,981.586402266289,0.1443971796515358,-0.2863469494784689,-0.5939047841034903,1226.3736263736264,-1.0,65.8234289731829,1.0190834363079344,
2023-08-17 19:40:53.860000,-8.674698795180724,-0.6867469879518072,-4.493975903614458,-0.6253832004904966,-8.574494175352545,-4.090741876149601,3.0,1.0187590187590185,981.586402266289,0.013169395722860555,0.07027562496357977,-0.22434590058854367,1223.4432234432234,-1.0,65.8234289731829,1.0190786102171374,
2023-08-17 19:40:53.868000,-8.674698795180724,-0.6867469879518072,-4.506024096385542,-0.5787860208461066,-8.505824647455547,-4.152053954629062,3.0,1.0187590187590185,981.586402266289,-0.0102558125983327,0.24101159606083497,-0.25453062175863866,1224.9084249084249,-1.0,65.8234289731829,1.0190738293426245,
2023-08-17 19:40:53.876000,-8.63855421686747,-0.6867469879518072,-4.518072289156627,-0.5616186388718577,-8.569589209074188,-4.159411404046597,3.0,1.0187590187590185,981.586402266289,-0.15104014917545566,0.21094341821572188,-0.3283025464716509,1228.5714285714284,1057.06787109375,56.76078295513598,1.019069091266552,
2023-08-17 19:40:53.883000,-8.674698795180724,-0.710843373493976,-4.506024096385542,-0.6008583690987124,-8.606376456161863,-4.147148988350705,3.0,1.0187590187590185,981.586402266289,-0.1865858632946802,0.025289901520890112,0.28611386282850654,1233.6996336996335,-1.0,56.76078295513598,1.0190643936909511,
2023-08-17 19:40:53.891000,-8.698795180722891,-0.6867469879518072,-4.518072289156627,-0.6253832004904966,-8.594114040465971,-4.186388718577559,3.0,1.0187590187590185,981.586402266289,0.28424916962881036,-0.2561622283083732,0.3132684575490937,1235.8974358974358,-1.0,56.76078295513598,1.0190597344436905,
2023-08-17 19:40:53.899000,-8.734939759036145,-0.674698795180723,-4.506024096385542,-0.645003065603924,-8.557326793378294,-4.1961986511342735,3.0,1.0187590187590185,981.586402266289,0.20313501544199022,-0.6712895518909145,0.1558184254996795,1235.8974358974358,-1.0,56.76078295513598,1.0190551114837734,
2023-08-17 19:40:53.906000,-8.698795180722891,-0.6867469879518072,-4.493975903614458,-0.6106683016554261,-8.586756591048436,-4.193746167995095,3.0,1.0187590187590185,981.586402266289,-0.04603461336751892,0.01713186877221594,0.12178777460520951,1233.6996336996335,-1.0,56.76078295513598,1.019050522905982,
2023-08-17 19:40:53.914000,-8.698795180722891,-0.710843373493976,-4.530120481927711,-0.6253832004904966,-8.621091354996935,-4.1667688534641325,3.0,1.0187590187590185,981.586402266289,-0.1721344909970287,-0.1818075869704555,-0.16945399452246382,1227.8388278388277,-1.0,56.76078295513598,1.019045966944841,
2023-08-17 19:40:53.922000,-8.72289156626506,-0.7228915662650602,-4.493975903614458,-0.6302881667688535,-8.584304107909258,-4.127529123237277,3.0,1.0187590187590185,981.586402266289,-0.20581551191655467,-0.2983509119515176,-0.06258376551483025,1226.3736263736264,-1.0,56.76078295513598,1.0190414419779188,
2023-08-17 19:40:53.929000,-8.710843373493976,-0.6987951807228916,-4.481927710843374,-0.6131207847946045,-8.613733905579398,-4.171673819742489,3.0,1.0187590187590185,981.586402266289,-0.11817493153079728,-0.33785909912009754,-0.3052269681254004,1222.7106227106226,-1.0,56.76078295513598,1.0190369465284568,
2023-08-17 19:40:53.937000,-8.698795180722891,-0.710843373493976,-4.493975903614458,-0.6008583690987124,-8.547516860821581,-4.188841201716738,3.0,1.0187590187590185,981.586402266289,-0.18099178369558963,-0.1960258726181453,-0.42491696288095115,1220.5128205128203,-1.0,56.76078295513598,1.0190324792673318,
2023-08-17 19:40:53.945000,-8.674698795180724,-0.710843373493976,-4.530120481927711,-0.627835683629675,-8.508277130594728,-4.2035561005518085,3.0,1.0187590187590185,981.586402266289,-0.3958976749606669,0.1687547345725775,-0.5736262455567855,1218.3150183150183,-1.0,56.76078295513598,1.0190280390143664,
2023-08-17 19:40:53.952000,-8.674698795180724,-0.7349397590361446,-4.518072289156627,-0.6768853464132434,-8.545064377682403,-4.132434089515634,3.0,1.0187590187590185,981.586402266289,-0.30394499155060817,0.3129188275741499,-0.11001689878212224,1216.8498168498168,-1.0,56.76078295513598,1.0190236247389888,
2023-08-17 19:40:53.960000,-8.66265060240964,-0.746987951807229,-4.518072289156627,-0.657265481299816,-8.545064377682403,-4.20110361741263,3.0,1.0183150183150182,982.0143884892087,-0.30522696812540084,0.3026630149758172,-0.10896800885729255,1214.6520146520145,-1.0,56.76078295513598,1.0190192356990104,
2023-08-17 19:40:53.968000,-8.686746987951807,-0.7228915662650602,-4.518072289156627,-0.6916002452483139,-8.466584917228694,-4.255058246474555,3.0,1.0183150183150182,982.0143884892087,-0.15045743255055147,0.06724549851407281,0.014101742322708333,1213.1868131868132,-1.0,56.76078295513598,1.0190148714091132,
2023-08-17 19:40:53.975000,-8.686746987951807,-0.7349397590361446,-4.530120481927711,-0.627835683629675,-8.572041692213366,-4.208461066830165,3.0,1.0187590187590185,981.586402266289,0.0,-0.08903910028553089,-0.0032632130994699297,1214.6520146520145,-1.0,56.76078295513598,1.0190105313106606,
2023-08-17 19:40:53.983000,-8.710843373493976,-0.7228915662650602,-4.518072289156627,-0.645003065603924,-8.572041692213366,-4.213366033108522,3.0,1.0187590187590185,981.586402266289,0.14987471592564555,-0.05687314259075754,0.14556261290134614,1216.8498168498168,-1.0,56.76078295513598,1.0190062149297783,
2023-08-17 19:40:53.991000,-8.698795180722891,-0.710843373493976,-4.530120481927711,-0.6057633353770693,-8.606376456161863,-4.1961986511342735,3.0,1.0187590187590185,981.586402266289,-0.1281976574791683,-0.4528873608764053,0.1086183788823496,1219.7802197802198,-1.0,56.76078295513598,1.0190019220450361,
2023-08-17 19:40:53.998000,-8.686746987951807,-0.6987951807228916,-4.530120481927711,-0.568976088289393,-8.488657265481299,-4.2035561005518085,3.0,1.0187590187590185,981.586402266289,0.27842200337975637,-0.17260066429695206,-0.10768603228250095,1220.5128205128203,-1.0,56.76078295513598,1.018997652407245,
2023-08-17 19:40:54.006000,-8.63855421686747,-0.6626506024096386,-4.506024096385542,-0.598405885959534,-8.493562231759656,-4.1741263028816675,3.0,1.0187590187590185,981.586402266289,0.07447118466289857,0.2263271371132218,-0.5178019928908573,1221.245421245421,-1.0,56.76078295513598,1.0189934058952195,
2023-08-17 19:40:54.014000,-8.66265060240964,-0.674698795180723,-4.433734939759036,-0.5444512568976088,-8.574494175352545,-4.1741263028816675,3.0,1.0187590187590185,981.586402266289,-0.6461161936950053,0.17621350737136493,-0.6521764465940214,1224.1758241758241,-1.0,56.76078295513598,1.018989182639385,
2023-08-17 19:40:54.021000,-8.674698795180724,-0.6626506024096386,-4.506024096385542,-0.5591661557326794,-8.53525444512569,-4.193746167995095,3.0,1.0187590187590185,981.586402266289,-0.3361109492453815,-0.4997377775187918,-0.2969523920517454,1227.8388278388277,-1.0,56.76078295513598,1.0189849828680917,
2023-08-17 19:40:54.029000,-8.686746987951807,-0.6626506024096386,-4.481927710843374,-0.6057633353770693,-8.557326793378294,-4.152053954629062,3.0,1.0187590187590185,981.586402266289,-0.014218285647689819,-0.4261989394557434,-0.6286346949478469,1232.2344322344322,-1.0,56.76078295513598,1.0189808067639452,
2023-08-17 19:40:54.037000,-8.734939759036145,-0.6626506024096386,-4.457831325301205,-0.5567136725935009,-8.542611894543224,-4.1667688534641325,3.0,1.0187590187590185,981.586402266289,-0.03076743779499984,-0.013635569022783902,-0.5321368218635277,1238.095238095238,-1.0,56.76078295513598,1.0189766544787653,
2023-08-17 19:40:54.044000,-8.734939759036145,-0.6626506024096386,-4.506024096385542,-0.615573267933783,-8.589209074187615,-4.132434089515634,3.0,1.0187590187590185,981.586402266289,-0.3650136938406845,0.4729328127731491,-0.7879494201969579,1246.153846153846,-1.0,56.76078295513598,1.0189725262757323,
2023-08-17 19:40:54.052000,-8.72289156626506,-0.7228915662650602,-4.481927710843374,-0.568976088289393,-8.572041692213366,-4.2182709993868786,3.0,1.0187590187590185,981.586402266289,-0.8208146378416177,0.2729444671056466,-0.6141833226501952,1254.212454212454,-1.0,56.76078295513598,1.0189684225220483,
2023-08-17 19:40:54.060000,-8.734939759036145,-0.7228915662650602,-4.433734939759036,-0.6842427958307786,-8.586756591048436,-4.156958920907418,3.0,1.0187590187590185,981.586402266289,-0.22189849076394133,-0.01281976574791631,-0.7483246897033972,1265.9340659340658,-1.0,56.76078295513598,1.0189643438202198,
2023-08-17 19:40:54.067000,-8.710843373493976,-0.7228915662650602,-4.481927710843374,-0.5935009196811771,-8.618638871857755,-4.169221336603311,3.0,1.0187590187590185,981.586402266289,-0.35825418099178385,-0.1434648330516874,-0.5730435289318805,1284.2490842490843,-1.0,56.76078295513598,1.0189602909801274,
2023-08-17 19:40:54.075000,-8.698795180722891,-0.7590361445783133,-4.506024096385542,-0.6646229307173512,-8.576946658491723,-4.169221336603311,3.0,1.0187590187590185,981.586402266289,-0.8283899539653858,0.1846046267700025,-0.6436687838704036,1315.018315018315,-1.0,56.76078295513598,1.018956264863468,
2023-08-17 19:40:54.083000,-8.674698795180724,-0.7590361445783133,-4.46987951807229,-0.6719803801348866,-8.56713672593501,-4.112814224402207,3.0,1.0187590187590185,981.586402266289,-0.6233902453236988,0.1554687955247361,-0.8356156401142125,1358.2417582417581,-1.0,56.76078295513598,1.0189522663773043,
2023-08-17 19:40:54.090000,-8.686746987951807,-0.7710843373493976,-4.481927710843374,-0.6597179644389944,-8.576946658491723,-4.161863887185775,3.0,1.0187590187590185,981.586402266289,-0.052677582891440485,0.3258551366470488,-0.5511333838354405,1414.6520146520145,-1.0,56.76078295513598,1.0189482964675043,
2023-08-17 19:40:54.098000,-8.66265060240964,-0.7710843373493976,-4.445783132530121,-0.7259350091968118,-8.45677498467198,-4.147148988350705,3.0,1.0187590187590185,981.586402266289,-0.4609288503000986,0.5037002505681489,-0.45381970747625455,1484.9816849816848,-1.0,56.76078295513598,1.0189443561120954,
2023-08-17 19:40:54.106000,-8.674698795180724,-0.7710843373493976,-4.457831325301205,-0.7553648068669527,-8.53525444512569,-4.142244022072348,3.0,1.0187590187590185,981.586402266289,-0.330983042946216,0.7083503292348935,-0.0679447584639587,1567.7655677655678,-1.0,56.76078295513598,1.0189404463145966,
2023-08-17 19:40:54.113000,-8.686746987951807,-0.7710843373493976,-4.433734939759036,-0.640098099325567,-8.594114040465971,-4.13979153893317,3.0,1.0178710178710177,982.4427480916032,0.33028378299632927,0.5918070042538314,-0.22294738068877104,1656.4102564102564,-1.0,56.76078295513598,1.018936568097373,
2023-08-17 19:40:54.121000,-8.686746987951807,-0.7710843373493976,-4.46987951807229,-0.640098099325567,-8.56713672593501,-4.122624156958921,3.0,1.0183150183150182,982.0143884892087,0.08321193403647865,0.2518501252840736,-0.6799137579395138,1748.7179487179485,-1.0,56.76078295513598,1.0189327224739642,
2023-08-17 19:40:54.129000,-8.698795180722891,-0.746987951807229,-4.457831325301205,-0.6597179644389944,-8.559779276517473,-4.129981606376456,3.0,1.0187590187590185,981.586402266289,0.08053143756191421,0.3763183963638482,-0.43167647572985224,1839.5604395604394,-1.0,56.76078295513598,1.018928910368653,
2023-08-17 19:40:54.136000,-8.66265060240964,-0.7349397590361446,-4.445783132530121,-0.6695278969957081,-8.537706928264868,-4.169221336603311,3.0,1.0187590187590185,981.586402266289,-0.10663714235767191,0.7331740574558585,-0.7801410174232267,1925.2747252747251,-1.0,56.76078295513598,1.0189251327798392,
2023-08-17 19:40:54.144000,-8.66265060240964,-0.7228915662650602,-4.46987951807229,-0.657265481299816,-8.466584917228694,-4.171673819742489,3.0,1.0187590187590185,981.586402266289,0.39461569838587424,0.8278072373404817,-0.7595128489015788,2002.197802197802,-1.0,56.76078295513598,1.0189213906664525,
2023-08-17 19:40:54.151000,-8.63855421686747,-0.6987951807228916,-4.506024096385542,-0.645003065603924,-8.478847332924586,-4.220723482526058,3.0,1.0187590187590185,981.586402266289,-0.2209661441640929,1.1332672921158442,-0.5974010838529223,2067.399267399267,-1.0,56.76078295513598,1.0189176848238761,
2023-08-17 19:40:54.159000,-8.674698795180724,-0.710843373493976,-4.506024096385542,-0.6474555487431024,-8.54996934396076,-4.257510729613734,3.0,1.0187590187590185,981.586402266289,-0.542509177786842,1.5852223063924011,-0.6200104888992485,2118.6813186813183,-1.0,56.76078295513598,1.0189140160263546,
2023-08-17 19:40:54.167000,-8.686746987951807,-0.746987951807229,-4.542168674698796,-0.6180257510729613,-8.559779276517473,-4.2329858982219495,3.0,1.0187590187590185,981.586402266289,0.025522988170851784,1.9258784453120439,-0.001631606549734748,2154.5787545787543,-1.0,56.76078295513598,1.0189103850204702,
2023-08-17 19:40:54.174000,-8.74698795180723,-0.7590361445783133,-4.542168674698796,-0.7087676272225628,-8.633353770692827,-4.186388718577559,3.0,1.019203019203019,981.1587889348727,-0.09719713303420506,1.7983800477827623,0.4722335528232619,2175.091575091575,-1.0,56.76078295513598,1.0189067925190185,
2023-08-17 19:40:54.182000,-8.771084337349398,-0.7590361445783133,-4.493975903614458,-0.657265481299816,-8.648068669527897,-4.2182709993868786,3.0,1.0187590187590185,981.586402266289,-0.14229939980187556,1.1415418681894993,-0.21828564768952846,2176.556776556776,-1.0,56.76078295513598,1.0189032393446404,
2023-08-17 19:40:54.190000,-8.795180722891567,-0.783132530120482,-4.518072289156627,-0.6940527283874923,-8.589209074187615,-4.235438381361128,3.0,1.0187590187590185,981.586402266289,-0.1712021443971803,0.4441466115028269,0.39018705203659465,2160.4395604395604,-1.0,56.76078295513598,1.0188997262972155,
2023-08-17 19:40:54.197000,-8.734939759036145,-0.783132530120482,-4.566265060240964,-0.6646229307173512,-8.621091354996935,-4.250153280196199,3.0,1.0187590187590185,981.586402266289,-0.1545364489248877,0.16572460812307055,-0.13204358720354287,2128.205128205128,-1.0,56.76078295513598,1.0188962539902846,
2023-08-17 19:40:54.205000,-8.66265060240964,-0.746987951807229,-4.578313253012048,-0.6499080318822807,-8.50091968117719,-4.237890864500306,3.0,1.0187590187590185,981.586402266289,-0.18507080006992585,0.4823728220966142,-0.1928792028436571,2084.981684981685,-1.0,56.76078295513598,1.018892822985881,
2023-08-17 19:40:54.213000,-8.590361445783133,-0.783132530120482,-4.590361445783133,-0.6621704475781729,-8.478847332924586,-4.267320662170447,3.0,1.0187590187590185,981.586402266289,-0.33715983917021075,0.27574150690519195,0.15931472524911153,2032.234432234432,-1.0,56.76078295513598,1.0188894337912031,
2023-08-17 19:40:54.220000,-8.602409638554217,-0.7590361445783133,-4.578313253012048,-0.6597179644389944,-8.437155119558552,-4.242795830778663,3.0,1.0187590187590185,981.586402266289,-0.31909562379814643,0.3806304993881478,-0.09008799021036103,1972.8937728937728,-1.0,56.76078295513598,1.0188860869946235,
2023-08-17 19:40:54.228000,-8.578313253012048,-0.746987951807229,-4.578313253012048,-0.6302881667688535,-8.45677498467198,-4.304107909258124,3.0,1.0187590187590185,981.586402266289,-0.5011362974185654,1.1783695588835148,-0.09020453353534186,1910.6227106227104,-1.0,56.76078295513598,1.0188827831044338,
2023-08-17 19:40:54.236000,-8.63855421686747,-0.7349397590361446,-4.614457831325302,-0.6204782342121398,-8.496014714898834,-4.257510729613734,3.0,1.0187590187590185,981.586402266289,-0.4960083911193981,1.1756890624089502,-0.09113688013518985,1844.6886446886447,-1.0,56.76078295513598,1.0188795224197278,
2023-08-17 19:40:54.243000,-8.674698795180724,-0.7349397590361446,-4.614457831325302,-0.6180257510729613,-8.459227467811159,-4.2109135499693435,3.0,1.0187590187590185,981.586402266289,-0.6907522871627525,1.066837596876639,-0.183206106870229,1780.2197802197802,-1.0,56.76078295513598,1.0188763053173706,
2023-08-17 19:40:54.251000,-8.710843373493976,-0.6867469879518072,-4.590361445783133,-0.6351931330472103,-8.493562231759656,-4.255058246474555,3.0,1.0187590187590185,981.586402266289,-0.9280344968241937,1.0465590583299336,-0.15057397587553145,1715.7509157509157,-1.0,56.76078295513598,1.018873132092421,
2023-08-17 19:40:54.259000,-8.686746987951807,-0.6626506024096386,-4.566265060240964,-0.6229307173513182,-8.530349478847333,-4.193746167995095,3.0,1.0187590187590185,981.586402266289,-0.7055532894353482,0.1695705378474451,-0.8203484645416934,1654.9450549450548,-1.0,56.76078295513598,1.018870002830702,
2023-08-17 19:40:54.266000,-8.650602409638555,-0.6626506024096386,-4.566265060240964,-0.5640711220110362,-8.540159411404046,-4.24770079705702,3.0,1.0178710178710177,982.4427480916032,-0.9745352834916378,0.047433133267292434,-0.8141716683176974,1597.8021978021977,-1.0,56.76078295513598,1.0188669175586984,
2023-08-17 19:40:54.274000,-8.650602409638555,-0.6506024096385542,-4.602409638554217,-0.510116492949111,-8.464132434089516,-4.2697731453096255,3.0,1.0178710178710177,982.4427480916032,-0.8726764174581906,-0.28378299632888526,-1.0537847444787598,1546.5201465201465,-1.0,56.76078295513598,1.0188638763624245,
2023-08-17 19:40:54.282000,-8.66265060240964,-0.6506024096385542,-4.55421686746988,-0.5738810545677498,-8.503372164316369,-4.242795830778663,3.0,1.0183150183150182,982.0143884892087,-0.9082221315774134,-0.29450498222714305,-1.0309422527824719,1495.2380952380952,-1.0,56.76078295513598,1.01886087900685,
2023-08-17 19:40:54.289000,-8.674698795180724,-0.6867469879518072,-4.578313253012048,-0.551808706315144,-8.537706928264868,-4.235438381361128,3.0,1.0183150183150182,982.0143884892087,-1.1134549268690639,-8.15803274867591E-4,-0.8253598275158789,1449.084249084249,-1.0,56.76078295513598,1.0188579249584788,
2023-08-17 19:40:54.297000,-8.674698795180724,-0.6867469879518072,-4.530120481927711,-0.5935009196811771,-8.496014714898834,-4.230533415082771,3.0,1.0187590187590185,981.586402266289,-1.1318687722160707,-0.19998834566750243,-0.7448283899539656,1405.8608058608058,-1.0,56.76078295513598,1.0188550137057175,
2023-08-17 19:40:54.305000,-8.674698795180724,-0.674698795180723,-4.530120481927711,-0.5763335377069282,-8.603923973022685,-4.2109135499693435,3.0,1.0187590187590185,981.586402266289,-1.5340597867257149,0.44449624147776945,-0.9077559582774891,1365.5677655677655,-1.0,56.76078295513598,1.01885214477099,
2023-08-17 19:40:54.312000,-8.72289156626506,-0.6987951807228916,-4.55421686746988,-0.615573267933783,-8.530349478847333,-4.213366033108522,3.0,1.0183150183150182,982.0143884892087,-1.383718897500146,0.6254880251733573,-1.025697803158324,1327.4725274725274,-1.0,56.76078295513598,1.0188493177343456,
2023-08-17 19:40:54.320000,-8.698795180722891,-0.746987951807229,-4.55421686746988,-0.6817903126916002,-8.557326793378294,-4.2256284488044145,3.0,1.0183150183150182,982.0143884892087,-1.5407027562496365,0.6420371773206691,-0.8535633121612964,1293.7728937728937,-1.0,56.76078295513598,1.0188465319489926,
2023-08-17 19:40:54.328000,-8.710843373493976,-0.746987951807229,-4.493975903614458,-0.6523605150214592,-8.532801961986511,-4.161863887185775,3.0,1.0187590187590185,981.586402266289,-0.857758871860614,0.3236408134724094,-0.615931472524911,1265.2014652014652,-1.0,56.76078295513598,1.0188437865233233,
2023-08-17 19:40:54.335000,-8.698795180722891,-0.7590361445783133,-4.518072289156627,-0.6082158185162476,-8.53525444512569,-4.2109135499693435,3.0,1.0183150183150182,982.0143884892087,-0.5925062642037181,-0.20604859856651808,-0.5772390886311982,1243.2234432234432,-1.0,56.76078295513598,1.0188410806114943,
2023-08-17 19:40:54.343000,-8.650602409638555,-0.746987951807229,-4.481927710843374,-0.640098099325567,-8.481299816063764,-4.1667688534641325,3.0,1.0183150183150182,982.0143884892087,-0.4517219276265952,-0.5670998193578471,-0.7689528582250456,1229.3040293040292,-1.0,56.76078295513598,1.0188384132886548,
2023-08-17 19:40:54.351000,-8.626506024096386,-0.7349397590361446,-4.481927710843374,-0.7234825260576333,-8.493562231759656,-4.159411404046597,3.0,1.0183150183150182,982.0143884892087,-0.6766505448400435,-0.5294563253889641,-0.7947089330458599,1222.7106227106226,-1.0,56.76078295513598,1.0188357833947534,
2023-08-17 19:40:54.358000,-8.66265060240964,-0.746987951807229,-4.493975903614458,-0.657265481299816,-8.434702636419374,-4.1667688534641325,3.0,1.0183150183150182,982.0143884892087,-0.6400559407959914,-0.27993706660451073,-0.30056523512615785,1219.7802197802198,-1.0,56.76078295513598,1.0188331896763179,
2023-08-17 19:40:54.366000,-8.650602409638555,-0.7590361445783133,-4.457831325301205,-0.6891477621091354,-8.503372164316369,-4.1741263028816675,3.0,1.0183150183150182,982.0143884892087,-0.4049880543091895,0.21082687489074106,-0.6625488025173358,1219.7802197802198,-1.0,56.76078295513598,1.0188306307895545,
2023-08-17 19:40:54.374000,-8.63855421686747,-0.7710843373493976,-4.481927710843374,-0.6646229307173512,-8.488657265481299,-4.169221336603311,3.0,1.0183150183150182,982.0143884892087,-0.37002505681487086,0.8478526892372238,-0.41384534700775,1225.6410256410256,-1.0,56.76078295513598,1.0188281053035146,
2023-08-17 19:40:54.381000,-8.686746987951807,-0.7590361445783133,-4.481927710843374,-0.6621704475781729,-8.496014714898834,-4.156958920907418,3.0,1.0183150183150182,982.0143884892087,-0.5205990326904014,0.6891206806130172,-0.4737486160480162,1235.164835164835,-1.0,56.76078295513598,1.0188256117033183,
2023-08-17 19:40:54.389000,-8.66265060240964,-0.746987951807229,-4.518072289156627,-0.7161250766400981,-8.469037400367872,-4.132434089515634,3.0,1.0183150183150182,982.0143884892087,-0.408833984033564,0.5765398286813123,-0.13600606025289955,1246.8864468864467,-1.0,56.76078295513598,1.018823148393423,
2023-08-17 19:40:54.397000,-8.686746987951807,-0.7710843373493976,-4.518072289156627,-0.7087676272225628,-8.554874310239116,-4.230533415082771,3.0,1.0183150183150182,982.0143884892087,-0.3460171318687717,0.4975234543441524,0.24613950236000218,1260.07326007326,-1.0,56.76078295513598,1.0188207137009344,
2023-08-17 19:40:54.404000,-8.686746987951807,-0.7710843373493976,-4.55421686746988,-0.7112201103617413,-8.635806253832005,-4.242795830778663,3.0,1.0183150183150182,982.0143884892087,-0.3584872676417455,0.4504399510518025,-0.07540353126274656,1277.6556776556777,-1.0,56.76078295513598,1.0188183058789528,
2023-08-17 19:40:54.412000,-8.72289156626506,-0.746987951807229,-4.542168674698796,-0.6842427958307786,-8.449417535254444,-4.213366033108522,3.0,1.0183150183150182,982.0143884892087,-0.3265543965969356,0.6196608589243051,-0.07365538138803097,1300.3663003663003,-1.0,56.76078295513598,1.0188159231099465,
2023-08-17 19:40:54.420000,-8.698795180722891,-0.746987951807229,-4.566265060240964,-0.6425505824647455,-8.586756591048436,-4.1814837522992025,3.0,1.0178710178710177,982.4427480916032,-0.1574500320494138,0.8944700192296486,0.1265660509294327,1326.7399267399267,-1.0,56.76078295513598,1.0188135635091518,
2023-08-17 19:40:54.427000,-8.686746987951807,-0.7228915662650602,-4.55421686746988,-0.645003065603924,-8.542611894543224,-4.237890864500306,3.0,1.0183150183150182,982.0143884892087,0.11794184488083388,0.5866790979546641,-0.11724258493094843,1355.3113553113553,-1.0,56.76078295513598,1.0188112252561985,
2023-08-17 19:40:54.435000,-8.698795180722891,-0.7349397590361446,-4.542168674698796,-0.5935009196811771,-8.559779276517473,-4.228080931943593,3.0,1.0183150183150182,982.0143884892087,-0.08146378416176263,0.3574383777169162,-0.15966435522405403,1383.150183150183,-1.0,56.76078295513598,1.0188089065464634,
2023-08-17 19:40:54.443000,-8.686746987951807,-0.710843373493976,-4.566265060240964,-0.6082158185162476,-8.53525444512569,-4.245248313917841,3.0,1.0183150183150182,982.0143884892087,0.11677641163102377,-0.1048889924829559,0.0748208146378415,1407.3260073260071,-1.0,56.76078295513598,1.018806605339112,
2023-08-17 19:40:54.450000,-8.686746987951807,-0.7349397590361446,-4.55421686746988,-0.6327406499080318,-8.515634580012263,-4.220723482526058,3.0,1.0183150183150182,982.0143884892087,-0.22084960083911206,0.12528407435464045,0.3979954548103259,1425.6410256410256,-1.0,56.76078295513598,1.018804319392225,
2023-08-17 19:40:54.458000,-8.66265060240964,-0.710843373493976,-4.566265060240964,-0.6817903126916002,-8.493562231759656,-4.235438381361128,3.0,1.0183150183150182,982.0143884892087,0.07353883806305013,-0.11083270205698896,0.16805547462269074,1440.2930402930401,-1.0,56.76078295513598,1.0188020464148224,
2023-08-17 19:40:54.466000,-8.63855421686747,-0.710843373493976,-4.578313253012048,-0.6131207847946045,-8.461679950950337,-4.2624156958920905,3.0,1.0183150183150182,982.0143884892087,-0.3082570945749078,0.037760037293863916,0.24206048598566554,1451.2820512820513,-1.0,56.76078295513598,1.018799784069634,
2023-08-17 19:40:54.473000,-8.626506024096386,-0.7349397590361446,-4.614457831325302,-0.5812385039852851,-8.478847332924586,-4.2697731453096255,3.0,1.0183150183150182,982.0143884892087,0.13798729677757768,0.5821339082804029,0.46955305634869743,1457.8754578754579,-1.0,56.76078295513598,1.0187975299759224,
2023-08-17 19:40:54.481000,-8.626506024096386,-0.7228915662650602,-4.578313253012048,-0.6695278969957081,-8.473942366646229,-4.20110361741263,3.0,1.0183150183150182,982.0143884892087,-0.13775421012761427,0.15954781189907233,-0.3110541343744535,1458.6080586080584,-1.0,56.76078295513598,1.0187952817123584,
2023-08-17 19:40:54.489000,-8.650602409638555,-0.7349397590361446,-4.55421686746988,-0.6548129981606376,-8.478847332924586,-4.289393010423053,3.0,1.0183150183150182,982.0143884892087,-0.5026513606433196,0.37049123011479596,-0.036011887419148327,1453.4798534798533,-1.0,56.76078295513598,1.0187930368199796,
2023-08-17 19:40:54.496000,-8.650602409638555,-0.7228915662650602,-4.55421686746988,-0.6425505824647455,-8.518087063151441,-4.228080931943593,3.0,1.0183150183150182,982.0143884892087,-0.8205815511916542,0.4761960258726177,-0.21898490763941522,1445.4212454212454,-1.0,56.76078295513598,1.0187907928052284,
2023-08-17 19:40:54.504000,-8.66265060240964,-0.7349397590361446,-4.578313253012048,-0.6744328632740649,-8.547516860821581,-4.228080931943593,3.0,1.0183150183150182,982.0143884892087,-0.6337626012470141,0.4597634170502885,-0.36617912709049544,1431.5018315018315,-1.0,56.76078295513598,1.0187885471430929,
2023-08-17 19:40:54.511000,-8.66265060240964,-0.7590361445783133,-4.578313253012048,-0.6327406499080318,-8.515634580012263,-4.284488044144696,3.0,1.0183150183150182,982.0143884892087,-0.6284016082978852,0.45766563720062997,-0.36081813414136654,1416.8498168498168,-1.0,56.76078295513598,1.018786297280349,
2023-08-17 19:40:54.519000,-8.686746987951807,-0.7710843373493976,-4.578313253012048,-0.6229307173513182,-8.554874310239116,-4.255058246474555,3.0,1.0183150183150182,982.0143884892087,-0.7448283899539647,0.48621875182099045,0.04113979371831468,1398.5347985347985,-1.0,56.76078295513598,1.0187840406389412,
2023-08-17 19:40:54.527000,-8.674698795180724,-0.783132530120482,-4.55421686746988,-0.7112201103617413,-8.527896995708154,-4.267320662170447,3.0,1.0183150183150182,982.0143884892087,-0.6170969057747215,0.2995163452013294,-0.2160713245148891,1378.021978021978,-1.0,56.76078295513598,1.0187817746194814,
2023-08-17 19:40:54.534000,-8.674698795180724,-0.7710843373493976,-4.55421686746988,-0.7063151440833844,-8.559779276517473,-4.235438381361128,3.0,1.0183150183150182,982.0143884892087,-0.5929724375036415,0.41501078025756055,-0.058388205815511886,1355.3113553113553,-1.0,56.76078295513598,1.0187794966049006,
2023-08-17 19:40:54.542000,-8.710843373493976,-0.7710843373493976,-4.542168674698796,-0.6965052115266707,-8.518087063151441,-4.1814837522992025,3.0,1.0183150183150182,982.0143884892087,-0.4154769535574856,0.23809801293630886,-0.11619369500611916,1330.4029304029302,-1.0,56.76078295513598,1.0187772039642573,
2023-08-17 19:40:54.550000,-8.686746987951807,-0.783132530120482,-4.542168674698796,-0.7553648068669527,-8.54996934396076,-4.208461066830165,3.0,1.0183150183150182,982.0143884892087,-0.5288736087640564,0.35289318804265496,0.146961132801119,1307.6923076923076,-1.0,56.76078295513598,1.0187748940567043,
2023-08-17 19:40:54.557000,-8.698795180722891,-0.7951807228915663,-4.530120481927711,-0.703862660944206,-8.537706928264868,-4.169221336603311,3.0,1.0183150183150182,982.0143884892087,-0.873608764058039,0.20604859856651808,-0.021327428471534297,1289.3772893772893,-1.0,56.76078295513598,1.0187725642356333,
2023-08-17 19:40:54.565000,-8.698795180722891,-0.783132530120482,-4.530120481927711,-0.7602697731453096,-8.508277130594728,-4.198651134273452,3.0,1.0183150183150182,982.0143884892087,-0.7386515937299682,0.5217644659402133,0.01118815919818243,1274.7252747252746,-1.0,56.76078295513598,1.0187702118529995,
2023-08-17 19:40:54.573000,-8.650602409638555,-0.7951807228915663,-4.518072289156627,-0.7823421213979154,-8.488657265481299,-4.237890864500306,3.0,1.0174270174270172,982.8714815622956,-0.7435464133791738,0.5611561097838124,-0.09626478643435707,1261.5384615384614,-1.0,56.76078295513598,1.0187678342638264,
2023-08-17 19:40:54.580000,-8.626506024096386,-0.783132530120482,-4.530120481927711,-0.6793378295524218,-8.478847332924586,-4.186388718577559,3.0,1.0178710178710177,982.4427480916032,-0.9937649321135139,0.5416933745119745,-0.14055124992716084,1252.014652014652,-1.0,56.76078295513598,1.018765428809818,
2023-08-17 19:40:54.588000,-8.626506024096386,-0.7590361445783133,-4.542168674698796,-0.6744328632740649,-8.442060085836909,-4.2182709993868786,3.0,1.0178710178710177,982.4427480916032,-1.1957345143056923,0.6923838937124877,-0.0017481498747160184,1242.4908424908424,-1.0,56.76078295513598,1.01876299275028,
2023-08-17 19:40:54.596000,-8.63855421686747,-0.7710843373493976,-4.55421686746988,-0.7185775597792765,-8.476394849785407,-4.252605763335377,3.0,1.0178710178710177,982.4427480916032,-1.18116659868306,1.1626362100110705,0.3201445137229761,1237.3626373626373,-1.0,56.76078295513598,1.0187605232876016,
2023-08-17 19:40:54.603000,-8.66265060240964,-0.7951807228915663,-4.566265060240964,-0.745554874310239,-8.522992029429798,-4.228080931943593,3.0,1.0183150183150182,982.0143884892087,-1.3493386166307315,1.3963055765981007,0.5669832760328655,1236.6300366300366,-1.0,56.76078295513598,1.0187580174431747,
2023-08-17 19:40:54.611000,-8.710843373493976,-0.819277108433735,-4.55421686746988,-0.7308399754751685,-8.557326793378294,-4.257510729613734,3.0,1.0178710178710177,982.4427480916032,-1.0586795641279632,1.3417633005069634,0.49542567449449304,1234.4322344322343,-1.0,56.76078295513598,1.0187554722310175,
2023-08-17 19:40:54.619000,-8.759036144578314,-0.819277108433735,-4.542168674698796,-0.6940527283874923,-8.630901287553648,-4.188841201716738,3.0,1.0178710178710177,982.4427480916032,-0.9965619719130592,1.2688071790688191,0.6540411397937187,1230.7692307692307,-1.0,56.76078295513598,1.0187528846821496,
2023-08-17 19:40:54.626000,-8.771084337349398,-0.8072289156626506,-4.530120481927711,-0.7308399754751685,-8.552421827099938,-4.1961986511342735,3.0,1.0178710178710177,982.4427480916032,-0.8739583940329815,0.6131344327253662,0.5024182739933576,1227.8388278388277,-1.0,56.76078295513598,1.0187502516881966,
2023-08-17 19:40:54.634000,-8.74698795180723,-0.7951807228915663,-4.493975903614458,-0.6866952789699571,-8.59656652360515,-4.213366033108522,3.0,1.0178710178710177,982.4427480916032,-0.964862187518211,0.13402482372822055,0.304294621525552,1227.8388278388277,-1.0,56.76078295513598,1.0187475701429483,
2023-08-17 19:40:54.642000,-8.710843373493976,-0.7951807228915663,-4.506024096385542,-0.6891477621091354,-8.574494175352545,-4.2329858982219495,3.0,1.0178710178710177,982.4427480916032,-1.4685624380863582,0.4364547520540761,-0.3080240079249461,1230.03663003663,-1.0,56.76078295513598,1.0187448369452419,
2023-08-17 19:40:54.649000,-8.686746987951807,-0.8313253012048193,-4.55421686746988,-0.7308399754751685,-8.572041692213366,-4.255058246474555,3.0,1.0178710178710177,982.4427480916032,-1.2517918536215822,1.1190490064681544,-0.3497465182681663,1233.6996336996335,-1.0,56.76078295513598,1.01874204900195,
2023-08-17 19:40:54.657000,-8.650602409638555,-0.8072289156626506,-4.530120481927711,-0.7847946045370937,-8.491109748620477,-4.223175965665236,3.0,1.0178710178710177,982.4427480916032,-0.9444671056465247,1.3365188508828152,-0.20616514189149848,1237.3626373626373,-1.0,56.76078295513598,1.0187392032310734,
2023-08-17 19:40:54.665000,-8.650602409638555,-0.8072289156626506,-4.518072289156627,-0.6744328632740649,-8.461679950950337,-4.257510729613734,3.0,1.0183150183150182,982.0143884892087,-1.111590233669367,1.1091428238447643,0.18297302022026646,1238.095238095238,-1.0,56.76078295513598,1.0187362965649625,
2023-08-17 19:40:54.672000,-8.590361445783133,-0.7710843373493976,-4.542168674698796,-0.7063151440833844,-8.464132434089516,-4.206008583690987,3.0,1.0183150183150182,982.0143884892087,-1.2787133616922093,0.9882873958394025,0.11118233203193277,1238.095238095238,-1.0,56.76078295513598,1.0187333261029738,
2023-08-17 19:40:54.680000,-8.590361445783133,-0.746987951807229,-4.55421686746988,-0.6768853464132434,-8.407725321888412,-4.245248313917841,3.0,1.0183150183150182,982.0143884892087,-1.7991958510576316,0.9143989278014099,0.10115960608356131,1237.3626373626373,-1.0,56.76078295513598,1.0187302891368513,
2023-08-17 19:40:54.688000,-8.602409638554217,-0.7951807228915663,-4.602409638554217,-0.7161250766400981,-8.442060085836909,-4.252605763335377,3.0,1.0178710178710177,982.4427480916032,-2.1158440650311734,1.1925878445312046,0.45381970747625455,1238.095238095238,-1.0,56.76078295513598,1.0187271830173381,
2023-08-17 19:40:54.695000,-8.63855421686747,-0.819277108433735,-4.578313253012048,-0.7087676272225628,-8.545064377682403,-4.291845493562231,3.0,1.0178710178710177,982.4427480916032,-1.7276382495192593,1.5601654915214727,0.9259367169745352,1241.0256410256409,-1.0,56.76078295513598,1.018724005010597,
2023-08-17 19:40:54.703000,-8.650602409638555,-0.7951807228915663,-4.578313253012048,-0.6916002452483139,-8.542611894543224,-4.257510729613734,3.0,1.0178710178710177,982.4427480916032,-1.6497873084319112,0.9934153021385697,0.6598683060427709,1243.2234432234432,-1.0,56.76078295513598,1.018720752282394,
2023-08-17 19:40:54.711000,-8.66265060240964,-0.7710843373493976,-4.602409638554217,-0.6474555487431024,-8.515634580012263,-4.2256284488044145,3.0,1.0178710178710177,982.4427480916032,-1.616572460812305,0.7824718839228495,0.1687547345725775,1246.153846153846,-1.0,56.76078295513598,1.0187174220415813,
2023-08-17 19:40:54.718000,-8.63855421686747,-0.7590361445783133,-4.55421686746988,-0.6376456161863887,-8.444512568976087,-4.188841201716738,3.0,1.0183150183150182,982.0143884892087,-1.7544432142649036,0.8748907406328317,-0.2588427247829385,1253.4798534798533,-1.0,56.76078295513598,1.0187140115449733,
2023-08-17 19:40:54.726000,-8.626506024096386,-0.6987951807228916,-4.566265060240964,-0.5836909871244634,-8.47148988350705,-4.2624156958920905,3.0,1.0174270174270172,982.8714815622956,-2.1199230814055117,0.9226735038750649,-0.8184837713419966,1260.07326007326,-1.0,56.76078295513598,1.0187105182516754,
2023-08-17 19:40:54.734000,-8.626506024096386,-0.7228915662650602,-4.590361445783133,-0.645003065603924,-8.459227467811159,-4.259963212752912,3.0,1.0178710178710177,982.4427480916032,-2.724083678107336,1.14049297826467,-0.7317755375560863,1268.131868131868,-1.0,56.76078295513598,1.018706939829044,
2023-08-17 19:40:54.741000,-8.63855421686747,-0.746987951807229,-4.590361445783133,-0.6548129981606376,-8.515634580012263,-4.257510729613734,3.0,1.0178710178710177,982.4427480916032,-1.8575840568731419,1.4930365363323823,-0.5371481848377132,1274.7252747252746,-1.0,56.76078295513598,1.018703273946975,
2023-08-17 19:40:54.749000,-8.590361445783133,-0.7349397590361446,-4.566265060240964,-0.6180257510729613,-8.422440220723482,-4.291845493562231,3.0,1.0178710178710177,982.4427480916032,-2.2204999708641693,0.8327020569896855,-0.787599790222015,1279.120879120879,-1.0,56.76078295513598,1.0186995183056093,
2023-08-17 19:40:54.757000,-8.602409638554217,-0.7710843373493976,-4.602409638554217,-0.7406499080318822,-8.437155119558552,-4.27958307786634,3.0,1.0178710178710177,982.4427480916032,-2.74739234310355,1.0621758638773968,-0.470368859623565,1280.5860805860805,-1.0,56.76078295513598,1.0186956706523367,
2023-08-17 19:40:54.764000,-8.602409638554217,-0.7951807228915663,-4.590361445783133,-0.7798896382587369,-8.498467198038012,-4.27958307786634,3.0,1.0183150183150182,982.0143884892087,-2.7207039216828846,1.3192704387856202,-0.48004195559699314,1280.5860805860805,-1.0,56.76078295513598,1.0186917286494046,
2023-08-17 19:40:54.772000,-8.566265060240964,-0.8674698795180723,-4.602409638554217,-0.7676272225628449,-8.390557939914162,-4.277130594727161,3.0,1.0178710178710177,982.4427480916032,-2.9085717615523574,0.6140667793252146,-0.8414428063632656,1278.3882783882782,-1.0,56.76078295513598,1.0186876900498518,
2023-08-17 19:40:54.780000,-8.566265060240964,-0.8795180722891567,-4.614457831325302,-0.8044144696505211,-8.405272838749234,-4.328632740649907,3.0,1.0178710178710177,982.4427480916032,-3.1404929782646698,0.5250276790396836,-0.8775712371073948,1276.1904761904761,-1.0,56.76078295513598,1.018683552862982,
2023-08-17 19:40:54.787000,-8.578313253012048,-0.9036144578313253,-4.626506024096386,-0.8362967504598405,-8.42489270386266,-4.335990190067443,3.0,1.0178710178710177,982.4427480916032,-2.7450614766039263,0.6028786201270316,-0.6246722218984906,1276.923076923077,-1.0,56.76078295513598,1.018679315179967,
2023-08-17 19:40:54.795000,-8.626506024096386,-0.9277108433734941,-4.63855421686747,-0.8657265481299815,-8.537706928264868,-4.385039852851011,3.0,1.0178710178710177,982.4427480916032,-2.7198881184080173,0.5940213274284707,-0.6183788823495133,1277.6556776556777,-1.0,56.76078295513598,1.0186749750310287,
2023-08-17 19:40:54.803000,-8.66265060240964,-0.9518072289156627,-4.63855421686747,-0.9245861434702636,-8.461679950950337,-4.313917841814837,3.0,1.0178710178710177,982.4427480916032,-2.5284074354641346,-0.20814637841617661,-0.4127964570829203,1282.051282051282,-1.0,56.76078295513598,1.0186705304121486,
2023-08-17 19:40:54.810000,-8.650602409638555,-0.9277108433734941,-4.614457831325302,-0.8779889638258737,-8.483752299202942,-4.301655426118945,3.0,1.0178710178710177,982.4427480916032,-2.7486743196783427,-0.4237515296311406,-1.1234776528174348,1284.2490842490843,-1.0,56.76078295513598,1.0186659795779855,
2023-08-17 19:40:54.818000,-8.674698795180724,-0.9397590361445783,-4.590361445783133,-0.7872470876762722,-8.442060085836909,-4.309012875536481,3.0,1.0178710178710177,982.4427480916032,-3.0287279296078307,-0.5800361284307426,-1.3712487617271722,1287.9120879120878,-1.0,56.76078295513598,1.0186613208876287,
2023-08-17 19:40:54.826000,-8.674698795180724,-0.9156626506024097,-4.578313253012048,-0.8485591661557327,-8.53525444512569,-4.326180257510729,3.0,1.0178710178710177,982.4427480916032,-3.42812190431793,-0.5670998193578471,-1.797913874482839,1289.3772893772893,-1.0,56.76078295513598,1.0186565526818985,
2023-08-17 19:40:54.833000,-8.674698795180724,-0.8915662650602411,-4.614457831325302,-0.7725321888412017,-8.505824647455547,-4.267320662170447,3.0,1.0183150183150182,982.0143884892087,-3.8833401316939584,-1.0747625429753498,-1.9766913350037876,1289.3772893772893,-1.0,56.76078295513598,1.018651673576089,
2023-08-17 19:40:54.841000,-8.650602409638555,-0.8915662650602411,-4.578313253012048,-0.7774371551195585,-8.532801961986511,-4.257510729613734,3.0,1.0178710178710177,982.4427480916032,-3.8772798787949396,-1.3502709632305818,-1.8787949420196957,1290.10989010989,-1.0,56.76078295513598,1.0186466824548215,
2023-08-17 19:40:54.849000,-8.650602409638555,-0.855421686746988,-4.590361445783133,-0.7823421213979154,-8.540159411404046,-4.277130594727161,3.0,1.0178710178710177,982.4427480916032,-4.329001806421538,-1.486393566808461,-1.9509352601829733,1287.179487179487,-1.0,56.76078295513598,1.0186415783604192,
2023-08-17 19:40:54.856000,-8.66265060240964,-0.855421686746988,-4.626506024096386,-0.7578172900061312,-8.47148988350705,-4.2992029429797665,3.0,1.0178710178710177,982.4427480916032,-4.593322067478586,-1.6048015849892199,-1.7652817434881414,1284.9816849816848,-1.0,56.76078295513598,1.018636360328534,
2023-08-17 19:40:54.864000,-8.686746987951807,-0.8433734939759037,-4.63855421686747,-0.7946045370938074,-8.576946658491723,-4.338442673206622,3.0,1.0178710178710177,982.4427480916032,-5.053318571178834,-1.415535225219975,-1.4780024474098241,1285.7142857142856,-1.0,56.76078295513598,1.0186310275425647,
2023-08-17 19:40:54.872000,-8.686746987951807,-0.8433734939759037,-4.590361445783133,-0.762722256284488,-8.518087063151441,-4.235438381361128,3.0,1.0178710178710177,982.4427480916032,-5.067653400151508,-1.5608647514713594,-2.0449857234426894,1286.4468864468863,-1.0,56.76078295513598,1.0186255794668018,
2023-08-17 19:40:54.879000,-8.674698795180724,-0.819277108433735,-4.590361445783133,-0.7480073574494175,-8.532801961986511,-4.2992029429797665,3.0,1.0174270174270172,982.8714815622956,-5.341180583882059,-1.2762659518676065,-2.180292523745702,1290.10989010989,-1.0,56.76078295513598,1.0186200157025558,
2023-08-17 19:40:54.887000,-8.674698795180724,-0.8433734939759037,-4.614457831325302,-0.7700797057020232,-8.515634580012263,-4.272225628448804,3.0,1.0174270174270172,982.8714815622956,-5.99766913350038,-1.7342812190431791,-2.3024299283258545,1293.040293040293,-1.0,56.76078295513598,1.018614335843955,
2023-08-17 19:40:54.894000,-8.63855421686747,-0.8313253012048193,-4.55421686746988,-0.7749846719803801,-8.505824647455547,-4.286940527283875,3.0,1.0178710178710177,982.4427480916032,-5.936600431210303,-2.146494959501194,-2.3329642794708927,1293.7728937728937,-1.0,56.76078295513598,1.018608539460809,
2023-08-17 19:40:54.902000,-8.650602409638555,-0.819277108433735,-4.55421686746988,-0.703862660944206,-8.515634580012263,-4.235438381361128,3.0,1.0178710178710177,982.4427480916032,-6.0282034846454176,-2.3297010663714235,-2.5161703863411216,1290.8424908424909,-1.0,56.76078295513598,1.0186026263893388,
2023-08-17 19:40:54.910000,-8.63855421686747,-0.783132530120482,-4.55421686746988,-0.657265481299816,-8.466584917228694,-4.208461066830165,3.0,1.0178710178710177,982.4427480916032,-6.48621875182099,-2.2228308373637895,-2.6383077909212744,1284.9816849816848,-1.0,56.76078295513598,1.0185965966174149,
2023-08-17 19:40:54.917000,-8.626506024096386,-0.7710843373493976,-4.542168674698796,-0.6891477621091354,-8.508277130594728,-4.242795830778663,3.0,1.0178710178710177,982.4427480916032,-6.4709515762484715,-2.3297010663714235,-3.0199871802342515,1276.1904761904761,-1.0,56.76078295513598,1.0185904501694054,
2023-08-17 19:40:54.925000,-8.602409638554217,-0.746987951807229,-4.542168674698796,-0.6793378295524218,-8.515634580012263,-4.206008583690987,3.0,1.0178710178710177,982.4427480916032,-7.051104248004196,-1.8716857991958509,-3.279529164967076,1266.6666666666665,-1.0,56.76078295513598,1.0185841872569998,
2023-08-17 19:40:54.933000,-8.63855421686747,-0.746987951807229,-4.55421686746988,-0.6670754138565297,-8.488657265481299,-4.252605763335377,3.0,1.0178710178710177,982.4427480916032,-6.9289668434240435,-1.764815570188217,-3.4016665695472286,1256.4102564102564,-1.0,56.76078295513598,1.0185778084192714,
2023-08-17 19:40:54.940000,-8.63855421686747,-0.746987951807229,-4.55421686746988,-0.7063151440833844,-8.491109748620477,-4.2403433476394845,3.0,1.0178710178710177,982.4427480916032,-7.066371423576715,-1.8716857991958509,-3.416933745119748,1247.6190476190475,-1.0,56.76078295513598,1.0185713143646487,
2023-08-17 19:40:54.948000,-8.674698795180724,-0.746987951807229,-4.55421686746988,-0.6376456161863887,-8.464132434089516,-4.2403433476394845,3.0,1.0178710178710177,982.4427480916032,-6.883165316706487,-2.1770293106462324,-3.3558650428296715,1241.7582417582416,-1.0,56.76078295513598,1.0185647058441885,
2023-08-17 19:40:54.956000,-8.66265060240964,-0.7349397590361446,-4.542168674698796,-0.6597179644389944,-8.45677498467198,-4.235438381361128,3.0,1.0178710178710177,982.4427480916032,-7.448050812889693,-2.100693432783637,-3.6154070275624957,1238.8278388278388,-1.0,56.76078295513598,1.0185579839400638,
2023-08-17 19:40:54.963000,-8.66265060240964,-0.746987951807229,-4.566265060240964,-0.6916002452483139,-8.488657265481299,-4.267320662170447,3.0,1.0178710178710177,982.4427480916032,-7.4785851640347305,-1.6884796923256218,-3.7680787832876868,1238.8278388278388,1057.06787109375,56.76078295513598,1.0185511500454043,
2023-08-17 19:40:54.971000,-8.626506024096386,-0.7590361445783133,-4.530120481927711,-0.6965052115266707,-8.432250153280195,-4.2329858982219495,3.0,1.0178710178710177,982.4427480916032,-7.860264553347708,-1.4289377075927974,-3.7833459588602056,1240.2930402930401,-1.0,56.76078295513598,1.018544205577515,
2023-08-17 19:40:54.979000,-8.63855421686747,-0.746987951807229,-4.566265060240964,-0.657265481299816,-8.491109748620477,-4.223175965665236,3.0,1.0178710178710177,982.4427480916032,-7.432783637317174,-1.1541285472874538,-4.226094050463259,1241.7582417582416,-1.0,56.76078295513598,1.0185371521378241,
2023-08-17 19:40:54.986000,-8.650602409638555,-0.7590361445783133,-4.530120481927711,-0.627835683629675,-8.545064377682403,-4.213366033108522,3.0,1.0178710178710177,982.4427480916032,-7.738127148767555,-1.4442048831653165,-4.241361226035778,1240.2930402930401,-1.0,56.76078295513598,1.0185299916398614,
2023-08-17 19:40:54.994000,-8.674698795180724,-0.746987951807229,-4.55421686746988,-0.7112201103617413,-8.633353770692827,-4.2256284488044145,3.0,1.0178710178710177,982.4427480916032,-8.058737835790456,-1.4289377075927974,-4.3024299283258545,1238.095238095238,-1.0,56.76078295513598,1.018522726160044,
2023-08-17 19:40:55.002000,-8.72289156626506,-0.7710843373493976,-4.530120481927711,-0.6965052115266707,-8.584304107909258,-4.228080931943593,3.0,1.0178710178710177,982.4427480916032,-8.3335469960958,-1.5052735854553927,-4.271895577180817,1236.6300366300366,-1.0,56.76078295513598,1.0185153579373094,
2023-08-17 19:40:55.009000,-8.710843373493976,-0.783132530120482,-4.506024096385542,-0.6793378295524218,-8.510729613733906,-4.183936235438381,3.0,1.0178710178710177,982.4427480916032,-8.241943942660685,-1.5968766388905073,-4.821513897791504,1236.6300366300366,-1.0,56.76078295513598,1.018507889372259,
2023-08-17 19:40:55.017000,-8.66265060240964,-0.7710843373493976,-4.542168674698796,-0.733292458614347,-8.513182096873084,-4.186388718577559,3.0,1.0178710178710177,982.4427480916032,-8.15034088922557,-1.38313618087524,-5.264261989394557,1236.6300366300366,-1.0,56.76078295513598,1.0185003230258332,
2023-08-17 19:40:55.025000,-8.63855421686747,-0.7951807228915663,-4.518072289156627,-0.6327406499080318,-8.48620478234212,-4.2035561005518085,3.0,1.0174270174270172,982.8714815622956,-8.684692034263739,-0.986189615989744,-5.615407027562496,1239.5604395604396,-1.0,56.76078295513598,1.0184926616175136,
2023-08-17 19:40:55.032000,-8.626506024096386,-0.7710843373493976,-4.493975903614458,-0.6891477621091354,-8.50091968117719,-4.255058246474555,3.0,1.016983016983017,983.3005893909627,-9.264844706019463,-0.9403880892721866,-5.401666569547229,1247.6190476190475,-1.0,56.76078295513598,1.0184849078737508,
2023-08-17 19:40:55.040000,-8.66265060240964,-0.783132530120482,-4.566265060240964,-0.7357449417535254,-8.488657265481299,-4.230533415082771,3.0,1.0174270174270172,982.8714815622956,-9.234310354874426,-0.45183847095157603,-5.142124584814404,1266.6666666666665,-1.0,56.76078295513598,1.0184770646315529,
2023-08-17 19:40:55.048000,-8.686746987951807,-0.8313253012048193,-4.578313253012048,-0.7480073574494175,-8.559779276517473,-4.282035561005518,3.0,1.0174270174270172,982.8714815622956,-9.982401957927861,-0.2838995396538661,-5.355865042829671,1298.9010989010987,-1.0,56.76078295513598,1.0184691349202495,
2023-08-17 19:40:55.055000,-8.698795180722891,-0.8313253012048193,-4.542168674698796,-0.7553648068669527,-8.545064377682403,-4.228080931943593,3.0,1.0174270174270172,982.8714815622956,-9.753394324340075,-0.6961132801118813,-5.294796340539595,1345.7875457875457,-1.0,56.76078295513598,1.0184611217005364,
2023-08-17 19:40:55.063000,-8.698795180722891,-0.8313253012048193,-4.55421686746988,-0.7185775597792765,-8.532801961986511,-4.311465358675659,3.0,1.0178710178710177,982.4427480916032,-10.30301264495076,-0.818250684692034,-5.493269622982343,1408.7912087912086,-1.0,56.76078295513598,1.0184530278899717,
2023-08-17 19:40:55.071000,-8.686746987951807,-0.8313253012048193,-4.55421686746988,-0.7872470876762722,-8.537706928264868,-4.272225628448804,3.0,1.0178710178710177,982.4427480916032,-10.30301264495076,-0.818250684692034,-5.493269622982343,1485.7142857142856,-1.0,56.76078295513598,1.0184448566540358,
2023-08-17 19:40:55.078000,-8.686746987951807,-0.8674698795180723,-4.55421686746988,-0.7774371551195585,-8.56713672593501,-4.220723482526058,3.0,1.0178710178710177,982.4427480916032,-10.516753102966028,-0.5281743488141715,-5.676475729852572,1572.8937728937728,-1.0,56.76078295513598,1.0184366114199341,
2023-08-17 19:40:55.086000,-8.650602409638555,-0.855421686746988,-4.566265060240964,-0.7676272225628449,-8.547516860821581,-4.2403433476394845,3.0,1.0178710178710177,982.4427480916032,-10.532020278538548,-0.3755025930889806,-6.027620768020511,1668.8644688644688,-1.0,56.76078295513598,1.0184282957309518,
2023-08-17 19:40:55.094000,-8.63855421686747,-0.8313253012048193,-4.578313253012048,-0.7210300429184548,-8.496014714898834,-4.242795830778663,3.0,1.0178710178710177,982.4427480916032,-10.699959209836257,-0.6961132801118813,-6.226094050463259,1767.7655677655675,-1.0,56.76078295513598,1.018419913239253,
2023-08-17 19:40:55.101000,-8.626506024096386,-0.819277108433735,-4.578313253012048,-0.645003065603924,-8.469037400367872,-4.250153280196199,3.0,1.0178710178710177,982.4427480916032,-10.516753102966028,-0.8793193869821103,-6.363498630615931,1865.9340659340658,-1.0,56.76078295513598,1.018411467559703,
2023-08-17 19:40:55.109000,-8.626506024096386,-0.8072289156626506,-4.566265060240964,-0.703862660944206,-8.532801961986511,-4.311465358675659,3.0,1.0178710178710177,982.4427480916032,-11.264844706019463,-0.3297010663714234,-6.485636035196084,1957.5091575091574,-1.0,56.76078295513598,1.0184029622825943,
2023-08-17 19:40:55.117000,-8.626506024096386,-0.819277108433735,-4.590361445783133,-0.7504598405885959,-8.434702636419374,-4.252605763335377,3.0,1.0178710178710177,982.4427480916032,-11.50911951517977,-0.5892430511042478,-6.54670473748616,2041.0256410256409,-1.0,56.76078295513598,1.01839440111382,
2023-08-17 19:40:55.124000,-8.63855421686747,-0.8313253012048193,-4.566265060240964,-0.745554874310239,-8.43960760269773,-4.252605763335377,3.0,1.0178710178710177,982.4427480916032,-11.921333255637784,-0.1922964862187516,-6.439834508478526,2109.8901098901097,-1.0,56.76078295513598,1.0183857878658176,
2023-08-17 19:40:55.132000,-8.626506024096386,-0.8433734939759037,-4.566265060240964,-0.7700797057020232,-8.510729613733906,-4.235438381361128,3.0,1.0178710178710177,982.4427480916032,-11.875531728920226,-0.2838995396538661,-6.775712371073946,2161.904761904762,-1.0,56.76078295513598,1.0183771265873638,
2023-08-17 19:40:55.140000,-8.650602409638555,-0.8433734939759037,-4.590361445783133,-0.762722256284488,-8.505824647455547,-4.282035561005518,3.0,1.0178710178710177,982.4427480916032,-12.043470660217936,-0.268632364081347,-6.913116951226618,2197.8021978021975,-1.0,56.76078295513598,1.0183684215343833,
2023-08-17 19:40:55.147000,-8.63855421686747,-0.8433734939759037,-4.55421686746988,-0.7725321888412017,-8.469037400367872,-4.24770079705702,3.0,1.0178710178710177,982.4427480916032,-12.562554629683586,-0.6197774022492859,-6.760445195501427,2216.117216117216,-1.0,56.76078295513598,1.0183596768745669,
2023-08-17 19:40:55.155000,-8.626506024096386,-0.8433734939759037,-4.578313253012048,-0.7676272225628449,-8.540159411404046,-4.2256284488044145,3.0,1.0178710178710177,982.4427480916032,-12.48621875182099,-0.4671056465240951,-6.760445195501427,2219.047619047619,-1.0,56.76078295513598,1.0183508968391668,
2023-08-17 19:40:55.163000,-8.63855421686747,-0.8313253012048193,-4.566265060240964,-0.7136725935009196,-8.466584917228694,-4.331085223789086,3.0,1.0178710178710177,982.4427480916032,-12.562554629683586,-0.6045102266767669,-7.096323058096846,2205.8608058608056,-1.0,56.76078295513598,1.0183420858433176,
2023-08-17 19:40:55.170000,-8.63855421686747,-0.8433734939759037,-4.590361445783133,-0.7970570202329859,-8.53525444512569,-4.20110361741263,3.0,1.0178710178710177,982.4427480916032,-12.959501194569082,-0.3907697686614997,-6.897849775654099,2178.7545787545787,-1.0,56.76078295513598,1.0183332483296978,
2023-08-17 19:40:55.178000,-8.63855421686747,-0.8313253012048193,-4.626506024096386,-0.8289393010423053,-8.491109748620477,-4.274678111587982,3.0,1.0178710178710177,982.4427480916032,-13.173241652584348,-0.34496824194394243,-7.157391760386923,2139.9267399267396,-1.0,56.76078295513598,1.0183243887615896,
2023-08-17 19:40:55.186000,-8.650602409638555,-0.819277108433735,-4.55421686746988,-0.7210300429184548,-8.473942366646229,-4.228080931943593,3.0,1.0174270174270172,982.8714815622956,-13.417516461744654,0.09777984965911098,-7.508536798554862,2087.179487179487,-1.0,56.76078295513598,1.0183155114772864,
2023-08-17 19:40:55.193000,-8.66265060240964,-0.819277108433735,-4.566265060240964,-0.7774371551195585,-8.532801961986511,-4.301655426118945,3.0,1.0174270174270172,982.8714815622956,-13.264844706019463,0.3573218343919354,-7.7375444321426485,2028.5714285714284,-1.0,56.76078295513598,1.0183066208319698,
2023-08-17 19:40:55.201000,-8.698795180722891,-0.8313253012048193,-4.542168674698796,-0.8068669527896996,-8.52053954629062,-4.191293684855917,3.0,1.0178710178710177,982.4427480916032,-13.432783637317174,-0.08542625721111802,-7.172658935959443,1964.8351648351647,-1.0,56.76078295513598,1.0182977212765216,
2023-08-17 19:40:55.209000,-8.674698795180724,-0.8433734939759037,-4.542168674698796,-0.733292458614347,-8.532801961986511,-4.2403433476394845,3.0,1.0178710178710177,982.4427480916032,-13.341180583882059,-0.8793193869821103,-7.5390711496999,1897.4358974358972,-1.0,56.76078295513598,1.0182888172016487,
2023-08-17 19:40:55.216000,-8.650602409638555,-0.819277108433735,-4.518072289156627,-0.7995095033721643,-8.510729613733906,-4.282035561005518,3.0,1.0178710178710177,982.4427480916032,-13.49385233960725,-1.2762659518676065,-7.325330691684633,1830.03663003663,-1.0,56.76078295513598,1.0182799129733828,
2023-08-17 19:40:55.224000,-8.626506024096386,-0.819277108433735,-4.566265060240964,-0.745554874310239,-8.478847332924586,-4.282035561005518,3.0,1.0178710178710177,982.4427480916032,-13.692325622049998,-1.169395722859973,-7.38639939397471,1764.8351648351647,-1.0,56.76078295513598,1.0182710127983217,
2023-08-17 19:40:55.232000,-8.614457831325302,-0.819277108433735,-4.590361445783133,-0.7357449417535254,-8.515634580012263,-4.250153280196199,3.0,1.0178710178710177,982.4427480916032,-13.951867606782821,-0.7877163335469959,-7.798613134432725,1702.5641025641025,-1.0,56.76078295513598,1.0182621208764444,
2023-08-17 19:40:55.239000,-8.614457831325302,-0.8072289156626506,-4.566265060240964,-0.7283874923359902,-8.503372164316369,-4.274678111587982,3.0,1.0178710178710177,982.4427480916032,-13.936600431210303,-0.818250684692034,-7.813880310005244,1642.4908424908424,-1.0,56.76078295513598,1.0182532415226713,
2023-08-17 19:40:55.247000,-8.614457831325302,-0.7951807228915663,-4.590361445783133,-0.733292458614347,-8.415082771305947,-4.306560392397302,3.0,1.0178710178710177,982.4427480916032,-14.012936309072899,-0.31443389079890427,-7.600139851989977,1588.278388278388,-1.0,56.76078295513598,1.0182443788732316,
2023-08-17 19:40:55.255000,-8.602409638554217,-0.819277108433735,-4.614457831325302,-0.7136725935009196,-8.437155119558552,-4.264868179031269,3.0,1.0178710178710177,982.4427480916032,-13.875531728920226,-0.2838995396538661,-7.401666569547229,1537.7289377289376,-1.0,56.76078295513598,1.0182355370394942,
2023-08-17 19:40:55.262000,-8.614457831325302,-0.783132530120482,-4.590361445783133,-0.7357449417535254,-8.422440220723482,-4.259963212752912,3.0,1.0174270174270172,982.8714815622956,-14.135073713653052,-0.5739758755317287,-7.569605500844938,1490.8424908424906,-1.0,56.76078295513598,1.0182267202305841,
2023-08-17 19:40:55.270000,-8.63855421686747,-0.783132530120482,-4.566265060240964,-0.7529123237277743,-8.510729613733906,-4.2624156958920905,3.0,1.0178710178710177,982.4427480916032,-14.257211118233204,-0.8945865625546294,-7.813880310005244,1446.8864468864467,-1.0,56.76078295513598,1.0182179324502993,
2023-08-17 19:40:55.277000,-8.626506024096386,-0.783132530120482,-4.590361445783133,-0.6768853464132434,-8.496014714898834,-4.309012875536481,3.0,1.0174270174270172,982.8714815622956,-14.043470660217936,-1.1388613717149347,-7.661208554280053,1406.5934065934066,-1.0,56.76078295513598,1.018209177620351,
2023-08-17 19:40:55.285000,-8.650602409638555,-0.7710843373493976,-4.63855421686747,-0.6793378295524218,-8.515634580012263,-4.255058246474555,3.0,1.0174270174270172,982.8714815622956,-14.364081347240838,-1.2304644251500492,-7.111590233669366,1368.4981684981683,-1.0,56.76078295513598,1.0182004595861487,
2023-08-17 19:40:55.293000,-8.66265060240964,-0.783132530120482,-4.626506024096386,-0.6842427958307786,-8.574494175352545,-4.272225628448804,3.0,1.0174270174270172,982.8714815622956,-14.028203484645417,-1.7342812190431791,-7.584872676417458,1334.7985347985348,-1.0,56.76078295513598,1.018191781952446,
2023-08-17 19:40:55.300000,-8.63855421686747,-0.7228915662650602,-4.63855421686747,-0.645003065603924,-8.498467198038012,-4.316370324954016,3.0,1.0178710178710177,982.4427480916032,-14.409882873958395,-1.7953499213332553,-7.508536798554862,1304.0293040293038,-1.0,56.76078295513598,1.0181831480782557,
2023-08-17 19:40:55.308000,-8.63855421686747,-0.7228915662650602,-4.626506024096386,-0.6523605150214592,-8.459227467811159,-4.360515021459228,3.0,1.0174270174270172,982.8714815622956,-14.730493560981296,-1.0472583182798203,-7.72227725657013,1276.1904761904761,-1.0,56.76078295513598,1.0181745613803277,
2023-08-17 19:40:55.316000,-8.626506024096386,-0.7228915662650602,-4.650602409638554,-0.6474555487431024,-8.491109748620477,-4.277130594727161,3.0,1.0174270174270172,982.8714815622956,-14.99003554571412,-0.9709224404172249,-7.493269622982343,1255.6776556776556,-1.0,56.76078295513598,1.0181660253285447,
2023-08-17 19:40:55.323000,-8.63855421686747,-0.6987951807228916,-4.614457831325302,-0.5935009196811771,-8.446965052115265,-4.353157572041692,3.0,1.0174270174270172,982.8714815622956,-14.761027912126334,-0.7571819824019577,-7.554338325272419,1242.4908424908424,-1.0,56.76078295513598,1.0181575431332468,
2023-08-17 19:40:55.331000,-8.650602409638555,-0.6867469879518072,-4.63855421686747,-0.5861434702636419,-8.515634580012263,-4.362967504598406,3.0,1.0174270174270172,982.8714815622956,-14.852630965561447,-1.1083270205698965,-7.70701008099761,1235.8974358974358,-1.0,56.76078295513598,1.018149117879879,
2023-08-17 19:40:55.339000,-8.63855421686747,-0.6626506024096386,-4.662650602409639,-0.6057633353770693,-8.481299816063764,-4.289393010423053,3.0,1.0165390165390165,983.7300720681372,-14.913699667851525,-1.6732125167531027,-7.554338325272419,1232.967032967033,-1.0,56.76078295513598,1.0181407525250548,
2023-08-17 19:40:55.346000,-8.626506024096386,-0.6626506024096386,-4.614457831325302,-0.5542611894543225,-8.48620478234212,-4.257510729613734,3.0,1.0174270174270172,982.8714815622956,-14.913699667851525,-1.6732125167531027,-7.554338325272419,1238.095238095238,-1.0,56.76078295513598,1.0181324497329338,
2023-08-17 19:40:55.354000,-8.626506024096386,-0.6385542168674699,-4.63855421686747,-0.5419987737584304,-8.552421827099938,-4.331085223789086,3.0,1.0174270174270172,982.8714815622956,-14.928966843424043,-1.6884796923256218,-7.798613134432725,1246.8864468864467,-1.0,56.76078295513598,1.0181242119673208,
2023-08-17 19:40:55.362000,-8.63855421686747,-0.6265060240963856,-4.650602409638554,-0.5616186388718577,-8.446965052115265,-4.328632740649907,3.0,1.0174270174270172,982.8714815622956,-15.005302721286638,-2.2991667152263853,-8.088689470310587,1259.3406593406592,-1.0,56.76078295513598,1.0181160416784825,
2023-08-17 19:40:55.369000,-8.614457831325302,-0.6385542168674699,-4.63855421686747,-0.5125689760882893,-8.493562231759656,-4.309012875536481,3.0,1.0174270174270172,982.8714815622956,-14.82209661441641,-1.8716857991958509,-7.89021618786784,1273.9926739926739,-1.0,56.76078295513598,1.018107941171116,
2023-08-17 19:40:55.377000,-8.626506024096386,-0.6024096385542169,-4.614457831325302,-0.48313917841814835,-8.478847332924586,-4.255058246474555,3.0,1.0174270174270172,982.8714815622956,-14.562554629683586,-2.0396247304935606,-8.05815511916555,1290.10989010989,-1.0,56.76078295513598,1.0180999126007186,
2023-08-17 19:40:55.385000,-8.614457831325302,-0.5903614457831325,-4.626506024096386,-0.5199264255058246,-8.434702636419374,-4.311465358675659,3.0,1.0174270174270172,982.8714815622956,-14.562554629683586,-2.100693432783637,-8.180292523745702,1306.9597069597069,-1.0,56.76078295513598,1.0180919578314207,
2023-08-17 19:40:55.392000,-8.650602409638555,-0.6024096385542169,-4.63855421686747,-0.5027590435315757,-8.498467198038012,-4.2256284488044145,3.0,1.0174270174270172,982.8714815622956,-14.638890507546181,-1.8869529747683698,-8.134490997028145,1326.007326007326,-1.0,56.76078295513598,1.0180840785919356,
2023-08-17 19:40:55.400000,-8.66265060240964,-0.6144578313253012,-4.590361445783133,-0.463519313304721,-8.498467198038012,-4.250153280196199,3.0,1.0174270174270172,982.8714815622956,-14.516753102966028,-1.8564186236233318,-7.920750539012878,1345.054945054945,-1.0,56.76078295513598,1.018076276600229,
2023-08-17 19:40:55.408000,-8.674698795180724,-0.5903614457831325,-4.614457831325302,-0.43899448191293683,-8.554874310239116,-4.250153280196199,3.0,1.0174270174270172,982.8714815622956,-14.501485927393508,-1.9480216770584462,-7.5390711496999,1361.904761904762,-1.0,56.76078295513598,1.0180685534117397,
2023-08-17 19:40:55.415000,-8.686746987951807,-0.6144578313253012,-4.590361445783133,-0.48559166155732675,-8.552421827099938,-4.2329858982219495,3.0,1.0174270174270172,982.8714815622956,-14.241943942660685,-2.3602354175164613,-7.70701008099761,1376.5567765567764,-1.0,56.76078295513598,1.0180609104171692,
2023-08-17 19:40:55.423000,-8.698795180722891,-0.5903614457831325,-4.590361445783133,-0.42673206621704474,-8.59656652360515,-4.250153280196199,3.0,1.0174270174270172,982.8714815622956,-13.921333255637784,-2.635044577821805,-7.615407027562496,1392.6739926739926,-1.0,56.76078295513598,1.018053348840556,
2023-08-17 19:40:55.431000,-8.686746987951807,-0.5662650602409639,-4.590361445783133,-0.48068669527896996,-8.53525444512569,-4.2109135499693435,3.0,1.0174270174270172,982.8714815622956,-13.829730202202668,-2.3297010663714235,-8.012353592447992,1406.5934065934066,-1.0,56.76078295513598,1.0180458697376487,
2023-08-17 19:40:55.438000,-8.63855421686747,-0.5783132530120483,-4.590361445783133,-0.5003065603923973,-8.464132434089516,-4.2182709993868786,3.0,1.0174270174270172,982.8714815622956,-13.906066080065266,-2.406036944234019,-7.920750539012878,1418.3150183150183,-1.0,56.76078295513598,1.0180384739945945,
2023-08-17 19:40:55.446000,-8.66265060240964,-0.5662650602409639,-4.55421686746988,-0.4316370324954016,-8.50091968117719,-4.223175965665236,3.0,1.0174270174270172,982.8714815622956,-13.356447759454579,-1.8411514480508127,-7.554338325272419,1426.3736263736262,-1.0,56.76078295513598,1.0180311623269485,
2023-08-17 19:40:55.454000,-8.63855421686747,-0.5421686746987953,-4.530120481927711,-0.4414469650521152,-8.505824647455547,-4.2697731453096255,3.0,1.0174270174270172,982.8714815622956,-13.325913408309539,-1.8716857991958509,-7.38639939397471,1430.7692307692307,-1.0,56.76078295513598,1.0180239352790257,
2023-08-17 19:40:55.461000,-8.650602409638555,-0.5542168674698795,-4.542168674698796,-0.45861434702636417,-8.542611894543224,-4.237890864500306,3.0,1.0174270174270172,982.8714815622956,-13.035837072431677,-1.6884796923256218,-7.38639939397471,1432.9670329670328,-1.0,56.76078295513598,1.0180167932236004,
2023-08-17 19:40:55.469000,-8.66265060240964,-0.5301204819277109,-4.578313253012048,-0.44880441446965047,-8.576946658491723,-4.245248313917841,3.0,1.0174270174270172,982.8714815622956,-12.83736378998893,-1.9632888526309653,-7.20319328710448,1431.5018315018315,-1.0,56.76078295513598,1.018009736361971,
2023-08-17 19:40:55.477000,-8.686746987951807,-0.5542168674698795,-4.566265060240964,-0.47332924586143466,-8.454322501532802,-4.252605763335377,3.0,1.0174270174270172,982.8714815622956,-12.699959209836257,-1.7342812190431791,-6.500903210768603,1427.106227106227,-1.0,56.76078295513598,1.0180027647243972,
2023-08-17 19:40:55.484000,-8.72289156626506,-0.5662650602409639,-4.578313253012048,-0.5003065603923973,-8.54996934396076,-4.255058246474555,3.0,1.0174270174270172,982.8714815622956,-11.768661499912593,-1.9022201503408889,-6.760445195501427,1420.5128205128203,-1.0,56.76078295513598,1.017995878170924,
2023-08-17 19:40:55.492000,-8.698795180722891,-0.5542168674698795,-4.566265060240964,-0.47332924586143466,-8.50091968117719,-4.242795830778663,3.0,1.0165390165390165,983.7300720681372,-11.570188217469845,-1.7953499213332553,-6.729910844356389,1408.7912087912086,-1.0,56.76078295513598,1.017989076392604,
2023-08-17 19:40:55.500000,-8.698795180722891,-0.5662650602409639,-4.530120481927711,-0.3973022685469037,-8.52053954629062,-4.156958920907418,3.0,1.016983016983017,983.3005893909627,-11.295379057164501,-1.917487325913408,-6.653574966493793,1393.4065934065934,-1.0,56.76078295513598,1.0179823587532815,
2023-08-17 19:40:55.507000,-8.686746987951807,-0.5542168674698795,-4.530120481927711,-0.5272838749233598,-8.522992029429798,-4.193746167995095,3.0,1.016983016983017,983.3005893909627,-11.112172950294273,-1.6426781656080645,-6.592506264203717,1378.7545787545787,-1.0,56.76078295513598,1.017975724376797,
2023-08-17 19:40:55.515000,-8.710843373493976,-0.5301204819277109,-4.518072289156627,-0.48313917841814835,-8.515634580012263,-4.2329858982219495,3.0,1.0174270174270172,982.8714815622956,-10.83736378998893,-1.9480216770584462,-6.256628401608297,1362.6373626373625,-1.0,56.76078295513598,1.017969172158705,
2023-08-17 19:40:55.523000,-8.674698795180724,-0.5301204819277109,-4.542168674698796,-0.43654199877375843,-8.562231759656651,-4.2182709993868786,3.0,1.0174270174270172,982.8714815622956,-10.623623331973661,-1.6426781656080645,-6.256628401608297,1346.5201465201465,-1.0,56.76078295513598,1.0179627007991356,
