Shimmer_F5D4_Timestamp_FormattedUnix_CAL,Shimmer_F5D4_Accel_LN_X_CAL,Shimmer_F5D4_Accel_LN_Y_CAL,Shimmer_F5D4_Accel_LN_Z_CAL,Shimmer_F5D4_Accel_WR_X_CAL,Shimmer_F5D4_Accel_WR_Y_CAL,Shimmer_F5D4_Accel_WR_Z_CAL,Shimmer_F5D4_GSR_Range_CAL,Shimmer_F5D4_GSR_Skin_Conductance_CAL,Shimmer_F5D4_GSR_Skin_Resistance_CAL,Shimmer_F5D4_Gyro_X_CAL,Shimmer_F5D4_Gyro_Y_CAL,Shimmer_F5D4_Gyro_Z_CAL,Shimmer_F5D4_PPG_A13_CAL,Shimmer_F5D4_PPG_IBI_CAL,Shimmer_F5D4_PPGtoHR_CAL,Shimmer_F5D4_GSR_Skin_Conductance_LPF_CAL,
yyyy/mm/dd hh:mm:ss.000,m/(s^2),m/(s^2),m/(s^2),m/(s^2),m/(s^2),m/(s^2),no_units,uS,kOhms,deg/s,deg/s,deg/s,mV,ms,BPM,uS,
2023-08-12 10:08:28.682000,-8.614457831325302,-0.060240963855421686,-4.1807228915662655,0.03923973022685469,-8.461679950950337,-3.8234212139791537,3.0,0.2555222555222555,3913.5534317984366,19.28990152089039,-2.4496241477769365,7.245148884097664,1208.058608058608,-1.0,64.20482006400627,0.2556794279397496,
2023-08-12 10:08:28.690000,-8.590361445783133,-0.04819277108433735,-4.204819277108434,0.06131207847946045,-8.491109748620477,-3.86020846106683,3.0,0.255966255966256,3906.7649609713785,20.221199230814054,-1.1977157508303717,7.199347357380106,1198.5347985347985,-1.0,64.20482006400627,0.2556828345772759,
2023-08-12 10:08:28.697000,-8.650602409638555,-0.012048192771084338,-4.168674698795181,0.06131207847946045,-8.513182096873084,-3.855303494788473,3.0,0.255966255966256,3906.7649609713785,20.328069459821688,0.9854903560398571,6.894003845929725,1189.0109890109889,-1.0,64.20482006400627,0.25568623800212975,
2023-08-12 10:08:28.705000,-8.74698795180723,0.03614457831325302,-4.132530120481928,0.16922133660331085,-8.599019006744328,-3.830778663396689,3.0,0.255966255966256,3906.7649609713785,19.702115261348403,2.9702231804673382,6.023774838296137,1179.4871794871794,-1.0,64.20482006400627,0.25568963424055885,
2023-08-12 10:08:28.713000,-8.831325301204819,0.07228915662650603,-4.1084337349397595,0.1496014714898835,-8.782955242182709,-3.816063764561618,3.0,0.2555222555222555,3913.5534317984366,18.862420604859857,4.451139211001689,5.916904609288504,1172.161172161172,-1.0,64.20482006400627,0.2556930192188873,
2023-08-12 10:08:28.720000,-8.975903614457831,0.08433734939759037,-4.0602409638554215,0.18884120171673818,-8.930104230533415,-3.7645616186388717,3.0,0.2555222555222555,3913.5534317984366,17.80898549035604,4.848085775887185,5.855835906998427,1168.4981684981685,-1.0,64.20482006400627,0.25569638891103624,
2023-08-12 10:08:28.728000,-9.096385542168676,0.07228915662650603,-4.048192771084338,0.18148375229920294,-9.018393623543838,-3.703249540159411,3.0,0.255966255966256,3906.7649609713785,17.488374803333137,5.031291882757414,6.237515296311404,1166.3003663003662,-1.0,64.20482006400627,0.2556997393053028,
2023-08-12 10:08:28.736000,-9.216867469879519,0.07228915662650603,-4.0,0.15450643776824033,-9.109135499693439,-3.713059472716125,3.0,0.255966255966256,3906.7649609713785,17.030359536157565,4.43587203542917,6.29858399860148,1163.3699633699632,-1.0,64.20482006400627,0.2557030664132451,
2023-08-12 10:08:28.743000,-9.228915662650603,0.04819277108433735,-4.0361445783132535,0.1618638871857756,-9.136112814224402,-3.686082158185162,3.0,0.255966255966256,3906.7649609713785,17.641046559058328,2.985490356039857,6.771866441349572,1158.974358974359,-1.0,64.20482006400627,0.25570636632063737,
2023-08-12 10:08:28.751000,-9.240963855421688,0.03614457831325302,-4.048192771084338,0.1520539546290619,-9.160637645616186,-3.737584304107909,3.0,0.255966255966256,3906.7649609713785,17.90058854379115,1.4740399743604677,7.077209952799954,1151.6483516483515,-1.0,64.20482006400627,0.255709635206891,
2023-08-12 10:08:28.759000,-9.180722891566266,0.0,-4.1084337349397595,0.06866952789699571,-9.101778050275904,-3.806253832004905,3.0,0.2555222555222555,3913.5534317984366,18.66394732241711,-0.6328302546471657,7.107744303944992,1142.857142857143,-1.0,64.20482006400627,0.2557128694928195,
2023-08-12 10:08:28.766000,-9.072289156626507,-0.024096385542168676,-4.156626506024097,0.10055180870631514,-8.974248927038627,-3.808706315144083,3.0,0.2555222555222555,3913.5534317984366,18.984558009440008,-1.6404638424334252,7.748965677990793,1136.2637362637363,-1.0,64.20482006400627,0.2557160655413402,
2023-08-12 10:08:28.774000,-8.91566265060241,-0.012048192771084338,-4.19277108433735,0.04659717964438994,-8.787860208461066,-3.8920907418761495,3.0,0.2555222555222555,3913.5534317984366,19.106695414020162,-2.4038226210593794,8.344385525319037,1131.8681318681317,-1.0,64.20482006400627,0.25571921965592637,
2023-08-12 10:08:28.782000,-8.795180722891567,0.0,-4.228915662650603,0.03923973022685469,-8.586756591048436,-3.9239730226854688,3.0,0.2555222555222555,3913.5534317984366,19.534176330050695,-1.8236699493036541,8.573393158906825,1128.2051282051282,-1.0,64.20482006400627,0.25572232835560726,
2023-08-12 10:08:28.789000,-8.686746987951807,0.012048192771084338,-4.265060240963856,0.164316370324954,-8.54996934396076,-3.9215205395462904,3.0,0.2555222555222555,3913.5534317984366,18.954023658294968,-1.5641279645708297,8.588660334479343,1126.7399267399267,-1.0,64.20482006400627,0.25572538823411395,
2023-08-12 10:08:28.797000,-8.590361445783133,0.060240963855421686,-4.301204819277109,0.1520539546290619,-8.437155119558552,-4.012262415695892,3.0,0.255966255966256,3906.7649609713785,18.954023658294968,-1.5641279645708297,8.588660334479343,1126.007326007326,-1.0,64.20482006400627,0.25572839596788854,
2023-08-12 10:08:28.805000,-8.590361445783133,0.12048192771084337,-4.301204819277109,0.15695892090741875,-8.459227467811159,-4.01471489883507,3.0,0.2555222555222555,3913.5534317984366,17.671580910203367,-0.34275391876930306,8.252782471883924,1131.8681318681317,-1.0,64.20482006400627,0.2557313484729274,
2023-08-12 10:08:28.812000,-8.614457831325302,0.14457831325301207,-4.265060240963856,0.19865113427345185,-8.481299816063764,-4.009809932556713,3.0,0.255966255966256,3906.7649609713785,16.60287862012703,0.7259483713070327,7.871103082570946,1145.054945054945,-1.0,64.20482006400627,0.25573424278441903,
2023-08-12 10:08:28.820000,-8.674698795180724,0.16867469879518074,-4.289156626506024,0.27713059472716123,-8.527896995708154,-3.985285101164929,3.0,0.2555222555222555,3913.5534317984366,14.602878620127031,2.5274750888642847,7.3978206398228545,1172.8937728937728,-1.0,64.20482006400627,0.2557370760536412,
2023-08-12 10:08:28.828000,-8.74698795180723,0.16867469879518074,-4.301204819277109,0.22317596566523604,-8.630901287553648,-4.017167381974248,3.0,0.2555222555222555,3913.5534317984366,13.091428238447643,3.6114445545131395,6.9550725482198015,1214.6520146520145,-1.0,64.20482006400627,0.25573984556547374,
2023-08-12 10:08:28.835000,-8.807228915662652,0.12048192771084337,-4.349397590361446,0.19865113427345185,-8.704475781729,-3.9705702023298586,3.0,0.2555222555222555,3913.5534317984366,12.14486335295146,3.840452188100926,6.649729036769419,1276.923076923077,-1.0,64.20482006400627,0.25574254858507467,
2023-08-12 10:08:28.843000,-8.843373493975903,0.08433734939759037,-4.325301204819278,0.18393623543838136,-8.731453096259962,-4.058859595340282,3.0,0.2555222555222555,3913.5534317984366,11.62577938348581,3.4435056232154295,6.039042013868657,1356.0439560439559,949.8291015625,63.169258450070686,0.2557451825018371,
2023-08-12 10:08:28.851000,-8.91566265060241,0.07228915662650603,-4.349397590361446,0.18148375229920294,-8.785407725321887,-3.985285101164929,3.0,0.255966255966256,3906.7649609713785,11.931122894936191,2.6954140201619947,6.588660334479344,1452.014652014652,-1.0,63.169258450070686,0.2557477448339857,
2023-08-12 10:08:28.858000,-8.91566265060241,0.0963855421686747,-4.36144578313253,0.19619865113427343,-8.78050275904353,-4.049049662783568,3.0,0.2555222555222555,3913.5534317984366,12.14486335295146,1.138162111765048,6.405454227609114,1564.8351648351647,-1.0,63.169258450070686,0.25575023338183844,
2023-08-12 10:08:28.866000,-8.93975903614458,0.12048192771084337,-4.325301204819278,0.2035561005518087,-8.898221949724094,-4.024524831391784,3.0,0.255966255966256,3906.7649609713785,13.015092360585047,-0.1290134607540359,6.252782471883924,1687.179487179487,-1.0,63.169258450070686,0.25575264610372067,
2023-08-12 10:08:28.874000,-8.93975903614458,0.14457831325301207,-4.313253012048193,0.18148375229920294,-8.885959534028203,-4.019619865113427,3.0,0.255966255966256,3906.7649609713785,13.4578404521881,-1.4725249111357153,6.252782471883924,1814.6520146520145,-1.0,63.169258450070686,0.2557549811090099,
2023-08-12 10:08:28.881000,-8.963855421686748,0.1566265060240964,-4.27710843373494,0.23543838136112813,-8.836909871244634,-4.017167381974248,3.0,0.255966255966256,3906.7649609713785,13.335703047607947,-1.6404638424334252,6.268049647456443,1938.4615384615383,-1.0,63.169258450070686,0.25575723682098767,
2023-08-12 10:08:28.889000,-8.951807228915664,0.18072289156626506,-4.27710843373494,0.29429797670141017,-8.84671980380135,-3.985285101164929,3.0,0.255966255966256,3906.7649609713785,12.877687780432375,-1.4877920867082344,5.932171784861023,2052.014652014652,-1.0,63.169258450070686,0.2557594118413519,
2023-08-12 10:08:28.897000,-8.93975903614458,0.1927710843373494,-4.253012048192772,0.2918454935622317,-8.763335377069282,-3.995095033721643,3.0,0.255966255966256,3906.7649609713785,12.496008391119398,-0.7244333080822801,6.008507662723618,2148.7179487179487,-1.0,63.169258450070686,0.25576150495301164,
2023-08-12 10:08:28.904000,-8.879518072289157,0.1927710843373494,-4.216867469879518,0.3016554261189454,-8.760882893930104,-3.8822808093194356,3.0,0.255966255966256,3906.7649609713785,11.778451139211,0.03892547054367401,6.130645067303771,2226.3736263736264,-1.0,63.169258450070686,0.2557635151224124,
2023-08-12 10:08:28.912000,-8.879518072289157,0.21686746987951808,-4.240963855421687,0.34334763948497854,-8.743715511955855,-3.867565910484365,3.0,0.255966255966256,3906.7649609713785,11.579977856768252,0.5427422644368037,5.993240487151099,2279.120879120879,-1.0,63.169258450070686,0.2557654415013928,
2023-08-12 10:08:28.919000,-8.867469879518072,0.2530120481927711,-4.168674698795181,0.3703249540159411,-8.724095646842427,-3.796443899448191,3.0,0.255966255966256,3906.7649609713785,11.442573276615581,0.4816735621467274,6.542858807761786,2308.424908424908,-1.0,63.169258450070686,0.2557672832898215,
2023-08-12 10:08:28.927000,-8.879518072289157,0.26506024096385544,-4.144578313253012,0.3703249540159411,-8.79767014101778,-3.7939914163090127,3.0,0.255966255966256,3906.7649609713785,11.656313734630848,0.3442689819940557,6.741332090204534,2314.285714285714,-1.0,63.169258450070686,0.2557690398956436,
2023-08-12 10:08:28.935000,-8.891566265060241,0.3132530120481928,-4.156626506024097,0.41446965052115264,-8.802575107296137,-3.81361128142244,3.0,0.255966255966256,3906.7649609713785,11.259367169745351,0.17633005069634577,7.1840801818075875,2298.168498168498,-1.0,63.169258450070686,0.25577071106294863,
2023-08-12 10:08:28.942000,-8.891566265060241,0.27710843373493976,-4.1807228915662655,0.41201716738197425,-8.746167995095034,-3.8283261802575104,3.0,0.255966255966256,3906.7649609713785,11.228832818600313,0.20686440184138394,7.1840801818075875,2262.271062271062,-1.0,63.169258450070686,0.25577229672286605,
2023-08-12 10:08:28.950000,-8.867469879518072,0.28915662650602414,-4.168674698795181,0.3678724708767627,-8.731453096259962,-3.8013488657265477,3.0,0.255966255966256,3906.7649609713785,10.740283200279704,0.6038109667268801,7.428354990967893,2209.523809523809,-1.0,63.169258450070686,0.25577379685455065,
2023-08-12 10:08:28.958000,-8.831325301204819,0.2530120481927711,-4.144578313253012,0.2673206621704476,-8.67259350091968,-3.8013488657265477,3.0,0.255966255966256,3906.7649609713785,10.61814579569955,0.37480333313909386,7.1840801818075875,2146.520146520146,-1.0,63.169258450070686,0.2557752116435958,
2023-08-12 10:08:28.965000,-8.759036144578314,0.20481927710843376,-4.156626506024097,0.3016554261189454,-8.64316370324954,-3.7988963825873694,3.0,0.255966255966256,3906.7649609713785,10.43493968882932,-0.02214323174640232,6.863469494784687,2074.7252747252746,-1.0,63.169258450070686,0.2557765416084849,
2023-08-12 10:08:28.973000,-8.698795180722891,0.16867469879518074,-4.156626506024097,0.24034334763948498,-8.56713672593501,-3.818516247700797,3.0,0.255966255966256,3906.7649609713785,10.61814579569955,-0.4038226210593794,6.695530563486977,1999.9999999999998,-1.0,63.169258450070686,0.2557777874498955,
2023-08-12 10:08:28.981000,-8.698795180722891,0.16867469879518074,-4.144578313253012,0.2550582464745555,-8.552421827099938,-3.86020846106683,3.0,0.2555222555222555,3913.5534317984366,11.076161062875123,-0.6786317813647229,6.664996212341939,1922.344322344322,-1.0,63.169258450070686,0.2557789500488653,
2023-08-12 10:08:28.988000,-8.686746987951807,0.1566265060240964,-4.144578313253012,0.3237277743715512,-8.599019006744328,-3.7988963825873694,3.0,0.255966255966256,3906.7649609713785,11.091428238447643,-0.052677582891440485,6.054309189441176,1846.8864468864467,-1.0,63.169258450070686,0.25578003031524,
2023-08-12 10:08:28.996000,-8.698795180722891,0.18072289156626506,-4.156626506024097,0.2722256284488044,-8.633353770692827,-3.806253832004905,3.0,0.255966255966256,3906.7649609713785,10.923489307149932,0.6954140201619946,6.084843540586213,1775.091575091575,-1.0,63.169258450070686,0.25578102931241625,
2023-08-12 10:08:29.004000,-8.74698795180723,0.16867469879518074,-4.144578313253012,0.31882280809319435,-8.574494175352545,-3.808706315144083,3.0,0.255966255966256,3906.7649609713785,10.847153429287337,1.3671697453528342,5.47415651768545,1708.4249084249084,-1.0,63.169258450070686,0.2557819484131962,
2023-08-12 10:08:29.011000,-8.783132530120483,0.18072289156626506,-4.132530120481928,0.29429797670141017,-8.670141017780502,-3.7988963825873694,3.0,0.255966255966256,3906.7649609713785,10.694481673562146,1.2602995163452007,5.229881708525145,1649.8168498168498,-1.0,63.169258450070686,0.25578278915736974,
2023-08-12 10:08:29.019000,-8.843373493975903,0.18072289156626506,-4.156626506024097,0.23543838136112813,-8.711833231146535,-3.830778663396689,3.0,0.255966255966256,3906.7649609713785,10.61814579569955,1.1076277606200098,5.123011479517511,1598.5347985347985,-1.0,63.169258450070686,0.2557835532476677,
2023-08-12 10:08:29.027000,-8.879518072289157,0.18072289156626506,-4.168674698795181,0.2673206621704476,-8.78050275904353,-3.8871857755977928,3.0,0.255966255966256,3906.7649609713785,10.709748849134664,0.8938873026047427,5.519958044403007,1553.113553113553,-1.0,63.169258450070686,0.2557842425453484,
2023-08-12 10:08:29.034000,-8.891566265060241,0.16867469879518074,-4.204819277108434,0.23789086450030655,-8.809932556713672,-3.8994481912936845,3.0,0.255966255966256,3906.7649609713785,11.152496940737718,0.1305285239787885,5.565759571120565,1509.1575091575091,-1.0,63.169258450070686,0.2557848590654302,
2023-08-12 10:08:29.042000,-8.903614457831326,0.1566265060240964,-4.204819277108434,0.23053341508277128,-8.84426732066217,-3.8454935622317596,3.0,0.255966255966256,3906.7649609713785,11.732649612493443,0.20686440184138394,5.81003438028087,1467.3992673992673,-1.0,63.169258450070686,0.2557854049715887,
2023-08-12 10:08:29.050000,-8.91566265060241,0.14457831325301207,-4.204819277108434,0.27467811158798283,-8.704475781729,-3.872470876762722,3.0,0.255966255966256,3906.7649609713785,11.671580910203367,0.20686440184138394,5.8405687314259085,1424.9084249084249,-1.0,63.169258450070686,0.25578588257072954,
2023-08-12 10:08:29.057000,-8.879518072289157,0.18072289156626506,-4.1807228915662655,0.29429797670141017,-8.758430410790925,-3.847946045370938,3.0,0.2555222555222555,3913.5534317984366,12.053260299516344,-0.052677582891440485,5.687896975700718,1382.4175824175823,-1.0,63.169258450070686,0.25578629430725613,
2023-08-12 10:08:29.065000,-8.855421686746988,0.1927710843373494,-4.168674698795181,0.2918454935622317,-8.726548129981605,-3.8528510116492947,3.0,0.255966255966256,3906.7649609713785,12.068527475088864,-0.1290134607540359,5.672629800128198,1340.6593406593406,-1.0,63.169258450070686,0.25578664260775297,
2023-08-12 10:08:29.073000,-8.855421686746988,0.1927710843373494,-4.204819277108434,0.3237277743715512,-8.687308399754752,-3.8332311465358675,3.0,0.255966255966256,3906.7649609713785,12.068527475088864,-0.1290134607540359,5.672629800128198,1301.098901098901,-1.0,63.169258450070686,0.2557869300021082,
2023-08-12 10:08:29.080000,-8.843373493975903,0.22891566265060243,-4.19277108433735,0.34825260576333533,-8.699570815450643,-3.855303494788473,3.0,0.255966255966256,3906.7649609713785,11.824252665928558,-0.052677582891440485,5.336751937532778,1263.003663003663,-1.0,63.169258450070686,0.2557871592759005,
2023-08-12 10:08:29.088000,-8.843373493975903,0.24096385542168675,-4.19277108433735,0.33108522378908645,-8.729000613120784,-3.847946045370938,3.0,0.255966255966256,3906.7649609713785,11.961657246081229,0.08472699726123126,5.718431326845756,1228.5714285714284,-1.0,63.169258450070686,0.25578733332467507,
2023-08-12 10:08:29.096000,-8.855421686746988,0.2530120481927711,-4.216867469879518,0.3359901900674433,-8.746167995095034,-3.9313304721030042,3.0,0.255966255966256,3906.7649609713785,11.656313734630848,0.37480333313909386,5.748965677990793,1198.5347985347985,-1.0,63.169258450070686,0.2557874551467586,
2023-08-12 10:08:29.103000,-8.819277108433736,0.22891566265060243,-4.228915662650603,0.299202942979767,-8.677498467198038,-3.9534028203556097,3.0,0.255966255966256,3906.7649609713785,11.137229765165198,0.2832002797039794,5.565759571120565,1175.0915750915751,-1.0,63.169258450070686,0.2557875278358838,
2023-08-12 10:08:29.111000,-8.831325301204819,0.20481927710843376,-4.27710843373494,0.31882280809319435,-8.748620478234212,-3.9411404046597176,3.0,0.255966255966256,3906.7649609713785,10.96929083386749,0.25266592855894116,5.2756832352427026,1157.5091575091574,-1.0,63.169258450070686,0.25578755457364205,
2023-08-12 10:08:29.119000,-8.807228915662652,0.20481927710843376,-4.253012048192772,0.3507050889025138,-8.711833231146535,-3.9215205395462904,3.0,0.2555222555222555,3913.5534317984366,10.602878620127031,-0.09847910960899774,5.336751937532778,1147.2527472527472,-1.0,63.169258450070686,0.25578753862178655,
2023-08-12 10:08:29.126000,-8.783132530120483,0.1927710843373494,-4.27710843373494,0.30901287553648066,-8.721643163703249,-3.9288779889638255,3.0,0.2555222555222555,3913.5534317984366,10.725016024707184,-0.06794475846395957,5.47415651768545,1145.7875457875457,-1.0,63.169258450070686,0.2557874831651132,
2023-08-12 10:08:29.134000,-8.783132530120483,0.20481927710843376,-4.289156626506024,0.29429797670141017,-8.606376456161863,-3.9166155732679337,3.0,0.2555222555222555,3913.5534317984366,11.152496940737718,-0.327486743196784,5.321484761960259,1150.18315018315,-1.0,63.169258450070686,0.25578739128164835,
2023-08-12 10:08:29.142000,-8.807228915662652,0.1927710843373494,-4.265060240963856,0.27467811158798283,-8.704475781729,-3.9288779889638255,3.0,0.2555222555222555,3913.5534317984366,11.320435872035429,-0.15954781189907408,5.321484761960259,1159.7069597069597,-1.0,63.169258450070686,0.2557872660716878,
2023-08-12 10:08:29.149000,-8.795180722891567,0.22891566265060243,-4.265060240963856,0.35561005518087063,-8.667688534641323,-3.9460453709380747,3.0,0.255966255966256,3906.7649609713785,11.28990152089039,-0.34275391876930306,5.229881708525145,1171.4285714285713,-1.0,63.169258450070686,0.2557871106478325,
2023-08-12 10:08:29.157000,-8.819277108433736,0.21686746987951808,-4.240963855421687,0.3261802575107296,-8.733905579399142,-3.990190067443286,3.0,0.255966255966256,3906.7649609713785,11.381504574325504,0.20686440184138394,5.031408426082397,1183.8827838827838,-1.0,63.169258450070686,0.25578692827409333,
2023-08-12 10:08:29.165000,-8.819277108433736,0.20481927710843376,-4.240963855421687,0.30656039239730226,-8.655426118945432,-3.90680564071122,3.0,0.255966255966256,3906.7649609713785,10.43493968882932,0.17633005069634577,5.123011479517511,1197.8021978021977,-1.0,63.169258450070686,0.2557867223773859,
2023-08-12 10:08:29.172000,-8.855421686746988,0.16867469879518074,-4.265060240963856,0.3016554261189454,-8.763335377069282,-3.9534028203556097,3.0,0.255966255966256,3906.7649609713785,10.358603810966725,0.6343453178719183,4.344385525319038,1210.989010989011,-1.0,63.169258450070686,0.2557864963999267,
2023-08-12 10:08:29.180000,-8.855421686746988,0.1566265060240964,-4.265060240963856,0.2673206621704476,-8.699570815450643,-3.9411404046597176,3.0,0.255966255966256,3906.7649609713785,10.14486335295146,0.9091544781772618,4.6344618611969,1225.6410256410256,-1.0,63.169258450070686,0.2557862537904356,
2023-08-12 10:08:29.188000,-8.843373493975903,0.14457831325301207,-4.228915662650603,0.22562844880441446,-8.733905579399142,-3.855303494788473,3.0,0.255966255966256,3906.7649609713785,9.79371831478352,0.4206048598566511,4.29858399860148,1239.5604395604396,-1.0,63.169258450070686,0.25578599799542745,
2023-08-12 10:08:29.195000,-8.831325301204819,0.12048192771084337,-4.228915662650603,0.22317596566523604,-8.665236051502145,-3.8798283261802573,3.0,0.255966255966256,3906.7649609713785,10.404405337684283,0.1305285239787885,4.527591632189267,1252.7472527472526,-1.0,63.169258450070686,0.25578573245061115,
2023-08-12 10:08:29.203000,-8.867469879518072,0.13253012048192772,-4.19277108433735,0.24034334763948498,-8.834457388105456,-3.90680564071122,3.0,0.255966255966256,3906.7649609713785,10.160130528523977,-0.09847910960899774,4.680263387914458,1264.4688644688645,-1.0,63.169258450070686,0.25578546057243046,
2023-08-12 10:08:29.211000,-8.903614457831326,0.13253012048192772,-4.216867469879518,0.2550582464745555,-8.75107296137339,-3.926425505824647,3.0,0.255966255966256,3906.7649609713785,10.114329001806421,0.03892547054367401,4.451255754326672,1273.260073260073,-1.0,63.169258450070686,0.25578518574976356,
2023-08-12 10:08:29.218000,-8.903614457831326,0.14457831325301207,-4.228915662650603,0.29429797670141017,-8.729000613120784,-3.9632127529123236,3.0,0.255966255966256,3906.7649609713785,10.12959617737894,0.25266592855894116,4.8482023192121675,1277.6556776556777,-1.0,63.169258450070686,0.2557849113358096,
2023-08-12 10:08:29.226000,-8.867469879518072,0.14457831325301207,-4.265060240963856,0.20600858369098712,-8.714285714285714,-3.8920907418761495,3.0,0.255966255966256,3906.7649609713785,9.885321368218634,0.45113921100168924,4.8482023192121675,1282.051282051282,-1.0,63.169258450070686,0.2557846406401833,
2023-08-12 10:08:29.234000,-8.819277108433736,0.14457831325301207,-4.253012048192772,0.26241569589209074,-8.711833231146535,-3.884733292458614,3.0,0.255966255966256,3906.7649609713785,9.702115261348405,0.37480333313909386,4.863469494784687,1283.5164835164835,-1.0,63.169258450070686,0.2557843769212377,
2023-08-12 10:08:29.241000,-8.819277108433736,0.13253012048192772,-4.240963855421687,0.21827099938687922,-8.655426118945432,-3.9534028203556097,3.0,0.255966255966256,3906.7649609713785,8.908222131577412,0.03892547054367401,4.832935143639649,1282.7838827838827,-1.0,63.169258450070686,0.2557841233786375,
2023-08-12 10:08:29.249000,-8.807228915662652,0.10843373493975904,-4.265060240963856,0.18884120171673818,-8.692213366033108,-3.914163090128755,3.0,0.255966255966256,3906.7649609713785,8.923489307149932,-0.25115086533418857,4.451255754326672,1278.3882783882782,-1.0,63.169258450070686,0.2557838831462002,
2023-08-12 10:08:29.257000,-8.771084337349398,0.10843373493975904,-4.265060240963856,0.18148375229920294,-8.61128142244022,-3.9215205395462904,3.0,0.255966255966256,3906.7649609713785,8.587611444554513,0.08472699726123126,4.558125983334305,1269.5970695970695,-1.0,63.169258450070686,0.25578365928502195,
2023-08-12 10:08:29.264000,-8.783132530120483,0.10843373493975904,-4.253012048192772,0.27713059472716123,-8.679950950337217,-3.8749233599019006,3.0,0.255966255966256,3906.7649609713785,8.12959617737894,-0.02214323174640232,4.527591632189267,1260.8058608058607,-1.0,63.169258450070686,0.25578345477690523,
2023-08-12 10:08:29.272000,-8.771084337349398,0.10843373493975904,-4.216867469879518,0.18393623543838136,-8.694665849172287,-3.872470876762722,3.0,0.255966255966256,3906.7649609713785,8.526542742264436,-0.23588368976166948,3.840568731425908,1249.8168498168498,-1.0,63.169258450070686,0.2557832723793568,
2023-08-12 10:08:29.280000,-8.795180722891567,0.10843373493975904,-4.1807228915662655,0.22808093194359289,-8.645616186388718,-3.855303494788473,3.0,0.255966255966256,3906.7649609713785,8.251733581959092,-0.693898956937242,3.81003438028087,1238.8278388278388,-1.0,63.169258450070686,0.25578311477878835,
2023-08-12 10:08:29.287000,-8.795180722891567,0.12048192771084337,-4.216867469879518,0.16922133660331085,-8.633353770692827,-3.9337829552421826,3.0,0.2555222555222555,3913.5534317984366,8.358603810966725,-0.29695239205174584,3.64209544898316,1227.106227106227,-1.0,63.169258450070686,0.25578298471254896,
2023-08-12 10:08:29.295000,-8.807228915662652,0.13253012048192772,-4.216867469879518,0.23053341508277128,-8.670141017780502,-3.865113427345187,3.0,0.2555222555222555,3913.5534317984366,8.343336635394207,-0.7091661325097611,3.458889342112931,1217.5824175824175,-1.0,63.169258450070686,0.2557828846653017,
2023-08-12 10:08:29.302000,-8.819277108433736,0.14457831325301207,-4.253012048192772,0.27467811158798283,-8.650521152667075,-3.9166155732679337,3.0,0.255966255966256,3906.7649609713785,8.419672513256803,-0.5564943767845703,3.092477128372473,1205.8608058608058,-1.0,63.169258450070686,0.2557828167037274,
2023-08-12 10:08:29.310000,-8.819277108433736,0.1566265060240964,-4.228915662650603,0.23543838136112813,-8.699570815450643,-3.914163090128755,3.0,0.255966255966256,3906.7649609713785,8.190664879669017,-0.5564943767845703,3.1535458306625492,1196.3369963369962,-1.0,63.169258450070686,0.25578278291770246,
2023-08-12 10:08:29.318000,-8.831325301204819,0.1566265060240964,-4.228915662650603,0.26241569589209074,-8.682403433476395,-3.9166155732679337,3.0,0.255966255966256,3906.7649609713785,7.62577938348581,-0.23588368976166948,3.000874074937358,1183.8827838827838,-1.0,63.169258450070686,0.2557827855639802,
2023-08-12 10:08:29.325000,-8.831325301204819,0.1566265060240964,-4.216867469879518,0.299202942979767,-8.677498467198038,-3.8871857755977928,3.0,0.255966255966256,3906.7649609713785,7.167764116310238,-0.2664180409067077,3.1535458306625492,1170.6959706959706,-1.0,63.169258450070686,0.2557828267744226,
2023-08-12 10:08:29.333000,-8.819277108433736,0.14457831325301207,-4.216867469879518,0.19619865113427343,-8.670141017780502,-3.8626609442060085,3.0,0.255966255966256,3906.7649609713785,6.938756482722451,-0.11374628518151682,3.123011479517511,1157.5091575091574,-1.0,63.169258450070686,0.25578290855266855,
2023-08-12 10:08:29.341000,-8.819277108433736,0.0963855421686747,-4.19277108433735,0.22808093194359289,-8.660331085223788,-3.8700183936235435,3.0,0.255966255966256,3906.7649609713785,6.480741215546879,-0.2206165141891504,2.6802633879144575,1145.054945054945,-1.0,63.169258450070686,0.2557830326324479,
2023-08-12 10:08:29.348000,-8.831325301204819,0.0963855421686747,-4.216867469879518,0.2035561005518087,-8.775597792765174,-3.9337829552421826,3.0,0.255966255966256,3906.7649609713785,6.480741215546879,-0.2206165141891504,2.6802633879144575,1134.065934065934,-1.0,63.169258450070686,0.2557832004954233,
2023-08-12 10:08:29.356000,-8.867469879518072,0.07228915662650603,-4.204819277108434,0.20846106683016552,-8.729000613120784,-3.889638258736971,3.0,0.2555222555222555,3913.5534317984366,6.7708175514247415,0.573276615581842,3.0619427772274346,1126.007326007326,-1.0,63.169258450070686,0.25578341365578916,
2023-08-12 10:08:29.364000,-8.879518072289157,0.07228915662650603,-4.228915662650603,0.18148375229920294,-8.819742489270386,-3.8577559779276513,3.0,0.255966255966256,3906.7649609713785,6.96929083386749,0.5427422644368037,3.123011479517511,1120.8791208791208,-1.0,63.169258450070686,0.2557836734877475,
2023-08-12 10:08:29.371000,-8.91566265060241,0.0963855421686747,-4.204819277108434,0.22317596566523604,-8.822194972409564,-3.877375843041079,3.0,0.255966255966256,3906.7649609713785,7.167764116310238,0.6496124934444374,2.909271021502244,1119.4139194139193,-1.0,63.169258450070686,0.25578398120266976,
2023-08-12 10:08:29.379000,-8.879518072289157,0.0963855421686747,-4.216867469879518,0.2035561005518087,-8.741263028816677,-3.872470876762722,3.0,0.2555222555222555,3913.5534317984366,7.076161062875123,0.6801468445894755,3.2146145329526257,1120.8791208791208,-1.0,63.169258450070686,0.2557843380074574,
2023-08-12 10:08:29.387000,-8.903614457831326,0.0963855421686747,-4.19277108433735,0.1912936848559166,-8.792765174739424,-3.8503985285101163,3.0,0.255966255966256,3906.7649609713785,6.740283200279703,0.35953615756657475,2.7260649146320146,1122.3443223443223,-1.0,63.169258450070686,0.2557847448161118,
2023-08-12 10:08:29.394000,-8.879518072289157,0.0963855421686747,-4.253012048192772,0.19374616799509503,-8.763335377069282,-3.914163090128755,3.0,0.255966255966256,3906.7649609713785,6.694481673562146,-0.29695239205174584,2.8176679680671293,1123.8095238095236,-1.0,63.169258450070686,0.2557852023771386,
2023-08-12 10:08:29.402000,-8.855421686746988,0.08433734939759037,-4.228915662650603,0.22317596566523604,-8.68976088289393,-3.8920907418761495,3.0,0.255966255966256,3906.7649609713785,6.358603810966726,-0.5870287279296084,2.6497290367694193,1125.2747252747251,-1.0,63.169258450070686,0.2557857112940865,
2023-08-12 10:08:29.410000,-8.819277108433736,0.0963855421686747,-4.228915662650603,0.17167381974248927,-8.679950950337217,-3.9313304721030042,3.0,0.255966255966256,3906.7649609713785,6.12959617737894,-0.46489132334945577,2.5886603344793433,1124.5421245421244,-1.0,63.169258450070686,0.2557862720464462,
2023-08-12 10:08:29.417000,-8.819277108433736,0.0963855421686747,-4.253012048192772,0.20600858369098712,-8.623543838136113,-3.9681177191906802,3.0,0.2555222555222555,3913.5534317984366,6.144863352951459,-0.08321193403647865,2.939805372647282,1126.007326007326,-1.0,63.169258450070686,0.2557868851181359,
2023-08-12 10:08:29.425000,-8.807228915662652,0.08433734939759037,-4.216867469879518,0.17903126916002451,-8.667688534641323,-3.8994481912936845,3.0,0.2555222555222555,3913.5534317984366,5.3357030476079474,0.008391119398635847,2.8940038459297246,1130.4029304029302,-1.0,63.169258450070686,0.25578755070032655,
2023-08-12 10:08:29.433000,-8.771084337349398,0.07228915662650603,-4.265060240963856,0.1618638871857756,-8.65787860208461,-3.9411404046597176,3.0,0.2555222555222555,3913.5534317984366,5.183031291882757,-0.052677582891440485,2.5428588077617857,1136.9963369963368,-1.0,63.169258450070686,0.2557882686713107,
2023-08-12 10:08:29.440000,-8.807228915662652,0.08433734939759037,-4.253012048192772,0.23789086450030655,-8.684855916615573,-3.9313304721030042,3.0,0.2555222555222555,3913.5534317984366,5.167764116310238,0.3442689819940557,2.5123244566167475,1142.1245421245421,-1.0,63.169258450070686,0.25578903845813217,
2023-08-12 10:08:29.448000,-8.783132530120483,0.0963855421686747,-4.27710843373494,0.1912936848559166,-8.687308399754752,-3.9534028203556097,3.0,0.2555222555222555,3913.5534317984366,4.709748849134665,0.405337684284132,1.9627061360060607,1147.985347985348,-1.0,63.169258450070686,0.2557898594940957,
2023-08-12 10:08:29.456000,-8.819277108433736,0.0963855421686747,-4.265060240963856,0.21827099938687922,-8.652973635806253,-3.960760269773145,3.0,0.255966255966256,3906.7649609713785,4.496008391119398,0.77174989802459,2.1306450673037705,1156.0439560439559,-1.0,63.169258450070686,0.25579073131548435,
2023-08-12 10:08:29.463000,-8.819277108433736,0.08433734939759037,-4.240963855421687,0.2575107296137339,-8.682403433476395,-3.919068056407112,3.0,0.255966255966256,3906.7649609713785,4.007458772798787,0.7412155468795518,2.054309189441175,1164.8351648351647,-1.0,63.169258450070686,0.25579165328578396,
2023-08-12 10:08:29.471000,-8.831325301204819,0.08433734939759037,-4.228915662650603,0.19619865113427343,-8.684855916615573,-3.9337829552421826,3.0,0.255966255966256,3906.7649609713785,3.7479167880659627,0.6954140201619946,1.6268282734106407,1175.0915750915751,-1.0,63.169258450070686,0.2557926247679014,
2023-08-12 10:08:29.479000,-8.867469879518072,0.08433734939759037,-4.253012048192772,0.17167381974248927,-8.724095646842427,-3.914163090128755,3.0,0.255966255966256,3906.7649609713785,3.610512207913291,0.4969407377192465,1.825301555853389,1181.6849816849815,-1.0,63.169258450070686,0.2557936449882632,
2023-08-12 10:08:29.486000,-8.879518072289157,0.07228915662650603,-4.240963855421687,0.20846106683016552,-8.755977927651747,-3.9117106069895766,3.0,0.255966255966256,3906.7649609713785,2.7708175514247415,0.4358720354291702,1.7947672047083507,1186.080586080586,-1.0,63.169258450070686,0.25579471303995993,
2023-08-12 10:08:29.494000,-8.867469879518072,0.04819277108433735,-4.228915662650603,0.1765787860208461,-8.741263028816677,-3.8626609442060085,3.0,0.255966255966256,3906.7649609713785,2.847153429287337,0.20686440184138394,1.4283549909678928,1188.278388278388,-1.0,63.169258450070686,0.25579582788618177,
2023-08-12 10:08:29.502000,-8.879518072289157,0.060240963855421686,-4.253012048192772,0.12998160637645614,-8.768240343347639,-3.90680564071122,3.0,0.255966255966256,3906.7649609713785,3.091428238447642,-0.28168521647922673,1.3214847619602592,1189.7435897435896,-1.0,63.169258450070686,0.2557969883639395,
2023-08-12 10:08:29.509000,-8.867469879518072,0.060240963855421686,-4.265060240963856,0.19619865113427343,-8.743715511955855,-3.955855303494788,3.0,0.255966255966256,3906.7649609713785,2.9692908338674897,-0.144280636326555,1.290950410815221,1191.9413919413919,-1.0,63.169258450070686,0.25579819318805963,
2023-08-12 10:08:29.517000,-8.879518072289157,0.07228915662650603,-4.240963855421687,0.20110361741263028,-8.684855916615573,-3.9435928877988964,3.0,0.255966255966256,3906.7649609713785,3.0761610628751233,-0.4801584989219748,1.47415651768545,1191.9413919413919,-1.0,63.169258450070686,0.2557994409554529,
2023-08-12 10:08:29.525000,-8.867469879518072,0.07228915662650603,-4.265060240963856,0.19619865113427343,-8.645616186388718,-3.9337829552421826,3.0,0.2555222555222555,3913.5534317984366,2.7250160247071844,-0.15954781189907408,1.1840801818075875,1192.6739926739926,-1.0,63.169258450070686,0.25580073014964116,
2023-08-12 10:08:29.532000,-8.843373493975903,0.08433734939759037,-4.253012048192772,0.15695892090741875,-8.78050275904353,-3.9460453709380747,3.0,0.255966255966256,3906.7649609713785,2.5723442689819933,0.03892547054367401,1.4436221665404119,1191.9413919413919,-1.0,63.169258450070686,0.2558020589962452,
2023-08-12 10:08:29.540000,-8.831325301204819,0.08433734939759037,-4.228915662650603,0.17903126916002451,-8.729000613120784,-3.8700183936235435,3.0,0.255966255966256,3906.7649609713785,1.7021152613484056,0.03892547054367401,1.2604160596701828,1189.0109890109889,-1.0,63.169258450070686,0.255803425595428,
2023-08-12 10:08:29.548000,-8.819277108433736,0.0963855421686747,-4.216867469879518,0.19374616799509503,-8.709380748007357,-3.877375843041079,3.0,0.255966255966256,3906.7649609713785,1.045626711730085,0.17633005069634577,1.1688130062350683,1184.6153846153845,-1.0,63.169258450070686,0.25580482794734455,
2023-08-12 10:08:29.555000,-8.819277108433736,0.07228915662650603,-4.1807228915662655,0.2550582464745555,-8.65787860208461,-3.8013488657265477,3.0,0.255966255966256,3906.7649609713785,1.198298467455276,0.20686440184138394,1.0619427772274348,1180.952380952381,-1.0,63.169258450070686,0.2558062638390732,
2023-08-12 10:08:29.563000,-8.819277108433736,0.060240963855421686,-4.19277108433735,0.1912936848559166,-8.660331085223788,-3.8503985285101163,3.0,0.255966255966256,3906.7649609713785,1.0150923605850468,0.5427422644368037,1.2451488840976637,1176.5567765567764,-1.0,63.169258450070686,0.2558077309981342,
2023-08-12 10:08:29.571000,-8.843373493975903,0.0963855421686747,-4.19277108433735,0.14469650521152666,-8.699570815450643,-3.8626609442060085,3.0,0.255966255966256,3906.7649609713785,1.0761610628751233,0.4358720354291702,0.8176679680671294,1170.6959706959706,-1.0,63.169258450070686,0.25580922709712833,
2023-08-12 10:08:29.578000,-8.855421686746988,0.0963855421686747,-4.168674698795181,0.15941140404659718,-8.773145309625995,-3.8798283261802573,3.0,0.255966255966256,3906.7649609713785,1.0914282384476424,0.19159722626886486,0.7871336169220913,1163.3699633699632,-1.0,63.169258450070686,0.2558107497587784,
2023-08-12 10:08:29.586000,-8.867469879518072,0.07228915662650603,-4.204819277108434,0.19374616799509503,-8.746167995095034,-3.872470876762722,3.0,0.255966255966256,3906.7649609713785,0.9540236582949706,0.26793310413146026,0.558125983334305,1155.3113553113553,-1.0,63.169258450070686,0.25581229656136295,
2023-08-12 10:08:29.594000,-8.831325301204819,0.08433734939759037,-4.240963855421687,0.1496014714898835,-8.679950950337217,-3.9043531575720416,3.0,0.2555222555222555,3913.5534317984366,0.8776877804323752,-0.08321193403647865,0.3443855253190378,1145.7875457875457,-1.0,63.169258450070686,0.255813865044526,
2023-08-12 10:08:29.601000,-8.843373493975903,0.0963855421686747,-4.253012048192772,0.134886572654813,-8.741263028816677,-3.9288779889638255,3.0,0.2555222555222555,3913.5534317984366,0.5418099178369553,-0.6786317813647229,0.3443855253190378,1142.1245421245421,-1.0,63.169258450070686,0.25581545256615323,
2023-08-12 10:08:29.609000,-8.819277108433736,0.060240963855421686,-4.240963855421687,0.13979153893316984,-8.729000613120784,-3.9288779889638255,3.0,0.255966255966256,3906.7649609713785,0.7250160247071843,-0.6633646057922038,0.4512557543266714,1143.5897435897434,-1.0,63.169258450070686,0.25581705642575125,
2023-08-12 10:08:29.617000,-8.819277108433736,0.07228915662650603,-4.253012048192772,0.17167381974248927,-8.635806253832005,-3.894543225015328,3.0,0.255966255966256,3906.7649609713785,0.6944816735621462,-0.3732882699143412,0.558125983334305,1156.7765567765566,-1.0,63.169258450070686,0.2558186739984984,
2023-08-12 10:08:29.624000,-8.783132530120483,0.08433734939759037,-4.216867469879518,0.16676885346413242,-8.670141017780502,-3.948497854077253,3.0,0.255966255966256,3906.7649609713785,0.6944816735621462,-0.3732882699143412,0.558125983334305,1180.952380952381,-1.0,63.169258450070686,0.2558203026347461,
2023-08-12 10:08:29.632000,-8.807228915662652,0.07228915662650603,-4.216867469879518,0.2207234825260576,-8.729000613120784,-3.9043531575720416,3.0,0.255966255966256,3906.7649609713785,0.2822679331041309,-0.25115086533418857,0.374919876464076,1224.1758241758241,-1.0,63.169258450070686,0.2558219396773791,
2023-08-12 10:08:29.640000,-8.819277108433736,0.08433734939759037,-4.1807228915662655,0.164316370324954,-8.682403433476395,-3.9215205395462904,3.0,0.255966255966256,3906.7649609713785,0.1906648796690164,0.3290018064215366,0.23751529631140422,1289.3772893772893,-1.0,63.169258450070686,0.2558235824688815,
2023-08-12 10:08:29.647000,-8.831325301204819,0.0963855421686747,-4.1807228915662655,0.2452483139178418,-8.721643163703249,-3.8700183936235435,3.0,0.255966255966256,3906.7649609713785,-0.5268923722393805,1.3366353942077962,0.5123244566167477,1379.4871794871794,-1.0,63.169258450070686,0.255825228358628,
2023-08-12 10:08:29.655000,-8.855421686746988,0.10843373493975904,-4.19277108433735,0.2207234825260576,-8.709380748007357,-3.867565910484365,3.0,0.255966255966256,3906.7649609713785,-0.48109084552182324,1.4893071499329869,0.19171376959384698,1488.6446886446886,-1.0,63.169258450070686,0.25582687471037285,
2023-08-12 10:08:29.662000,-8.831325301204819,0.13253012048192772,-4.253012048192772,0.2329858982219497,-8.75107296137339,-3.9534028203556097,3.0,0.255966255966256,3906.7649609713785,-0.9238389371248766,0.5580094400093228,-0.06782821513897744,1611.7216117216117,-1.0,63.169258450070686,0.2558285189099049,
2023-08-12 10:08:29.670000,-8.831325301204819,0.13253012048192772,-4.265060240963856,0.2452483139178418,-8.773145309625995,-3.896995708154506,3.0,0.255966255966256,3906.7649609713785,-1.0307091661325103,0.9091544781772618,-0.12889691742905376,1747.2527472527472,-1.0,63.169258450070686,0.2558301583728382,
2023-08-12 10:08:29.678000,-8.855421686746988,0.14457831325301207,-4.253012048192772,0.24770079705702022,-8.76578786020846,-3.9117106069895766,3.0,0.255966255966256,3906.7649609713785,-1.2444496241477774,0.4358720354291702,0.054309189441175236,1887.179487179487,-1.0,63.169258450070686,0.25583179055250393,
2023-08-12 10:08:29.685000,-8.843373493975903,0.1566265060240964,-4.228915662650603,0.21827099938687922,-8.71919068056407,-3.9460453709380747,3.0,0.255966255966256,3906.7649609713785,-1.3360526775828918,0.4358720354291702,-0.022026688421420183,2022.7106227106226,-1.0,63.169258450070686,0.25583341294790873,
2023-08-12 10:08:29.693000,-8.867469879518072,0.16867469879518074,-4.289156626506024,0.29429797670141017,-8.692213366033108,-3.9705702023298586,3.0,0.255966255966256,3906.7649609713785,-1.5039916088806018,0.6038109667268801,-0.23576714643668734,2145.0549450549447,-1.0,63.169258450070686,0.2558350231117229,
2023-08-12 10:08:29.701000,-8.831325301204819,0.18072289156626506,-4.289156626506024,0.31882280809319435,-8.738810545677499,-3.9435928877988964,3.0,0.255966255966256,3906.7649609713785,-1.3055183264378538,0.4969407377192465,-0.34263737544432094,2248.3516483516482,-1.0,63.169258450070686,0.25583661865826074,
2023-08-12 10:08:29.708000,-8.843373493975903,0.20481927710843376,-4.27710843373494,0.2722256284488044,-8.706928264868179,-3.9509503372164314,3.0,0.255966255966256,3906.7649609713785,-1.320785502010373,0.405337684284132,-0.23576714643668734,2327.4725274725274,957.489013671875,62.66390438247012,0.2558381974101651,
2023-08-12 10:08:29.716000,-8.819277108433736,0.1927710843373494,-4.313253012048193,0.32127529123237275,-8.692213366033108,-3.9705702023298586,3.0,0.255966255966256,3906.7649609713785,-1.6261290134607544,0.4816735621467274,-0.03729386399393927,2381.6849816849817,-1.0,62.66390438247012,0.2558397572471268,
2023-08-12 10:08:29.724000,-8.819277108433736,0.21686746987951808,-4.313253012048193,0.27713059472716123,-8.714285714285714,-4.009809932556713,3.0,0.255966255966256,3906.7649609713785,-1.6108618378882353,0.405337684284132,-0.12889691742905376,2409.523809523809,-1.0,62.66390438247012,0.25584129598599786,
2023-08-12 10:08:29.731000,-8.819277108433736,0.21686746987951808,-4.301204819277109,0.2820355610055181,-8.677498467198038,-3.9435928877988964,3.0,0.255966255966256,3906.7649609713785,-2.023075578346251,0.31373463084901754,-0.03729386399393927,2413.186813186813,-1.0,62.66390438247012,0.25584281167619655,
2023-08-12 10:08:29.739000,-8.831325301204819,0.20481927710843376,-4.289156626506024,0.27467811158798283,-8.67259350091968,-3.936235438381361,3.0,0.255966255966256,3906.7649609713785,-2.2215488607889986,0.5885437911543611,-0.29683584872676366,2395.6043956043954,-1.0,62.66390438247012,0.2558443024477363,
2023-08-12 10:08:29.747000,-8.819277108433736,0.1927710843373494,-4.301204819277109,0.29675045984058857,-8.706928264868179,-4.012262415695892,3.0,0.2555222555222555,3913.5534317984366,-2.5574267233844186,0.7564827224520709,-0.12889691742905376,2358.241758241758,-1.0,62.66390438247012,0.2558457663905321,
2023-08-12 10:08:29.754000,-8.783132530120483,0.1927710843373494,-4.301204819277109,0.33108522378908645,-8.68976088289393,-3.965665236051502,3.0,0.255966255966256,3906.7649609713785,-2.465823669949304,0.9091544781772618,-0.6937824136122599,2309.157509157509,-1.0,62.66390438247012,0.25584720169958997,
2023-08-12 10:08:29.762000,-8.771084337349398,0.16867469879518074,-4.289156626506024,0.26486817903126914,-8.625996321275291,-3.955855303494788,3.0,0.255966255966256,3906.7649609713785,-2.9238389371248767,0.7259483713070327,-0.6479808868947026,2250.5494505494503,-1.0,62.66390438247012,0.25584860678817406,
2023-08-12 10:08:29.770000,-8.759036144578314,0.1566265060240964,-4.253012048192772,0.23053341508277128,-8.645616186388718,-3.9386879215205393,3.0,0.255966255966256,3906.7649609713785,-2.816968708117243,0.6343453178719183,-0.44950760445195453,2183.8827838827838,-1.0,62.66390438247012,0.255849980304532,
2023-08-12 10:08:29.777000,-8.74698795180723,0.1566265060240964,-4.216867469879518,0.2599632127529123,-8.599019006744328,-3.9215205395462904,3.0,0.255966255966256,3906.7649609713785,-2.7559000058271668,0.4206048598566511,-1.0449274517801987,2111.355311355311,-1.0,62.66390438247012,0.2558513208607156,
2023-08-12 10:08:29.785000,-8.783132530120483,0.13253012048192772,-4.240963855421687,0.21336603310852237,-8.65787860208461,-3.914163090128755,3.0,0.255966255966256,3906.7649609713785,-2.9238389371248767,0.25266592855894116,-1.1517976807878323,2038.8278388278386,-1.0,62.66390438247012,0.2558526270586831,
2023-08-12 10:08:29.793000,-8.783132530120483,0.14457831325301207,-4.228915662650603,0.23053341508277128,-8.655426118945432,-3.9681177191906802,3.0,0.255966255966256,3906.7649609713785,-2.664296952392052,0.3290018064215366,-1.0449274517801987,1965.5677655677655,-1.0,62.66390438247012,0.2558538976433901,
2023-08-12 10:08:29.800000,-8.819277108433736,0.14457831325301207,-4.253012048192772,0.27713059472716123,-8.753525444512569,-3.8749233599019006,3.0,0.255966255966256,3906.7649609713785,-2.618495425674495,0.5122079132917656,-1.3350037876580614,1894.5054945054944,-1.0,62.66390438247012,0.2558551315061421,
2023-08-12 10:08:29.808000,-8.831325301204819,0.13253012048192772,-4.228915662650603,0.23053341508277128,-8.714285714285714,-3.9166155732679337,3.0,0.255966255966256,3906.7649609713785,-2.068877105063808,0.31373463084901754,-1.441874016665695,1829.3040293040292,-1.0,62.66390438247012,0.25585632782623186,
2023-08-12 10:08:29.816000,-8.843373493975903,0.14457831325301207,-4.228915662650603,0.2207234825260576,-8.709380748007357,-3.9534028203556097,3.0,0.255966255966256,3906.7649609713785,-2.649029776819533,-0.02214323174640232,-1.8846221082687484,1769.9633699633698,-1.0,62.66390438247012,0.25585748605296943,
2023-08-12 10:08:29.823000,-8.855421686746988,0.18072289156626506,-4.216867469879518,0.27713059472716123,-8.724095646842427,-3.8626609442060085,3.0,0.255966255966256,3906.7649609713785,-2.801701532544724,0.2373987529864221,-1.9609579861313438,1717.216117216117,-1.0,62.66390438247012,0.2558586056208558,
2023-08-12 10:08:29.831000,-8.867469879518072,0.16867469879518074,-4.228915662650603,0.2844880441446965,-8.822194972409564,-3.8283261802575104,3.0,0.255966255966256,3906.7649609713785,-2.3131519142241133,-0.08321193403647865,-1.243400734222947,1669.5970695970695,-1.0,62.66390438247012,0.25585968597247866,
2023-08-12 10:08:29.839000,-8.843373493975903,0.1566265060240964,-4.1807228915662655,0.30656039239730226,-8.729000613120784,-3.825873697118332,3.0,0.255966255966256,3906.7649609713785,-2.633762601247014,-0.15954781189907408,-1.1059961540702752,1629.3040293040292,-1.0,62.66390438247012,0.2558607267083081,
2023-08-12 10:08:29.846000,-8.855421686746988,0.13253012048192772,-4.168674698795181,0.24770079705702022,-8.731453096259962,-3.8528510116492947,3.0,0.255966255966256,3906.7649609713785,-2.5574267233844186,-0.006876056173883237,-1.243400734222947,1591.2087912087911,-1.0,62.66390438247012,0.25586172758668063,
2023-08-12 10:08:29.854000,-8.843373493975903,0.1566265060240964,-4.216867469879518,0.19865113427345185,-8.733905579399142,-3.884733292458614,3.0,0.255966255966256,3906.7649609713785,-2.0078084027737315,0.14579569955130758,-0.907522871627527,1554.5787545787546,-1.0,62.66390438247012,0.25586268866201034,
2023-08-12 10:08:29.862000,-8.819277108433736,0.14457831325301207,-4.240963855421687,0.21827099938687922,-8.760882893930104,-3.9386879215205393,3.0,0.255966255966256,3906.7649609713785,-1.8551366470485406,0.37480333313909386,-0.4342404288794354,1518.6813186813185,-1.0,62.66390438247012,0.2558636102633511,
2023-08-12 10:08:29.869000,-8.819277108433736,0.13253012048192772,-4.253012048192772,0.2207234825260576,-8.682403433476395,-3.8920907418761495,3.0,0.255966255966256,3906.7649609713785,-2.068877105063808,0.573276615581842,-0.541110657887069,1481.3186813186812,-1.0,62.66390438247012,0.2558644928448276,
2023-08-12 10:08:29.877000,-8.819277108433736,0.13253012048192772,-4.253012048192772,0.2452483139178418,-8.704475781729,-3.985285101164929,3.0,0.255966255966256,3906.7649609713785,-1.7635335936134262,0.6343453178719183,-0.5716450090321071,1442.4908424908424,-1.0,62.66390438247012,0.2558653369846492,
2023-08-12 10:08:29.885000,-8.795180722891567,0.13253012048192772,-4.265060240963856,0.22808093194359289,-8.71919068056407,-3.919068056407112,3.0,0.255966255966256,3906.7649609713785,-2.023075578346251,0.26793310413146026,-0.7548511159023362,1401.4652014652013,-1.0,62.66390438247012,0.2558661432446714,
2023-08-12 10:08:29.892000,-8.795180722891567,0.14457831325301207,-4.265060240963856,0.2575107296137339,-8.697118332311465,-3.896995708154506,3.0,0.255966255966256,3906.7649609713785,-1.7940679447584644,0.6190781422993992,-0.7395839403298171,1358.974358974359,-1.0,62.66390438247012,0.2558669121883924,
2023-08-12 10:08:29.900000,-8.783132530120483,0.13253012048192772,-4.265060240963856,0.19374616799509503,-8.635806253832005,-3.977927651747394,3.0,0.2555222555222555,3913.5534317984366,-1.7940679447584644,0.6190781422993992,-0.7395839403298171,1313.5531135531135,-1.0,62.66390438247012,0.2558676445258868,
2023-08-12 10:08:29.908000,-8.759036144578314,0.16867469879518074,-4.27710843373494,0.2575107296137339,-8.65787860208461,-3.958307786633967,3.0,0.255966255966256,3906.7649609713785,-1.748266418040907,0.29846745527649843,-0.8006526426198934,1271.7948717948716,-1.0,62.66390438247012,0.25586834109844014,
2023-08-12 10:08:29.915000,-8.771084337349398,0.1566265060240964,-4.289156626506024,0.29675045984058857,-8.645616186388718,-3.9509503372164314,3.0,0.255966255966256,3906.7649609713785,-1.9620068760561744,0.7259483713070327,-1.1823320319328705,1235.8974358974358,-1.0,62.66390438247012,0.2558690029803303,
2023-08-12 10:08:29.923000,-8.771084337349398,0.18072289156626506,-4.289156626506024,0.26241569589209074,-8.616186388718576,-4.017167381974248,3.0,0.255966255966256,3906.7649609713785,-2.2062816852164797,0.5427422644368037,-1.090728978497756,1208.058608058608,-1.0,62.66390438247012,0.2558696313453508,
2023-08-12 10:08:29.931000,-8.759036144578314,0.18072289156626506,-4.289156626506024,0.3041079092581238,-8.65787860208461,-3.997547516860821,3.0,0.255966255966256,3906.7649609713785,-2.068877105063808,0.6038109667268801,-1.2586679097954658,1191.9413919413919,-1.0,62.66390438247012,0.25587022734330417,
2023-08-12 10:08:29.938000,-8.795180722891567,0.1927710843373494,-4.289156626506024,0.23543838136112813,-8.67259350091968,-3.9803801348865724,3.0,0.255966255966256,3906.7649609713785,-2.252083211934037,0.1610628751238267,-1.5182098945282902,1184.6153846153845,-1.0,62.66390438247012,0.2558707923810561,
2023-08-12 10:08:29.946000,-8.795180722891567,0.1927710843373494,-4.36144578313253,0.299202942979767,-8.667688534641323,-4.026977314530963,3.0,0.255966255966256,3906.7649609713785,-2.404754967659228,0.19159722626886486,-1.3350037876580614,1185.3479853479853,-1.0,62.66390438247012,0.25587132795610507,
2023-08-12 10:08:29.954000,-8.807228915662652,0.20481927710843376,-4.337349397590362,0.30656039239730226,-8.662783568362967,-4.039239730226854,3.0,0.255966255966256,3906.7649609713785,-2.5116251966668615,0.29846745527649843,-1.7472175281160767,1188.278388278388,-1.0,62.66390438247012,0.2558718355213826,
2023-08-12 10:08:29.961000,-8.819277108433736,0.20481927710843376,-4.337349397590362,0.3041079092581238,-8.704475781729,-4.034334763948498,3.0,0.255966255966256,3906.7649609713785,-2.5421595478118997,0.25266592855894116,-1.5029427189557714,1197.069597069597,-1.0,62.66390438247012,0.2558723166265224,
2023-08-12 10:08:29.969000,-8.819277108433736,0.20481927710843376,-4.325301204819278,0.24279583077866337,-8.71919068056407,-4.049049662783568,3.0,0.255966255966256,3906.7649609713785,-3.0765106928500674,0.22213157741390302,-1.5334770701008094,1207.3260073260074,-1.0,62.66390438247012,0.2558727729096272,
2023-08-12 10:08:29.977000,-8.831325301204819,0.18072289156626506,-4.301204819277109,0.3041079092581238,-8.706928264868179,-3.987737584304108,3.0,0.255966255966256,3906.7649609713785,-3.473457257735564,0.6801468445894755,-1.441874016665695,1220.5128205128203,-1.0,62.66390438247012,0.2558732060888703,
2023-08-12 10:08:29.984000,-8.867469879518072,0.16867469879518074,-4.301204819277109,0.2795830778663397,-8.73635806253832,-3.926425505824647,3.0,0.255966255966256,3906.7649609713785,-3.229182448575258,0.573276615581842,-1.3044694365130232,1236.6300366300366,-1.0,62.66390438247012,0.25587361795396907,
2023-08-12 10:08:29.992000,-8.867469879518072,0.18072289156626506,-4.301204819277109,0.24034334763948498,-8.814837522992029,-4.019619865113427,3.0,0.255966255966256,3906.7649609713785,-3.549793135598159,0.31373463084901754,-1.441874016665695,1252.7472527472526,-1.0,62.66390438247012,0.2558740103575725,
2023-08-12 10:08:30,-8.879518072289157,0.18072289156626506,-4.301204819277109,0.25260576333537704,-8.78050275904353,-3.990190067443286,3.0,0.255966255966256,3906.7649609713785,-3.717732066895869,0.3442689819940557,-1.5182098945282902,1267.3992673992673,-1.0,62.66390438247012,0.2558743853453497,
2023-08-12 10:08:30.007000,-8.903614457831326,0.1566265060240964,-4.325301204819278,0.24770079705702022,-8.755977927651747,-3.9926425505824645,3.0,0.255966255966256,3906.7649609713785,-3.5039916088806016,0.3290018064215366,-1.273935085367985,1279.8534798534797,-1.0,62.66390438247012,0.25587474512693925,
2023-08-12 10:08:30.015000,-8.879518072289157,0.1566265060240964,-4.301204819277109,0.2599632127529123,-8.795217657878602,-4.0,3.0,0.255966255966256,3906.7649609713785,-3.8093351203309833,0.29846745527649843,-1.3197366120855423,1288.6446886446886,-1.0,62.66390438247012,0.2558750919193153,
2023-08-12 10:08:30.023000,-8.855421686746988,0.16867469879518074,-4.27710843373494,0.2844880441446965,-8.809932556713672,-3.955855303494788,3.0,0.255966255966256,3906.7649609713785,-4.252083211934037,0.08472699726123126,-0.9991259250626415,1297.4358974358975,-1.0,62.66390438247012,0.2558754278005634,
2023-08-12 10:08:30.030000,-8.831325301204819,0.1566265060240964,-4.265060240963856,0.26241569589209074,-8.704475781729,-3.965665236051502,3.0,0.255966255966256,3906.7649609713785,-3.900938173766098,-0.44962414777693666,-1.1975992075053896,1302.5641025641025,-1.0,62.66390438247012,0.2558757547226913,
2023-08-12 10:08:30.038000,-8.795180722891567,0.14457831325301207,-4.240963855421687,0.18884120171673818,-8.660331085223788,-3.948497854077253,3.0,0.255966255966256,3906.7649609713785,-3.7024648913233498,-0.8313035370899138,-0.9380572227725652,1303.2967032967033,-1.0,62.66390438247012,0.2558760747907424,
2023-08-12 10:08:30.045000,-8.795180722891567,0.14457831325301207,-4.289156626506024,0.26486817903126914,-8.64316370324954,-3.9730226854690374,3.0,0.255966255966256,3906.7649609713785,-3.168113746285182,-0.9839752928151045,-1.090728978497756,1301.8315018315018,-1.0,62.66390438247012,0.2558763900949115,
2023-08-12 10:08:30.053000,-8.72289156626506,0.1566265060240964,-4.289156626506024,0.2575107296137339,-8.64316370324954,-3.9730226854690374,3.0,0.2555222555222555,3913.5534317984366,-3.1070450439951056,-0.5412272012120511,-1.4113396655206567,1296.7032967032967,-1.0,62.66390438247012,0.25587670271313956,
2023-08-12 10:08:30.061000,-8.734939759036145,0.18072289156626506,-4.289156626506024,0.2893930104230533,-8.532801961986511,-3.948497854077253,3.0,0.255966255966256,3906.7649609713785,-3.2902511508653345,-0.510692850067013,-1.5487442456733285,1287.9120879120878,-1.0,62.66390438247012,0.25587701468224583,
2023-08-12 10:08:30.068000,-8.710843373493976,0.18072289156626506,-4.289156626506024,0.3163703249540159,-8.603923973022685,-3.990190067443286,3.0,0.255966255966256,3906.7649609713785,-3.2444496241477774,-0.25115086533418857,-1.457141192238214,1275.4578754578754,-1.0,62.66390438247012,0.25587732796914475,
2023-08-12 10:08:30.076000,-8.72289156626506,0.1927710843373494,-4.253012048192772,0.24770079705702022,-8.633353770692827,-3.9411404046597176,3.0,0.255966255966256,3906.7649609713785,-3.7940679447584644,0.06945982168871218,-1.457141192238214,1265.2014652014652,-1.0,62.66390438247012,0.25587764462299967,
2023-08-12 10:08:30.084000,-8.734939759036145,0.18072289156626506,-4.289156626506024,0.26486817903126914,-8.574494175352545,-3.9803801348865724,3.0,0.255966255966256,3906.7649609713785,-3.732999242468388,0.29846745527649843,-1.7930190548336338,1254.9450549450548,-1.0,62.66390438247012,0.2558779664909011,
2023-08-12 10:08:30.091000,-8.74698795180723,0.1566265060240964,-4.253012048192772,0.2207234825260576,-8.694665849172287,-3.9019006744328633,3.0,0.255966255966256,3906.7649609713785,-3.5039916088806016,0.054192646116193094,-1.5334770701008094,1246.153846153846,-1.0,62.66390438247012,0.2558782953703685,
2023-08-12 10:08:30.099000,-8.783132530120483,0.16867469879518074,-4.289156626506024,0.24770079705702022,-8.68976088289393,-3.919068056407112,3.0,0.255966255966256,3906.7649609713785,-3.732999242468388,0.45113921100168924,-1.625080123535924,1238.8278388278388,-1.0,62.66390438247012,0.2558786331305548,
2023-08-12 10:08:30.107000,-8.819277108433736,0.1566265060240964,-4.27710843373494,0.18884120171673818,-8.709380748007357,-3.9926425505824645,3.0,0.255966255966256,3906.7649609713785,-3.4276557310180062,0.5122079132917656,-1.6403472991084431,1229.3040293040292,-1.0,62.66390438247012,0.2558789814182501,
2023-08-12 10:08:30.114000,-8.831325301204819,0.18072289156626506,-4.265060240963856,0.2918454935622317,-8.755977927651747,-3.958307786633967,3.0,0.255966255966256,3906.7649609713785,-3.381854204300449,0.6038109667268801,-1.625080123535924,1220.5128205128203,-1.0,62.66390438247012,0.25587934167259246,
2023-08-12 10:08:30.122000,-8.867469879518072,0.16867469879518074,-4.265060240963856,0.34334763948497854,-8.792765174739424,-3.955855303494788,3.0,0.255966255966256,3906.7649609713785,-3.519258784453121,0.7564827224520709,-1.6403472991084431,1213.1868131868132,-1.0,62.66390438247012,0.25587971526770587,
2023-08-12 10:08:30.130000,-8.867469879518072,0.1927710843373494,-4.253012048192772,0.2820355610055181,-8.78050275904353,-3.90680564071122,3.0,0.255966255966256,3906.7649609713785,-3.4581900821630445,0.405337684284132,-1.5640114212458476,1206.5934065934066,-1.0,62.66390438247012,0.2558801035065812,
2023-08-12 10:08:30.137000,-8.879518072289157,0.20481927710843376,-4.265060240963856,0.2722256284488044,-8.79767014101778,-3.9632127529123236,3.0,0.255966255966256,3906.7649609713785,-3.4887244333080827,0.4816735621467274,-1.7319503525435576,1199.2673992673992,-1.0,62.66390438247012,0.25588050761551934,
2023-08-12 10:08:30.145000,-8.891566265060241,0.18072289156626506,-4.265060240963856,0.2673206621704476,-8.787860208461066,-3.958307786633967,3.0,0.255966255966256,3906.7649609713785,-3.1986480974302203,-0.15954781189907408,-1.2128663830779087,1192.6739926739926,-1.0,62.66390438247012,0.2558809287391572,
2023-08-12 10:08:30.153000,-8.855421686746988,0.18072289156626506,-4.265060240963856,0.269773145309626,-8.787860208461066,-3.9313304721030042,3.0,0.255966255966256,3906.7649609713785,-3.4123885554454874,-0.15954781189907408,-1.0296602762076796,1183.8827838827838,-1.0,62.66390438247012,0.2558813679360927,
2023-08-12 10:08:30.160000,-8.855421686746988,0.1927710843373494,-4.27710843373494,0.26486817903126914,-8.770692826486817,-3.9460453709380747,3.0,0.255966255966256,3906.7649609713785,-3.519258784453121,-0.35802109434182217,-1.1212633296427943,1172.8937728937728,-1.0,62.66390438247012,0.2558818261751247,
2023-08-12 10:08:30.168000,-8.843373493975903,0.18072289156626506,-4.313253012048193,0.2452483139178418,-8.697118332311465,-3.990190067443286,3.0,0.255966255966256,3906.7649609713785,-3.7940679447584644,-0.29695239205174584,-1.075461802925237,1160.4395604395604,-1.0,62.66390438247012,0.2558823044708616,
2023-08-12 10:08:30.176000,-8.831325301204819,0.18072289156626506,-4.301204819277109,0.26486817903126914,-8.704475781729,-3.926425505824647,3.0,0.255966255966256,3906.7649609713785,-3.7940679447584644,-0.29695239205174584,-1.075461802925237,1146.5201465201465,-1.0,62.66390438247012,0.255882803722081,
2023-08-12 10:08:30.183000,-8.819277108433736,0.16867469879518074,-4.289156626506024,0.2673206621704476,-8.640711220110362,-4.004904966278357,3.0,0.255966255966256,3906.7649609713785,-3.946739700483655,-0.28168521647922673,-1.3808053143756187,1135.5311355311355,-1.0,62.66390438247012,0.2558833247209807,
2023-08-12 10:08:30.191000,-8.771084337349398,0.1566265060240964,-4.289156626506024,0.2844880441446965,-8.618638871857755,-4.031882280809319,3.0,0.255966255966256,3906.7649609713785,-3.717732066895869,-0.525960025639532,-1.0601946273527179,1126.7399267399267,-1.0,62.66390438247012,0.25588386814188774,
2023-08-12 10:08:30.199000,-8.771084337349398,0.16867469879518074,-4.349397590361446,0.25015328019619865,-8.64316370324954,-4.041692213366033,3.0,0.255966255966256,3906.7649609713785,-3.519258784453121,-0.7244333080822801,-1.3808053143756187,1122.3443223443223,-1.0,62.66390438247012,0.2558844345515552,
2023-08-12 10:08:30.206000,-8.734939759036145,0.18072289156626506,-4.301204819277109,0.2722256284488044,-8.623543838136113,-4.01471489883507,3.0,0.255966255966256,3906.7649609713785,-3.8093351203309833,-0.7091661325097611,-0.9991259250626415,1120.8791208791208,-1.0,62.66390438247012,0.25588502453765094,
2023-08-12 10:08:30.214000,-8.734939759036145,0.1927710843373494,-4.325301204819278,0.299202942979767,-8.638258736971183,-3.9288779889638255,3.0,0.255966255966256,3906.7649609713785,-3.519258784453121,-0.17481498747159316,-1.3197366120855423,1121.6117216117216,-1.0,62.66390438247012,0.25588563856093766,
2023-08-12 10:08:30.222000,-8.734939759036145,0.20481927710843376,-4.289156626506024,0.34580012262415694,-8.638258736971183,-3.985285101164929,3.0,0.255966255966256,3906.7649609713785,-3.565060311170678,-0.0374104073189214,-1.3502709632305805,1123.8095238095236,-1.0,62.66390438247012,0.25588627695713195,
2023-08-12 10:08:30.229000,-8.74698795180723,0.21686746987951808,-4.265060240963856,0.3016554261189454,-8.613733905579398,-3.9803801348865724,3.0,0.255966255966256,3906.7649609713785,-4.053609929491289,-0.0374104073189214,-1.1365305052153132,1127.4725274725274,-1.0,62.66390438247012,0.25588693980038546,
2023-08-12 10:08:30.237000,-8.759036144578314,0.20481927710843376,-4.27710843373494,0.2795830778663397,-8.613733905579398,-3.9705702023298586,3.0,0.255966255966256,3906.7649609713785,-4.3436862653691515,0.02365829497115493,-1.7472175281160767,1132.6007326007325,-1.0,62.66390438247012,0.25588762692624806,
2023-08-12 10:08:30.245000,-8.759036144578314,0.20481927710843376,-4.27710843373494,0.2452483139178418,-8.630901287553648,-3.965665236051502,3.0,0.255966255966256,3906.7649609713785,-4.252083211934037,0.054192646116193094,-1.5945457723908858,1137.7289377289376,-1.0,62.66390438247012,0.25588833808257455,
2023-08-12 10:08:30.252000,-8.795180722891567,0.18072289156626506,-4.27710843373494,0.328632740649908,-8.706928264868179,-3.9681177191906802,3.0,0.255966255966256,3906.7649609713785,-3.5955946623157162,-0.15954781189907408,-1.9151564594137864,1139.9267399267399,-1.0,62.66390438247012,0.25588907307040215,
2023-08-12 10:08:30.260000,-8.831325301204819,0.1927710843373494,-4.265060240963856,0.2893930104230533,-8.67259350091968,-3.9092581238503983,3.0,0.255966255966256,3906.7649609713785,-3.6719305401783116,-0.052677582891440485,-1.8082862304061529,1142.1245421245421,-1.0,62.66390438247012,0.2558898317261857,
2023-08-12 10:08:30.268000,-8.831325301204819,0.1927710843373494,-4.27710843373494,0.3384426732066217,-8.682403433476395,-3.9215205395462904,3.0,0.255966255966256,3906.7649609713785,-3.6261290134607544,-0.11374628518151682,-1.441874016665695,1143.5897435897434,-1.0,62.66390438247012,0.2558906136381382,
2023-08-12 10:08:30.275000,-8.855421686746988,0.1927710843373494,-4.301204819277109,0.269773145309626,-8.726548129981605,-3.9681177191906802,3.0,0.255966255966256,3906.7649609713785,-3.4581900821630445,-0.02214323174640232,-1.5792785968183667,1146.5201465201465,-1.0,62.66390438247012,0.2558914181712365,
2023-08-12 10:08:30.283000,-8.855421686746988,0.18072289156626506,-4.27710843373494,0.33108522378908645,-8.748620478234212,-3.9288779889638255,3.0,0.255966255966256,3906.7649609713785,-4.1146786317813655,-0.25115086533418857,-1.5029427189557714,1150.18315018315,-1.0,62.66390438247012,0.25589224462005306,
2023-08-12 10:08:30.291000,-8.867469879518072,0.1927710843373494,-4.289156626506024,0.3114653586756591,-8.729000613120784,-3.896995708154506,3.0,0.255966255966256,3906.7649609713785,-3.5955946623157162,0.4969407377192465,-1.609812947963405,1151.6483516483515,-1.0,62.66390438247012,0.25589309221267936,
2023-08-12 10:08:30.298000,-8.879518072289157,0.1927710843373494,-4.27710843373494,0.3114653586756591,-8.75107296137339,-3.9460453709380747,3.0,0.255966255966256,3906.7649609713785,-3.946739700483655,0.2832002797039794,-1.1975992075053896,1153.113553113553,-1.0,62.66390438247012,0.25589396025374883,
2023-08-12 10:08:30.306000,-8.855421686746988,0.1927710843373494,-4.253012048192772,0.33353770692826484,-8.699570815450643,-3.8994481912936845,3.0,0.255966255966256,3906.7649609713785,-3.8246022959035026,0.11526134840626943,-1.1823320319328705,1156.0439560439559,-1.0,62.66390438247012,0.2558948481086566,
2023-08-12 10:08:30.314000,-8.855421686746988,0.16867469879518074,-4.253012048192772,0.3041079092581238,-8.682403433476395,-3.948497854077253,3.0,0.255966255966256,3906.7649609713785,-4.0078084027737315,0.22213157741390302,-1.243400734222947,1160.4395604395604,-1.0,62.66390438247012,0.25589575506045353,
2023-08-12 10:08:30.321000,-8.819277108433736,0.1927710843373494,-4.19277108433735,0.24034334763948498,-8.743715511955855,-3.9337829552421826,3.0,0.25641025641025644,3899.9999999999995,-3.7024648913233498,-0.11374628518151682,-1.1517976807878323,1164.8351648351647,-1.0,62.66390438247012,0.2558966803160925,
2023-08-12 10:08:30.329000,-8.831325301204819,0.18072289156626506,-4.228915662650603,0.24279583077866337,-8.748620478234212,-3.894543225015328,3.0,0.255966255966256,3906.7649609713785,-3.4887244333080827,-0.7397004836547992,-0.9533243983450843,1167.7655677655678,-1.0,62.66390438247012,0.25589762316199055,
2023-08-12 10:08:30.337000,-8.819277108433736,0.14457831325301207,-4.253012048192772,0.3041079092581238,-8.699570815450643,-3.9386879215205393,3.0,0.255966255966256,3906.7649609713785,-3.2597167997202963,-0.7549676592273183,-0.9227900472000461,1169.230769230769,-1.0,62.66390438247012,0.255898582704119,
2023-08-12 10:08:30.344000,-8.831325301204819,0.18072289156626506,-4.301204819277109,0.2599632127529123,-8.741263028816677,-3.955855303494788,3.0,0.255966255966256,3906.7649609713785,-3.1528465707126627,-0.7091661325097611,-0.9685915739176033,1167.7655677655678,-1.0,62.66390438247012,0.2558995578744043,
2023-08-12 10:08:30.352000,-8.795180722891567,0.1927710843373494,-4.313253012048193,0.35806253832004903,-8.687308399754752,-3.995095033721643,3.0,0.255966255966256,3906.7649609713785,-2.450556494376785,-0.510692850067013,-1.2586679097954658,1164.102564102564,-1.0,62.66390438247012,0.25590054756466074,
2023-08-12 10:08:30.360000,-8.771084337349398,0.21686746987951808,-4.27710843373494,0.2673206621704476,-8.648068669527897,-3.9239730226854688,3.0,0.255966255966256,3906.7649609713785,-2.6032282501019757,-0.2664180409067077,-1.1212633296427943,1158.2417582417581,-1.0,62.66390438247012,0.2559015506428255,
2023-08-12 10:08:30.367000,-8.74698795180723,0.21686746987951808,-4.313253012048193,0.3359901900674433,-8.638258736971183,-3.9411404046597176,3.0,0.255966255966256,3906.7649609713785,-2.6795641279645714,-0.144280636326555,-1.1365305052153132,1154.5787545787546,-1.0,62.66390438247012,0.2559025660868249,
2023-08-12 10:08:30.375000,-8.734939759036145,0.21686746987951808,-4.301204819277109,0.3408951563458001,-8.623543838136113,-3.9828326180257507,3.0,0.255966255966256,3906.7649609713785,-3.3207855020103727,-0.3122195676242649,-1.273935085367985,1151.6483516483515,-1.0,62.66390438247012,0.2559035928415557,
2023-08-12 10:08:30.383000,-8.74698795180723,0.21686746987951808,-4.27710843373494,0.2820355610055181,-8.621091354996935,-3.914163090128755,3.0,0.255966255966256,3906.7649609713785,-3.4123885554454874,0.08472699726123126,-1.3655381388030996,1148.7179487179487,-1.0,62.66390438247012,0.2559046298249509,
2023-08-12 10:08:30.390000,-8.734939759036145,0.20481927710843376,-4.265060240963856,0.26486817903126914,-8.64316370324954,-3.889638258736971,3.0,0.255966255966256,3906.7649609713785,-3.4429229065905256,0.6648796690169564,-1.3502709632305805,1144.3223443223442,-1.0,62.66390438247012,0.2559056757950642,
2023-08-12 10:08:30.398000,-8.74698795180723,0.1927710843373494,-4.253012048192772,0.30901287553648066,-8.574494175352545,-3.936235438381361,3.0,0.255966255966256,3906.7649609713785,-3.6261290134607544,0.6954140201619946,-1.5487442456733285,1138.4615384615383,-1.0,62.66390438247012,0.2559067295147718,
2023-08-12 10:08:30.406000,-8.771084337349398,0.1927710843373494,-4.228915662650603,0.25260576333537704,-8.665236051502145,-3.936235438381361,3.0,0.255966255966256,3906.7649609713785,-3.2597167997202963,0.6343453178719183,-1.7472175281160767,1131.8681318681317,-1.0,62.66390438247012,0.25590778974592526,
2023-08-12 10:08:30.413000,-8.795180722891567,0.18072289156626506,-4.265060240963856,0.2599632127529123,-8.667688534641323,-3.9092581238503983,3.0,0.25641025641025644,3899.9999999999995,-2.878037410407319,0.7106811957345137,-1.8540877571237102,1127.4725274725274,-1.0,62.66390438247012,0.2559088551256213,
2023-08-12 10:08:30.421000,-8.819277108433736,0.1566265060240964,-4.265060240963856,0.3016554261189454,-8.702023298589822,-3.9092581238503983,3.0,0.255966255966256,3906.7649609713785,-2.847503059262281,0.5580094400093228,-1.7319503525435576,1126.7399267399267,-1.0,62.66390438247012,0.25590992446834826,
2023-08-12 10:08:30.428000,-8.831325301204819,0.16867469879518074,-4.289156626506024,0.27467811158798283,-8.716738197424892,-3.977927651747394,3.0,0.255966255966256,3906.7649609713785,-2.7559000058271668,0.7412155468795518,-1.7472175281160767,1129.6703296703297,-1.0,62.66390438247012,0.25591099664198824,
2023-08-12 10:08:30.436000,-8.867469879518072,0.16867469879518074,-4.289156626506024,0.2844880441446965,-8.684855916615573,-3.936235438381361,3.0,0.255966255966256,3906.7649609713785,-2.9085717615523574,0.25266592855894116,-1.4724083678107331,1137.7289377289376,-1.0,62.66390438247012,0.2559120704121423,
2023-08-12 10:08:30.444000,-8.855421686746988,0.16867469879518074,-4.289156626506024,0.23053341508277128,-8.733905579399142,-3.9534028203556097,3.0,0.255966255966256,3906.7649609713785,-2.587961074529457,-0.28168521647922673,-1.5182098945282902,1149.4505494505493,-1.0,62.66390438247012,0.2559131445841588,
2023-08-12 10:08:30.451000,-8.843373493975903,0.1566265060240964,-4.265060240963856,0.2918454935622317,-8.699570815450643,-4.009809932556713,3.0,0.25641025641025644,3899.9999999999995,-2.587961074529457,-0.28168521647922673,-1.5182098945282902,1170.6959706959706,-1.0,62.66390438247012,0.25591421800622144,
2023-08-12 10:08:30.459000,-8.843373493975903,0.1566265060240964,-4.27710843373494,0.22317596566523604,-8.702023298589822,-3.948497854077253,3.0,0.255966255966256,3906.7649609713785,-2.3894877920867086,-0.08321193403647865,-1.5792785968183667,1206.5934065934066,-1.0,62.66390438247012,0.25591528972152816,
2023-08-12 10:08:30.467000,-8.831325301204819,0.14457831325301207,-4.27710843373494,0.1912936848559166,-8.73635806253832,-3.9681177191906802,3.0,0.255966255966256,3906.7649609713785,-2.847503059262281,-0.08321193403647865,-1.5334770701008094,1262.2710622710622,-1.0,62.66390438247012,0.255916358843538,
2023-08-12 10:08:30.474000,-8.819277108433736,0.16867469879518074,-4.27710843373494,0.25015328019619865,-8.682403433476395,-3.9239730226854688,3.0,0.255966255966256,3906.7649609713785,-3.1528465707126627,-0.02214323174640232,-1.2586679097954658,1338.4615384615383,-1.0,62.66390438247012,0.2559174243994717,
2023-08-12 10:08:30.482000,-8.831325301204819,0.14457831325301207,-4.27710843373494,0.29429797670141017,-8.73635806253832,-3.9435928877988964,3.0,0.255966255966256,3906.7649609713785,-2.6948313035370903,-0.0374104073189214,-1.441874016665695,1435.8974358974358,-1.0,62.66390438247012,0.2559184854714408,
2023-08-12 10:08:30.490000,-8.795180722891567,0.13253012048192772,-4.27710843373494,0.20110361741263028,-8.706928264868179,-3.985285101164929,3.0,0.25641025641025644,3899.9999999999995,-2.7559000058271668,-0.23588368976166948,-1.4724083678107331,1553.8461538461538,-1.0,62.66390438247012,0.255919541198572,
2023-08-12 10:08:30.497000,-8.807228915662652,0.1566265060240964,-4.27710843373494,0.20110361741263028,-8.706928264868179,-3.965665236051502,3.0,0.255966255966256,3906.7649609713785,-3.3207855020103727,-0.0374104073189214,-1.5182098945282902,1688.6446886446886,-1.0,62.66390438247012,0.25592059092815433,
2023-08-12 10:08:30.505000,-8.795180722891567,0.14457831325301207,-4.27710843373494,0.24770079705702022,-8.652973635806253,-3.995095033721643,3.0,0.255966255966256,3906.7649609713785,-3.2444496241477774,0.11526134840626943,-1.4113396655206567,1836.6300366300366,-1.0,62.66390438247012,0.2559216340897963,
2023-08-12 10:08:30.513000,-8.771084337349398,0.14457831325301207,-4.289156626506024,0.23053341508277128,-8.692213366033108,-4.004904966278357,3.0,0.255966255966256,3906.7649609713785,-3.732999242468388,-0.08321193403647865,-1.8540877571237102,1981.6849816849815,-1.0,62.66390438247012,0.25592267003777774,
2023-08-12 10:08:30.520000,-8.795180722891567,0.14457831325301207,-4.301204819277109,0.26486817903126914,-8.613733905579398,-3.9019006744328633,3.0,0.25641025641025644,3899.9999999999995,-3.8704038226210598,0.31373463084901754,-1.5334770701008094,2117.948717948718,865.570068359375,69.3184782991926,0.2559236983297309,
2023-08-12 10:08:30.528000,-8.783132530120483,0.12048192771084337,-4.27710843373494,0.19865113427345185,-8.650521152667075,-3.955855303494788,3.0,0.25641025641025644,3899.9999999999995,-3.8704038226210598,0.5122079132917656,-1.7930190548336338,2238.8278388278386,-1.0,69.3184782991926,0.2559247187176805,
2023-08-12 10:08:30.536000,-8.807228915662652,0.10843373493975904,-4.289156626506024,0.19374616799509503,-8.687308399754752,-3.9730226854690374,3.0,0.25641025641025644,3899.9999999999995,-4.068877105063808,0.3442689819940557,-1.8693549326962293,2339.9267399267396,-1.0,69.3184782991926,0.25592573104287075,
2023-08-12 10:08:30.543000,-8.819277108433736,0.10843373493975904,-4.289156626506024,0.20600858369098712,-8.679950950337217,-3.990190067443286,3.0,0.25641025641025644,3899.9999999999995,-3.931472524911136,0.46640638657420835,-1.9456908105588246,2419.047619047619,-1.0,69.3184782991926,0.2559267352480477,
2023-08-12 10:08:30.551000,-8.843373493975903,0.0963855421686747,-4.301204819277109,0.18393623543838136,-8.716738197424892,-3.9534028203556097,3.0,0.25641025641025644,3899.9999999999995,-4.099411456208846,0.31373463084901754,-1.9456908105588246,2474.7252747252746,-1.0,69.3184782991926,0.2559277313790647,
2023-08-12 10:08:30.559000,-8.831325301204819,0.08433734939759037,-4.289156626506024,0.2329858982219497,-8.694665849172287,-3.987737584304108,3.0,0.25641025641025644,3899.9999999999995,-4.267350387506556,0.3442689819940557,-1.9762251617038629,2506.9597069597066,-1.0,69.3184782991926,0.2559287195863462,
2023-08-12 10:08:30.566000,-8.843373493975903,0.04819277108433735,-4.265060240963856,0.11281422440220723,-8.692213366033108,-3.958307786633967,3.0,0.25641025641025644,3899.9999999999995,-4.801701532544723,0.20686440184138394,-2.0678282151389773,2515.7509157509157,-1.0,69.3184782991926,0.2559297001262037,
2023-08-12 10:08:30.574000,-8.831325301204819,0.04819277108433735,-4.253012048192772,0.1496014714898835,-8.81238503985285,-3.960760269773145,3.0,0.25641025641025644,3899.9999999999995,-4.939106112697395,0.054192646116193094,-2.1288969174290537,2497.4358974358975,-1.0,69.3184782991926,0.25593067336199377,
2023-08-12 10:08:30.582000,-8.831325301204819,0.04819277108433735,-4.289156626506024,0.13243408951563457,-8.675045984058858,-3.9534028203556097,3.0,0.25641025641025644,3899.9999999999995,-4.8627702348348,-0.19008216304411224,-2.4647747800244737,2458.6080586080584,-1.0,69.3184782991926,0.25593163976510885,
2023-08-12 10:08:30.589000,-8.831325301204819,0.03614457831325302,-4.265060240963856,0.15450643776824033,-8.755977927651747,-3.958307786633967,3.0,0.25641025641025644,3899.9999999999995,-4.8627702348348,-0.5870287279296084,-2.3121030242992826,2401.4652014652015,-1.0,69.3184782991926,0.25593259991579304,
2023-08-12 10:08:30.597000,-8.831325301204819,0.060240963855421686,-4.289156626506024,0.18638871857755976,-8.731453096259962,-3.9509503372164314,3.0,0.25641025641025644,3899.9999999999995,-4.832235883689762,-0.34275391876930306,-2.1136297418565344,2333.333333333333,-1.0,69.3184782991926,0.2559335546425174,
2023-08-12 10:08:30.605000,-8.831325301204819,0.060240963855421686,-4.301204819277109,0.24770079705702022,-8.67259350091968,-3.965665236051502,3.0,0.25641025641025644,3899.9999999999995,-2.155585338849717,-0.31618204067362027,-1.032224229357264,2259.3406593406594,-1.0,69.3184782991926,0.2559345048632826,
2023-08-12 10:08:30.612000,-8.843373493975903,0.060240963855421686,-4.301204819277109,0.2035561005518087,-8.655426118945432,-3.985285101164929,3.0,0.25641025641025644,3899.9999999999995,-2.5710622924072024,-0.4268981994056284,-0.9365421595478126,2184.6153846153843,-1.0,69.3184782991926,0.25593545145822755,
2023-08-12 10:08:30.620000,-8.831325301204819,0.08433734939759037,-4.301204819277109,0.1520539546290619,-8.665236051502145,-4.012262415695892,3.0,0.25641025641025644,3899.9999999999995,-3.057980304178078,-0.3382087290950418,-0.9169628809509948,2109.8901098901097,-1.0,69.3184782991926,0.25593639541872676,
2023-08-12 10:08:30.628000,-8.795180722891567,0.08433734939759037,-4.289156626506024,0.12752912323727775,-8.721643163703249,-3.985285101164929,3.0,0.25641025641025644,3899.9999999999995,-3.2357088747741956,-0.0953324398345082,-0.9729036769419022,2035.164835164835,-1.0,69.3184782991926,0.25593733784696493,
2023-08-12 10:08:30.635000,-8.819277108433736,0.04819277108433735,-4.289156626506024,0.12752912323727775,-8.660331085223788,-3.965665236051502,3.0,0.25641025641025644,3899.9999999999995,-3.7781015092360604,-0.022259775071383155,-1.0893304585979837,1962.6373626373625,-1.0,69.3184782991926,0.25593827995527185,
2023-08-12 10:08:30.643000,-8.783132530120483,0.04819277108433735,-4.313253012048193,0.11771919068056406,-8.679950950337217,-3.985285101164929,3.0,0.25641025641025644,3899.9999999999995,-3.8916147077676135,-0.10150923605850469,-1.3740458015267174,1895.2380952380952,-1.0,69.3184782991926,0.2559392230652072,
2023-08-12 10:08:30.651000,-8.819277108433736,0.04819277108433735,-4.27710843373494,0.0809319435928878,-8.699570815450643,-3.9411404046597176,3.0,0.25641025641025644,3899.9999999999995,-3.653400151506322,-0.08414428063632708,-1.3826700075753156,1834.4322344322343,-1.0,69.3184782991926,0.2559401686063886,
2023-08-12 10:08:30.658000,-8.819277108433736,0.03614457831325302,-4.301204819277109,0.07112201103617412,-8.64316370324954,-3.9386879215205393,3.0,0.25641025641025644,3899.9999999999995,-3.9106112697395266,-0.3798146961132802,-1.2362915913991033,1779.4871794871794,-1.0,69.3184782991926,0.255941118253801,
2023-08-12 10:08:30.666000,-8.831325301204819,0.04819277108433735,-4.301204819277109,0.13243408951563457,-8.679950950337217,-4.041692213366033,3.0,0.25641025641025644,3899.9999999999995,-4.226210593788243,-0.5345842316881296,-1.551308198822913,1729.6703296703295,-1.0,69.3184782991926,0.2559420739057021,
2023-08-12 10:08:30.674000,-8.855421686746988,0.07228915662650603,-4.289156626506024,0.18393623543838136,-8.733905579399142,-3.9754751686082157,3.0,0.25641025641025644,3899.9999999999995,-4.618728512324458,-0.2371656663364604,-1.7588718606141842,1685.7142857142856,-1.0,69.3184782991926,0.25594303753362957,
2023-08-12 10:08:30.681000,-8.855421686746988,0.07228915662650603,-4.27710843373494,0.23789086450030655,-8.71919068056407,-3.9239730226854688,3.0,0.25641025641025644,3899.9999999999995,-4.657537439543148,-0.2904259658528051,-1.629275683235243,1642.4908424908424,-1.0,69.3184782991926,0.25594401118121207,
2023-08-12 10:08:30.689000,-8.855421686746988,0.060240963855421686,-4.289156626506024,0.15450643776824033,-8.714285714285714,-3.9754751686082157,3.0,0.25641025641025644,3899.9999999999995,-5.002622224812073,-0.08729095041081487,-1.9571120564069697,1601.4652014652013,-1.0,69.3184782991926,0.2559449968237331,
2023-08-12 10:08:30.697000,-8.855421686746988,0.08433734939759037,-4.301204819277109,0.15695892090741875,-8.731453096259962,-3.977927651747394,3.0,0.25641025641025644,3899.9999999999995,-5.223238739001227,-0.38948779208670875,-2.160713245148884,1562.6373626373625,-1.0,69.3184782991926,0.2559459963863232,
2023-08-12 10:08:30.704000,-8.831325301204819,0.060240963855421686,-4.301204819277109,0.18638871857755976,-8.67259350091968,-3.995095033721643,3.0,0.25641025641025644,3899.9999999999995,-5.458306625488027,-0.2758580502301728,-1.875648272245208,1523.8095238095236,-1.0,69.3184782991926,0.25594701188926033,
2023-08-12 10:08:30.712000,-8.795180722891567,0.04819277108433735,-4.289156626506024,0.1618638871857756,-8.64316370324954,-3.990190067443286,3.0,0.25641025641025644,3899.9999999999995,-5.521706194277722,-0.9424858691218452,-1.8987238505914579,1481.3186813186812,-1.0,69.3184782991926,0.2559480454436734,
2023-08-12 10:08:30.720000,-8.807228915662652,0.03614457831325302,-4.289156626506024,0.14714898835070508,-8.679950950337217,-4.012262415695892,3.0,0.25641025641025644,3899.9999999999995,-5.782763242235299,-0.4291125225802695,-1.8137637666802644,1438.8278388278388,-1.0,69.3184782991926,0.2559490992469446,
2023-08-12 10:08:30.727000,-8.807228915662652,0.024096385542168676,-4.27710843373494,0.1079092581238504,-8.67259350091968,-3.9632127529123236,3.0,0.25641025641025644,3899.9999999999995,-5.723093059844998,-0.4228191830312922,-1.7888234951343167,1397.069597069597,-1.0,69.3184782991926,0.2559501755778161,
2023-08-12 10:08:30.735000,-8.819277108433736,0.060240963855421686,-4.27710843373494,0.14469650521152666,-8.702023298589822,-3.8749233599019006,3.0,0.25641025641025644,3899.9999999999995,-6.19765747916788,-0.23390245323699005,-2.0241244682710793,1356.0439560439559,-1.0,69.3184782991926,0.25595127679120744,
2023-08-12 10:08:30.743000,-8.807228915662652,0.060240963855421686,-4.265060240963856,0.13733905579399142,-8.697118332311465,-4.0,3.0,0.25641025641025644,3899.9999999999995,-6.24380863586038,-0.18448808344501993,-2.195676242643204,1320.8791208791208,-1.0,69.3184782991926,0.25595240531274893,
2023-08-12 10:08:30.750000,-8.819277108433736,0.07228915662650603,-4.265060240963856,0.19374616799509503,-8.62844880441447,-3.987737584304108,3.0,0.255966255966256,3906.7649609713785,-6.794475846395899,0.1414835965270097,-2.184488083445021,1288.6446886446886,-1.0,69.3184782991926,0.2559535636330387,
2023-08-12 10:08:30.758000,-8.795180722891567,0.04819277108433735,-4.301204819277109,0.1765787860208461,-8.679950950337217,-3.9681177191906802,3.0,0.25641025641025644,3899.9999999999995,-6.640755200745878,-0.03752695064390224,-2.2787716333547,1262.2710622710622,-1.0,69.3184782991926,0.25595475415233837,
2023-08-12 10:08:30.766000,-8.807228915662652,0.03614457831325302,-4.325301204819278,0.10055180870631514,-8.645616186388718,-4.009809932556713,3.0,0.25641025641025644,3899.9999999999995,-7.265660509294329,-0.2597750713827861,-2.4222364664063862,1241.7582417582416,-1.0,69.3184782991926,0.2559559793017206,
2023-08-12 10:08:30.773000,-8.819277108433736,0.060240963855421686,-4.301204819277109,0.07847946045370938,-8.648068669527897,-3.995095033721643,3.0,0.25641025641025644,3899.9999999999995,-7.354466522929902,-0.2373987529864221,-2.503000990618262,1227.8388278388277,-1.0,69.3184782991926,0.2559572416954883,
2023-08-12 10:08:30.781000,-8.807228915662652,0.03614457831325302,-4.265060240963856,0.1079092581238504,-8.623543838136113,-3.9386879215205393,3.0,0.25641025641025644,3899.9999999999995,-7.822970689353768,-0.3837771691626356,-2.444030068177846,1217.5824175824175,-1.0,69.3184782991926,0.25595854398548185,
2023-08-12 10:08:30.789000,-8.819277108433736,0.012048192771084338,-4.265060240963856,0.11526670754138564,-8.665236051502145,-3.9534028203556097,3.0,0.25641025641025644,3899.9999999999995,-7.905250276790394,-0.1794767204708353,-2.634112231221956,1214.6520146520145,-1.0,69.3184782991926,0.25595988885391957,
2023-08-12 10:08:30.796000,-8.807228915662652,0.024096385542168676,-4.27710843373494,0.08828939301042305,-8.68976088289393,-3.9435928877988964,3.0,0.25641025641025644,3899.9999999999995,-8.042654856943066,-0.24054542276091162,-2.7562496358021082,1216.117216117216,-1.0,69.3184782991926,0.25596127900603316,
2023-08-12 10:08:30.804000,-8.819277108433736,0.024096385542168676,-4.289156626506024,0.11281422440220723,-8.662783568362967,-3.919068056407112,3.0,0.255966255966256,3906.7649609713785,-8.241128139385813,-0.5306217586387743,-3.1684633762601235,1223.4432234432234,-1.0,69.3184782991926,0.25596271716251795,
2023-08-12 10:08:30.811000,-8.807228915662652,0.024096385542168676,-4.265060240963856,0.1226241569589209,-8.692213366033108,-3.9681177191906802,3.0,0.25641025641025644,3899.9999999999995,-8.714410582133905,-0.4695530563486979,-3.39747100984791,1234.4322344322343,-1.0,69.3184782991926,0.25596420590251756,
2023-08-12 10:08:30.819000,-8.819277108433736,0.024096385542168676,-4.253012048192772,0.1103617412630288,-8.721643163703249,-3.919068056407112,3.0,0.255966255966256,3906.7649609713785,-8.760212108851462,-0.484820231921217,-3.6875473457257724,1246.8864468864467,-1.0,69.3184782991926,0.25596574778316666,
2023-08-12 10:08:30.827000,-8.807228915662652,0.03614457831325302,-4.265060240963856,0.15695892090741875,-8.724095646842427,-3.9460453709380747,3.0,0.255966255966256,3906.7649609713785,-8.882349513431615,-0.3779500029135834,-3.5959442922906577,1261.5384615384614,-1.0,69.3184782991926,0.2559673454799771,
2023-08-12 10:08:30.834000,-8.831325301204819,0.04819277108433735,-4.240963855421687,0.09319435928877988,-8.76578786020846,-3.955855303494788,3.0,0.25641025641025644,3899.9999999999995,-9.004486918011768,-0.25581259833343073,-3.657012994580734,1274.7252747252746,-1.0,69.3184782991926,0.2559690015975238,
2023-08-12 10:08:30.842000,-8.831325301204819,0.060240963855421686,-4.253012048192772,0.1226241569589209,-8.667688534641323,-3.9411404046597176,3.0,0.25641025641025644,3899.9999999999995,-9.584639589767493,-0.4542858807761788,-3.8554862770234823,1288.6446886446886,-1.0,69.3184782991926,0.2559707186606628,
2023-08-12 10:08:30.850000,-8.831325301204819,0.04819277108433735,-4.289156626506024,0.1496014714898835,-8.760882893930104,-3.995095033721643,3.0,0.25641025641025644,3899.9999999999995,-10.057922032515584,-0.14894236932579713,-4.069226735038749,1300.3663003663003,-1.0,69.3184782991926,0.2559724991475617,
2023-08-12 10:08:30.857000,-8.843373493975903,0.03614457831325302,-4.265060240963856,0.16676885346413242,-8.660331085223788,-3.9435928877988964,3.0,0.25641025641025644,3899.9999999999995,-10.729677757706424,-0.1794767204708353,-3.9776236816036348,1306.9597069597069,-1.0,69.3184782991926,0.25597434549099124,
2023-08-12 10:08:30.865000,-8.855421686746988,0.04819277108433735,-4.27710843373494,0.20110361741263028,-8.738810545677499,-3.958307786633967,3.0,0.25641025641025644,3899.9999999999995,-10.97395256686673,-0.25581259833343073,-4.023425208321192,1309.1575091575091,-1.0,69.3184782991926,0.2559762600690815,
2023-08-12 10:08:30.873000,-8.867469879518072,0.07228915662650603,-4.265060240963856,0.19865113427345185,-8.75107296137339,-3.960760269773145,3.0,0.25641025641025644,3899.9999999999995,-11.202960200454516,-0.11840801818075895,-4.206631315191421,1309.89010989011,-1.0,69.3184782991926,0.2559782451961212,
2023-08-12 10:08:30.880000,-8.879518072289157,0.07228915662650603,-4.240963855421687,0.19865113427345185,-8.694665849172287,-3.843041079092581,3.0,0.25641025641025644,3899.9999999999995,-11.431967834042302,-0.11840801818075895,-4.130295437328826,1308.4249084249084,-1.0,69.3184782991926,0.2559803031134324,
2023-08-12 10:08:30.888000,-8.855421686746988,0.04819277108433735,-4.240963855421687,0.25015328019619865,-8.763335377069282,-3.877375843041079,3.0,0.25641025641025644,3899.9999999999995,-11.660975467630088,-0.2710797739059498,-3.962356506031116,1302.5641025641025,-1.0,69.3184782991926,0.2559824359803552,
2023-08-12 10:08:30.896000,-8.867469879518072,0.0963855421686747,-4.301204819277109,0.1496014714898835,-8.738810545677499,-3.8871857755977928,3.0,0.25641025641025644,3899.9999999999995,-12.073189208088104,-0.4390187052036597,-4.405104597634169,1294.5054945054944,-1.0,69.3184782991926,0.2559846460041286,
2023-08-12 10:08:30.903000,-8.855421686746988,0.07228915662650603,-4.253012048192772,0.15450643776824033,-8.782955242182709,-3.9435928877988964,3.0,0.25641025641025644,3899.9999999999995,-12.393799895111004,-0.4542858807761788,-4.710448109084551,1285.7142857142856,-1.0,69.3184782991926,0.25598693527206945,
2023-08-12 10:08:30.911000,-8.855421686746988,0.04819277108433735,-4.240963855421687,0.19374616799509503,-8.729000613120784,-3.9386879215205393,3.0,0.25641025641025644,3899.9999999999995,-12.882349513431615,-0.683293514363965,-4.832585513664704,1272.5274725274724,-1.0,69.3184782991926,0.25598930561548117,
2023-08-12 10:08:30.919000,-8.843373493975903,0.04819277108433735,-4.265060240963856,0.13243408951563457,-8.724095646842427,-3.9705702023298586,3.0,0.25641025641025644,3899.9999999999995,-13.12662432259192,-0.8206980945166368,-5.092127498397528,1253.4798534798533,-1.0,69.3184782991926,0.25599175888926706,
2023-08-12 10:08:30.926000,-8.819277108433736,0.04819277108433735,-4.265060240963856,0.1912936848559166,-8.716738197424892,-3.977927651747394,3.0,0.25641025641025644,3899.9999999999995,-13.340364780607187,-0.4390187052036597,-4.908921391527299,1232.967032967033,-1.0,69.3184782991926,0.25599429680464975,
2023-08-12 10:08:30.934000,-8.831325301204819,0.060240963855421686,-4.265060240963856,0.17167381974248927,-8.706928264868179,-3.936235438381361,3.0,0.25641025641025644,3899.9999999999995,-13.61517394091253,-0.866499621234194,-4.924188567099818,1215.3846153846152,-1.0,69.3184782991926,0.2559969207937188,
2023-08-12 10:08:30.942000,-8.783132530120483,0.060240963855421686,-4.228915662650603,0.14469650521152666,-8.677498467198038,-3.926425505824647,3.0,0.25641025641025644,3899.9999999999995,-13.905250276790394,-1.049705728104423,-5.305867956412795,1198.5347985347985,-1.0,69.3184782991926,0.2559996321510346,
2023-08-12 10:08:30.949000,-8.807228915662652,0.060240963855421686,-4.265060240963856,0.18638871857755976,-8.699570815450643,-3.914163090128755,3.0,0.25641025641025644,3899.9999999999995,-13.767845696637721,-0.9733698502418276,-5.473806887710505,1186.080586080586,-1.0,69.3184782991926,0.2560024320263162,
2023-08-12 10:08:30.957000,-8.807228915662652,0.07228915662650603,-4.253012048192772,0.14469650521152666,-8.645616186388718,-3.9828326180257507,3.0,0.25641025641025644,3899.9999999999995,-14.378532719538486,-0.8359652700891559,-5.107394673970047,1180.2197802197802,-1.0,69.3184782991926,0.25600532155628986,
2023-08-12 10:08:30.965000,-8.819277108433736,0.0963855421686747,-4.27710843373494,0.09809932556713671,-8.726548129981605,-3.914163090128755,3.0,0.25641025641025644,3899.9999999999995,-14.347998368393448,-0.484820231921217,-5.763883223588368,1176.5567765567764,-1.0,69.3184782991926,0.2560083018378504,
2023-08-12 10:08:30.972000,-8.819277108433736,0.13253012048192772,-4.228915662650603,0.23543838136112813,-8.795217657878602,-3.8405885959534025,3.0,0.25641025641025644,3899.9999999999995,-14.80601363556902,-0.39321717848610244,-6.008158032748673,1170.6959706959706,-1.0,69.3184782991926,0.2560113737740819,
2023-08-12 10:08:30.980000,-8.843373493975903,0.12048192771084337,-4.240963855421687,0.22808093194359289,-8.702023298589822,-3.9337829552421826,3.0,0.25641025641025644,3899.9999999999995,-15.233494551599554,-0.21001107161587346,-6.099761086183787,1164.8351648351647,-1.0,69.3184782991926,0.25601453806987423,
2023-08-12 10:08:30.988000,-8.843373493975903,0.12048192771084337,-4.228915662650603,0.2820355610055181,-8.731453096259962,-3.896995708154506,3.0,0.25641025641025644,3899.9999999999995,-15.416700658469782,-0.6222248120738887,-5.824951925878444,1157.5091575091574,-1.0,69.3184782991926,0.2560177952278679,
2023-08-12 10:08:30.995000,-8.867469879518072,0.14457831325301207,-4.228915662650603,0.23789086450030655,-8.709380748007357,-3.872470876762722,3.0,0.25641025641025644,3899.9999999999995,-16.225860963813293,-0.6527591632189269,-6.099761086183787,1150.9157509157508,-1.0,69.3184782991926,0.2560211454060046,
2023-08-12 10:08:31.003000,-8.855421686746988,0.14457831325301207,-4.253012048192772,0.25260576333537704,-8.741263028816677,-3.9460453709380747,3.0,0.25641025641025644,3899.9999999999995,-16.225860963813293,-0.6527591632189269,-6.099761086183787,1145.054945054945,-1.0,69.3184782991926,0.25602458843458836,
2023-08-12 10:08:31.011000,-8.855421686746988,0.1566265060240964,-4.204819277108434,0.2673206621704476,-8.724095646842427,-3.9019006744328633,3.0,0.25641025641025644,3899.9999999999995,-16.057922032515584,-0.7901637433715987,-6.2829671930540165,1139.194139194139,-1.0,69.3184782991926,0.2560281239613649,
2023-08-12 10:08:31.018000,-8.855421686746988,0.14457831325301207,-4.204819277108434,0.23053341508277128,-8.738810545677499,-3.889638258736971,3.0,0.25641025641025644,3899.9999999999995,-16.241128139385815,-0.9275683235242703,-6.328768719771574,1135.5311355311355,-1.0,69.3184782991926,0.2560317514479402,
2023-08-12 10:08:31.026000,-8.831325301204819,0.14457831325301207,-4.19277108433735,0.22317596566523604,-8.748620478234212,-3.896995708154506,3.0,0.25641025641025644,3899.9999999999995,-16.31746401724841,-0.9123011479517513,-6.298234368626535,1132.6007326007325,-1.0,69.3184782991926,0.25603547016685263,
2023-08-12 10:08:31.034000,-8.819277108433736,0.13253012048192772,-4.204819277108434,0.2869405272838749,-8.716738197424892,-3.8503985285101163,3.0,0.25641025641025644,3899.9999999999995,-16.48540294854612,-0.5764232853563315,-6.481440475496765,1131.135531135531,-1.0,69.3184782991926,0.25603927919932196,
2023-08-12 10:08:31.041000,-8.819277108433736,0.1566265060240964,-4.204819277108434,0.2869405272838749,-8.655426118945432,-3.894543225015328,3.0,0.25641025641025644,3899.9999999999995,-16.80601363556902,-0.7748965677990796,-6.740982460229589,1131.8681318681317,-1.0,69.3184782991926,0.25604317743369487,
2023-08-12 10:08:31.049000,-8.807228915662652,0.1566265060240964,-4.1807228915662655,0.21827099938687922,-8.692213366033108,-3.919068056407112,3.0,0.25641025641025644,3899.9999999999995,-16.65334187984383,-0.30161412505098795,-6.695180933512032,1128.2051282051282,-1.0,69.3184782991926,0.2560471635646006,
2023-08-12 10:08:31.057000,-8.831325301204819,0.18072289156626506,-4.204819277108434,0.2329858982219497,-8.724095646842427,-3.896995708154506,3.0,0.25641025641025644,3899.9999999999995,-16.882349513431613,-0.13367519375327805,-6.679913757939513,1126.7399267399267,-1.0,69.3184782991926,0.2560512360928303,
2023-08-12 10:08:31.064000,-8.831325301204819,0.16867469879518074,-4.19277108433735,0.3261802575107296,-8.692213366033108,-3.8871857755977928,3.0,0.25641025641025644,3899.9999999999995,-17.08082279587436,-0.011537789173125373,-6.939455742672338,1126.007326007326,-1.0,69.3184782991926,0.2560553934646969,
2023-08-12 10:08:31.072000,-8.831325301204819,0.16867469879518074,-4.168674698795181,0.3114653586756591,-8.714285714285714,-3.865113427345187,3.0,0.25641025641025644,3899.9999999999995,-17.401433482897264,-0.2710797739059498,-6.908921391527299,1127.4725274725274,-1.0,69.3184782991926,0.2560596339142524,
2023-08-12 10:08:31.080000,-8.843373493975903,0.18072289156626506,-4.168674698795181,0.3507050889025138,-8.67259350091968,-3.855303494788473,3.0,0.25641025641025644,3899.9999999999995,-17.691509818775128,0.2938057222772563,-6.802051162519666,1131.135531135531,-1.0,69.3184782991926,0.25606395533775905,
2023-08-12 10:08:31.087000,-8.843373493975903,0.16867469879518074,-4.156626506024097,0.2673206621704476,-8.667688534641323,-3.8283261802575104,3.0,0.25641025641025644,3899.9999999999995,-17.752578521065203,0.2938057222772563,-7.290600780840276,1136.9963369963368,-1.0,69.3184782991926,0.25606835544560386,
2023-08-12 10:08:31.095000,-8.843373493975903,0.16867469879518074,-4.19277108433735,0.3041079092581238,-8.714285714285714,-3.789086450030656,3.0,0.25641025641025644,3899.9999999999995,-18.11899073480566,0.0037293863993937094,-7.473806887710505,1141.3919413919414,-1.0,69.3184782991926,0.25607283176565,
2023-08-12 10:08:31.103000,-8.819277108433736,0.18072289156626506,-4.1807228915662655,0.2820355610055181,-8.694665849172287,-3.8577559779276513,3.0,0.25641025641025644,3899.9999999999995,-17.64570829205757,0.018996561971912792,-7.336402307557833,1145.054945054945,-1.0,69.3184782991926,0.25607738164730875,
2023-08-12 10:08:31.110000,-8.819277108433736,0.20481927710843376,-4.156626506024097,0.328632740649908,-8.76578786020846,-3.843041079092581,3.0,0.25641025641025644,3899.9999999999995,-17.81364722335528,-0.011537789173125373,-7.382203834275391,1148.7179487179487,-1.0,69.3184782991926,0.2560820022663223,
2023-08-12 10:08:31.118000,-8.843373493975903,0.20481927710843376,-4.1807228915662655,0.3016554261189454,-8.665236051502145,-3.8405885959534025,3.0,0.25641025641025644,3899.9999999999995,-17.737311345492685,-0.05733931589068263,-7.534875590000581,1150.9157509157508,-1.0,69.3184782991926,0.2560866906302427,
2023-08-12 10:08:31.126000,-8.867469879518072,0.20481927710843376,-4.168674698795181,0.3163703249540159,-8.71919068056407,-3.914163090128755,3.0,0.255966255966256,3906.7649609713785,-17.61517394091253,-0.13367519375327805,-7.5501427655731,1153.113553113553,-1.0,69.3184782991926,0.2560914435845873,
2023-08-12 10:08:31.133000,-8.843373493975903,0.21686746987951808,-4.168674698795181,0.34825260576333533,-8.731453096259962,-3.8209687308399753,3.0,0.25641025641025644,3899.9999999999995,-17.84418157450032,-0.04207214031816354,-7.534875590000581,1155.3113553113553,-1.0,69.3184782991926,0.256096257809107,
2023-08-12 10:08:31.141000,-8.855421686746988,0.24096385542168675,-4.204819277108434,0.29429797670141017,-8.746167995095034,-3.8528510116492947,3.0,0.25641025641025644,3899.9999999999995,-18.103723559233142,-0.04207214031816354,-7.56540994114562,1157.5091575091574,-1.0,69.3184782991926,0.2561011299322658,
2023-08-12 10:08:31.149000,-8.855421686746988,0.22891566265060243,-4.19277108433735,0.29429797670141017,-8.704475781729,-3.835683629675046,3.0,0.25641025641025644,3899.9999999999995,-18.1495250859507,0.04953091311695096,-7.702814521298292,1157.5091575091574,-1.0,69.3184782991926,0.25610605641148115,
2023-08-12 10:08:31.156000,-8.867469879518072,0.22891566265060243,-4.204819277108434,0.34825260576333533,-8.702023298589822,-3.865113427345187,3.0,0.25641025641025644,3899.9999999999995,-17.84418157450032,0.33960724899481354,-7.611211467863177,1157.5091575091574,-1.0,69.3184782991926,0.2561110334242879,
2023-08-12 10:08:31.164000,-8.855421686746988,0.24096385542168675,-4.19277108433735,0.40220723482526055,-8.743715511955855,-3.8405885959534025,3.0,0.25641025641025644,3899.9999999999995,-17.752578521065203,0.5228133558650425,-7.977623681603634,1153.8461538461538,-1.0,69.3184782991926,0.2561160570262113,
2023-08-12 10:08:31.172000,-8.831325301204819,0.2530120481927711,-4.1807228915662655,0.35806253832004903,-8.733905579399142,-3.867565910484365,3.0,0.25641025641025644,3899.9999999999995,-17.81364722335528,0.44647747800244714,-7.8554862770234815,1149.4505494505493,-1.0,69.3184782991926,0.2561211231598607,
2023-08-12 10:08:31.179000,-8.843373493975903,0.2530120481927711,-4.156626506024097,0.3359901900674433,-8.711833231146535,-3.808706315144083,3.0,0.25641025641025644,3899.9999999999995,-18.256395314958333,0.44647747800244714,-8.053959559466229,1146.5201465201465,-1.0,69.3184782991926,0.25612622766450166,
2023-08-12 10:08:31.187000,-8.831325301204819,0.2530120481927711,-4.144578313253012,0.34825260576333533,-8.694665849172287,-3.847946045370938,3.0,0.25641025641025644,3899.9999999999995,-17.874715925645354,0.3243400734222945,-8.22189849076394,1142.1245421245421,-1.0,69.3184782991926,0.2561313662860714,
2023-08-12 10:08:31.194000,-8.831325301204819,0.22891566265060243,-4.144578313253012,0.29675045984058857,-8.746167995095034,-3.8528510116492947,3.0,0.25641025641025644,3899.9999999999995,-18.088456383660624,0.17166831769710364,-8.267700017481497,1139.194139194139,-1.0,69.3184782991926,0.25613653468760034,
2023-08-12 10:08:31.202000,-8.819277108433736,0.22891566265060243,-4.168674698795181,0.33108522378908645,-8.726548129981605,-3.8871857755977928,3.0,0.25641025641025644,3899.9999999999995,-18.042654856943066,0.2785385467047372,-8.267700017481497,1137.7289377289376,-1.0,69.3184782991926,0.25614172845999805,
2023-08-12 10:08:31.210000,-8.843373493975903,0.24096385542168675,-4.19277108433735,0.40465971796443895,-8.729000613120784,-3.8503985285101163,3.0,0.25641025641025644,3899.9999999999995,-17.859448750072836,0.35487442456733265,-8.03869238389371,1136.9963369963368,-1.0,69.3184782991926,0.2561469431331619,
2023-08-12 10:08:31.217000,-8.807228915662652,0.2530120481927711,-4.168674698795181,0.34825260576333533,-8.697118332311465,-3.8405885959534025,3.0,0.25641025641025644,3899.9999999999995,-17.752578521065203,0.5686148825825998,-8.160829788473864,1134.7985347985348,-1.0,69.3184782991926,0.2561521741873646,
2023-08-12 10:08:31.225000,-8.795180722891567,0.22891566265060243,-4.168674698795181,0.328632740649908,-8.684855916615573,-3.9460453709380747,3.0,0.25641025641025644,3899.9999999999995,-18.11899073480566,0.44647747800244714,-8.54250917778684,1131.8681318681317,-1.0,69.3184782991926,0.25615741706487427,
2023-08-12 10:08:31.233000,-8.819277108433736,0.2530120481927711,-4.216867469879518,0.2844880441446965,-8.692213366033108,-3.894543225015328,3.0,0.25641025641025644,3899.9999999999995,-17.96631897908047,0.18693549326962272,-8.405104597634168,1128.2051282051282,-1.0,69.3184782991926,0.2561626671817598,
2023-08-12 10:08:31.240000,-8.807228915662652,0.2530120481927711,-4.204819277108434,0.3654199877375843,-8.67259350091968,-3.8503985285101163,3.0,0.2568542568542569,3893.2584269662916,-18.164792261523218,0.24800419555969905,-8.435638948779207,1121.6117216117216,-1.0,69.3184782991926,0.2561679199398343,
2023-08-12 10:08:31.248000,-8.807228915662652,0.2530120481927711,-4.204819277108434,0.3531575720416922,-8.655426118945432,-3.8871857755977928,3.0,0.2568542568542569,3893.2584269662916,-18.1495250859507,0.03426373754443188,-8.20663131519142,1114.2857142857142,-1.0,69.3184782991926,0.2561731708879804,
2023-08-12 10:08:31.256000,-8.795180722891567,0.2530120481927711,-4.19277108433735,0.34580012262415694,-8.682403433476395,-3.796443899448191,3.0,0.25641025641025644,3899.9999999999995,-18.012120505798027,0.21746984441466088,-8.54250917778684,1105.4945054945053,-1.0,69.3184782991926,0.2561784157560964,
2023-08-12 10:08:31.263000,-8.795180722891567,0.24096385542168675,-4.19277108433735,0.3507050889025138,-8.677498467198038,-3.8283261802575104,3.0,0.2568542568542569,3893.2584269662916,-17.722044169920164,0.599149233727638,-8.649379406794473,1098.9010989010987,-1.0,69.3184782991926,0.25618365018079964,
2023-08-12 10:08:31.271000,-8.795180722891567,0.26506024096385544,-4.168674698795181,0.3408951563458001,-8.665236051502145,-3.847946045370938,3.0,0.25641025641025644,3899.9999999999995,-17.828914398927797,0.7518209894528288,-8.38983742206165,1094.5054945054944,-1.0,69.3184782991926,0.2561888698467138,
2023-08-12 10:08:31.279000,-8.831325301204819,0.2530120481927711,-4.1807228915662655,0.3850398528510116,-8.714285714285714,-3.8013488657265477,3.0,0.25641025641025644,3899.9999999999995,-17.828914398927797,0.7518209894528288,-8.38983742206165,1093.7728937728937,-1.0,69.3184782991926,0.2561940705100458,
2023-08-12 10:08:31.286000,-8.867469879518072,0.24096385542168675,-4.19277108433735,0.32127529123237275,-8.778050275904352,-3.877375843041079,3.0,0.25641025641025644,3899.9999999999995,-17.96631897908047,0.797622516170386,-8.847852689237222,1092.3076923076922,-1.0,69.3184782991926,0.2561992479904635,
2023-08-12 10:08:31.294000,-8.843373493975903,0.2530120481927711,-4.1807228915662655,0.3825873697118332,-8.78050275904353,-3.889638258736971,3.0,0.25641025641025644,3899.9999999999995,-17.78311287221024,0.6602179360177143,-8.832585513664702,1090.10989010989,-1.0,69.3184782991926,0.25620439816272994,
2023-08-12 10:08:31.302000,-8.867469879518072,0.26506024096385544,-4.216867469879518,0.3825873697118332,-8.699570815450643,-3.9043531575720416,3.0,0.2568542568542569,3893.2584269662916,-17.447235009614822,0.5686148825825998,-8.87838704038226,1088.6446886446886,-1.0,69.3184782991926,0.25620951684080984,
2023-08-12 10:08:31.309000,-8.879518072289157,0.27710843373493976,-4.204819277108434,0.3163703249540159,-8.758430410790925,-3.9215205395462904,3.0,0.25641025641025644,3899.9999999999995,-17.64570829205757,0.5686148825825998,-8.908921391527299,1090.10989010989,-1.0,69.3184782991926,0.25621460008763025,
2023-08-12 10:08:31.317000,-8.891566265060241,0.2530120481927711,-4.216867469879518,0.3605150214592274,-8.75107296137339,-3.8871857755977928,3.0,0.25641025641025644,3899.9999999999995,-17.538838063049937,0.6907522871627525,-8.649379406794473,1096.7032967032967,-1.0,69.3184782991926,0.256219644098435,
2023-08-12 10:08:31.325000,-8.843373493975903,0.22891566265060243,-4.240963855421687,0.39975475168608215,-8.790312691600246,-3.855303494788473,3.0,0.2568542568542569,3893.2584269662916,-17.752578521065203,0.6296835848726762,-8.588310704504398,1114.2857142857142,-1.0,69.3184782991926,0.25622464505217313,
2023-08-12 10:08:31.332000,-8.843373493975903,0.22891566265060243,-4.216867469879518,0.3507050889025138,-8.768240343347639,-3.8798283261802573,3.0,0.25641025641025644,3899.9999999999995,-17.569372414194973,0.7518209894528288,-8.618845055649436,1145.054945054945,-1.0,69.3184782991926,0.2562295994095604,
2023-08-12 10:08:31.340000,-8.855421686746988,0.24096385542168675,-4.204819277108434,0.2918454935622317,-8.773145309625995,-3.9043531575720416,3.0,0.2568542568542569,3893.2584269662916,-17.477769360759858,0.7670881650253478,-8.71044810908455,1198.5347985347985,-1.0,69.3184782991926,0.2562345037951353,
2023-08-12 10:08:31.348000,-8.855421686746988,0.26506024096385544,-4.204819277108434,0.3237277743715512,-8.733905579399142,-3.9337829552421826,3.0,0.2568542568542569,3893.2584269662916,-17.63044111648505,0.6602179360177143,-8.313501544199054,1277.6556776556777,811.95068359375,73.89611365857326,0.25623935499650385,
2023-08-12 10:08:31.355000,-8.831325301204819,0.27710843373493976,-4.228915662650603,0.3605150214592274,-8.702023298589822,-3.9435928877988964,3.0,0.2568542568542569,3893.2584269662916,-17.706776994347646,0.44647747800244714,-8.359303070916612,1384.6153846153845,-1.0,73.89611365857326,0.25624415013341223,
2023-08-12 10:08:31.363000,-8.831325301204819,0.27710843373493976,-4.216867469879518,0.39239730226854685,-8.704475781729,-3.9313304721030042,3.0,0.2568542568542569,3893.2584269662916,-17.722044169920164,0.2632713711322181,-8.435638948779207,1514.2857142857142,-1.0,73.89611365857326,0.2562488865284613,
2023-08-12 10:08:31.371000,-8.831325301204819,0.27710843373493976,-4.228915662650603,0.3384426732066217,-8.670141017780502,-3.9019006744328633,3.0,0.25641025641025644,3899.9999999999995,-18.057922032515584,0.3854087757123708,-8.359303070916612,1661.5384615384614,-1.0,73.89611365857326,0.25625356171605007,
2023-08-12 10:08:31.378000,-8.795180722891567,0.26506024096385544,-4.228915662650603,0.2820355610055181,-8.726548129981605,-3.9435928877988964,3.0,0.2568542568542569,3893.2584269662916,-17.874715925645354,0.3243400734222945,-8.771516811374626,1817.5824175824175,-1.0,73.89611365857326,0.2562581733014629,
2023-08-12 10:08:31.386000,-8.819277108433736,0.27710843373493976,-4.228915662650603,0.35561005518087063,-8.679950950337217,-3.9043531575720416,3.0,0.2568542568542569,3893.2584269662916,-18.393799895111005,0.0037293863993937094,-8.924188567099817,1972.8937728937728,-1.0,73.89611365857326,0.25626271909606746,
2023-08-12 10:08:31.394000,-8.819277108433736,0.24096385542168675,-4.240963855421687,0.3384426732066217,-8.679950950337217,-3.9288779889638255,3.0,0.2568542568542569,3893.2584269662916,-18.210593788240775,0.04953091311695096,-8.908921391527299,2119.4139194139193,-1.0,73.89611365857326,0.2562671972833936,
2023-08-12 10:08:31.401000,-8.819277108433736,0.2530120481927711,-4.228915662650603,0.4071122011036174,-8.741263028816677,-3.9117106069895766,3.0,0.2568542568542569,3893.2584269662916,-17.99685333022551,0.2785385467047372,-8.802051162519664,2249.0842490842488,-1.0,73.89611365857326,0.2562716062866677,
2023-08-12 10:08:31.409000,-8.807228915662652,0.24096385542168675,-4.27710843373494,0.40220723482526055,-8.675045984058858,-3.9092581238503983,3.0,0.2568542568542569,3893.2584269662916,-18.439601421828563,0.3854087757123708,-9.03105879610745,2356.043956043956,-1.0,73.89611365857326,0.2562759447743962,
2023-08-12 10:08:31.417000,-8.831325301204819,0.26506024096385544,-4.27710843373494,0.34334763948497854,-8.697118332311465,-3.919068056407112,3.0,0.2568542568542569,3893.2584269662916,-17.920517452362912,0.21746984441466088,-9.076860322825008,2435.164835164835,-1.0,73.89611365857326,0.25628021166522247,
2023-08-12 10:08:31.424000,-8.843373493975903,0.2530120481927711,-4.27710843373494,0.3801348865726548,-8.753525444512569,-3.960760269773145,3.0,0.2568542568542569,3893.2584269662916,-17.569372414194973,0.0037293863993937094,-9.03105879610745,2484.2490842490843,-1.0,73.89611365857326,0.2562844061320286,
2023-08-12 10:08:31.432000,-8.831325301204819,0.2530120481927711,-4.27710843373494,0.38994481912936846,-8.75107296137339,-3.936235438381361,3.0,0.2568542568542569,3893.2584269662916,-18.31746401724841,0.3701416001398517,-8.908921391527299,2503.296703296703,-1.0,73.89611365857326,0.2562885276052589,
2023-08-12 10:08:31.440000,-8.855421686746988,0.26506024096385544,-4.240963855421687,0.3507050889025138,-8.692213366033108,-3.936235438381361,3.0,0.2568542568542569,3893.2584269662916,-18.332731192820926,0.40067595128488986,-8.649379406794473,2496.7032967032965,-1.0,73.89611365857326,0.2562925759141932,
2023-08-12 10:08:31.447000,-8.831325301204819,0.27710843373493976,-4.265060240963856,0.37768240343347637,-8.71919068056407,-3.9313304721030042,3.0,0.2568542568542569,3893.2584269662916,-18.27166249053085,0.44647747800244714,-8.817318338092184,2465.201465201465,-1.0,73.89611365857326,0.25629655112952254,
2023-08-12 10:08:31.455000,-8.855421686746988,0.26506024096385544,-4.216867469879518,0.3654199877375843,-8.770692826486817,-3.884733292458614,3.0,0.2568542568542569,3893.2584269662916,-18.851815162286577,0.2785385467047372,-8.847852689237222,2411.7216117216117,-1.0,73.89611365857326,0.2563004534366061,
2023-08-12 10:08:31.463000,-8.855421686746988,0.26506024096385544,-4.216867469879518,0.3850398528510116,-8.724095646842427,-3.9092581238503983,3.0,0.2568542568542569,3893.2584269662916,-18.256395314958333,0.44647747800244714,-8.679913757939511,2345.7875457875457,-1.0,73.89611365857326,0.2563042832845911,
2023-08-12 10:08:31.470000,-8.843373493975903,0.27710843373493976,-4.204819277108434,0.3678724708767627,-8.721643163703249,-3.8454935622317596,3.0,0.2568542568542569,3893.2584269662916,-17.95105180350795,0.0953324398345082,-8.466173299924245,2267.399267399267,-1.0,73.89611365857326,0.25630804138538166,
2023-08-12 10:08:31.478000,-8.831325301204819,0.2530120481927711,-4.1807228915662655,0.3850398528510116,-8.76578786020846,-3.8749233599019006,3.0,0.2568542568542569,3893.2584269662916,-17.95105180350795,-0.21001107161587346,-8.924188567099817,2183.8827838827838,-1.0,73.89611365857326,0.2563117287117471,
2023-08-12 10:08:31.486000,-8.819277108433736,0.27710843373493976,-4.19277108433735,0.3041079092581238,-8.684855916615573,-3.8405885959534025,3.0,0.2568542568542569,3893.2584269662916,-17.96631897908047,-0.08787366703572079,-8.557776353359358,2095.970695970696,-1.0,73.89611365857326,0.25631534649456994,
2023-08-12 10:08:31.493000,-8.831325301204819,0.28915662650602414,-4.216867469879518,0.35806253832004903,-8.738810545677499,-3.914163090128755,3.0,0.2568542568542569,3893.2584269662916,-17.99685333022551,-0.21001107161587346,-8.664646582366993,2007.3260073260071,-1.0,73.89611365857326,0.25631889621923226,
2023-08-12 10:08:31.501000,-8.831325301204819,0.28915662650602414,-4.216867469879518,0.3727774371551195,-8.733905579399142,-3.914163090128755,3.0,0.2568542568542569,3893.2584269662916,-17.981586154652987,0.04953091311695096,-8.679913757939511,1919.4139194139193,-1.0,73.89611365857326,0.256322379621151,
2023-08-12 10:08:31.509000,-8.855421686746988,0.27710843373493976,-4.216867469879518,0.3629675045984059,-8.741263028816677,-3.8822808093194356,3.0,0.2568542568542569,3893.2584269662916,-18.088456383660624,0.17166831769710364,-8.52724200221432,1838.095238095238,-1.0,73.89611365857326,0.2563257986804668,
2023-08-12 10:08:31.516000,-8.867469879518072,0.2530120481927711,-4.228915662650603,0.3948497854077253,-8.692213366033108,-3.9313304721030042,3.0,0.2568542568542569,3893.2584269662916,-18.073189208088102,-0.07260649146320171,-8.695180933512031,1764.8351648351647,-1.0,73.89611365857326,0.25632915561590075,
2023-08-12 10:08:31.524000,-8.843373493975903,0.24096385542168675,-4.216867469879518,0.3727774371551195,-8.71919068056407,-3.884733292458614,3.0,0.2568542568542569,3893.2584269662916,-18.027387681370545,-0.24054542276091162,-8.328768719771572,1697.4358974358972,-1.0,73.89611365857326,0.25633245287779477,
2023-08-12 10:08:31.532000,-8.831325301204819,0.22891566265060243,-4.228915662650603,0.31882280809319435,-8.660331085223788,-3.884733292458614,3.0,0.2568542568542569,3893.2584269662916,-17.722044169920164,-0.08787366703572079,-8.069226735038749,1638.8278388278386,-1.0,73.89611365857326,0.25633569314035287,
2023-08-12 10:08:31.539000,-8.807228915662652,0.22891566265060243,-4.19277108433735,0.3801348865726548,-8.660331085223788,-3.847946045370938,3.0,0.2568542568542569,3893.2584269662916,-17.584639589767495,-0.026804964745644456,-8.282967193054015,1588.278388278388,-1.0,73.89611365857326,0.2563388792931058,
2023-08-12 10:08:31.547000,-8.831325301204819,0.22891566265060243,-4.1807228915662655,0.3703249540159411,-8.711833231146535,-3.8234212139791537,3.0,0.2568542568542569,3893.2584269662916,-17.233494551599552,0.23273701998717997,-8.252432841908977,1542.8571428571427,-1.0,73.89611365857326,0.2563420144316237,
2023-08-12 10:08:31.554000,-8.819277108433736,0.22891566265060243,-4.156626506024097,0.3629675045984059,-8.684855916615573,-3.816063764561618,3.0,0.2568542568542569,3893.2584269662916,-17.386166307324746,0.15640114212458453,-8.20663131519142,1501.8315018315018,-1.0,73.89611365857326,0.25634510184750614,
2023-08-12 10:08:31.562000,-8.831325301204819,0.21686746987951808,-4.168674698795181,0.37768240343347637,-8.716738197424892,-3.796443899448191,3.0,0.2568542568542569,3893.2584269662916,-17.386166307324746,0.15640114212458453,-8.20663131519142,1465.201465201465,-1.0,73.89611365857326,0.2563481450176772,
2023-08-12 10:08:31.570000,-8.819277108433736,0.22891566265060243,-4.144578313253012,0.3359901900674433,-8.706928264868179,-3.8209687308399753,3.0,0.2568542568542569,3893.2584269662916,-16.897616689004135,0.1105996154070273,-8.54250917778684,1431.5018315018315,-1.0,73.89611365857326,0.2563511475930232,
2023-08-12 10:08:31.577000,-8.843373493975903,0.21686746987951808,-4.1807228915662655,0.3359901900674433,-8.702023298589822,-3.8626609442060085,3.0,0.2568542568542569,3893.2584269662916,-16.699143406561387,0.2938057222772563,-8.435638948779207,1400.0,-1.0,73.89611365857326,0.25635411338640474,
2023-08-12 10:08:31.585000,-8.831325301204819,0.24096385542168675,-4.19277108433735,0.31882280809319435,-8.702023298589822,-3.855303494788473,3.0,0.25641025641025644,3899.9999999999995,-16.83654798671406,0.2938057222772563,-8.130295437328824,1366.3003663003662,-1.0,73.89611365857326,0.2563570463600876,
2023-08-12 10:08:31.593000,-8.807228915662652,0.22891566265060243,-4.1807228915662655,0.30656039239730226,-8.706928264868179,-3.8626609442060085,3.0,0.25641025641025644,3899.9999999999995,-16.561738826408714,0.3243400734222945,-8.20663131519142,1333.3333333333333,-1.0,73.89611365857326,0.25635995060208333,
2023-08-12 10:08:31.600000,-8.819277108433736,0.22891566265060243,-4.156626506024097,0.32127529123237275,-8.782955242182709,-3.825873697118332,3.0,0.2568542568542569,3893.2584269662916,-16.30219684167589,-0.011537789173125373,-7.9623565060311146,1297.4358974358975,-1.0,73.89611365857326,0.2563628301315313,
2023-08-12 10:08:31.608000,-8.855421686746988,0.22891566265060243,-4.204819277108434,0.34825260576333533,-8.670141017780502,-3.835683629675046,3.0,0.2568542568542569,3893.2584269662916,-16.439601421828563,0.18693549326962272,-8.023425208321191,1260.07326007326,-1.0,73.89611365857326,0.2563656890433747,
2023-08-12 10:08:31.616000,-8.819277108433736,0.24096385542168675,-4.1807228915662655,0.35561005518087063,-8.706928264868179,-3.8528510116492947,3.0,0.2568542568542569,3893.2584269662916,-15.844181574500317,0.6144164093001571,-7.8554862770234815,1222.7106227106226,-1.0,73.89611365857326,0.2563685316629871,
2023-08-12 10:08:31.623000,-8.831325301204819,0.26506024096385544,-4.204819277108434,0.3605150214592274,-8.682403433476395,-3.894543225015328,3.0,0.2568542568542569,3893.2584269662916,-16.027387681370545,0.2785385467047372,-7.840219101450963,1191.2087912087911,-1.0,73.89611365857326,0.2563713623920354,
2023-08-12 10:08:31.631000,-8.843373493975903,0.26506024096385544,-4.19277108433735,0.3973022685469037,-8.731453096259962,-3.847946045370938,3.0,0.2568542568542569,3893.2584269662916,-15.889983101217874,0.3701416001398517,-7.9623565060311146,1162.6373626373625,-1.0,73.89611365857326,0.25637418569280845,
2023-08-12 10:08:31.639000,-8.843373493975903,0.28915662650602414,-4.1807228915662655,0.39239730226854685,-8.67259350091968,-3.8626609442060085,3.0,0.2568542568542569,3893.2584269662916,-15.47776936075986,0.08006526426198912,-7.901287803741038,1140.6593406593406,-1.0,73.89611365857326,0.25637700607232194,
2023-08-12 10:08:31.646000,-8.819277108433736,0.27710843373493976,-4.168674698795181,0.3163703249540159,-8.660331085223788,-3.843041079092581,3.0,0.2568542568542569,3893.2584269662916,-15.752578521065203,0.1105996154070273,-7.56540994114562,1124.5421245421244,-1.0,73.89611365857326,0.2563798280662564,
2023-08-12 10:08:31.654000,-8.831325301204819,0.28915662650602414,-4.19277108433735,0.3605150214592274,-8.68976088289393,-3.816063764561618,3.0,0.2568542568542569,3893.2584269662916,-15.676242643202608,0.49227900472000435,-7.809684750305925,1117.2161172161173,-1.0,73.89611365857326,0.2563826562227921,
2023-08-12 10:08:31.662000,-8.807228915662652,0.26506024096385544,-4.204819277108434,0.37522992029429797,-8.684855916615573,-3.9092581238503983,3.0,0.2568542568542569,3893.2584269662916,-15.401433482897264,0.2938057222772563,-7.5501427655731,1117.2161172161173,-1.0,73.89611365857326,0.2563854950863993,
2023-08-12 10:08:31.669000,-8.819277108433736,0.26506024096385544,-4.204819277108434,0.39239730226854685,-8.709380748007357,-3.9239730226854688,3.0,0.2568542568542569,3893.2584269662916,-15.46250218518734,0.18693549326962272,-7.657012994580734,1124.5421245421244,-1.0,73.89611365857326,0.2563883491816456,
2023-08-12 10:08:31.677000,-8.819277108433736,0.26506024096385544,-4.216867469879518,0.40220723482526055,-8.743715511955855,-3.90680564071122,3.0,0.25641025641025644,3899.9999999999995,-15.46250218518734,0.3090728978497754,-7.763883223588367,1135.5311355311355,-1.0,73.89611365857326,0.25639122299708034,
