Shimmer_F5D4_Timestamp_FormattedUnix_CAL,Shimmer_F5D4_Accel_LN_X_CAL,Shimmer_F5D4_Accel_LN_Y_CAL,Shimmer_F5D4_Accel_LN_Z_CAL,Shimmer_F5D4_Accel_WR_X_CAL,Shimmer_F5D4_Accel_WR_Y_CAL,Shimmer_F5D4_Accel_WR_Z_CAL,Shimmer_F5D4_GSR_Range_CAL,Shimmer_F5D4_GSR_Skin_Conductance_CAL,Shimmer_F5D4_GSR_Skin_Resistance_CAL,Shimmer_F5D4_Gyro_X_CAL,Shimmer_F5D4_Gyro_Y_CAL,Shimmer_F5D4_Gyro_Z_CAL,Shimmer_F5D4_PPG_A13_CAL,Shimmer_F5D4_PPG_IBI_CAL,Shimmer_F5D4_PPGtoHR_CAL,Shimmer_F5D4_GSR_Skin_Conductance_LPF_CAL,
yyyy/mm/dd hh:mm:ss.000,m/(s^2),m/(s^2),m/(s^2),m/(s^2),m/(s^2),m/(s^2),no_units,uS,kOhms,deg/s,deg/s,deg/s,mV,ms,BPM,uS,
2023-08-15 14:10:44.356000,-7.228915662650603,-0.6024096385542169,-6.734939759036145,-0.5272838749233598,-6.95340282035561,-6.427958307786634,2.0,1.5714285714285716,636.3636363636363,-0.037760037293863916,0.7626595186760674,0.2146728046151156,1749.4505494505493,-1.0,79.92844946743638,1.5725899506886851,
2023-08-15 14:10:44.363000,-7.216867469879518,-0.6265060240963856,-6.72289156626506,-0.5419987737584304,-6.9656652360515015,-6.405885959534028,2.0,1.56996336996337,636.9575361642557,0.17586387739642242,0.8607889983101209,0.3369267525202495,1686.4468864468863,-1.0,79.92844946743638,1.5725670422529976,
2023-08-15 14:10:44.371000,-7.19277108433735,-0.6144578313253012,-6.734939759036145,-0.49540159411404044,-6.958307786633966,-6.405885959534028,2.0,1.56996336996337,636.9575361642557,0.17586387739642242,0.8544956587611436,0.33529514597051435,1619.7802197802196,-1.0,79.92844946743638,1.5725441917379723,
2023-08-15 14:10:44.379000,-7.19277108433735,-0.5903614457831325,-6.734939759036145,-0.551808706315144,-6.896995708154506,-6.3862660944206,2.0,1.56996336996337,636.9575361642557,0.09696404638424339,0.4794592389720881,0.2390303595361577,1553.113553113553,-1.0,79.92844946743638,1.572521393003191,
2023-08-15 14:10:44.386000,-7.1807228915662655,-0.5903614457831325,-6.698795180722892,-0.5199264255058246,-6.9288779889638255,-6.45003065603924,2.0,1.56996336996337,636.9575361642557,0.34170502884447207,0.6256045684983399,-0.05349338616630721,1488.6446886446886,-1.0,79.92844946743638,1.5724986402813672,
2023-08-15 14:10:44.394000,-7.1325301204819285,-0.5542168674698795,-6.72289156626506,-0.45861434702636417,-6.8920907418761495,-6.408338442673206,2.0,1.56996336996337,636.9575361642557,0.003496299749432037,0.590874657653983,-0.23530097313676357,1427.106227106227,-1.0,79.92844946743638,1.5724759282011997,
2023-08-15 14:10:44.402000,-7.1807228915662655,-0.5662650602409639,-6.734939759036145,-0.48068669527896996,-6.904353157572041,-6.4475781729000605,2.0,1.56996336996337,636.9575361642557,0.38552531903735165,0.7385350504049873,0.11677641163102377,1368.4981684981683,-1.0,79.92844946743638,1.5724532518075747,
2023-08-15 14:10:44.409000,-7.1807228915662655,-0.5783132530120483,-6.759036144578314,-0.48559166155732675,-6.960760269773145,-6.4328632740649905,2.0,1.56996336996337,636.9575361642557,0.1707359710972552,0.5939047841034899,0.20861255171610038,1315.018315018315,-1.0,79.92844946743638,1.572430606579047,
2023-08-15 14:10:44.417000,-7.19277108433735,-0.5662650602409639,-6.759036144578314,-0.46842427958307786,-6.933782955242182,-6.437768240343347,2.0,1.56996336996337,636.9575361642557,0.32399044344735195,0.9106695414020161,0.3443855253190374,1265.9340659340658,-1.0,79.92844946743638,1.5724079884425448,
2023-08-15 14:10:44.425000,-7.1807228915662655,-0.5662650602409639,-6.771084337349398,-0.49785407725321884,-6.879828326180257,-6.501532801961986,2.0,1.56996336996337,636.9575361642557,0.49321135131985283,0.6459996503700245,0.2215488607889984,1221.9780219780218,-1.0,79.92844946743638,1.5723853937852517,
2023-08-15 14:10:44.432000,-7.19277108433735,-0.5542168674698795,-6.783132530120482,-0.39975475168608215,-6.943592887798896,-6.4255058246474555,2.0,1.56996336996337,636.9575361642557,0.7792086708233792,0.7015908163859911,0.3101217877746051,1183.8827838827838,-1.0,79.92844946743638,1.5723628194636532,
2023-08-15 14:10:44.440000,-7.216867469879518,-0.5542168674698795,-6.759036144578314,-0.45616186388718577,-6.977927651747394,-6.4990803188228075,2.0,1.56996336996337,636.9575361642557,0.3769011129887541,0.7119631723093064,0.16887127789755835,1156.7765567765566,-1.0,79.92844946743638,1.5723402632676036,
2023-08-15 14:10:44.448000,-7.2048192771084345,-0.5542168674698795,-6.795180722891566,-0.45861434702636417,-6.96811771919068,-6.503985285101164,2.0,1.56996336996337,636.9575361642557,0.20709748849134735,0.599615407027563,0.25837655148301386,1139.9267399267399,-1.0,79.92844946743638,1.572317723398558,
2023-08-15 14:10:44.455000,-7.2048192771084345,-0.5542168674698795,-6.795180722891566,-0.5076640098099325,-6.963212752912323,-6.486817903126916,2.0,1.56996336996337,636.9575361642557,0.14672804615115603,0.761727172076219,-0.0804148942369325,1134.065934065934,-1.0,79.92844946743638,1.5722951980489914,
2023-08-15 14:10:44.463000,-7.2048192771084345,-0.5542168674698795,-6.795180722891566,-0.463519313304721,-7.007357449417535,-6.477007970570202,2.0,1.5684981684981687,637.5525455394675,0.054425732766156504,0.2657187809568209,-0.21700367111473667,1136.9963369963368,-1.0,79.92844946743638,1.572272685892193,
2023-08-15 14:10:44.471000,-7.19277108433735,-0.5542168674698795,-6.807228915662651,-0.4659717964438994,-6.919068056407112,-6.4402207234825255,2.0,1.56996336996337,636.9575361642557,0.07202377483829579,0.01841384534700861,0.1844880834450208,1149.4505494505493,-1.0,79.92844946743638,1.5722501860418832,
2023-08-15 14:10:44.478000,-7.19277108433735,-0.5421686746987953,-6.783132530120482,-0.4904966278356836,-6.943592887798896,-6.467198038013488,2.0,1.56996336996337,636.9575361642557,0.27259483713070415,0.04813239321717919,0.1687547345725775,1170.6959706959706,-1.0,79.92844946743638,1.572227698397226,
2023-08-15 14:10:44.486000,-7.1807228915662655,-0.5421686746987953,-6.783132530120482,-0.46842427958307786,-6.914163090128755,-6.423053341508277,2.0,1.56996336996337,636.9575361642557,0.2561622283083732,-0.04463609346774715,0.6096381329759336,1197.8021978021977,-1.0,79.92844946743638,1.572205223668202,
2023-08-15 14:10:44.494000,-7.19277108433735,-0.5783132530120483,-6.759036144578314,-0.4757817290006131,-6.92152053954629,-6.4475781729000605,2.0,1.56996336996337,636.9575361642557,-0.051861779616572894,0.01713186877221594,0.26944816735621463,1232.2344322344322,-1.0,79.92844946743638,1.5721827624497202,
2023-08-15 14:10:44.501000,-7.156626506024097,-0.5662650602409639,-6.759036144578314,-0.43654199877375843,-6.896995708154506,-6.452483139178418,2.0,1.56996336996337,636.9575361642557,0.025056814870928437,0.15313792902511592,0.2506846920342639,1271.062271062271,-1.0,79.92844946743638,1.572160315733691,
2023-08-15 14:10:44.509000,-7.168674698795181,-0.5542168674698795,-6.771084337349398,-0.4880441446965052,-6.938687921520539,-6.393623543838136,2.0,1.56996336996337,636.9575361642557,0.16432608822329706,0.275158790280286,0.0026804964745644456,1312.087912087912,-1.0,79.92844946743638,1.572137884856446,
2023-08-15 14:10:44.517000,-7.19277108433735,-0.5421686746987953,-6.746987951807229,-0.4512568976088289,-7.019619865113427,-6.408338442673206,2.0,1.56996336996337,636.9575361642557,0.16467571819823956,0.24578987238505967,0.13565643027795574,1349.4505494505493,-1.0,79.92844946743638,1.5721154715134247,
2023-08-15 14:10:44.524000,-7.2048192771084345,-0.5662650602409639,-6.734939759036145,-0.4880441446965052,-6.887185775597793,-6.378908645003065,2.0,1.56996336996337,636.9575361642557,0.4390187052036597,0.2132742847153421,0.01095507254821989,1386.8131868131868,-1.0,79.92844946743638,1.5720930781601126,
2023-08-15 14:10:44.532000,-7.216867469879518,-0.5662650602409639,-6.734939759036145,-0.48068669527896996,-6.882280809319435,-6.4034334763948495,2.0,1.56996336996337,636.9575361642557,0.406386574208963,0.38144630266301544,-0.005594079599090998,1419.047619047619,-1.0,79.92844946743638,1.5720707070397526,
2023-08-15 14:10:44.539000,-7.19277108433735,-0.5421686746987953,-6.746987951807229,-0.49785407725321884,-6.95340282035561,-6.4255058246474555,2.0,1.56996336996337,636.9575361642557,0.25115086533418857,0.5050987704679207,0.19217994289377077,1446.153846153846,-1.0,79.92844946743638,1.572048360226844,
2023-08-15 14:10:44.547000,-7.2048192771084345,-0.5542168674698795,-6.746987951807229,-0.48559166155732675,-6.958307786633966,-6.4181483752299195,2.0,1.56996336996337,636.9575361642557,-0.009440009323466846,0.7656896451255761,-0.03904201386865572,1468.8644688644688,-1.0,79.92844946743638,1.5720260400899777,
2023-08-15 14:10:44.555000,-7.216867469879518,-0.5542168674698795,-6.746987951807229,-0.49294911097486205,-6.916615573267934,-6.4181483752299195,2.0,1.56996336996337,636.9575361642557,0.037293863993940565,0.5052153137929033,0.05209486626653457,1487.9120879120878,-1.0,79.92844946743638,1.5720037497189752,
2023-08-15 14:10:44.562000,-7.2048192771084345,-0.5662650602409639,-6.759036144578314,-0.4880441446965052,-6.9656652360515015,-6.4696505211526665,2.0,1.56996336996337,636.9575361642557,0.46570712662432334,0.46186119689994704,-0.11665986830604294,1503.2967032967033,-1.0,79.92844946743638,1.571981492826223,
2023-08-15 14:10:44.570000,-7.216867469879518,-0.5662650602409639,-6.783132530120482,-0.4757817290006131,-6.933782955242182,-6.481912936848559,2.0,1.56996336996337,636.9575361642557,0.0363615173940904,0.6931996969873553,-0.13239321717848623,1514.2857142857142,-1.0,79.92844946743638,1.5719592732264598,
2023-08-15 14:10:44.578000,-7.228915662650603,-0.5783132530120483,-6.783132530120482,-0.5297363580625383,-6.919068056407112,-6.427958307786634,2.0,1.56996336996337,636.9575361642557,0.08181341413670515,0.6641804090670697,0.3105879610745293,1517.9487179487178,-1.0,79.92844946743638,1.571937094808388,
2023-08-15 14:10:44.585000,-7.19277108433735,-0.5903614457831325,-6.759036144578314,-0.5297363580625383,-6.938687921520539,-6.46474555487431,2.0,1.56996336996337,636.9575361642557,0.035429170794241974,0.6773498047899302,0.01561680554746246,1513.5531135531135,-1.0,79.92844946743638,1.5719149610478063,
2023-08-15 14:10:44.593000,-7.1807228915662655,-0.5662650602409639,-6.771084337349398,-0.5567136725935009,-6.997547516860821,-6.46474555487431,2.0,1.56996336996337,636.9575361642557,-0.20826292174115743,0.3686265369150991,0.07552007458772783,1502.5641025641025,-1.0,79.92844946743638,1.5718928755033732,
2023-08-15 14:10:44.601000,-7.19277108433735,-0.5783132530120483,-6.771084337349398,-0.5272838749233598,-6.909258123850398,-6.442673206621704,2.0,1.56996336996337,636.9575361642557,0.11467863178136525,0.4132626303828445,0.043936833517860395,1487.179487179487,-1.0,79.92844946743638,1.5718708422082526,
2023-08-15 14:10:44.608000,-7.2048192771084345,-0.5662650602409639,-6.771084337349398,-0.49294911097486205,-6.9362354383813605,-6.46474555487431,2.0,1.56996336996337,636.9575361642557,0.26385408775712405,0.1984732824427481,-0.2791212633296427,1470.3296703296703,-1.0,79.92844946743638,1.5718488651487352,
2023-08-15 14:10:44.616000,-7.168674698795181,-0.5783132530120483,-6.807228915662651,-0.48559166155732675,-6.931330472103004,-6.481912936848559,2.0,1.5684981684981687,637.5525455394675,0.19963871569255817,0.3638482605908744,0.07412155468795519,1452.014652014652,-1.0,79.92844946743638,1.571826948235889,
2023-08-15 14:10:44.624000,-7.19277108433735,-0.5542168674698795,-6.759036144578314,-0.5493562231759657,-6.980380134886572,-6.477007970570202,2.0,1.56996336996337,636.9575361642557,0.30184721170094964,0.25453062175863805,-0.0010488899248296977,1435.8974358974358,-1.0,79.92844946743638,1.571805094785136,
2023-08-15 14:10:44.631000,-7.2048192771084345,-0.5903614457831325,-6.746987951807229,-0.5321888412017167,-6.943592887798896,-6.437768240343347,2.0,1.56996336996337,636.9575361642557,0.5728104422819186,0.2977681953266117,0.2103607015908164,1419.7802197802198,-1.0,79.92844946743638,1.5717833079097987,
2023-08-15 14:10:44.639000,-7.2048192771084345,-0.5903614457831325,-6.746987951807229,-0.5003065603923973,-7.004904966278357,-6.442673206621704,2.0,1.56996336996337,636.9575361642557,0.2932230056523521,-0.07283957811316338,0.31408426082396135,1402.9304029304028,-1.0,79.92844946743638,1.5717615910197,
2023-08-15 14:10:44.647000,-7.216867469879518,-0.5783132530120483,-6.698795180722892,-0.48559166155732675,-6.95340282035561,-6.457388105456775,2.0,1.56996336996337,636.9575361642557,0.28576423285356295,-0.07388846803799265,0.30988870112464295,1388.278388278388,-1.0,79.92844946743638,1.571739947338046,
2023-08-15 14:10:44.654000,-7.228915662650603,-0.5903614457831325,-6.746987951807229,-0.5027590435315757,-6.955855303494788,-6.435315757204169,2.0,1.56996336996337,636.9575361642557,0.11502826175630776,0.38272827923780633,0.09078725016024691,1375.091575091575,-1.0,79.92844946743638,1.5717183798776613,
2023-08-15 14:10:44.662000,-7.19277108433735,-0.5903614457831325,-6.734939759036145,-0.539546290619252,-6.960760269773145,-6.383813611281422,2.0,1.56996336996337,636.9575361642557,0.14334828972670657,0.4237515296311406,0.11759221490589136,1362.6373626373625,-1.0,79.92844946743638,1.5716968914189176,
2023-08-15 14:10:44.670000,-7.1807228915662655,-0.5903614457831325,-6.710843373493976,-0.5665236051502146,-7.002452483139178,-6.4328632740649905,2.0,1.56996336996337,636.9575361642557,0.09719713303420506,0.40405570770934107,0.03764349396888308,1351.6483516483515,-1.0,79.92844946743638,1.571675484489538,
2023-08-15 14:10:44.677000,-7.19277108433735,-0.5903614457831325,-6.734939759036145,-0.5076640098099325,-6.92152053954629,-6.45003065603924,2.0,1.56996336996337,636.9575361642557,0.3706077734397768,0.6742031350154425,0.14393100635161118,1338.4615384615383,-1.0,79.92844946743638,1.5716541613464525,
2023-08-15 14:10:44.685000,-7.1807228915662655,-0.5903614457831325,-6.734939759036145,-0.5959534028203556,-6.955855303494788,-6.4475781729000605,2.0,1.56996336996337,636.9575361642557,0.39892780141017387,0.28739583940329816,0.20103723559233125,1328.2051282051282,-1.0,79.92844946743638,1.571632923959866,
2023-08-15 14:10:44.693000,-7.156626506024097,-0.5903614457831325,-6.72289156626506,-0.5640711220110362,-6.948497854077253,-6.452483139178418,2.0,1.5684981684981687,637.5525455394675,0.4862187518209887,0.43773672862886703,0.13950236000233115,1320.8791208791208,-1.0,79.92844946743638,1.5716117739996822,
2023-08-15 14:10:44.700000,-7.168674698795181,-0.5903614457831325,-6.746987951807229,-0.5346413243408952,-6.946045370938075,-6.430410790925812,2.0,1.5684981684981687,637.5525455394675,0.49763999766913325,0.9090379348522809,0.21478934794009685,1316.4835164835165,-1.0,79.92844946743638,1.5715907123317467,
2023-08-15 14:10:44.708000,-7.2048192771084345,-0.5783132530120483,-6.734939759036145,-0.5297363580625383,-6.960760269773145,-6.393623543838136,2.0,1.56996336996337,636.9575361642557,0.7107977390594945,0.9326962298234376,0.2443913524852866,1315.018315018315,-1.0,79.92844946743638,1.571569738937161,
2023-08-15 14:10:44.716000,-7.168674698795181,-0.5662650602409639,-6.759036144578314,-0.5174739423666462,-6.926425505824647,-6.454935622317596,2.0,1.56996336996337,636.9575361642557,0.2929899190023887,0.9389895693724132,0.10430627585805041,1315.018315018315,-1.0,79.92844946743638,1.5715488538514442,
2023-08-15 14:10:44.723000,-7.168674698795181,-0.5542168674698795,-6.746987951807229,-0.551808706315144,-6.8920907418761495,-6.474555487431023,2.0,1.5684981684981687,637.5525455394675,0.1695705378474451,1.0971388613717155,-0.0340306508944702,1315.7509157509157,-1.0,79.92844946743638,1.5715280572275094,
2023-08-15 14:10:44.731000,-7.1807228915662655,-0.5662650602409639,-6.795180722891566,-0.46842427958307786,-6.926425505824647,-6.459840588595953,2.0,1.5684981684981687,637.5525455394675,0.35126158149291975,1.1753394324340078,0.026804964745644023,1318.6813186813185,-1.0,79.92844946743638,1.5715073483836912,
2023-08-15 14:10:44.739000,-7.1807228915662655,-0.5783132530120483,-6.771084337349398,-0.5174739423666462,-6.8847332924586135,-6.423053341508277,2.0,1.5684981684981687,637.5525455394675,0.5458889342112933,1.099935901171259,0.19322883281860045,1322.3443223443223,-1.0,79.92844946743638,1.571486725733048,
2023-08-15 14:10:44.746000,-7.19277108433735,-0.5662650602409639,-6.771084337349398,-0.510116492949111,-6.909258123850398,-6.427958307786634,2.0,1.56996336996337,636.9575361642557,0.5101101334421071,1.2414194976982686,0.2976516520016317,1326.7399267399267,-1.0,79.92844946743638,1.5714661872401,
2023-08-15 14:10:44.754000,-7.2048192771084345,-0.5662650602409639,-6.783132530120482,-0.5714285714285714,-6.95340282035561,-6.4475781729000605,2.0,1.56996336996337,636.9575361642557,0.5812015616805545,0.952625138395197,0.18786783986947156,1331.8681318681317,-1.0,79.92844946743638,1.5714457309146992,
2023-08-15 14:10:44.762000,-7.19277108433735,-0.5542168674698795,-6.783132530120482,-0.522378908645003,-6.923973022685469,-6.540772532188841,2.0,1.56996336996337,636.9575361642557,0.33179884622108186,1.170561156109783,0.3362274925703632,1337.7289377289376,-1.0,79.92844946743638,1.5714253548877761,
2023-08-15 14:10:44.769000,-7.19277108433735,-0.5783132530120483,-6.807228915662651,-0.5616186388718577,-6.931330472103004,-6.4990803188228075,2.0,1.5684981684981687,637.5525455394675,0.5108093933919938,1.1732416525843492,0.18005943709574035,1342.1245421245421,-1.0,79.92844946743638,1.5714050569649396,
2023-08-15 14:10:44.777000,-7.1807228915662655,-0.5783132530120483,-6.83132530120482,-0.522378908645003,-7.019619865113427,-6.521152667075413,2.0,1.5684981684981687,637.5525455394675,0.18507080006992585,0.8394615698385879,0.3166482139735445,1345.054945054945,-1.0,79.92844946743638,1.5713848346061137,
2023-08-15 14:10:44.785000,-7.168674698795181,-0.5662650602409639,-6.807228915662651,-0.49540159411404044,-6.948497854077253,-6.454935622317596,2.0,1.5684981684981687,637.5525455394675,0.3815628459879962,0.9673095973428137,-0.08461045393625086,1344.3223443223442,-1.0,79.92844946743638,1.5713646848034137,
2023-08-15 14:10:44.792000,-7.19277108433735,-0.5421686746987953,-6.759036144578314,-0.47332924586143466,-6.872470876762722,-6.491722869405272,2.0,1.5684981684981687,637.5525455394675,0.22656022376318347,0.8656838179593265,-0.2989336285764231,1344.3223443223442,-1.0,79.92844946743638,1.5713446040652153,
2023-08-15 14:10:44.800000,-7.1807228915662655,-0.5783132530120483,-6.795180722891566,-0.5174739423666462,-6.919068056407112,-6.46474555487431,2.0,1.56996336996337,636.9575361642557,-0.04941436979197012,0.4760794825476369,-0.34391935201911317,1345.7875457875457,-1.0,79.92844946743638,1.5713245884364804,
2023-08-15 14:10:44.808000,-7.19277108433735,-0.5903614457831325,-6.783132530120482,-0.5174739423666462,-6.958307786633966,-6.442673206621704,2.0,1.5684981684981687,637.5525455394675,0.12038925470543665,0.37853271953848927,0.19183031291882738,1347.2527472527472,-1.0,79.92844946743638,1.571304633555257,
2023-08-15 14:10:44.815000,-7.1807228915662655,-0.6024096385542169,-6.759036144578314,-0.5861434702636419,-6.982832618025751,-6.457388105456775,2.0,1.5684981684981687,637.5525455394675,-0.15721694539945213,0.49612493444438066,-0.2842491696288095,1350.18315018315,-1.0,79.92844946743638,1.5712847343224359,
2023-08-15 14:10:44.823000,-7.19277108433735,-0.5903614457831325,-6.771084337349398,-0.522378908645003,-6.963212752912323,-6.408338442673206,2.0,1.56996336996337,636.9575361642557,0.10150923605850469,0.599149233727638,0.036128430744129164,1350.18315018315,-1.0,79.92844946743638,1.5712648853476787,
2023-08-15 14:10:44.831000,-7.2048192771084345,-0.6144578313253012,-6.759036144578314,-0.6131207847946045,-6.958307786633966,-6.415695892090741,2.0,1.5684981684981687,637.5525455394675,0.08344502068644033,0.8845638366062567,0.06398228541460288,1347.985347985348,-1.0,79.92844946743638,1.5712450818549466,
2023-08-15 14:10:44.838000,-7.2048192771084345,-0.6144578313253012,-6.72289156626506,-0.5444512568976088,-6.982832618025751,-6.4696505211526665,2.0,1.5684981684981687,637.5525455394675,0.09673095973428172,1.2740516286929655,0.04941436979197012,1342.1245421245421,-1.0,79.92844946743638,1.5712253187974885,
2023-08-15 14:10:44.846000,-7.19277108433735,-0.6144578313253012,-6.734939759036145,-0.5444512568976088,-6.931330472103004,-6.4034334763948495,2.0,1.5684981684981687,637.5525455394675,0.5236291591399101,0.9269856068993645,-0.011887419148068318,1336.9963369963368,-1.0,79.92844946743638,1.5712055899044595,
2023-08-15 14:10:44.854000,-7.216867469879518,-0.6144578313253012,-6.746987951807229,-0.5346413243408952,-6.926425505824647,-6.4255058246474555,2.0,1.5684981684981687,637.5525455394675,0.20022143231746412,0.9347940096730961,-0.11829147485577769,1331.8681318681317,-1.0,79.92844946743638,1.5711858886942258,
2023-08-15 14:10:44.861000,-7.19277108433735,-0.5903614457831325,-6.734939759036145,-0.5419987737584304,-6.950950337216431,-6.477007970570202,2.0,1.5684981684981687,637.5525455394675,0.21455626129013475,0.924887827049706,0.06677932521414817,1327.4725274725274,-1.0,79.92844946743638,1.5711662089263614,
2023-08-15 14:10:44.869000,-7.1807228915662655,-0.6144578313253012,-6.795180722891566,-0.5199264255058246,-6.943592887798896,-6.479460453709381,2.0,1.5684981684981687,637.5525455394675,0.1355398869529749,0.8254763708408598,-0.36116776411631035,1326.007326007326,-1.0,79.92844946743638,1.571146544140923,
2023-08-15 14:10:44.877000,-7.168674698795181,-0.6144578313253012,-6.819277108433735,-0.5174739423666462,-6.938687921520539,-6.508890251379522,2.0,1.56996336996337,636.9575361642557,0.4095332439834508,0.8769885204824902,-0.052327952916496674,1327.4725274725274,-1.0,79.92844946743638,1.571126887690689,
2023-08-15 14:10:44.884000,-7.1325301204819285,-0.5903614457831325,-6.819277108433735,-0.4880441446965052,-6.938687921520539,-6.577559779276517,2.0,1.5684981684981687,637.5525455394675,0.43493968882932177,0.7139444088339858,0.4676883631490006,1331.8681318681317,-1.0,79.92844946743638,1.5711072332662142,
2023-08-15 14:10:44.892000,-7.120481927710844,-0.5903614457831325,-6.843373493975904,-0.5665236051502146,-6.8920907418761495,-6.518700183936235,2.0,1.5684981684981687,637.5525455394675,0.2934560923023138,0.6573043528931882,0.18938290309422548,1339.9267399267399,-1.0,79.92844946743638,1.571087574507754,
2023-08-15 14:10:44.899000,-7.144578313253012,-0.6024096385542169,-6.867469879518072,-0.5076640098099325,-6.946045370938075,-6.533415082771306,2.0,1.5684981684981687,637.5525455394675,0.38098012936309034,1.1348988986655795,0.5394790513373346,1351.6483516483515,-1.0,79.92844946743638,1.5710679045130518,
2023-08-15 14:10:44.907000,-7.1325301204819285,-0.5783132530120483,-6.843373493975904,-0.4537093807480073,-6.926425505824647,-6.594727161250766,2.0,1.5684981684981687,637.5525455394675,0.6068410931763888,1.0452770817551442,0.5201328593904785,1369.9633699633698,-1.0,79.92844946743638,1.5710482163278408,
2023-08-15 14:10:44.915000,-7.19277108433735,-0.6385542168674699,-6.855421686746988,-0.5567136725935009,-6.926425505824647,-6.557939914163089,2.0,1.56996336996337,636.9575361642557,0.4023075578346251,0.5897092244041728,0.944583648971505,1398.5347985347985,-1.0,79.92844946743638,1.571028502978081,
2023-08-15 14:10:44.922000,-7.228915662650603,-0.6626506024096386,-6.771084337349398,-0.6597179644389944,-6.958307786633966,-6.413243408951563,2.0,1.5684981684981687,637.5525455394675,0.3976458248353829,0.5796864984558001,0.9363090728978496,1435.8974358974358,-1.0,79.92844946743638,1.5710087579943148,
2023-08-15 14:10:44.930000,-7.216867469879518,-0.5662650602409639,-6.746987951807229,-0.48313917841814835,-6.960760269773145,-6.423053341508277,2.0,1.5684981684981687,637.5525455394675,0.9141658411514482,0.648097430219683,1.0191713769593844,1484.9816849816848,-1.0,79.92844946743638,1.570988975480094,
2023-08-15 14:10:44.938000,-7.216867469879518,-0.4819277108433735,-6.710843373493976,-0.4218270999386879,-6.955855303494788,-6.474555487431023,2.0,1.5684981684981687,637.5525455394675,0.953207855020103,0.6085892430511048,0.44717673795233387,1540.6593406593406,-1.0,79.92844946743638,1.5709691490926039,
2023-08-15 14:10:44.945000,-7.1807228915662655,-0.5783132530120483,-6.698795180722892,-0.5738810545677498,-6.933782955242182,-6.398528510116493,2.0,1.5684981684981687,637.5525455394675,-0.029718547870170576,0.10908455218227468,0.15337101567507672,1605.128205128205,-1.0,79.92844946743638,1.5709492721093845,
2023-08-15 14:10:44.953000,-7.19277108433735,-0.6385542168674699,-6.759036144578314,-0.5542611894543225,-6.926425505824647,-6.445125689760882,2.0,1.5684981684981687,637.5525455394675,0.04486918011770882,0.9118349746518262,0.5512499271604218,1674.7252747252746,-1.0,79.92844946743638,1.5709293379493008,
2023-08-15 14:10:44.961000,-7.240963855421687,-0.6024096385542169,-6.783132530120482,-0.49540159411404044,-7.039239730226854,-6.4475781729000605,2.0,1.5684981684981687,637.5525455394675,0.6830604277140033,0.7623098887011249,0.5616222830837366,1743.5897435897434,-1.0,79.92844946743638,1.5709093401997054,
2023-08-15 14:10:44.968000,-7.144578313253012,-0.5180722891566265,-6.795180722891566,-0.45616186388718577,-6.835683629675046,-6.530962599632127,2.0,1.5684981684981687,637.5525455394675,0.2632713711322181,0.35440825126740927,0.8168521647922614,1809.5238095238094,-1.0,79.92844946743638,1.5708892726424026,
2023-08-15 14:10:44.976000,-7.024096385542169,-0.5180722891566265,-6.855421686746988,-0.4512568976088289,-6.776824034334764,-6.518700183936235,2.0,1.5684981684981687,637.5525455394675,0.3350620593205522,0.13087815395373276,-0.3509119515179764,1865.201465201465,-1.0,79.92844946743638,1.5708691292783161,
2023-08-15 14:10:44.984000,-7.0361445783132535,-0.5662650602409639,-6.927710843373494,-0.568976088289393,-6.732679337829552,-6.638871857755977,2.0,1.5684981684981687,637.5525455394675,-0.8450556494376785,0.8542625721111836,-0.4555678573509706,1911.3553113553112,-1.0,79.92844946743638,1.5708489043507956,
2023-08-15 14:10:44.991000,-7.072289156626506,-0.6144578313253012,-6.963855421686747,-0.5469037400367872,-6.865113427345187,-6.673206621704475,2.0,1.56996336996337,636.9575361642557,-0.8865450731309361,1.3163568556610923,-0.3609346774663483,1947.2527472527472,-1.0,79.92844946743638,1.5708285923674992,
2023-08-15 14:10:44.999000,-7.1325301204819285,-0.6024096385542169,-7.0,-0.5469037400367872,-6.8994481912936845,-6.705088902513795,2.0,1.56996336996337,636.9575361642557,-0.9119515179768071,1.7579395140143357,0.007575316123769124,1968.4981684981683,-1.0,79.92844946743638,1.5708081886134713,
2023-08-15 14:10:45.007000,-7.168674698795181,-0.6024096385542169,-7.0361445783132535,-0.5370938074800735,-6.911710606989576,-6.724708767627222,2.0,1.56996336996337,636.9575361642557,-0.8923722393799901,1.1129887535691405,-0.11467863178136438,1974.3589743589741,-1.0,79.92844946743638,1.5707876892422241,
2023-08-15 14:10:45.014000,-7.156626506024097,-0.6506024096385542,-6.975903614457832,-0.6033108522378908,-6.865113427345187,-6.687921520539546,2.0,1.5684981684981687,637.5525455394675,-1.1494668142882116,0.5637200629333959,-0.785851640347299,1964.8351648351647,-1.0,79.92844946743638,1.5707670908407685,
2023-08-15 14:10:45.022000,-7.144578313253012,-0.6024096385542169,-6.927710843373494,-0.5469037400367872,-6.916615573267934,-6.641324340895156,2.0,1.5684981684981687,637.5525455394675,-1.46331798846221,-0.08717440708583578,-1.5289318804265486,1937.7289377289376,-1.0,79.92844946743638,1.570746389958876,
2023-08-15 14:10:45.030000,-7.1325301204819285,-0.6144578313253012,-6.891566265060241,-0.5370938074800735,-6.9068056407112195,-6.567749846719804,2.0,1.5684981684981687,637.5525455394675,-2.26350445778218,-1.128722102441583,-1.7333488724433306,1895.970695970696,-1.0,79.92844946743638,1.5707255830578046,
2023-08-15 14:10:45.037000,-7.1084337349397595,-0.6265060240963856,-6.855421686746988,-0.5616186388718577,-6.801348865726548,-6.602084610668301,2.0,1.5684981684981687,637.5525455394675,-2.5229298991900233,-1.6144746809626465,-2.2217819474389606,1844.6886446886447,-1.0,79.92844946743638,1.5707046669824671,
2023-08-15 14:10:45.045000,-7.096385542168675,-0.6506024096385542,-6.819277108433735,-0.6106683016554261,-6.798896382587369,-6.445125689760882,2.0,1.5670329670329672,638.148667601683,-2.351844298117826,-2.004428646349279,-2.1313443272536565,1787.5457875457873,-1.0,79.92844946743638,1.5706836389739989,
2023-08-15 14:10:45.053000,-7.096385542168675,-0.6626506024096386,-6.734939759036145,-0.5812385039852851,-6.8332311465358675,-6.427958307786634,2.0,1.5684981684981687,637.5525455394675,-2.35452479459239,-1.918652759163218,-1.962473049356098,1726.7399267399267,-1.0,79.92844946743638,1.5706624961879438,
2023-08-15 14:10:45.060000,-7.0843373493975905,-0.6144578313253012,-6.698795180722892,-0.5469037400367872,-6.8749233599019,-6.423053341508277,2.0,1.5670329670329672,638.148667601683,-2.2919410290775595,-1.5758988403939167,-1.7669133500378766,1665.9340659340658,-1.0,79.92844946743638,1.5706412361238524,
2023-08-15 14:10:45.068000,-7.1325301204819285,-0.6265060240963856,-6.72289156626506,-0.5272838749233598,-6.8847332924586135,-6.459840588595953,2.0,1.5670329670329672,638.148667601683,-2.720820465007867,-1.512266184954257,-1.9534992133325564,1607.3260073260071,-1.0,79.92844946743638,1.5706198566645158,
2023-08-15 14:10:45.076000,-7.144578313253012,-0.6506024096385542,-6.698795180722892,-0.6057633353770693,-6.909258123850398,-6.305334150827712,2.0,1.5641025641025643,639.3442622950819,-2.4890157916205355,-0.8515820756366175,-2.4750305926228076,1550.18315018315,-1.0,79.92844946743638,1.5705983555509802,
2023-08-15 14:10:45.083000,-7.1325301204819285,-0.674698795180723,-6.674698795180723,-0.5469037400367872,-6.889638258736971,-6.383813611281422,2.0,1.5641025641025643,639.3442622950819,-2.0599032690402663,0.276207680205117,-2.1076860322825013,1496.7032967032967,773.651123046875,77.55433710701747,1.5705767303108227,
2023-08-15 14:10:45.091000,-7.156626506024097,-0.6144578313253012,-6.686746987951808,-0.5665236051502146,-6.931330472103004,-6.359288779889638,2.0,1.5641025641025643,639.3442622950819,-2.01654915214731,0.5099935901171262,-2.2624555678573515,1446.8864468864467,-1.0,77.55433710701747,1.5705549775842813,
2023-08-15 14:10:45.099000,-7.1807228915662655,-0.6265060240963856,-6.72289156626506,-0.5419987737584304,-6.911710606989576,-6.405885959534028,2.0,1.5641025641025643,639.3442622950819,-1.9890449274517805,0.45207155760153767,-2.4750305926228076,1403.6630036630036,-1.0,77.55433710701747,1.5705330936012345,
2023-08-15 14:10:45.106000,-7.1807228915662655,-0.6144578313253012,-6.72289156626506,-0.5272838749233598,-6.973022685469037,-6.4255058246474555,2.0,1.5626373626373624,639.9437412095641,-1.7021152613484056,0.867781597808985,-1.9530330400326321,1367.7655677655678,-1.0,77.55433710701747,1.5705110746522961,
2023-08-15 14:10:45.114000,-7.168674698795181,-0.6265060240963856,-6.783132530120482,-0.5542611894543225,-6.990190067443286,-6.52605763335377,2.0,1.561172161172161,640.544345377757,-1.3394324340073414,0.6716391818658588,-2.2010372355923313,1338.4615384615383,-1.0,77.55433710701747,1.5704889165714653,
2023-08-15 14:10:45.122000,-7.156626506024097,-0.5903614457831325,-6.771084337349398,-0.5003065603923973,-6.9288779889638255,-6.4255058246474555,2.0,1.561172161172161,640.544345377757,-1.7410407318920815,0.38389371248761817,-2.2008041489423698,1312.8205128205127,-1.0,77.55433710701747,1.570466614143679,
2023-08-15 14:10:45.129000,-7.120481927710844,-0.5903614457831325,-6.783132530120482,-0.5199264255058246,-6.850398528510116,-6.472103004291845,2.0,1.561172161172161,640.544345377757,-1.5298642270263962,0.8508828156867307,-2.2907755958277494,1290.10989010989,-1.0,77.55433710701747,1.570444161454656,
2023-08-15 14:10:45.137000,-7.120481927710844,-0.6024096385542169,-6.855421686746988,-0.539546290619252,-6.86020846106683,-6.4475781729000605,2.0,1.5597069597069595,641.1460779708784,-2.1741157275217065,0.6413379173707824,-2.2267933104131465,1267.3992673992673,-1.0,77.55433710701747,1.5704215523043223,
2023-08-15 14:10:45.145000,-7.0843373493975905,-0.5903614457831325,-6.795180722891566,-0.5248313917841815,-6.879828326180257,-6.4622930717351315,2.0,1.5597069597069595,641.1460779708784,-1.544548685974011,0.43260882232970155,-2.1636268282734106,1247.6190476190475,-1.0,77.55433710701747,1.5703987796663608,
2023-08-15 14:10:45.152000,-7.0843373493975905,-0.5903614457831325,-6.819277108433735,-0.5469037400367872,-6.852851011649294,-6.454935622317596,2.0,1.5582417582417583,641.7489421720734,-1.484528873608764,0.5308548452887358,-2.146145329526252,1231.5018315018315,-1.0,77.55433710701747,1.5703758355652684,
2023-08-15 14:10:45.160000,-7.120481927710844,-0.5903614457831325,-6.759036144578314,-0.5150214592274678,-6.8749233599019,-6.516247700797057,2.0,1.5582417582417583,641.7489421720734,-1.6700658469786132,0.4957753044694364,-1.7460520948662666,1216.117216117216,-1.0,77.55433710701747,1.5703527109826596,
2023-08-15 14:10:45.168000,-7.144578313253012,-0.5783132530120483,-6.710843373493976,-0.5174739423666462,-6.909258123850398,-6.3372164316370325,2.0,1.5582417582417583,641.7489421720734,-0.9078725016024708,0.04288794359303113,-2.2642037177320664,1200.0,-1.0,77.55433710701747,1.570329395723447,
2023-08-15 14:10:45.175000,-7.144578313253012,-0.5421686746987953,-6.674698795180723,-0.48313917841814835,-6.8773758430410785,-6.369098712446352,2.0,1.5582417582417583,641.7489421720734,-0.7442456733290588,-0.8327020569896855,-2.1538371889750008,1184.6153846153845,-1.0,77.55433710701747,1.5703058788042532,
2023-08-15 14:10:45.183000,-7.120481927710844,-0.49397590361445787,-6.674698795180723,-0.4316370324954016,-6.8847332924586135,-6.376456161863887,2.0,1.5582417582417583,641.7489421720734,-0.8562438086358596,-1.1195151797680796,-2.273993357030476,1172.161172161172,-1.0,77.55433710701747,1.570282148381631,
2023-08-15 14:10:45.191000,-7.120481927710844,-0.46987951807228917,-6.686746987951808,-0.3973022685469037,-6.9068056407112195,-6.3740036787247085,2.0,1.5567765567765564,642.3529411764707,-1.688363149000641,-0.5987996037526955,-1.7214614532952623,1163.3699633699632,-1.0,77.55433710701747,1.5702581916785368,
2023-08-15 14:10:45.198000,-7.1325301204819285,-0.45783132530120485,-6.734939759036145,-0.3948497854077253,-6.960760269773145,-6.445125689760882,2.0,1.5582417582417583,641.7489421720734,-1.6722801701532544,-0.601363556902279,-1.7050288444729336,1158.2417582417581,-1.0,77.55433710701747,1.5702339944170303,
2023-08-15 14:10:45.206000,-7.168674698795181,-0.43373493975903615,-6.795180722891566,-0.37522992029429797,-6.857755977927652,-6.486817903126916,2.0,1.5567765567765564,642.3529411764707,-2.5898257677291534,0.11619369500611786,-1.01975409358429,1158.974358974359,-1.0,77.55433710701747,1.5702095411636618,
2023-08-15 14:10:45.214000,-7.1807228915662655,-0.44578313253012053,-6.879518072289157,-0.44880441446965047,-6.938687921520539,-6.567749846719804,2.0,1.5567765567765564,642.3529411764707,-3.6384826059087456,0.9794301031408432,0.014334828972669354,1164.102564102564,-1.0,77.55433710701747,1.5701848152864324,
2023-08-15 14:10:45.221000,-7.216867469879518,-0.44578313253012053,-6.867469879518072,-0.40465971796443895,-6.973022685469037,-6.577559779276517,2.0,1.5567765567765564,642.3529411764707,-3.7770526193112275,1.1335003787658058,1.285006701241187,1173.6263736263736,-1.0,77.55433710701747,1.5701597983502007,
2023-08-15 14:10:45.229000,-7.168674698795181,-0.44578313253012053,-6.879518072289157,-0.34825260576333533,-6.973022685469037,-6.580012262415695,2.0,1.5553113553113551,642.9580781912389,-3.963055765981002,1.5600489481964919,1.644076685507838,1186.8131868131868,-1.0,77.55433710701747,1.5701344704961413,
2023-08-15 14:10:45.237000,-7.144578313253012,-0.43373493975903615,-6.879518072289157,-0.4193746167995095,-6.92152053954629,-6.584917228694052,2.0,1.5567765567765564,642.3529411764707,-4.329001806421538,1.2048248936542167,1.6510692850067012,1203.6630036630036,-1.0,77.55433710701747,1.5701088103303638,
2023-08-15 14:10:45.244000,-7.072289156626506,-0.5060240963855422,-6.91566265060241,-0.5052115266707541,-6.835683629675046,-6.580012262415695,2.0,1.5567765567765564,642.3529411764707,-4.281452129829264,1.0971388613717155,1.1367635918652754,1225.6410256410256,-1.0,77.55433710701747,1.5700827952031642,
2023-08-15 14:10:45.252000,-7.072289156626506,-0.5301204819277109,-6.963855421686747,-0.4904966278356836,-6.81361128142244,-6.636419374616799,2.0,1.5582417582417583,641.7489421720734,-3.9748266418040905,1.311462036011887,1.5396538663248058,1247.6190476190475,-1.0,77.55433710701747,1.5700564011745748,
2023-08-15 14:10:45.260000,-7.060240963855422,-0.5301204819277109,-6.927710843373494,-0.4438994481912937,-6.850398528510116,-6.594727161250766,2.0,1.5567765567765564,642.3529411764707,-3.624380863586037,1.7221607132451495,1.499096789231397,1268.131868131868,-1.0,77.55433710701747,1.5700296029858218,
2023-08-15 14:10:45.267000,-7.0843373493975905,-0.5542168674698795,-6.951807228915663,-0.4904966278356836,-6.852851011649294,-6.636419374616799,2.0,1.5582417582417583,641.7489421720734,-3.166365596410464,1.4931530796573633,1.4227609113688018,1288.6446886446886,-1.0,77.55433710701747,1.5700023735798874,
2023-08-15 14:10:45.275000,-7.0843373493975905,-0.5542168674698795,-6.927710843373494,-0.4193746167995095,-6.808706315144083,-6.567749846719804,2.0,1.5582417582417583,641.7489421720734,-3.0289610162577922,1.3862828506497296,1.7586387739642215,1306.9597069597069,-1.0,77.55433710701747,1.5699746840159052,
2023-08-15 14:10:45.282000,-7.072289156626506,-0.5301204819277109,-6.855421686746988,-0.45861434702636417,-6.781729000613121,-6.570202329858982,2.0,1.5582417582417583,641.7489421720734,-1.9449915506089375,1.1572752170619434,1.3616922090787253,1323.8095238095236,-1.0,77.55433710701747,1.5699465034941655,
2023-08-15 14:10:45.290000,-7.096385542168675,-0.4819277108433735,-6.879518072289157,-0.34580012262415694,-6.855303494788473,-6.489270386266094,2.0,1.5582417582417583,641.7489421720734,-1.1816327719829833,0.6839927743138517,1.0410815220558247,1337.7289377289376,-1.0,77.55433710701747,1.5699177989306234,
2023-08-15 14:10:45.298000,-7.120481927710844,-0.4819277108433735,-6.867469879518072,-0.3801348865726548,-6.865113427345187,-6.540772532188841,2.0,1.5582417582417583,641.7489421720734,-0.4030068177845101,0.531321018588661,1.1937532777810156,1347.985347985348,-1.0,77.55433710701747,1.5698885354185161,
2023-08-15 14:10:45.305000,-7.156626506024097,-0.46987951807228917,-6.879518072289157,-0.45861434702636417,-6.955855303494788,-6.484365419987737,2.0,1.5582417582417583,641.7489421720734,0.31455043412388684,-0.17096905774721688,1.102150224345901,1352.3809523809523,-1.0,77.55433710701747,1.5698586766646656,
2023-08-15 14:10:45.313000,-7.2048192771084345,-0.46987951807228917,-6.879518072289157,-0.45616186388718577,-6.938687921520539,-6.57265481299816,2.0,1.5582417582417583,641.7489421720734,0.4977565409941158,-1.086999592098362,1.0868830487733818,1353.113553113553,-1.0,77.55433710701747,1.5698281844529458,
2023-08-15 14:10:45.321000,-7.1807228915662655,-0.46987951807228917,-6.867469879518072,-0.3703249540159411,-6.882280809319435,-6.594727161250766,2.0,1.5582417582417583,641.7489421720734,1.3832527242002226,-0.735854553930423,1.0105471709107865,1353.8461538461538,-1.0,77.55433710701747,1.5697970182225205,
2023-08-15 14:10:45.328000,-7.168674698795181,-0.46987951807228917,-6.867469879518072,-0.43408951563458,-6.894543225015328,-6.533415082771306,2.0,1.5582417582417583,641.7489421720734,1.4901229532078564,-0.6442515004953084,1.1632189266359774,1350.9157509157508,-1.0,77.55433710701747,1.569765136028457,
2023-08-15 14:10:45.336000,-7.168674698795181,-0.46987951807228917,-6.855421686746988,-0.41446965052115264,-6.943592887798896,-6.575107296137339,2.0,1.5582417582417583,641.7489421720734,2.0550084493910625,-0.5068469203426367,1.5143639648039162,1345.7875457875457,-1.0,77.55433710701747,1.5697324944964117,
2023-08-15 14:10:45.344000,-7.1807228915662655,-0.4819277108433735,-6.867469879518072,-0.3408951563458001,-6.948497854077253,-6.548129981606376,2.0,1.5582417582417583,641.7489421720734,2.360351960841444,-0.4763125691975985,1.5143639648039162,1337.7289377289376,-1.0,77.55433710701747,1.5696990479106343,
2023-08-15 14:10:45.351000,-7.19277108433735,-0.46987951807228917,-6.843373493975904,-0.3948497854077253,-6.977927651747394,-6.577559779276517,2.0,1.5582417582417583,641.7489421720734,2.4214206631315203,-0.8427247829380565,1.3311578579336873,1329.6703296703297,-1.0,77.55433710701747,1.5696647487896935,
2023-08-15 14:10:45.359000,-7.2048192771084345,-0.4819277108433735,-6.879518072289157,-0.4095646842427958,-6.95340282035561,-6.580012262415695,2.0,1.5582417582417583,641.7489421720734,3.123710739467398,-1.0411980653808046,1.8044403006817789,1321.6117216117216,-1.0,77.55433710701747,1.5696295483705744,
2023-08-15 14:10:45.367000,-7.156626506024097,-0.5060240963855422,-6.843373493975904,-0.47087676272225626,-6.9068056407112195,-6.550582464745554,2.0,1.5597069597069595,641.1460779708784,3.0321076860322838,-1.4839461569838581,2.079249460987122,1309.89010989011,-1.0,77.55433710701747,1.569593396192243,
2023-08-15 14:10:45.374000,-7.156626506024097,-0.5180722891566265,-6.867469879518072,-0.3973022685469037,-6.872470876762722,-6.535867565910484,2.0,1.5597069597069595,641.1460779708784,3.444321426490299,-1.6213507371365299,1.819707476254298,1297.4358974358975,-1.0,77.55433710701747,1.5695562402194705,
2023-08-15 14:10:45.382000,-7.120481927710844,-0.5060240963855422,-6.855421686746988,-0.4438994481912937,-6.872470876762722,-6.577559779276517,2.0,1.5582417582417583,641.7489421720734,3.7649321135131997,-2.033564477594545,1.7586387739642215,1283.5164835164835,-1.0,77.55433710701747,1.5695180275420395,
2023-08-15 14:10:45.390000,-7.120481927710844,-0.5180722891566265,-6.843373493975904,-0.4218270999386879,-6.872470876762722,-6.57265481299816,2.0,1.5582417582417583,641.7489421720734,4.085542800536101,-1.9419614241594305,1.6975700716741453,1273.9926739926739,-1.0,77.55433710701747,1.5694787039656888,
2023-08-15 14:10:45.397000,-7.1084337349397595,-0.5180722891566265,-6.807228915662651,-0.48313917841814835,-6.759656652360515,-6.553034947884733,2.0,1.5582417582417583,641.7489421720734,4.146611502826177,-1.667152263854087,1.8807761785443742,1266.6666666666665,-1.0,77.55433710701747,1.5694382135816916,
2023-08-15 14:10:45.405000,-7.120481927710844,-0.5421686746987953,-6.83132530120482,-0.522378908645003,-6.8847332924586135,-6.494175352544451,2.0,1.5597069597069595,641.1460779708784,4.467222189849077,-1.4228774546937817,2.1097838121321604,1262.2710622710622,-1.0,77.55433710701747,1.5693964993668619,
2023-08-15 14:10:45.413000,-7.1325301204819285,-0.5301204819277109,-6.819277108433735,-0.5125689760882893,-6.941140404659717,-6.52605763335377,2.0,1.5597069597069595,641.1460779708784,4.360351960841444,-1.835091195151797,2.247188392284832,1260.8058608058607,-1.0,77.55433710701747,1.5693535038307196,
2023-08-15 14:10:45.420000,-7.156626506024097,-0.5542168674698795,-6.843373493975904,-0.5174739423666462,-6.8847332924586135,-6.516247700797057,2.0,1.5597069597069595,641.1460779708784,4.4519550142765585,-1.4839461569838581,2.2624555678573515,1262.2710622710622,-1.0,77.55433710701747,1.5693091692542385,
2023-08-15 14:10:45.428000,-7.168674698795181,-0.5783132530120483,-6.843373493975904,-0.48559166155732675,-6.960760269773145,-6.479460453709381,2.0,1.5597069597069595,641.1460779708784,4.329817609696406,-1.6976866149991252,2.170852514422237,1268.131868131868,-1.0,77.55433710701747,1.5692634369578404,
2023-08-15 14:10:45.436000,-7.168674698795181,-0.5903614457831325,-6.807228915662651,-0.522378908645003,-6.941140404659717,-6.516247700797057,2.0,1.5597069597069595,641.1460779708784,4.4519550142765585,-1.9572285997319496,2.4914632014451374,1274.7252747252746,-1.0,77.55433710701747,1.5692162480220184,
2023-08-15 14:10:45.443000,-7.19277108433735,-0.6024096385542169,-6.783132530120482,-0.5297363580625383,-6.9288779889638255,-6.52605763335377,2.0,1.5597069597069595,641.1460779708784,4.528290892139154,-2.064098828739583,2.4609288503000992,1282.051282051282,-1.0,77.55433710701747,1.5691675439150954,
2023-08-15 14:10:45.451000,-7.156626506024097,-0.5542168674698795,-6.783132530120482,-0.5027590435315757,-6.938687921520539,-6.477007970570202,2.0,1.5597069597069595,641.1460779708784,4.619893945574268,-2.552648447060194,2.155585338849718,1290.10989010989,-1.0,77.55433710701747,1.5691172662183066,
2023-08-15 14:10:45.459000,-7.156626506024097,-0.5662650602409639,-6.795180722891566,-0.510116492949111,-6.9362354383813605,-6.489270386266094,2.0,1.5597069597069595,641.1460779708784,4.314550434123887,-2.705320202785385,2.415127323582542,1294.5054945054944,-1.0,77.55433710701747,1.569065356395366,
2023-08-15 14:10:45.466000,-7.1807228915662655,-0.5903614457831325,-6.795180722891566,-0.510116492949111,-6.960760269773145,-6.513795217657878,2.0,1.5597069597069595,641.1460779708784,3.871802342520833,-2.705320202785385,2.3082570945749086,1297.4358974358975,-1.0,77.55433710701747,1.5690117565538606,
2023-08-15 14:10:45.474000,-7.168674698795181,-0.6024096385542169,-6.83132530120482,-0.5297363580625383,-6.909258123850398,-6.506437768240343,2.0,1.5597069597069595,641.1460779708784,3.9328710448109097,-2.751121729502942,2.888409766330634,1298.168498168498,-1.0,77.55433710701747,1.5689564101105555,
2023-08-15 14:10:45.482000,-7.168674698795181,-0.6024096385542169,-6.795180722891566,-0.5370938074800735,-6.958307786633966,-6.474555487431023,2.0,1.5597069597069595,641.1460779708784,3.9328710448109097,-2.751121729502942,2.888409766330634,1298.9010989010987,-1.0,77.55433710701747,1.5688992615504553,
2023-08-15 14:10:45.489000,-7.168674698795181,-0.6024096385542169,-6.819277108433735,-0.5542611894543225,-6.9362354383813605,-6.508890251379522,2.0,1.5597069597069595,641.1460779708784,3.6885962356506043,-2.628984324922789,2.9952799953382674,1301.8315018315018,-1.0,77.55433710701747,1.5688402566843735,
2023-08-15 14:10:45.497000,-7.19277108433735,-0.6385542168674699,-6.807228915662651,-0.5836909871244634,-6.960760269773145,-6.484365419987737,2.0,1.5597069597069595,641.1460779708784,3.642794708933047,-2.735854553930423,2.980012819765748,1305.4945054945053,-1.0,77.55433710701747,1.5687793429111907,
2023-08-15 14:10:45.505000,-7.144578313253012,-0.6626506024096386,-6.759036144578314,-0.5640711220110362,-6.9068056407112195,-6.45003065603924,2.0,1.5597069597069595,641.1460779708784,3.581726006642971,-2.964862187518209,3.132684575490939,1311.3553113553112,-1.0,77.55433710701747,1.5687164694836282,
2023-08-15 14:10:45.512000,-7.1807228915662655,-0.6265060240963856,-6.759036144578314,-0.5861434702636419,-6.95340282035561,-6.437768240343347,2.0,1.5597069597069595,641.1460779708784,3.826000815803276,-2.705320202785385,2.751005186177962,1317.9487179487178,-1.0,77.55433710701747,1.5686515877762826,
2023-08-15 14:10:45.520000,-7.168674698795181,-0.6265060240963856,-6.759036144578314,-0.539546290619252,-6.933782955242182,-6.413243408951563,2.0,1.5597069597069595,641.1460779708784,3.9176038692383903,-2.3389079890449267,2.964745644193229,1323.076923076923,-1.0,77.55433710701747,1.5685846515546404,
2023-08-15 14:10:45.528000,-7.144578313253012,-0.6385542168674699,-6.759036144578314,-0.539546290619252,-6.882280809319435,-6.405885959534028,2.0,1.5597069597069595,641.1460779708784,3.5969931822154897,-2.796923256220499,2.8578754151855956,1326.007326007326,-1.0,77.55433710701747,1.5685156172437469,
2023-08-15 14:10:45.535000,-7.144578313253012,-0.6024096385542169,-6.710843373493976,-0.4782342121397915,-6.926425505824647,-6.427958307786634,2.0,1.5597069597069595,641.1460779708784,3.459588602062818,-2.6442515004953084,2.2929899190023897,1327.4725274725274,-1.0,77.55433710701747,1.5684444441951972,
2023-08-15 14:10:45.543000,-7.144578313253012,-0.6385542168674699,-6.72289156626506,-0.5640711220110362,-6.8847332924586135,-6.457388105456775,2.0,1.5597069597069595,641.1460779708784,3.627527533360528,-2.155701882174698,2.6441349571703285,1329.6703296703297,-1.0,77.55433710701747,1.568371095408924,
2023-08-15 14:10:45.551000,-7.156626506024097,-0.6265060240963856,-6.746987951807229,-0.5836909871244634,-6.857755977927652,-6.435315757204169,2.0,1.5597069597069595,641.1460779708784,3.444321426490299,-2.628984324922789,2.751005186177962,1331.135531135531,-1.0,77.55433710701747,1.5682955377254226,
2023-08-15 14:10:45.558000,-7.120481927710844,-0.5783132530120483,-6.734939759036145,-0.4904966278356836,-6.931330472103004,-6.442673206621704,2.0,1.561172161172161,640.544345377757,3.444321426490299,-2.323640813472408,2.247188392284832,1328.937728937729,-1.0,77.55433710701747,1.5682177415910057,
2023-08-15 14:10:45.566000,-7.168674698795181,-0.5783132530120483,-6.771084337349398,-0.5297363580625383,-6.911710606989576,-6.4696505211526665,2.0,1.561172161172161,640.544345377757,3.3527183730551844,-1.3618087524037055,2.751005186177962,1327.4725274725274,-1.0,77.55433710701747,1.5681376818005226,
2023-08-15 14:10:45.574000,-7.216867469879518,-0.6265060240963856,-6.746987951807229,-0.5297363580625383,-6.8847332924586135,-6.516247700797057,2.0,1.561172161172161,640.544345377757,3.09317638832236,-1.5450148592739343,3.2548219800710916,1325.2747252747251,-1.0,77.55433710701747,1.5680553373524524,
2023-08-15 14:10:45.581000,-7.216867469879518,-0.6144578313253012,-6.771084337349398,-0.5469037400367872,-6.931330472103004,-6.5113427345187,2.0,1.5597069597069595,641.1460779708784,3.2153137929025126,-1.7129537905716443,2.9036769419031527,1326.7399267399267,-1.0,77.55433710701747,1.5679706912940228,
2023-08-15 14:10:45.589000,-7.1807228915662655,-0.5903614457831325,-6.795180722891566,-0.5763335377069282,-6.958307786633966,-6.489270386266094,2.0,1.561172161172161,640.544345377757,2.604626770001749,-1.5755492104189726,2.4914632014451374,1327.4725274725274,-1.0,77.55433710701747,1.5678837309413214,
2023-08-15 14:10:45.597000,-7.1807228915662655,-0.5903614457831325,-6.771084337349398,-0.5665236051502146,-6.982832618025751,-6.437768240343347,2.0,1.561172161172161,640.544345377757,2.940504632597169,-0.735854553930423,2.766272361750481,1326.7399267399267,-1.0,77.55433710701747,1.5677944485078958,
2023-08-15 14:10:45.604000,-7.19277108433735,-0.6144578313253012,-6.807228915662651,-0.5469037400367872,-6.901900674432863,-6.496627835683629,2.0,1.561172161172161,640.544345377757,2.92523745702465,-1.1633354699609573,2.796806712895519,1326.7399267399267,-1.0,77.55433710701747,1.5677028418241143,
2023-08-15 14:10:45.612000,-7.168674698795181,-0.6144578313253012,-6.819277108433735,-0.5272838749233598,-6.867565910484365,-6.501532801961986,2.0,1.561172161172161,640.544345377757,2.2687489074063296,-1.2702056989685908,2.079249460987122,1326.7399267399267,-1.0,77.55433710701747,1.5676089140590581,
2023-08-15 14:10:45.620000,-7.120481927710844,-0.5783132530120483,-6.795180722891566,-0.5346413243408952,-6.8626609442060085,-6.506437768240343,2.0,1.5626373626373624,639.9437412095641,2.543558067711673,-0.9037934852281329,1.5296311403764353,1331.135531135531,-1.0,77.55433710701747,1.5675126738846472,
2023-08-15 14:10:45.627000,-7.096385542168675,-0.5542168674698795,-6.807228915662651,-0.49540159411404044,-6.825873697118332,-6.523605150214592,2.0,1.561172161172161,640.544345377757,2.207680205116253,-0.8885263096556137,1.7281044228191833,1341.3919413919414,-1.0,77.55433710701747,1.5674141361156797,
2023-08-15 14:10:45.635000,-7.096385542168675,-0.5421686746987953,-6.867469879518072,-0.43408951563458,-6.820968730839975,-6.508890251379522,2.0,1.561172161172161,640.544345377757,2.131344327253658,-0.6747858516403467,1.8502418273993362,1358.974358974359,-1.0,77.55433710701747,1.5673133214189092,
2023-08-15 14:10:45.643000,-7.0843373493975905,-0.5421686746987953,-6.83132530120482,-0.4904966278356836,-6.843041079092581,-6.557939914163089,2.0,1.5626373626373624,639.9437412095641,1.8718023425208334,-0.7205873783579039,1.7739059495367406,1385.3479853479853,-1.0,77.55433710701747,1.5672102558993135,
2023-08-15 14:10:45.650000,-7.0843373493975905,-0.5180722891566265,-6.819277108433735,-0.46106683016554256,-6.835683629675046,-6.538320049049663,2.0,1.5626373626373624,639.9437412095641,1.7801992890857188,-0.44577821805256035,1.3464250335062062,1424.1758241758241,-1.0,77.55433710701747,1.5671049721422954,
2023-08-15 14:10:45.658000,-7.096385542168675,-0.4819277108433735,-6.83132530120482,-0.46842427958307786,-6.850398528510116,-6.609442060085836,2.0,1.5626373626373624,639.9437412095641,1.5359244799254135,-0.14043470660217872,1.28535633121613,1476.1904761904761,-1.0,77.55433710701747,1.5669975093569797,
2023-08-15 14:10:45.665000,-7.096385542168675,-0.4819277108433735,-6.819277108433735,-0.3727774371551195,-6.8038013488657265,-6.4990803188228075,2.0,1.5626373626373624,639.9437412095641,1.062642037177322,0.19544315599324114,0.903676941903153,1538.4615384615383,-1.0,77.55433710701747,1.5668879129736917,
2023-08-15 14:10:45.673000,-7.1084337349397595,-0.4819277108433735,-6.843373493975904,-0.41446965052115264,-6.8405885959534025,-6.606989576946658,2.0,1.5626373626373624,639.9437412095641,0.37561913641396316,0.6229240720237754,0.5677990793077331,1609.5238095238094,-1.0,77.55433710701747,1.5667762346779708,
2023-08-15 14:10:45.681000,-7.168674698795181,-0.5301204819277109,-6.879518072289157,-0.47332924586143466,-6.911710606989576,-6.631514408338442,2.0,1.5626373626373624,639.9437412095641,0.16187867839869602,-0.048831653167064205,0.6288677815978094,1687.9120879120878,-1.0,77.55433710701747,1.5666625328804957,
2023-08-15 14:10:45.688000,-7.168674698795181,-0.5542168674698795,-6.903614457831326,-0.5052115266707541,-6.916615573267934,-6.643776824034334,2.0,1.561172161172161,640.544345377757,0.13134432725365783,-0.7205873783579039,0.4609288503000995,1765.5677655677655,-1.0,77.55433710701747,1.5665468721815932,
2023-08-15 14:10:45.696000,-7.1325301204819285,-0.5783132530120483,-6.891566265060241,-0.522378908645003,-6.8749233599019,-6.577559779276517,2.0,1.5626373626373624,639.9437412095641,-0.08239613076160933,-0.6442515004953084,-0.02762076802051118,1841.7582417582416,-1.0,77.55433710701747,1.5664293228821138,
2023-08-15 14:10:45.704000,-7.1325301204819285,-0.5903614457831325,-6.879518072289157,-0.5297363580625383,-6.901900674432863,-6.57265481299816,2.0,1.5626373626373624,639.9437412095641,-0.17399918419672383,-0.7969232562204993,0.24718839228483233,1909.8901098901097,-1.0,77.55433710701747,1.5663099617723626,
2023-08-15 14:10:45.711000,-7.144578313253012,-0.6024096385542169,-6.843373493975904,-0.5444512568976088,-6.857755977927652,-6.538320049049663,2.0,1.5626373626373624,639.9437412095641,-0.23506788648680016,-0.7511217295029421,-0.05815511916554935,1969.9633699633698,-1.0,77.55433710701747,1.566188872087945,
2023-08-15 14:10:45.719000,-7.1807228915662655,-0.6024096385542169,-6.843373493975904,-0.5370938074800735,-6.950950337216431,-6.501532801961986,2.0,1.5626373626373624,639.9437412095641,-0.28086941320435743,-0.8274576073655374,0.0029135831245269864,2014.6520146520145,-1.0,77.55433710701747,1.566066142493398,
2023-08-15 14:10:45.727000,-7.2048192771084345,-0.6265060240963856,-6.819277108433735,-0.6057633353770693,-6.919068056407112,-6.521152667075413,2.0,1.5626373626373624,639.9437412095641,-0.7388846803799299,-0.7816560806479802,-0.5619719130586791,2043.2234432234432,-1.0,77.55433710701747,1.5659418674827368,
2023-08-15 14:10:45.734000,-7.19277108433735,-0.6506024096385542,-6.795180722891566,-0.5714285714285714,-6.948497854077253,-6.472103004291845,2.0,1.5626373626373624,639.9437412095641,-0.5862129246547391,-0.9037934852281329,-0.6383077909212745,2057.142857142857,-1.0,77.55433710701747,1.5658161471943224,
2023-08-15 14:10:45.742000,-7.168674698795181,-0.6144578313253012,-6.783132530120482,-0.6327406499080318,-6.8700183936235435,-6.413243408951563,2.0,1.5641025641025643,639.3442622950819,-0.6930831536623726,-1.3465415768311864,-0.6993764932113509,2055.6776556776554,-1.0,77.55433710701747,1.5656890868141924,
2023-08-15 14:10:45.750000,-7.144578313253012,-0.6265060240963856,-6.771084337349398,-0.539546290619252,-6.8920907418761495,-6.477007970570202,2.0,1.5641025641025643,639.3442622950819,-0.8915564361051207,-0.919060660800652,-0.8367810733640226,2039.5604395604394,-1.0,77.55433710701747,1.5655607973627252,
2023-08-15 14:10:45.757000,-7.144578313253012,-0.5903614457831325,-6.759036144578314,-0.522378908645003,-6.926425505824647,-6.477007970570202,2.0,1.5641025641025643,639.3442622950819,-0.8915564361051207,-0.919060660800652,-0.8367810733640226,2009.5238095238094,-1.0,77.55433710701747,1.565431395546182,
2023-08-15 14:10:45.765000,-7.1325301204819285,-0.5903614457831325,-6.759036144578314,-0.5150214592274678,-6.894543225015328,-6.442673206621704,2.0,1.5641025641025643,639.3442622950819,-0.937357962822678,-1.0259308898082855,-1.096323058096847,1965.5677655677655,-1.0,77.55433710701747,1.5653010035202726,
2023-08-15 14:10:45.773000,-7.156626506024097,-0.5783132530120483,-6.771084337349398,-0.5174739423666462,-6.946045370938075,-6.496627835683629,2.0,1.5641025641025643,639.3442622950819,-0.9831594895402352,-0.8121904317930184,-0.9131169512266181,1910.6227106227104,-1.0,77.55433710701747,1.565169748108563,
2023-08-15 14:10:45.780000,-7.168674698795181,-0.5783132530120483,-6.783132530120482,-0.4880441446965052,-6.933782955242182,-6.430410790925812,2.0,1.5641025641025643,639.3442622950819,-1.2121671231280216,-0.4152438669075222,-0.8062467222189844,1847.6190476190475,735.3515625,81.59362549800797,1.5650377601056564,
2023-08-15 14:10:45.788000,-7.168674698795181,-0.5783132530120483,-6.771084337349398,-0.48559166155732675,-6.963212752912323,-6.474555487431023,2.0,1.5641025641025643,639.3442622950819,-0.9220907872501589,-0.8121904317930184,-0.7909795466464653,1780.9523809523807,-1.0,81.59362549800797,1.5649051744751679,
2023-08-15 14:10:45.796000,-7.19277108433735,-0.5662650602409639,-6.771084337349398,-0.4880441446965052,-6.923973022685469,-6.494175352544451,2.0,1.5641025641025643,639.3442622950819,-1.090029718547869,-0.7969232562204993,-0.7909795466464653,1711.3553113553112,-1.0,81.59362549800797,1.564772130037649,
2023-08-15 14:10:45.803000,-7.168674698795181,-0.5783132530120483,-6.783132530120482,-0.46106683016554256,-6.960760269773145,-6.46474555487431,2.0,1.5641025641025643,639.3442622950819,-0.9678923139677161,-0.5221140959151558,-0.5619719130586791,1644.6886446886447,-1.0,81.59362549800797,1.564638769142193,
2023-08-15 14:10:45.811000,-7.19277108433735,-0.5301204819277109,-6.771084337349398,-0.4904966278356836,-6.987737584304107,-6.4475781729000605,2.0,1.5641025641025643,639.3442622950819,-0.8762892605326017,-0.919060660800652,-0.7604451955014272,1581.6849816849815,-1.0,81.59362549800797,1.5645052373228727,
2023-08-15 14:10:45.819000,-7.1807228915662655,-0.5301204819277109,-6.759036144578314,-0.5125689760882893,-6.8994481912936845,-6.467198038013488,2.0,1.5641025641025643,639.3442622950819,-1.0136938406852734,-0.5831827982052321,-0.6688421420663127,1519.4139194139193,-1.0,81.59362549800797,1.5643716829412082,
2023-08-15 14:10:45.826000,-7.1807228915662655,-0.5421686746987953,-6.795180722891566,-0.4757817290006131,-6.948497854077253,-6.555487431023911,2.0,1.5641025641025643,639.3442622950819,-1.4259075811432886,-0.5221140959151558,-0.6230406153487554,1460.07326007326,-1.0,81.59362549800797,1.5642382568159603,
2023-08-15 14:10:45.834000,-7.168674698795181,-0.5180722891566265,-6.807228915662651,-0.47332924586143466,-6.904353157572041,-6.523605150214592,2.0,1.5641025641025643,639.3442622950819,-1.0136938406852734,-0.6747858516403467,-0.5009032107686028,1405.8608058608058,-1.0,81.59362549800797,1.5641051118415759,
2023-08-15 14:10:45.842000,-7.168674698795181,-0.5060240963855422,-6.819277108433735,-0.3973022685469037,-6.914163090128755,-6.4990803188228075,2.0,1.5626373626373624,639.9437412095641,-1.1816327719829833,-0.919060660800652,-0.5314375619136409,1356.7765567765566,-1.0,81.59362549800797,1.5639724025967043,
2023-08-15 14:10:45.849000,-7.156626506024097,-0.5421686746987953,-6.795180722891566,-0.4537093807480073,-6.8920907418761495,-6.435315757204169,2.0,1.5626373626373624,639.9437412095641,-0.6778159780898536,-0.8732591340830947,-0.6993764932113509,1311.3553113553112,-1.0,81.59362549800797,1.563840284909406,
2023-08-15 14:10:45.857000,-7.168674698795181,-0.5060240963855422,-6.807228915662651,-0.4414469650521152,-6.933782955242182,-6.452483139178418,2.0,1.5641025641025643,639.3442622950819,-0.4640755200745864,-0.552648447060194,-0.4551016840510455,1269.5970695970695,-1.0,81.59362549800797,1.5637089148528538,
2023-08-15 14:10:45.865000,-7.156626506024097,-0.4819277108433735,-6.795180722891566,-0.4438994481912937,-6.901900674432863,-6.503985285101164,2.0,1.5641025641025643,639.3442622950819,-0.387739642211991,-0.7663889050754611,-0.54670473748616,1233.6996336996335,-1.0,81.59362549800797,1.5635784488567128,
2023-08-15 14:10:45.872000,-7.156626506024097,-0.4819277108433735,-6.746987951807229,-0.37768240343347637,-6.887185775597793,-6.4402207234825255,2.0,1.5641025641025643,639.3442622950819,-0.11293048190664749,-0.6900530272128657,0.06398228541460332,1201.4652014652013,-1.0,81.59362549800797,1.5634490443066427,
2023-08-15 14:10:45.880000,-7.168674698795181,-0.45783132530120485,-6.795180722891566,-0.3850398528510116,-6.845493562231759,-6.420600858369099,2.0,1.5641025641025643,639.3442622950819,-0.25033506205931927,-0.4915797447701176,-0.4703688596235646,1175.0915750915751,-1.0,81.59362549800797,1.5633208581407083,
2023-08-15 14:10:45.888000,-7.168674698795181,-0.46987951807228917,-6.746987951807229,-0.44880441446965047,-6.8920907418761495,-6.459840588595953,2.0,1.5641025641025643,639.3442622950819,-0.03659460404405208,-1.0411980653808046,-0.37876580618845007,1156.7765567765566,-1.0,81.59362549800797,1.563194046006968,
2023-08-15 14:10:45.895000,-7.19277108433735,-0.46987951807228917,-6.746987951807229,-0.43899448191293683,-6.955855303494788,-6.430410790925812,2.0,1.5641025641025643,639.3442622950819,0.10080997610861968,-0.8121904317930184,-0.180292523745702,1144.3223443223442,-1.0,81.59362549800797,1.5630687623351143,
2023-08-15 14:10:45.903000,-7.1807228915662655,-0.49397590361445787,-6.759036144578314,-0.4218270999386879,-6.980380134886572,-6.4255058246474555,2.0,1.5641025641025643,639.3442622950819,0.11607715168113876,-1.0564652409533237,-0.2871627527533356,1139.194139194139,-1.0,81.59362549800797,1.5629451603758604,
2023-08-15 14:10:45.911000,-7.19277108433735,-0.46987951807228917,-6.771084337349398,-0.3850398528510116,-6.9362354383813605,-6.445125689760882,2.0,1.5641025641025643,639.3442622950819,0.5740924188567113,-0.44577821805256035,0.3387914457199468,1140.6593406593406,-1.0,81.59362549800797,1.5628233917193244,
2023-08-15 14:10:45.918000,-7.2048192771084345,-0.49397590361445787,-6.746987951807229,-0.41201716738197425,-6.958307786633966,-6.4107909258123845,2.0,1.5641025641025643,639.3442622950819,0.6198939455742685,-0.5984499737777512,0.06398228541460332,1147.985347985348,-1.0,81.59362549800797,1.5627036053980217,
2023-08-15 14:10:45.926000,-7.1807228915662655,-0.5060240963855422,-6.72289156626506,-0.4193746167995095,-6.938687921520539,-6.3960760269773145,2.0,1.5641025641025643,639.3442622950819,0.6198939455742685,-0.552648447060194,0.2624555678573514,1161.904761904762,-1.0,81.59362549800797,1.5625859474891486,
2023-08-15 14:10:45.934000,-7.216867469879518,-0.5301204819277109,-6.771084337349398,-0.4757817290006131,-7.01471489883507,-6.398528510116493,2.0,1.5641025641025643,639.3442622950819,0.528290892139154,-0.048831653167064205,0.3998601480100232,1179.4871794871794,-1.0,81.59362549800797,1.5624705607250415,
2023-08-15 14:10:45.941000,-7.19277108433735,-0.5180722891566265,-6.759036144578314,-0.4095646842427958,-6.926425505824647,-6.4475781729000605,2.0,1.5641025641025643,639.3442622950819,1.108443563894879,-0.18623623331973596,0.5983334304527712,1200.7326007326008,-1.0,81.59362549800797,1.5623575841132837,
2023-08-15 14:10:45.949000,-7.144578313253012,-0.5180722891566265,-6.783132530120482,-0.4438994481912937,-6.943592887798896,-6.400980993255671,2.0,1.5641025641025643,639.3442622950819,0.9863061593147265,-0.10990035545714054,0.2929899190023896,1224.9084249084249,-1.0,81.59362549800797,1.5622471525679367,
2023-08-15 14:10:45.957000,-7.168674698795181,-0.5301204819277109,-6.771084337349398,-0.5199264255058246,-6.9288779889638255,-6.496627835683629,2.0,1.5641025641025643,639.3442622950819,0.9863061593147265,-0.18623623331973596,0.7662723617504812,1252.014652014652,-1.0,81.59362549800797,1.5621393965532842,
2023-08-15 14:10:45.964000,-7.156626506024097,-0.5662650602409639,-6.783132530120482,-0.45861434702636417,-6.9068056407112195,-6.538320049049663,2.0,1.5641025641025643,639.3442622950819,1.4748557776353373,-0.033564477594545124,0.6441349571703285,1279.120879120879,-1.0,81.59362549800797,1.5620344417414576,
2023-08-15 14:10:45.972000,-7.156626506024097,-0.5783132530120483,-6.807228915662651,-0.510116492949111,-6.946045370938075,-6.533415082771306,2.0,1.5655677655677658,638.7459054749648,1.59699318221549,0.027504224695531213,0.6136006060252903,1305.4945054945053,-1.0,81.59362549800797,1.5619324086852169,
2023-08-15 14:10:45.980000,-7.144578313253012,-0.5542168674698795,-6.819277108433735,-0.4537093807480073,-6.916615573267934,-6.457388105456775,2.0,1.5655677655677658,638.7459054749648,1.2916496707651082,0.0427714002680503,0.6136006060252903,1329.6703296703297,-1.0,81.59362549800797,1.5618334129998057,
2023-08-15 14:10:45.987000,-7.156626506024097,-0.5662650602409639,-6.783132530120482,-0.4904966278356836,-6.86020846106683,-6.592274678111588,2.0,1.5655677655677658,638.7459054749648,1.42905425091778,-0.01829730202202604,0.7204708350329239,1355.3113553113553,-1.0,81.59362549800797,1.5617375651418595,
2023-08-15 14:10:45.995000,-7.1325301204819285,-0.5783132530120483,-6.795180722891566,-0.510116492949111,-6.852851011649294,-6.506437768240343,2.0,1.5641025641025643,639.3442622950819,1.4901229532078564,0.1496416292756839,0.8273410640405575,1378.021978021978,-1.0,81.59362549800797,1.5616449696824424,
2023-08-15 14:10:46.003000,-7.144578313253012,-0.5783132530120483,-6.819277108433735,-0.49540159411404044,-6.980380134886572,-6.491722869405272,2.0,1.5641025641025643,639.3442622950819,1.642794708933047,-0.14043470660217872,0.7052036594604049,1399.2673992673992,-1.0,81.59362549800797,1.5615557250233725,
2023-08-15 14:10:46.010000,-7.144578313253012,-0.5662650602409639,-6.83132530120482,-0.5272838749233598,-6.926425505824647,-6.548129981606376,2.0,1.5641025641025643,639.3442622950819,1.5511916554979326,-0.09463317988462146,0.4456616747275804,1415.3846153846152,-1.0,81.59362549800797,1.561469922572112,
2023-08-15 14:10:46.018000,-7.1325301204819285,-0.5783132530120483,-6.819277108433735,-0.5003065603923973,-6.845493562231759,-6.521152667075413,2.0,1.5655677655677658,638.7459054749648,1.2458481440475508,-0.4915797447701176,0.3387914457199468,1426.3736263736262,-1.0,81.59362549800797,1.5613876465670236,
2023-08-15 14:10:46.026000,-7.19277108433735,-0.5662650602409639,-6.83132530120482,-0.4904966278356836,-6.894543225015328,-6.543225015328019,2.0,1.5655677655677658,638.7459054749648,1.1542450906124364,-0.4763125691975985,0.8426082396130766,1432.2344322344322,-1.0,81.59362549800797,1.5613089748724789,
2023-08-15 14:10:46.033000,-7.156626506024097,-0.5903614457831325,-6.843373493975904,-0.4904966278356836,-6.970570202329859,-6.553034947884733,2.0,1.5655677655677658,638.7459054749648,1.1542450906124364,-0.4763125691975985,0.8426082396130766,1432.2344322344322,-1.0,81.59362549800797,1.5612339788833478,
2023-08-15 14:10:46.041000,-7.168674698795181,-0.5662650602409639,-6.855421686746988,-0.4880441446965052,-6.896995708154506,-6.518700183936235,2.0,1.5655677655677658,638.7459054749648,1.1237107394673982,-0.2778392867548505,0.8120738884680384,1428.5714285714284,-1.0,81.59362549800797,1.561162722928002,
2023-08-15 14:10:46.048000,-7.1807228915662655,-0.5783132530120483,-6.843373493975904,-0.5321888412017167,-6.92152053954629,-6.521152667075413,2.0,1.5655677655677658,638.7459054749648,1.5511916554979326,-0.3236408134724077,0.8731425907581147,1425.6410256410256,-1.0,81.59362549800797,1.5610952641532212,
2023-08-15 14:10:46.056000,-7.156626506024097,-0.5783132530120483,-6.795180722891566,-0.4757817290006131,-6.867565910484365,-6.4622930717351315,2.0,1.5655677655677658,638.7459054749648,1.3374511974826655,-0.17096905774721688,0.6899364838878858,1421.9780219780218,-1.0,81.59362549800797,1.5610316524334031,
2023-08-15 14:10:46.064000,-7.156626506024097,-0.5783132530120483,-6.819277108433735,-0.5370938074800735,-6.8847332924586135,-6.540772532188841,2.0,1.5670329670329672,638.148667601683,1.3985198997727417,-0.567915622632713,0.8578754151855956,1416.8498168498168,-1.0,81.59362549800797,1.5609719303042056,
2023-08-15 14:10:46.071000,-7.168674698795181,-0.5542168674698795,-6.819277108433735,-0.4904966278356836,-6.882280809319435,-6.501532801961986,2.0,1.5655677655677658,638.7459054749648,1.0931763883223602,-0.552648447060194,0.8120738884680384,1411.7216117216117,-1.0,81.59362549800797,1.5609161334133637,
2023-08-15 14:10:46.079000,-7.1325301204819285,-0.5903614457831325,-6.771084337349398,-0.5542611894543225,-6.943592887798896,-6.486817903126916,2.0,1.5670329670329672,638.148667601683,1.1847794417574746,-0.4305110424800413,0.6136006060252903,1406.5934065934066,-1.0,81.59362549800797,1.5608642900827687,
2023-08-15 14:10:46.087000,-7.144578313253012,-0.5903614457831325,-6.819277108433735,-0.5321888412017167,-6.894543225015328,-6.4475781729000605,2.0,1.5655677655677658,638.7459054749648,1.1847794417574746,-0.6900530272128657,0.27772274342987047,1399.2673992673992,-1.0,81.59362549800797,1.5608164212834479,
2023-08-15 14:10:46.094000,-7.156626506024097,-0.6024096385542169,-6.819277108433735,-0.6866952789699571,-6.970570202329859,-6.540772532188841,2.0,1.5670329670329672,638.148667601683,0.8489015791620548,-0.4152438669075222,0.38459297243750407,1386.8131868131868,-1.0,81.59362549800797,1.5607725407043116,
2023-08-15 14:10:46.102000,-7.144578313253012,-0.6144578313253012,-6.819277108433735,-0.5787860208461066,-6.923973022685469,-6.555487431023911,2.0,1.5670329670329672,638.148667601683,1.0321076860322838,-0.29310646232736953,0.5067303770176568,1372.161172161172,-1.0,81.59362549800797,1.5607326547752272,
2023-08-15 14:10:46.110000,-7.1807228915662655,-0.5903614457831325,-6.783132530120482,-0.522378908645003,-6.955855303494788,-6.489270386266094,2.0,1.5670329670329672,638.148667601683,0.9405046325971692,-0.384709515762484,0.552531903735214,1356.7765567765566,-1.0,81.59362549800797,1.5606967632755977,
2023-08-15 14:10:46.117000,-7.156626506024097,-0.6024096385542169,-6.795180722891566,-0.5321888412017167,-6.8847332924586135,-6.437768240343347,2.0,1.5670329670329672,638.148667601683,0.8183672280170166,-0.46104539362507946,0.21665404113979414,1342.8571428571427,-1.0,81.59362549800797,1.5606648589829712,
2023-08-15 14:10:46.125000,-7.156626506024097,-0.5903614457831325,-6.807228915662651,-0.5444512568976088,-6.941140404659717,-6.5113427345187,2.0,1.5670329670329672,638.148667601683,0.6198939455742685,-0.5831827982052321,0.10978381213216057,1330.4029304029302,-1.0,81.59362549800797,1.560636927801803,
2023-08-15 14:10:46.133000,-7.168674698795181,-0.6144578313253012,-6.83132530120482,-0.5469037400367872,-6.872470876762722,-6.567749846719804,2.0,1.5670329670329672,638.148667601683,0.37561913641396316,-0.7511217295029421,0.20138686556727506,1320.14652014652,-1.0,81.59362549800797,1.5606129489136835,
2023-08-15 14:10:46.140000,-7.144578313253012,-0.5783132530120483,-6.83132530120482,-0.5052115266707541,-6.96811771919068,-6.528510116492948,2.0,1.5670329670329672,638.148667601683,0.4061534875590013,-0.9648621875182092,0.3387914457199468,1311.3553113553112,-1.0,81.59362549800797,1.5605928949480996,
2023-08-15 14:10:46.148000,-7.144578313253012,-0.6144578313253012,-6.819277108433735,-0.5714285714285714,-6.909258123850398,-6.513795217657878,2.0,1.5670329670329672,638.148667601683,-0.1281976574791666,-0.7969232562204993,0.5067303770176568,1303.2967032967033,-1.0,81.59362549800797,1.560576732172728,
2023-08-15 14:10:46.156000,-7.144578313253012,-0.6265060240963856,-6.807228915662651,-0.5419987737584304,-6.9288779889638255,-6.528510116492948,2.0,1.5670329670329672,638.148667601683,0.4977565409941158,-0.735854553930423,0.12505098770467965,1296.7032967032967,-1.0,81.59362549800797,1.5605644211600358,
2023-08-15 14:10:46.163000,-7.120481927710844,-0.6144578313253012,-6.807228915662651,-0.5665236051502146,-6.8749233599019,-6.501532801961986,2.0,1.5670329670329672,638.148667601683,0.22294738068877235,-0.7816560806479802,0.12505098770467965,1293.7728937728937,-1.0,81.59362549800797,1.5605559164881508,
2023-08-15 14:10:46.171000,-7.1325301204819285,-0.5903614457831325,-6.795180722891566,-0.5174739423666462,-6.852851011649294,-6.506437768240343,2.0,1.5670329670329672,638.148667601683,0.32981760969640594,-0.5831827982052321,0.2624555678573514,1296.7032967032967,-1.0,81.59362549800797,1.5605511665617728,
2023-08-15 14:10:46.179000,-7.156626506024097,-0.5783132530120483,-6.783132530120482,-0.5836909871244634,-6.92152053954629,-6.4990803188228075,2.0,1.5670329670329672,638.148667601683,0.345084785268925,-0.9495950119456901,0.12505098770467965,1299.6336996336995,-1.0,81.59362549800797,1.5605501143609575,
2023-08-15 14:10:46.186000,-7.144578313253012,-0.5783132530120483,-6.819277108433735,-0.5542611894543225,-6.92152053954629,-6.496627835683629,2.0,1.5684981684981687,637.5525455394675,0.16187867839869602,-0.7816560806479802,0.18611968999475598,1301.8315018315018,-1.0,81.59362549800797,1.5605526977106323,
2023-08-15 14:10:46.194000,-7.168674698795181,-0.6024096385542169,-6.83132530120482,-0.5076640098099325,-6.955855303494788,-6.5113427345187,2.0,1.5684981684981687,637.5525455394675,0.2687489074063296,-0.4915797447701176,-0.04288794359303026,1302.5641025641025,-1.0,81.59362549800797,1.5605588500547773,
2023-08-15 14:10:46.202000,-7.144578313253012,-0.5903614457831325,-6.795180722891566,-0.5346413243408952,-6.901900674432863,-6.508890251379522,2.0,1.5684981684981687,637.5525455394675,-0.11293048190664749,-0.44577821805256035,0.048715109842084235,1304.0293040293038,-1.0,81.59362549800797,1.5605685008207109,
2023-08-15 14:10:46.209000,-7.1325301204819285,-0.5662650602409639,-6.819277108433735,-0.5125689760882893,-6.914163090128755,-6.494175352544451,2.0,1.5684981684981687,637.5525455394675,0.32981760969640594,-0.7816560806479802,0.033447934269565154,1306.227106227106,-1.0,81.59362549800797,1.5605815752679966,
2023-08-15 14:10:46.217000,-7.156626506024097,-0.5421686746987953,-6.795180722891566,-0.47087676272225626,-6.926425505824647,-6.46474555487431,2.0,1.56996336996337,636.9575361642557,0.28401608297884867,-0.9648621875182092,-0.04288794359303026,1308.4249084249084,-1.0,81.59362549800797,1.5605979948034783,
2023-08-15 14:10:46.225000,-7.1807228915662655,-0.5180722891566265,-6.807228915662651,-0.47087676272225626,-6.8994481912936845,-6.459840588595953,2.0,1.5684981684981687,637.5525455394675,0.13134432725365783,-1.1480682943884382,0.369325796864985,1309.89010989011,-1.0,81.59362549800797,1.5606176777957221,
2023-08-15 14:10:46.232000,-7.168674698795181,-0.5421686746987953,-6.795180722891566,-0.49785407725321884,-6.9362354383813605,-6.494175352544451,2.0,1.5684981684981687,637.5525455394675,-0.09766330633412841,-0.7663889050754611,0.048715109842084235,1312.8205128205127,-1.0,81.59362549800797,1.5606405399393721,
2023-08-15 14:10:46.240000,-7.216867469879518,-0.5421686746987953,-6.807228915662651,-0.5321888412017167,-6.995095033721642,-6.467198038013488,2.0,1.5684981684981687,637.5525455394675,-0.21980071091428108,-1.0411980653808046,0.048715109842084235,1315.018315018315,-1.0,81.59362549800797,1.5606664939940316,
2023-08-15 14:10:46.248000,-7.168674698795181,-0.5783132530120483,-6.783132530120482,-0.5150214592274678,-6.8994481912936845,-6.477007970570202,2.0,1.5684981684981687,637.5525455394675,0.03974127381854334,-1.0411980653808046,0.1555853388497178,1317.9487179487178,-1.0,81.59362549800797,1.560695449629249,
2023-08-15 14:10:46.255000,-7.1807228915662655,-0.5662650602409639,-6.795180722891566,-0.5027590435315757,-6.931330472103004,-6.501532801961986,2.0,1.5684981684981687,637.5525455394675,0.32981760969640594,-1.0259308898082855,0.048715109842084235,1320.8791208791208,-1.0,81.59362549800797,1.5607273138293372,
2023-08-15 14:10:46.263000,-7.156626506024097,-0.5662650602409639,-6.819277108433735,-0.47332924586143466,-6.9068056407112195,-6.528510116492948,2.0,1.56996336996337,636.9575361642557,0.5130237165666349,-0.7663889050754611,0.2929899190023896,1323.076923076923,-1.0,81.59362549800797,1.560761992175613,
2023-08-15 14:10:46.271000,-7.144578313253012,-0.5421686746987953,-6.807228915662651,-0.463519313304721,-6.8920907418761495,-6.477007970570202,2.0,1.5684981684981687,637.5525455394675,0.2687489074063296,-0.5221140959151558,0.06398228541460332,1325.2747252747251,-1.0,81.59362549800797,1.5607993896010899,
2023-08-15 14:10:46.278000,-7.156626506024097,-0.5421686746987953,-6.783132530120482,-0.539546290619252,-6.8700183936235435,-6.484365419987737,2.0,1.56996336996337,636.9575361642557,0.14661150282617694,-0.919060660800652,0.10978381213216057,1327.4725274725274,-1.0,81.59362549800797,1.5608394098070515,
2023-08-15 14:10:46.286000,-7.1807228915662655,-0.5542168674698795,-6.795180722891566,-0.5346413243408952,-6.938687921520539,-6.494175352544451,2.0,1.56996336996337,636.9575361642557,0.4061534875590013,-0.7816560806479802,-0.02762076802051118,1328.937728937729,-1.0,81.59362549800797,1.560881955097196,
2023-08-15 14:10:46.294000,-7.168674698795181,-0.5301204819277109,-6.807228915662651,-0.4757817290006131,-6.9068056407112195,-6.46474555487431,2.0,1.56996336996337,636.9575361642557,-0.021327428471532992,-0.7511217295029421,0.24718839228483233,1328.937728937729,-1.0,81.59362549800797,1.5609269272921715,
2023-08-15 14:10:46.301000,-7.144578313253012,-0.5421686746987953,-6.795180722891566,-0.48559166155732675,-6.963212752912323,-6.474555487431023,2.0,1.56996336996337,636.9575361642557,0.2687489074063296,-0.9037934852281329,-0.08868947031058752,1329.6703296703297,-1.0,81.59362549800797,1.5609742280743428,
2023-08-15 14:10:46.309000,-7.144578313253012,-0.5662650602409639,-6.759036144578314,-0.49540159411404044,-6.9288779889638255,-6.501532801961986,2.0,1.56996336996337,636.9575361642557,0.2687489074063296,-0.9037934852281329,-0.08868947031058752,1328.937728937729,-1.0,81.59362549800797,1.5610237597471381,
2023-08-15 14:10:46.317000,-7.156626506024097,-0.5783132530120483,-6.783132530120482,-0.49540159411404044,-6.901900674432863,-6.523605150214592,2.0,1.5684981684981687,637.5525455394675,0.6198939455742685,-0.5984499737777512,0.5830662548802521,1326.007326007326,-1.0,81.59362549800797,1.5610754254596415,
2023-08-15 14:10:46.324000,-7.156626506024097,-0.5783132530120483,-6.795180722891566,-0.48559166155732675,-6.8773758430410785,-6.4622930717351315,2.0,1.56996336996337,636.9575361642557,0.6198939455742685,-0.9495950119456901,0.27772274342987047,1321.6117216117216,-1.0,81.59362549800797,1.5611291285066118,
2023-08-15 14:10:46.332000,-7.144578313253012,-0.5301204819277109,-6.807228915662651,-0.48559166155732675,-6.931330472103004,-6.501532801961986,2.0,1.56996336996337,636.9575361642557,0.5740924188567113,-0.8579919585105756,0.30825709457490863,1320.14652014652,-1.0,81.59362549800797,1.5611847730218995,
2023-08-15 14:10:46.340000,-7.168674698795181,-0.5421686746987953,-6.819277108433735,-0.47087676272225626,-6.958307786633966,-6.454935622317596,2.0,1.5714285714285716,636.3636363636363,0.2534817318338105,-0.7663889050754611,0.2929899190023896,1318.6813186813185,-1.0,81.59362549800797,1.561242264304611,
2023-08-15 14:10:46.347000,-7.168674698795181,-0.5421686746987953,-6.795180722891566,-0.5003065603923973,-6.887185775597793,-6.484365419987737,2.0,1.5714285714285716,636.3636363636363,0.7267641745819021,-0.735854553930423,0.5677990793077331,1318.6813186813185,-1.0,81.59362549800797,1.5613015096237035,
2023-08-15 14:10:46.355000,-7.168674698795181,-0.5421686746987953,-6.819277108433735,-0.5199264255058246,-6.9288779889638255,-6.523605150214592,2.0,1.5714285714285716,636.3636363636363,0.7725657012994593,-0.6137171493502703,-0.11922382145562568,1319.4139194139193,-1.0,81.59362549800797,1.5613624189409652,
2023-08-15 14:10:46.363000,-7.1807228915662655,-0.5421686746987953,-6.83132530120482,-0.38994481912936846,-6.914163090128755,-6.562844880441447,2.0,1.5714285714285716,636.3636363636363,0.9863061593147265,-0.6900530272128657,0.18611968999475598,1320.8791208791208,-1.0,81.59362549800797,1.5614249037227994,
2023-08-15 14:10:46.370000,-7.156626506024097,-0.5180722891566265,-6.819277108433735,-0.463519313304721,-6.889638258736971,-6.479460453709381,2.0,1.5714285714285716,636.3636363636363,0.6198939455742685,-0.5984499737777512,0.09451663655964149,1325.2747252747251,-1.0,81.59362549800797,1.5614888776698952,
2023-08-15 14:10:46.378000,-7.1325301204819285,-0.5180722891566265,-6.807228915662651,-0.43654199877375843,-6.938687921520539,-6.491722869405272,2.0,1.5714285714285716,636.3636363636363,1.1542450906124364,-0.567915622632713,0.14031816327719873,1329.6703296703297,-1.0,81.59362549800797,1.5615542573267125,
2023-08-15 14:10:46.386000,-7.120481927710844,-0.5301204819277109,-6.83132530120482,-0.4071122011036174,-6.926425505824647,-6.508890251379522,2.0,1.5714285714285716,636.3636363636363,1.0321076860322838,-0.5984499737777512,0.14031816327719873,1336.263736263736,-1.0,81.59362549800797,1.561620961761214,
2023-08-15 14:10:46.393000,-7.156626506024097,-0.5421686746987953,-6.807228915662651,-0.4071122011036174,-6.909258123850398,-6.521152667075413,2.0,1.5714285714285716,636.3636363636363,1.1542450906124364,-0.4763125691975985,0.20138686556727506,1347.2527472527472,-1.0,81.59362549800797,1.561688912720316,
2023-08-15 14:10:46.401000,-7.1807228915662655,-0.49397590361445787,-6.807228915662651,-0.48313917841814835,-6.9288779889638255,-6.430410790925812,2.0,1.5714285714285716,636.3636363636363,1.3221840219101464,-0.1557018821746978,0.32352427014742774,1366.3003663003662,-1.0,81.59362549800797,1.5617580347681306,
2023-08-15 14:10:46.409000,-7.216867469879518,-0.4819277108433735,-6.795180722891566,-0.3654199877375843,-6.95340282035561,-6.467198038013488,2.0,1.5714285714285716,636.3636363636363,1.1847794417574746,-0.14043470660217872,0.49146320144513767,1394.8717948717947,-1.0,81.59362549800797,1.5618282554068375,
2023-08-15 14:10:46.416000,-7.228915662650603,-0.5301204819277109,-6.819277108433735,-0.4782342121397915,-6.973022685469037,-6.4990803188228075,2.0,1.5714285714285716,636.3636363636363,0.8489015791620548,-0.39997669133500313,1.0410815220558247,1435.8974358974358,-1.0,81.59362549800797,1.561899504722235,
2023-08-15 14:10:46.424000,-7.216867469879518,-0.5421686746987953,-6.807228915662651,-0.5125689760882893,-6.995095033721642,-6.484365419987737,2.0,1.5728937728937733,635.7708430367954,0.6198939455742685,-0.735854553930423,0.8731425907581147,1488.6446886446886,-1.0,81.59362549800797,1.5619717159948703,
2023-08-15 14:10:46.431000,-7.2048192771084345,-0.5301204819277109,-6.783132530120482,-0.46842427958307786,-6.970570202329859,-6.484365419987737,2.0,1.5728937728937733,635.7708430367954,0.8641687547345739,-1.102266767670881,0.6746693083153666,1553.113553113553,-1.0,81.59362549800797,1.562044826682504,
2023-08-15 14:10:46.439000,-7.216867469879518,-0.5180722891566265,-6.746987951807229,-0.4512568976088289,-6.95340282035561,-6.45003065603924,2.0,1.5728937728937733,635.7708430367954,0.7267641745819021,-0.6289843249227893,0.6288677815978094,1623.4432234432234,-1.0,81.59362549800797,1.5621187780518322,
2023-08-15 14:10:46.447000,-7.168674698795181,-0.5421686746987953,-6.759036144578314,-0.49785407725321884,-6.867565910484365,-6.506437768240343,2.0,1.5728937728937733,635.7708430367954,0.7572985257269402,-0.8274576073655374,0.5372647281626949,1699.6336996336995,-1.0,81.59362549800797,1.5621935147615087,
2023-08-15 14:10:46.454000,-7.168674698795181,-0.5903614457831325,-6.759036144578314,-0.48313917841814835,-6.86020846106683,-6.435315757204169,2.0,1.5728937728937733,635.7708430367954,0.6198939455742685,-1.0259308898082855,0.2929899190023896,1778.7545787545787,-1.0,81.59362549800797,1.5622689844292714,
2023-08-15 14:10:46.462000,-7.1325301204819285,-0.6024096385542169,-6.771084337349398,-0.568976088289393,-6.8749233599019,-6.442673206621704,2.0,1.5728937728937733,635.7708430367954,0.9557718081696883,-0.7816560806479802,0.2929899190023896,1854.9450549450548,-1.0,81.59362549800797,1.5623451381665387,
2023-08-15 14:10:46.470000,-7.1325301204819285,-0.5662650602409639,-6.746987951807229,-0.48559166155732675,-6.867565910484365,-6.445125689760882,2.0,1.5728937728937733,635.7708430367954,0.8336344035895357,-0.30837363789988864,0.7968067128955193,1920.14652014652,-1.0,81.59362549800797,1.5624219309939578,
2023-08-15 14:10:46.477000,-7.144578313253012,-0.5903614457831325,-6.771084337349398,-0.5174739423666462,-6.8773758430410785,-6.484365419987737,2.0,1.5728937728937733,635.7708430367954,0.9252374570246502,-0.09463317988462146,0.6746693083153666,1972.8937728937728,-1.0,81.59362549800797,1.5624993213292573,
2023-08-15 14:10:46.485000,-7.156626506024097,-0.6144578313253012,-6.783132530120482,-0.5469037400367872,-6.916615573267934,-6.486817903126916,2.0,1.5743589743589748,635.1791530944624,0.6962298234368639,-0.20150340889225504,0.7968067128955193,2014.6520146520145,-1.0,81.59362549800797,1.5625772709538017,
2023-08-15 14:10:46.493000,-7.2048192771084345,-0.6265060240963856,-6.783132530120482,-0.5493562231759657,-6.980380134886572,-6.467198038013488,2.0,1.5743589743589748,635.1791530944624,0.8031000524444976,-0.36944234018996497,0.369325796864985,2043.956043956044,-1.0,81.59362549800797,1.5626557454584689,
2023-08-15 14:10:46.500000,-7.1807228915662655,-0.5783132530120483,-6.795180722891566,-0.49294911097486205,-6.948497854077253,-6.494175352544451,2.0,1.5743589743589748,635.1791530944624,1.0321076860322838,0.10384010255812663,0.49146320144513767,2054.945054945055,-1.0,81.59362549800797,1.5627347142563575,
2023-08-15 14:10:46.508000,-7.19277108433735,-0.5903614457831325,-6.807228915662651,-0.5076640098099325,-6.960760269773145,-6.503985285101164,2.0,1.5743589743589748,635.1791530944624,0.058854379115435236,0.8239613076161054,0.04580152671755725,2051.2820512820513,-1.0,81.59362549800797,1.5628141500590234,
2023-08-15 14:10:46.516000,-7.2048192771084345,-0.6024096385542169,-6.783132530120482,-0.5150214592274678,-6.938687921520539,-6.484365419987737,2.0,1.5758241758241762,634.5885634588562,-0.3019637550259305,0.43435697220441755,-0.16362682827341052,2032.234432234432,697.052001953125,86.07679173416226,1.5628940287999673,
2023-08-15 14:10:46.523000,-7.19277108433735,-0.6144578313253012,-6.795180722891566,-0.5787860208461066,-6.916615573267934,-6.442673206621704,2.0,1.5758241758241762,634.5885634588562,0.15115669250043823,0.431210302429928,-0.49635802109434146,1997.069597069597,-1.0,86.07679173416226,1.5629743300409156,
2023-08-15 14:10:46.531000,-7.168674698795181,-0.5783132530120483,-6.759036144578314,-0.5665236051502146,-6.896995708154506,-6.4328632740649905,2.0,1.5758241758241762,634.5885634588562,0.14369791970164908,0.6139502360002337,-0.38202901928792005,1950.18315018315,-1.0,86.07679173416226,1.5630550364906475,
2023-08-15 14:10:46.539000,-7.156626506024097,-0.5542168674698795,-6.819277108433735,-0.5150214592274678,-6.8626609442060085,-6.4622930717351315,2.0,1.5743589743589748,635.1791530944624,-0.0949828098595657,0.7000757531612385,-0.2386807295612141,1893.040293040293,-1.0,86.07679173416226,1.5631361335161298,
2023-08-15 14:10:46.546000,-7.156626506024097,-0.6024096385542169,-6.807228915662651,-0.522378908645003,-6.887185775597793,-6.479460453709381,2.0,1.5758241758241762,634.5885634588562,-0.0884563836606267,0.099527999533827,-0.10057688945865582,1828.5714285714284,-1.0,86.07679173416226,1.563217609033059,
2023-08-15 14:10:46.554000,-7.156626506024097,-0.5903614457831325,-6.807228915662651,-0.5469037400367872,-6.879828326180257,-6.46474555487431,2.0,1.5758241758241762,634.5885634588562,0.11794184488083388,0.3315657595711202,-0.14393100635161118,1761.9047619047617,-1.0,86.07679173416226,1.563299454269261,
2023-08-15 14:10:46.562000,-7.144578313253012,-0.5783132530120483,-6.819277108433735,-0.5248313917841815,-6.9288779889638255,-6.486817903126916,2.0,1.5758241758241762,634.5885634588562,-0.1364722335528233,0.6344618611968991,-0.06386574208962162,1698.168498168498,-1.0,86.07679173416226,1.5633816641022396,
2023-08-15 14:10:46.569000,-7.168674698795181,-0.6024096385542169,-6.819277108433735,-0.4904966278356836,-6.8994481912936845,-6.46474555487431,2.0,1.5758241758241762,634.5885634588562,-0.0071091428238449095,0.44869180117708823,-0.40032632130994716,1634.4322344322343,-1.0,86.07679173416226,1.563464235988624,
2023-08-15 14:10:46.577000,-7.1807228915662655,-0.6024096385542169,-6.783132530120482,-0.5885959534028203,-6.9288779889638255,-6.4990803188228075,2.0,1.5758241758241762,634.5885634588562,-0.09300157333488801,0.34788182506846854,-0.012703222422935475,1571.4285714285713,-1.0,86.07679173416226,1.563547169840268,
2023-08-15 14:10:46.585000,-7.168674698795181,-0.5903614457831325,-6.759036144578314,-0.4782342121397915,-6.950950337216431,-6.503985285101164,2.0,1.5758241758241762,634.5885634588562,-0.07318920808810762,0.3379756424450784,0.009556552648447248,1509.89010989011,-1.0,86.07679173416226,1.5636304683550064,
2023-08-15 14:10:46.592000,-7.156626506024097,-0.5903614457831325,-6.783132530120482,-0.5174739423666462,-6.987737584304107,-6.535867565910484,2.0,1.5772893772893775,633.9990710636321,0.06969290833867559,0.6321309946972788,0.059670182390303694,1454.212454212454,-1.0,86.07679173416226,1.5637141363618925,
2023-08-15 14:10:46.600000,-7.1807228915662655,-0.6144578313253012,-6.807228915662651,-0.598405885959534,-6.933782955242182,-6.496627835683629,2.0,1.5772893772893775,633.9990710636321,0.14591224287628843,0.37538604976399975,-0.061534875590000544,1405.8608058608058,-1.0,86.07679173416226,1.5637981812190946,
2023-08-15 14:10:46.608000,-7.168674698795181,-0.5783132530120483,-6.783132530120482,-0.49294911097486205,-6.909258123850398,-6.4107909258123845,2.0,1.5758241758241762,634.5885634588562,0.3158324106986778,0.12691568090437563,-0.4544024241011596,1361.1721611721612,-1.0,86.07679173416226,1.563882613178064,
2023-08-15 14:10:46.615000,-7.168674698795181,-0.5662650602409639,-6.783132530120482,-0.46842427958307786,-6.909258123850398,-6.496627835683629,2.0,1.5758241758241762,634.5885634588562,0.07225686148825747,0.35032923489307133,-0.2790047200046614,1320.8791208791208,-1.0,86.07679173416226,1.5639674447318157,
2023-08-15 14:10:46.623000,-7.156626506024097,-0.5783132530120483,-6.819277108433735,-0.5321888412017167,-6.909258123850398,-6.484365419987737,2.0,1.5758241758241762,634.5885634588562,0.36000233086649985,0.2963696754268399,-0.3239904434473515,1284.9816849816848,-1.0,86.07679173416226,1.5640526902837943,
2023-08-15 14:10:46.631000,-7.144578313253012,-0.5662650602409639,-6.807228915662651,-0.539546290619252,-6.867565910484365,-6.494175352544451,2.0,1.5772893772893775,633.9990710636321,0.006526426198938992,-0.19719130586795713,-0.26583532428180173,1252.7472527472526,-1.0,86.07679173416226,1.5641383654993237,
2023-08-15 14:10:46.638000,-7.1325301204819285,-0.5662650602409639,-6.819277108433735,-0.510116492949111,-6.86020846106683,-6.535867565910484,2.0,1.5772893772893775,633.9990710636321,-0.08717440708583403,0.15278829905017166,-0.08437736728628875,1225.6410256410256,-1.0,86.07679173416226,1.564224487676031,
2023-08-15 14:10:46.646000,-7.156626506024097,-0.5662650602409639,-6.807228915662651,-0.4463519313304721,-6.8749233599019,-6.506437768240343,2.0,1.5772893772893775,633.9990710636321,0.06363265543965994,0.1658411514480514,-0.08647514713594814,1206.5934065934066,-1.0,86.07679173416226,1.564311076150957,
2023-08-15 14:10:46.654000,-7.1325301204819285,-0.5662650602409639,-6.771084337349398,-0.522378908645003,-6.911710606989576,-6.486817903126916,2.0,1.5772893772893775,633.9990710636321,0.1961424159431279,0.544840044286464,-0.07377192471301224,1192.6739926739926,-1.0,86.07679173416226,1.5643981521156298,
2023-08-15 14:10:46.661000,-7.168674698795181,-0.5662650602409639,-6.795180722891566,-0.5174739423666462,-6.909258123850398,-6.491722869405272,2.0,1.5772893772893775,633.9990710636321,0.20488316531670625,0.09859565293397857,-0.06433191538954583,1185.3479853479853,-1.0,86.07679173416226,1.5644857379434565,
2023-08-15 14:10:46.669000,-7.156626506024097,-0.5542168674698795,-6.771084337349398,-0.5076640098099325,-6.926425505824647,-6.452483139178418,2.0,1.5772893772893775,633.9990710636321,0.07435464133791772,0.26874890740632784,-0.11642678165608039,1186.080586080586,-1.0,86.07679173416226,1.5645738565890737,
2023-08-15 14:10:46.677000,-7.156626506024097,-0.5783132530120483,-6.807228915662651,-0.5150214592274678,-6.8773758430410785,-6.496627835683629,2.0,1.5772893772893775,633.9990710636321,0.0023308664996202007,0.3333139094458362,-0.03356447759454599,1193.4065934065934,-1.0,86.07679173416226,1.5646625319382808,
2023-08-15 14:10:46.684000,-7.144578313253012,-0.5903614457831325,-6.795180722891566,-0.48068669527896996,-6.867565910484365,-6.518700183936235,2.0,1.5772893772893775,633.9990710636321,-0.16595769477303224,0.2785385467047372,-0.04545189674261431,1208.7912087912086,-1.0,86.07679173416226,1.564751788633203,
2023-08-15 14:10:46.692000,-7.144578313253012,-0.5903614457831325,-6.795180722891566,-0.5199264255058246,-6.8920907418761495,-6.481912936848559,2.0,1.5772893772893775,633.9990710636321,0.06235067886486727,0.3107045043995106,0.11118233203193277,1227.106227106227,-1.0,86.07679173416226,1.564841651934808,
2023-08-15 14:10:46.700000,-7.120481927710844,-0.5662650602409639,-6.807228915662651,-0.539546290619252,-6.923973022685469,-6.445125689760882,2.0,1.578754578754579,633.4106728538283,0.39554804498572266,0.4291125225802695,-0.23844764291125178,1247.6190476190475,-1.0,86.07679173416226,1.564932147553182,
2023-08-15 14:10:46.707000,-7.1084337349397595,-0.5542168674698795,-6.771084337349398,-0.5297363580625383,-6.887185775597793,-6.489270386266094,2.0,1.578754578754579,633.4106728538283,0.0680613017889404,0.684575490938756,0.006293339548977752,1271.062271062271,-1.0,86.07679173416226,1.5650233015498003,
2023-08-15 14:10:46.715000,-7.120481927710844,-0.6024096385542169,-6.83132530120482,-0.5125689760882893,-6.882280809319435,-6.479460453709381,2.0,1.578754578754579,633.4106728538283,0.4446127848027503,0.3567391177670295,0.0069925994988632055,1293.7728937728937,-1.0,86.07679173416226,1.5651151403119947,
2023-08-15 14:10:46.723000,-7.1325301204819285,-0.6144578313253012,-6.843373493975904,-0.522378908645003,-6.887185775597793,-6.550582464745554,2.0,1.578754578754579,633.4106728538283,0.19183031291882827,0.1843715401200391,0.05116251966668614,1317.216117216117,-1.0,86.07679173416226,1.5652076900031702,
2023-08-15 14:10:46.730000,-7.156626506024097,-0.5903614457831325,-6.843373493975904,-0.49785407725321884,-6.8994481912936845,-6.592274678111588,2.0,1.578754578754579,633.4106728538283,0.337509469145155,0.3791154361633935,0.034380280869413145,1340.6593406593406,-1.0,86.07679173416226,1.5653009769298074,
2023-08-15 14:10:46.738000,-7.1325301204819285,-0.5783132530120483,-6.903614457831326,-0.49785407725321884,-6.901900674432863,-6.550582464745554,2.0,1.578754578754579,633.4106728538283,0.1579162053493389,0.4505564943767851,0.16607423809801306,1364.8351648351647,-1.0,86.07679173416226,1.5653950269266947,
2023-08-15 14:10:46.746000,-7.1325301204819285,-0.5903614457831325,-6.843373493975904,-0.4880441446965052,-6.911710606989576,-6.580012262415695,2.0,1.578754578754579,633.4106728538283,0.08764058038575911,0.5510168405104605,0.06712895518909155,1387.5457875457876,-1.0,86.07679173416226,1.5654898653054286,
2023-08-15 14:10:46.753000,-7.1325301204819285,-0.5662650602409639,-6.795180722891566,-0.48559166155732675,-6.916615573267934,-6.557939914163089,2.0,1.578754578754579,633.4106728538283,0.2154886078899832,0.03659460404405381,0.33482897267059014,1409.5238095238094,-1.0,86.07679173416226,1.5655855171924633,
2023-08-15 14:10:46.761000,-7.1325301204819285,-0.5542168674698795,-6.83132530120482,-0.5199264255058246,-6.8847332924586135,-6.557939914163089,2.0,1.578754578754579,633.4106728538283,0.24916962880950913,0.04836547986714086,0.08029835091195167,1427.8388278388277,-1.0,86.07679173416226,1.5656820069550703,
2023-08-15 14:10:46.769000,-7.096385542168675,-0.5662650602409639,-6.855421686746988,-0.47332924586143466,-6.845493562231759,-6.582464745554874,2.0,1.578754578754579,633.4106728538283,0.16036361517393993,-0.2605908746576537,0.25511333838354394,1443.956043956044,-1.0,86.07679173416226,1.5657793585789948,
2023-08-15 14:10:46.776000,-7.096385542168675,-0.5421686746987953,-6.855421686746988,-0.48068669527896996,-6.865113427345187,-6.523605150214592,2.0,1.578754578754579,633.4106728538283,0.23972961948604404,0.07318920808810589,0.07540353126274699,1452.7472527472526,-1.0,86.07679173416226,1.5658775950644381,
2023-08-15 14:10:46.784000,-7.1084337349397595,-0.5180722891566265,-6.807228915662651,-0.43899448191293683,-6.8332311465358675,-6.565297363580625,2.0,1.5802197802197802,632.8233657858136,0.0737719247130118,0.29916671522638516,-0.04055707709340963,1457.142857142857,-1.0,86.07679173416226,1.565976737927457,
2023-08-15 14:10:46.791000,-7.156626506024097,-0.5180722891566265,-6.843373493975904,-0.46106683016554256,-6.896995708154506,-6.548129981606376,2.0,1.5802197802197802,632.8233657858136,0.42631548278072423,0.5264261989394554,0.47106811957345135,1457.142857142857,-1.0,86.07679173416226,1.5660768076508602,
2023-08-15 14:10:46.799000,-7.168674698795181,-0.5421686746987953,-6.843373493975904,-0.49540159411404044,-6.904353157572041,-6.528510116492948,2.0,1.5802197802197802,632.8233657858136,0.3355282326204773,0.061884505564943924,0.551366470485403,1454.9450549450548,-1.0,86.07679173416226,1.5661778242066364,
2023-08-15 14:10:46.807000,-7.1807228915662655,-0.5180722891566265,-6.855421686746988,-0.44880441446965047,-6.926425505824647,-6.516247700797057,2.0,1.5802197802197802,632.8233657858136,0.38144630266301544,0.04370374686789872,0.43249227900472026,1452.7472527472526,-1.0,86.07679173416226,1.5662798064938057,
2023-08-15 14:10:46.814000,-7.168674698795181,-0.49397590361445787,-6.807228915662651,-0.4463519313304721,-6.985285101164929,-6.4990803188228075,2.0,1.5802197802197802,632.8233657858136,0.1835557368451715,0.07353883806305013,0.07190723151331495,1449.084249084249,-1.0,86.07679173416226,1.5663827718486754,
2023-08-15 14:10:46.822000,-7.168674698795181,-0.49397590361445787,-6.819277108433735,-0.4095646842427958,-6.857755977927652,-6.472103004291845,2.0,1.5802197802197802,632.8233657858136,0.18623623331973596,0.11537789173125026,-0.18064215372064582,1444.6886446886447,-1.0,86.07679173416226,1.5664867364715063,
2023-08-15 14:10:46.830000,-7.1807228915662655,-0.49397590361445787,-6.807228915662651,-0.46842427958307786,-6.943592887798896,-6.567749846719804,2.0,1.5802197802197802,632.8233657858136,0.08088106753685671,0.1899656197191314,0.08845638366062585,1438.095238095238,-1.0,86.07679173416226,1.566591715363874,
2023-08-15 14:10:46.837000,-7.19277108433735,-0.5180722891566265,-6.819277108433735,-0.4512568976088289,-6.931330472103004,-6.496627835683629,2.0,1.5802197802197802,632.8233657858136,0.2631548278072373,-0.13250976050346794,0.08099761086183799,1429.3040293040292,-1.0,86.07679173416226,1.5666977222694471,
2023-08-15 14:10:46.845000,-7.168674698795181,-0.5060240963855422,-6.83132530120482,-0.47087676272225626,-6.948497854077253,-6.543225015328019,2.0,1.5802197802197802,632.8233657858136,0.32492279004720037,-0.28576423285356295,-0.06293339548977318,1419.7802197802198,-1.0,86.07679173416226,1.5668047696182374,
2023-08-15 14:10:46.853000,-7.144578313253012,-0.5301204819277109,-6.83132530120482,-0.45616186388718577,-6.8626609442060085,-6.538320049049663,2.0,1.5816849816849816,632.2371468272348,0.01841384534700861,-0.5923897208787373,-0.17551424742147903,1406.5934065934066,-1.0,86.07679173416226,1.5669128684743567,
2023-08-15 14:10:46.860000,-7.1084337349397595,-0.5301204819277109,-6.83132530120482,-0.5003065603923973,-6.8405885959534025,-6.548129981606376,2.0,1.5816849816849816,632.2371468272348,0.008041489423693338,-0.5909912009789637,-0.1816910436454751,1392.6739926739926,-1.0,86.07679173416226,1.5670220289799692,
2023-08-15 14:10:46.868000,-7.120481927710844,-0.5421686746987953,-6.843373493975904,-0.4512568976088289,-6.894543225015328,-6.481912936848559,2.0,1.5816849816849816,632.2371468272348,0.2283083736378995,-0.556610920109551,-0.1707359710972552,1380.2197802197802,-1.0,86.07679173416226,1.5671322603822957,
2023-08-15 14:10:46.876000,-7.1084337349397595,-0.5662650602409639,-6.83132530120482,-0.5321888412017167,-6.81361128142244,-6.4255058246474555,2.0,1.5816849816849816,632.2371468272348,0.004661732999242137,-0.32562204999708716,-0.22166540411397923,1366.3003663003662,-1.0,86.07679173416226,1.5672435705396461,
2023-08-15 14:10:46.883000,-7.144578313253012,-0.5421686746987953,-6.807228915662651,-0.47087676272225626,-6.8332311465358675,-6.430410790925812,2.0,1.5816849816849816,632.2371468272348,-0.01678223879727343,-0.1874016665695478,-0.008041489423693338,1350.9157509157508,-1.0,86.07679173416226,1.5673559658894334,
2023-08-15 14:10:46.891000,-7.1325301204819285,-0.5542168674698795,-6.771084337349398,-0.4537093807480073,-6.867565910484365,-6.474555487431023,2.0,1.5802197802197802,632.8233657858136,-0.1307616106287519,-0.23192121671231236,-0.38028086941320444,1336.263736263736,-1.0,86.07679173416226,1.5674694514202452,
2023-08-15 14:10:46.899000,-7.144578313253012,-0.5783132530120483,-6.771084337349398,-0.5469037400367872,-6.8920907418761495,-6.437768240343347,2.0,1.5816849816849816,632.2371468272348,-0.22702639706310856,-0.46349280344968224,-0.36734456034030644,1320.8791208791208,-1.0,86.07679173416226,1.5675840301552035,
2023-08-15 14:10:46.906000,-7.1325301204819285,-0.5783132530120483,-6.807228915662651,-0.5272838749233598,-6.8700183936235435,-6.467198038013488,2.0,1.5816849816849816,632.2371468272348,-0.13833692675252018,-0.23355282326204754,-0.398811258085193,1306.9597069597069,-1.0,86.07679173416226,1.567699703094492,
2023-08-15 14:10:46.914000,-7.120481927710844,-0.5903614457831325,-6.783132530120482,-0.5370938074800735,-6.931330472103004,-6.408338442673206,2.0,1.5802197802197802,632.8233657858136,0.08717440708583403,-0.053027212866383,-0.0033797564244507665,1296.7032967032967,-1.0,86.07679173416226,1.5678164697907713,
2023-08-15 14:10:46.922000,-7.1084337349397595,-0.5903614457831325,-6.783132530120482,-0.5542611894543225,-6.95340282035561,-6.477007970570202,2.0,1.5816849816849816,632.2371468272348,-0.12831420080414915,0.22236466406386643,-0.20161995221723675,1292.3076923076922,-1.0,86.07679173416226,1.5679343283316012,
2023-08-15 14:10:46.929000,-7.120481927710844,-0.6024096385542169,-6.819277108433735,-0.5346413243408952,-6.904353157572041,-6.4696505211526665,2.0,1.5816849816849816,632.2371468272348,-0.036478060719072974,0.15861546529922566,-0.049297826466989284,1293.7728937728937,-1.0,86.07679173416226,1.568053275679253,
2023-08-15 14:10:46.937000,-7.144578313253012,-0.6144578313253012,-6.795180722891566,-0.5493562231759657,-6.911710606989576,-6.523605150214592,2.0,1.5816849816849816,632.2371468272348,0.05465881941611818,0.2941553522522005,0.25604568498339236,1297.4358974358975,-1.0,86.07679173416226,1.5681733076974662,
2023-08-15 14:10:46.945000,-7.168674698795181,-0.6385542168674699,-6.819277108433735,-0.5591661557326794,-6.95340282035561,-6.545677498467198,2.0,1.5816849816849816,632.2371468272348,0.41920633995687934,0.24928617213449172,0.05629042596585249,1301.8315018315018,-1.0,86.07679173416226,1.568294418233248,
2023-08-15 14:10:46.952000,-7.1807228915662655,-0.6385542168674699,-6.819277108433735,-0.6057633353770693,-6.950950337216431,-6.494175352544451,2.0,1.5816849816849816,632.2371468272348,0.26630149758172683,0.539595594662316,0.332847736145912,1304.7619047619046,-1.0,86.07679173416226,1.5684165991847592,
2023-08-15 14:10:46.960000,-7.1807228915662655,-0.6144578313253012,-6.807228915662651,-0.5885959534028203,-6.987737584304107,-6.513795217657878,2.0,1.5816849816849816,632.2371468272348,0.3731717265893604,0.7061360060602524,0.4217702931064621,1307.6923076923076,-1.0,86.07679173416226,1.5685398409932303,
2023-08-15 14:10:46.968000,-7.1807228915662655,-0.6144578313253012,-6.771084337349398,-0.5591661557326794,-6.955855303494788,-6.472103004291845,2.0,1.5816849816849816,632.2371468272348,0.35708874774197374,0.6418040906707074,0.2235300973136765,1309.1575091575091,-1.0,86.07679173416226,1.568664132645596,
2023-08-15 14:10:46.975000,-7.156626506024097,-0.6265060240963856,-6.795180722891566,-0.5665236051502146,-6.904353157572041,-6.477007970570202,2.0,1.5831501831501833,631.6520129569643,0.10057688945865627,0.3042946215255524,0.17854437387098643,1311.3553113553112,-1.0,86.07679173416226,1.5687894616803402,
2023-08-15 14:10:46.983000,-7.156626506024097,-0.6385542168674699,-6.843373493975904,-0.5370938074800735,-6.914163090128755,-6.459840588595953,2.0,1.5831501831501833,631.6520129569643,-0.07668550783753793,0.2904259658528051,0.28634694947846845,1315.018315018315,-1.0,86.07679173416226,1.568915814689012,
2023-08-15 14:10:46.991000,-7.168674698795181,-0.6506024096385542,-6.83132530120482,-0.47087676272225626,-6.855303494788473,-6.530962599632127,2.0,1.5816849816849816,632.2371468272348,0.08099761086183756,0.20045451896742578,-0.03414719421945104,1317.9487179487178,-1.0,86.07679173416226,1.5690431774000886,
2023-08-15 14:10:46.998000,-7.144578313253012,-0.6506024096385542,-6.843373493975904,-0.5763335377069282,-6.9362354383813605,-6.538320049049663,2.0,1.5816849816849816,632.2371468272348,0.009556552648447682,0.034380280869412715,0.03030126449507606,1318.6813186813185,-1.0,86.07679173416226,1.569171533748276,
2023-08-15 14:10:47.006000,-7.144578313253012,-0.6385542168674699,-6.83132530120482,-0.6229307173513182,-6.946045370938075,-6.523605150214592,2.0,1.5831501831501833,631.6520129569643,-0.18297302022026732,0.00827457607365501,0.15616805547462287,1317.216117216117,-1.0,86.07679173416226,1.5693008658251797,
2023-08-15 14:10:47.014000,-7.144578313253012,-0.6506024096385542,-6.843373493975904,-0.5665236051502146,-6.894543225015328,-6.494175352544451,2.0,1.5831501831501833,631.6520129569643,0.1309946972787136,-0.05034671639181855,0.2649029776819533,1317.9487179487178,-1.0,86.07679173416226,1.569431154849912,
2023-08-15 14:10:47.021000,-7.156626506024097,-0.6265060240963856,-6.843373493975904,-0.5493562231759657,-6.926425505824647,-6.486817903126916,2.0,1.5831501831501833,631.6520129569643,-0.04661732999242484,0.04451955014276631,0.2487034555095858,1322.3443223443223,-1.0,86.07679173416226,1.5695623812632626,
2023-08-15 14:10:47.029000,-7.1325301204819285,-0.6265060240963856,-6.819277108433735,-0.6033108522378908,-6.92152053954629,-6.508890251379522,2.0,1.5831501831501833,631.6520129569643,-0.07248994813822088,-0.07808402773731143,0.29287337567740784,1328.937728937729,-1.0,86.07679173416226,1.569694524299071,
2023-08-15 14:10:47.037000,-7.144578313253012,-0.6144578313253012,-6.83132530120482,-0.5052115266707541,-6.926425505824647,-6.479460453709381,2.0,1.5831501831501833,631.6520129569643,-0.3125691975992074,-0.23017306683759636,0.2489365421595479,1335.5311355311355,-1.0,86.07679173416226,1.5698275620155449,
2023-08-15 14:10:47.044000,-7.144578313253012,-0.6144578313253012,-6.83132530120482,-0.5444512568976088,-6.872470876762722,-6.513795217657878,2.0,1.5831501831501833,631.6520129569643,-0.12330283782996276,-0.3352951459705139,0.11374628518151639,1339.194139194139,-1.0,86.07679173416226,1.5699614713284271,
2023-08-15 14:10:47.052000,-7.1325301204819285,-0.6265060240963856,-6.807228915662651,-0.49785407725321884,-6.92152053954629,-6.486817903126916,2.0,1.5831501831501833,631.6520129569643,-0.3173474739234304,-0.575490938756483,0.16257793834858103,1339.194139194139,-1.0,86.07679173416226,1.5700962280457387,
2023-08-15 14:10:47.060000,-7.120481927710844,-0.6024096385542169,-6.795180722891566,-0.551808706315144,-6.889638258736971,-6.494175352544451,2.0,1.5831501831501833,631.6520129569643,-0.30814055124992695,-0.40195792785968254,-0.06328302546471656,1337.7289377289376,-1.0,86.07679173416226,1.5702318069038776,
2023-08-15 14:10:47.067000,-7.1325301204819285,-0.5903614457831325,-6.807228915662651,-0.5444512568976088,-6.8994481912936845,-6.472103004291845,2.0,1.5816849816849816,632.2371468272348,-0.4074354641337923,-0.4728162694481665,0.10815220558242539,1334.065934065934,-1.0,86.07679173416226,1.5703681816048138,
2023-08-15 14:10:47.075000,-7.1325301204819285,-0.6024096385542169,-6.795180722891566,-0.45616186388718577,-6.830778663396689,-6.479460453709381,2.0,1.5816849816849816,632.2371468272348,-0.12376901112988785,-0.21024415826583512,0.294854612202086,1331.8681318681317,-1.0,86.07679173416226,1.5705053243614826,
2023-08-15 14:10:47.083000,-7.156626506024097,-0.6024096385542169,-6.843373493975904,-0.5836909871244634,-6.867565910484365,-6.5113427345187,2.0,1.5816849816849816,632.2371468272348,-0.5315541052386227,-0.46862070974884945,0.14393100635161118,1328.937728937729,-1.0,86.07679173416226,1.570643205864284,
2023-08-15 14:10:47.090000,-7.156626506024097,-0.5662650602409639,-6.819277108433735,-0.551808706315144,-6.904353157572041,-6.481912936848559,2.0,1.5831501831501833,631.6520129569643,-0.3248062467222195,-0.2966027620768016,0.05372647281626932,1327.4725274725274,-1.0,86.07679173416226,1.57078179577249,
2023-08-15 14:10:47.098000,-7.144578313253012,-0.5783132530120483,-6.83132530120482,-0.4904966278356836,-6.926425505824647,-6.5113427345187,2.0,1.5831501831501833,631.6520129569643,-0.40964978730843166,-0.036244974069109565,0.03799312394382602,1326.7399267399267,-1.0,86.07679173416226,1.5709210627821566,
2023-08-15 14:10:47.106000,-7.144578313253012,-0.5542168674698795,-6.807228915662651,-0.551808706315144,-6.8700183936235435,-6.518700183936235,2.0,1.5831501831501833,631.6520129569643,-0.17574733407144158,-0.1574500320494138,0.09952799953382657,1323.8095238095236,-1.0,86.07679173416226,1.5710609747980886,
2023-08-15 14:10:47.113000,-7.144578313253012,-0.5421686746987953,-6.819277108433735,-0.41692213366033104,-6.8994481912936845,-6.501532801961986,2.0,1.5831501831501833,631.6520129569643,-0.44601130470252376,-0.24625604568498302,0.02412446827107958,1323.8095238095236,-1.0,86.07679173416226,1.5712014990016805,
2023-08-15 14:10:47.121000,-7.120481927710844,-0.5421686746987953,-6.83132530120482,-0.45616186388718577,-6.889638258736971,-6.489270386266094,2.0,1.5831501831501833,631.6520129569643,-0.47060194627352714,-0.35032923489307133,-0.05034671639181855,1324.5421245421244,-1.0,86.07679173416226,1.571342602342217,
2023-08-15 14:10:47.129000,-7.144578313253012,-0.5542168674698795,-6.819277108433735,-0.49294911097486205,-6.8332311465358675,-6.530962599632127,2.0,1.5831501831501833,631.6520129569643,-0.3737544432142646,-0.05722277256570179,0.08694132043587192,1328.2051282051282,-1.0,86.07679173416226,1.5714842510453946,
2023-08-15 14:10:47.136000,-7.1084337349397595,-0.5542168674698795,-6.807228915662651,-0.49294911097486205,-6.889638258736971,-6.540772532188841,2.0,1.5831501831501833,631.6520129569643,-0.37072431676475764,-0.05733931589068263,0.0849600839111938,1334.065934065934,-1.0,86.07679173416226,1.5716264102259334,
2023-08-15 14:10:47.144000,-7.1325301204819285,-0.5421686746987953,-6.879518072289157,-0.568976088289393,-6.820968730839975,-6.496627835683629,2.0,1.5846153846153848,631.0679611650485,-0.4000932346599857,-0.5930889808286223,-0.1605967018239029,1337.7289377289376,-1.0,86.07679173416226,1.5717690444132872,
2023-08-15 14:10:47.152000,-7.1325301204819285,-0.5662650602409639,-6.843373493975904,-0.5248313917841815,-6.8749233599019,-6.543225015328019,2.0,1.5846153846153848,631.0679611650485,-0.4137288036827696,-0.43936833517860224,0.024241011596060846,1341.3919413919414,-1.0,86.07679173416226,1.5719121180771836,
2023-08-15 14:10:47.159000,-7.120481927710844,-0.5542168674698795,-6.819277108433735,-0.510116492949111,-6.909258123850398,-6.58736971183323,2.0,1.5846153846153848,631.0679611650485,-0.2481207388846799,-0.34659984849367764,-0.06584697861429974,1342.8571428571427,-1.0,86.07679173416226,1.572055595274538,
2023-08-15 14:10:47.167000,-7.1325301204819285,-0.5542168674698795,-6.819277108433735,-0.46106683016554256,-6.872470876762722,-6.5113427345187,2.0,1.5846153846153848,631.0679611650485,0.07365538138803097,-0.13192704387856202,0.3609346774663483,1343.5897435897434,-1.0,86.07679173416226,1.5721994397544878,
2023-08-15 14:10:47.174000,-7.120481927710844,-0.5301204819277109,-6.843373493975904,-0.40465971796443895,-6.894543225015328,-6.479460453709381,2.0,1.5846153846153848,631.0679611650485,-0.3572052910669546,-0.10244158265835313,0.08216304411164853,1341.3919413919414,-1.0,86.07679173416226,1.5723436154174508,
2023-08-15 14:10:47.182000,-7.156626506024097,-0.5301204819277109,-6.83132530120482,-0.4512568976088289,-6.879828326180257,-6.530962599632127,2.0,1.5846153846153848,631.0679611650485,-0.1885670998193579,-0.27014742730610136,-0.040790163743371737,1339.9267399267399,-1.0,86.07679173416226,1.5724880854031935,
2023-08-15 14:10:47.190000,-7.1325301204819285,-0.5301204819277109,-6.83132530120482,-0.46106683016554256,-6.845493562231759,-6.521152667075413,2.0,1.5846153846153848,631.0679611650485,0.08577588718606226,0.04918128314200845,-0.2096614416409301,1339.9267399267399,-1.0,86.07679173416226,1.572632812196634,
2023-08-15 14:10:47.197000,-7.1325301204819285,-0.5421686746987953,-6.855421686746988,-0.4659717964438994,-6.879828326180257,-6.535867565910484,2.0,1.5846153846153848,631.0679611650485,-0.16246139502360019,-0.02960200454518974,-0.117242584930948,1339.9267399267399,-1.0,86.07679173416226,1.572777758154579,
2023-08-15 14:10:47.205000,-7.120481927710844,-0.5542168674698795,-6.843373493975904,-0.5419987737584304,-6.857755977927652,-6.52605763335377,2.0,1.5846153846153848,631.0679611650485,0.12633296427947147,0.2760911368801344,0.018530388671989015,1340.6593406593406,-1.0,86.07679173416226,1.5729228855401702,
2023-08-15 14:10:47.213000,-7.1325301204819285,-0.5542168674698795,-6.83132530120482,-0.5321888412017167,-6.872470876762722,-6.58736971183323,2.0,1.5846153846153848,631.0679611650485,0.013052852397879719,-3.496299749425094E-4,0.0012819765747918046,1345.7875457875457,-1.0,86.07679173416226,1.5730681565575861,
2023-08-15 14:10:47.220000,-7.1325301204819285,-0.5301204819277109,-6.807228915662651,-0.4782342121397915,-6.8847332924586135,-6.477007970570202,2.0,1.5846153846153848,631.0679611650485,-0.01969582192179955,0.42503350620593155,-0.15337101567507716,1356.0439560439559,-1.0,86.07679173416226,1.5732135333869157,
2023-08-15 14:10:47.228000,-7.1325301204819285,-0.5301204819277109,-6.819277108433735,-0.46106683016554256,-6.896995708154506,-6.442673206621704,2.0,1.5846153846153848,631.0679611650485,0.008507662723616683,0.4030068177845118,0.22690985373812728,1378.7545787545787,-1.0,86.07679173416226,1.5733589786769582,
2023-08-15 14:10:47.236000,-7.156626506024097,-0.5421686746987953,-6.807228915662651,-0.48559166155732675,-6.9288779889638255,-6.523605150214592,2.0,1.5846153846153848,631.0679611650485,0.20325155876697107,0.5323699085134902,0.24101159606083541,1413.9194139194137,-1.0,86.07679173416226,1.573504455054977,
2023-08-15 14:10:47.243000,-7.1807228915662655,-0.5180722891566265,-6.83132530120482,-0.4880441446965052,-6.923973022685469,-6.533415082771306,2.0,1.5846153846153848,631.0679611650485,0.25732766155818504,0.03764349396888308,0.14567915622632718,1464.4688644688645,-1.0,86.07679173416226,1.573649924740303,
2023-08-15 14:10:47.251000,-7.19277108433735,-0.5421686746987953,-6.83132530120482,-0.46106683016554256,-6.9068056407112195,-6.481912936848559,2.0,1.5846153846153848,631.0679611650485,-0.010605442573276946,-0.08903910028553089,0.3105879610745293,1530.4029304029302,-1.0,86.07679173416226,1.5737953500708102,
2023-08-15 14:10:47.259000,-7.168674698795181,-0.5542168674698795,-6.795180722891566,-0.5150214592274678,-6.970570202329859,-6.518700183936235,2.0,1.5846153846153848,631.0679611650485,2.3308664996167294E-4,-0.0621175922149056,-0.12038925470543665,1607.3260073260071,-1.0,86.07679173416226,1.5739406935363602,
2023-08-15 14:10:47.266000,-7.144578313253012,-0.5542168674698795,-6.795180722891566,-0.48559166155732675,-6.916615573267934,-6.503985285101164,2.0,1.5846153846153848,631.0679611650485,-0.06316648213973486,0.11735912825592969,-0.029835091195151847,1687.9120879120878,-1.0,86.07679173416226,1.574085917811767,
2023-08-15 14:10:47.274000,-7.120481927710844,-0.5783132530120483,-6.807228915662651,-0.5616186388718577,-6.896995708154506,-6.4696505211526665,2.0,1.5846153846153848,631.0679611650485,-0.2010372355923317,-0.5117417399918422,-0.06025289901520874,1769.9633699633698,-1.0,86.07679173416226,1.5742309857892076,
2023-08-15 14:10:47.282000,-7.120481927710844,-0.5783132530120483,-6.83132530120482,-0.5787860208461066,-6.8847332924586135,-6.513795217657878,2.0,1.5860805860805862,630.4849884526558,-0.446594021327428,-0.12656605092943313,-0.10745294563253907,1851.2820512820513,735.3515625,81.59362549800797,1.5743758601520859,
2023-08-15 14:10:47.289000,-7.1084337349397595,-0.6265060240963856,-6.807228915662651,-0.5469037400367872,-6.926425505824647,-6.496627835683629,2.0,1.5860805860805862,630.4849884526558,0.011071615873200292,-0.11374628518151682,-0.0928850300099063,1926.7399267399267,-1.0,81.59362549800797,1.5745205039659431,
2023-08-15 14:10:47.297000,-7.1325301204819285,-0.6144578313253012,-6.83132530120482,-0.551808706315144,-6.850398528510116,-6.548129981606376,2.0,1.5860805860805862,630.4849884526558,-0.5556785735097026,-0.2373987529864221,-0.09474972320960316,1995.6043956043954,-1.0,81.59362549800797,1.5746648812691655,
2023-08-15 14:10:47.305000,-7.156626506024097,-0.6024096385542169,-6.819277108433735,-0.5591661557326794,-6.916615573267934,-6.501532801961986,2.0,1.5860805860805862,630.4849884526558,-0.2664180409067077,-0.22248120738884725,0.05815511916554978,2052.747252747253,-1.0,81.59362549800797,1.5748089566462433,
2023-08-15 14:10:47.312000,-7.144578313253012,-0.6385542168674699,-6.819277108433735,-0.598405885959534,-6.919068056407112,-6.513795217657878,2.0,1.5860805860805862,630.4849884526558,0.02284249169628734,0.08123069751179923,0.16152904842375132,2094.5054945054944,-1.0,81.59362549800797,1.5749526952591422,
2023-08-15 14:10:47.320000,-7.144578313253012,-0.6385542168674699,-6.83132530120482,-0.5469037400367872,-6.914163090128755,-6.501532801961986,2.0,1.5860805860805862,630.4849884526558,0.019812365246780383,-0.02960200454518974,-0.19392809276848677,2120.879120879121,-1.0,81.59362549800797,1.5750960628788082,
2023-08-15 14:10:47.328000,-7.168674698795181,-0.6024096385542169,-6.795180722891566,-0.5125689760882893,-6.941140404659717,-6.459840588595953,2.0,1.5860805860805862,630.4849884526558,-0.22481207388846747,0.24439135248528618,-0.20569896859157383,2128.937728937729,-1.0,81.59362549800797,1.5752390259166644,
2023-08-15 14:10:47.335000,-7.1807228915662655,-0.5783132530120483,-6.795180722891566,-0.5248313917841815,-6.894543225015328,-6.477007970570202,2.0,1.5860805860805862,630.4849884526558,-0.2690985373812721,0.5288736087640582,-0.1280811141541866,2117.2161172161173,-1.0,81.59362549800797,1.5753815514559701,
2023-08-15 14:10:47.343000,-7.168674698795181,-0.5783132530120483,-6.783132530120482,-0.4463519313304721,-6.82832618025751,-6.4255058246474555,2.0,1.5860805860805862,630.4849884526558,-0.26758347415651773,-0.10418973253306914,-0.21875182098945267,2085.714285714286,-1.0,81.59362549800797,1.5755236072828984,
