Shimmer_F5D4_Timestamp_FormattedUnix_CAL,Shimmer_F5D4_Accel_LN_X_CAL,Shimmer_F5D4_Accel_LN_Y_CAL,Shimmer_F5D4_Accel_LN_Z_CAL,Shimmer_F5D4_Accel_WR_X_CAL,Shimmer_F5D4_Accel_WR_Y_CAL,Shimmer_F5D4_Accel_WR_Z_CAL,Shimmer_F5D4_GSR_Range_CAL,Shimmer_F5D4_GSR_Skin_Conductance_CAL,Shimmer_F5D4_GSR_Skin_Resistance_CAL,Shimmer_F5D4_Gyro_X_CAL,Shimmer_F5D4_Gyro_Y_CAL,Shimmer_F5D4_Gyro_Z_CAL,Shimmer_F5D4_PPG_A13_CAL,Shimmer_F5D4_PPG_IBI_CAL,Shimmer_F5D4_PPGtoHR_CAL,Shimmer_F5D4_GSR_Skin_Conductance_LPF_CAL,
yyyy/mm/dd hh:mm:ss.000,m/(s^2),m/(s^2),m/(s^2),m/(s^2),m/(s^2),m/(s^2),no_units,uS,kOhms,deg/s,deg/s,deg/s,mV,ms,BPM,uS,
2023-08-16 13:54:19.803000,-7.771084337349398,1.63855421686747,5.55421686746988,1.8638871857755976,-7.789699570815451,6.0478234212139785,3.0,0.4388944388944389,2278.45220030349,-0.10966726880717886,0.3129188275741499,-0.010721985898257782,1402.9304029304028,-1.0,65.8234289731829,0.4392212180848689,
2023-08-16 13:54:19.811000,-7.759036144578314,1.63855421686747,5.518072289156627,1.930104230533415,-7.816676885346413,6.104230533415082,3.0,0.4388944388944389,2278.45220030349,0.012237049123012128,0.12609987762950806,-0.14987471592564555,1397.069597069597,-1.0,65.8234289731829,0.43921861382841515,
2023-08-16 13:54:19.818000,-7.759036144578314,1.63855421686747,5.530120481927711,1.8957694665849172,-7.76026977314531,6.096873083997547,3.0,0.4384504384504386,2280.7594936708856,-0.21513897791504066,0.20092069226735085,-0.24089505273585457,1390.4761904761904,-1.0,65.8234289731829,0.43921595575626815,
2023-08-16 13:54:19.826000,-7.759036144578314,1.63855421686747,5.566265060240964,1.9153893316983446,-7.831391784181483,6.126302881667688,3.0,0.4388944388944389,2278.45220030349,-0.22702639706310856,-0.23028961016257718,0.12679913757939523,1384.6153846153845,-1.0,65.8234289731829,0.4392132436461335,
2023-08-16 13:54:19.834000,-7.759036144578314,1.63855421686747,5.518072289156627,1.9276517473942365,-7.843654199877375,6.089515634580012,3.0,0.4388944388944389,2278.45220030349,-0.30184721170094964,-0.14066779325214213,-0.04335411689295491,1380.2197802197802,-1.0,65.8234289731829,0.4392104773532982,
2023-08-16 13:54:19.841000,-7.759036144578314,1.6506024096385543,5.542168674698796,1.8442673206621703,-7.789699570815451,6.067443286327406,3.0,0.4388944388944389,2278.45220030349,0.06479808868947004,0.13320902045335295,0.017481498747159315,1379.4871794871794,-1.0,65.8234289731829,0.4392076569717689,
2023-08-16 13:54:19.849000,-7.734939759036145,1.6506024096385543,5.542168674698796,1.8982219497240955,-7.76026977314531,6.067443286327406,3.0,0.4388944388944389,2278.45220030349,-0.026455334770700212,-0.08729095041081487,-0.2883281860031466,1380.952380952381,-1.0,65.8234289731829,0.4392047826972004,
2023-08-16 13:54:19.857000,-7.759036144578314,1.6506024096385543,5.518072289156627,1.8736971183323115,-7.82158185162477,6.03065603923973,3.0,0.4388944388944389,2278.45220030349,-0.23914690286113813,0.3350620593205522,0.21735330108968004,1383.150183150183,-1.0,65.8234289731829,0.43920185482823765,
2023-08-16 13:54:19.864000,-7.759036144578314,1.6506024096385543,5.530120481927711,1.8859595340282034,-7.777437155119558,6.079705702023298,3.0,0.4388944388944389,2278.45220030349,0.053143756191363835,0.11514480508128859,-0.1517394091253424,1386.8131868131868,-1.0,65.8234289731829,0.4391988737675103,
2023-08-16 13:54:19.872000,-7.734939759036145,1.6506024096385543,5.55421686746988,1.8491722869405272,-7.828939301042305,6.116492949110975,3.0,0.4388944388944389,2278.45220030349,-0.02191014509643891,0.07808402773731143,0.21665404113979372,1389.7435897435896,-1.0,65.8234289731829,0.43919584002227735,
2023-08-16 13:54:19.880000,-7.771084337349398,1.6506024096385543,5.530120481927711,1.8638871857755976,-7.735744941753525,6.118945432250153,3.0,0.4388944388944389,2278.45220030349,-0.06456500203950837,0.0896218169104368,0.1689878212225396,1390.4761904761904,-1.0,65.8234289731829,0.4391927542047191,
2023-08-16 13:54:19.887000,-7.746987951807229,1.6506024096385543,5.566265060240964,1.8908645003065603,-7.750459840588595,6.0919681177191904,3.0,0.4388944388944389,2278.45220030349,0.04382029019287956,0.359885787541519,-0.2151389779150398,1390.4761904761904,-1.0,65.8234289731829,0.4391896168931232,
2023-08-16 13:54:19.895000,-7.759036144578314,1.6506024096385543,5.542168674698796,1.9153893316983446,-7.767627222562845,6.12385039852851,3.0,0.4388944388944389,2278.45220030349,0.013752112347764738,0.2919410290775594,-0.07610279121263332,1389.7435897435896,-1.0,65.8234289731829,0.43918642879059494,
2023-08-16 13:54:19.903000,-7.771084337349398,1.6506024096385543,5.530120481927711,1.8982219497240955,-7.799509503372164,6.089515634580012,3.0,0.4388944388944389,2278.45220030349,-0.1545364489248877,0.3961307616106286,-0.15104014917545608,1390.4761904761904,-1.0,65.8234289731829,0.4391831908518963,
2023-08-16 13:54:19.910000,-7.759036144578314,1.63855421686747,5.506024096385542,1.9546290619251991,-7.733292458614347,6.028203556100552,3.0,0.4388944388944389,2278.45220030349,-0.016432608822329185,0.36023541751646154,-0.027620768020511614,1389.7435897435896,-1.0,65.8234289731829,0.4391799041332268,
2023-08-16 13:54:19.918000,-7.771084337349398,1.6506024096385543,5.530120481927711,1.8786020846106681,-7.794604537093807,6.082158185162477,3.0,0.4388944388944389,2278.45220030349,-0.29089213915273016,0.30895635452479453,-0.102208496008391,1389.0109890109889,-1.0,65.8234289731829,0.43917656979094966,
2023-08-16 13:54:19.926000,-7.771084337349398,1.6265060240963856,5.518072289156627,1.947271612507664,-7.76026977314531,6.0993255671367255,3.0,0.4388944388944389,2278.45220030349,0.1409008799021038,0.1658411514480514,-0.146961132801119,1387.5457875457876,-1.0,65.8234289731829,0.43917318907997704,
2023-08-16 13:54:19.933000,-7.771084337349398,1.6265060240963856,5.542168674698796,1.8933169834457386,-7.82158185162477,6.131207847946045,3.0,0.4388944388944389,2278.45220030349,0.12388555445486868,0.20721403181632816,0.11281393858166752,1385.3479853479853,-1.0,65.8234289731829,0.43916976335181823,
2023-08-16 13:54:19.941000,-7.759036144578314,1.6506024096385543,5.506024096385542,1.8982219497240955,-7.701410177805027,6.101778050275904,3.0,0.4388944388944389,2278.45220030349,-0.2569780315832408,-0.03892547054367401,-0.08775712371073952,1380.952380952381,-1.0,65.8234289731829,0.4391662940522996,
2023-08-16 13:54:19.949000,-7.759036144578314,1.63855421686747,5.506024096385542,1.8957694665849172,-7.76026977314531,6.074800735744941,3.0,0.4388944388944389,2278.45220030349,-0.2537148184837722,-0.038575840568731506,-0.08833984033564457,1375.8241758241757,-1.0,65.8234289731829,0.4391627827189624,
2023-08-16 13:54:19.956000,-7.72289156626506,1.63855421686747,5.542168674698796,1.8614347026364193,-7.772532188841201,6.104230533415082,3.0,0.4388944388944389,2278.45220030349,-0.12854728745411081,-0.11782530155585304,-0.07365538138803097,1373.6263736263736,-1.0,65.8234289731829,0.4391592309781525,
2023-08-16 13:54:19.964000,-7.771084337349398,1.6506024096385543,5.55421686746988,1.8957694665849172,-7.797057020232986,6.121397915389331,3.0,0.4388944388944389,2278.45220030349,0.054425732766156504,0.14311520307674316,-0.2872792960783173,1375.091575091575,-1.0,65.8234289731829,0.43915564054180856,
2023-08-16 13:54:19.972000,-7.734939759036145,1.6506024096385543,5.530120481927711,1.9399141630901287,-7.826486817903127,6.087063151440834,3.0,0.4388944388944389,2278.45220030349,0.191480682943884,0.20278538546704772,0.21816910436454764,1378.021978021978,-1.0,65.8234289731829,0.4391520132039684,
2023-08-16 13:54:19.979000,-7.734939759036145,1.6626506024096386,5.530120481927711,1.908031882280809,-7.735744941753525,6.096873083997547,3.0,0.4388944388944389,2278.45220030349,-0.14591224287628843,0.06258376551483068,0.09405046325971683,1382.4175824175823,-1.0,65.8234289731829,0.43914835097574983,
2023-08-16 13:54:19.987000,-7.759036144578314,1.6626506024096386,5.518072289156627,1.9055793991416308,-7.826486817903127,6.0453709380748,3.0,0.4388944388944389,2278.45220030349,0.06841093176388291,0.10791911893246285,0.09171959676009576,1387.5457875457876,-1.0,65.8234289731829,0.4391446559221997,
2023-08-16 13:54:19.995000,-7.746987951807229,1.6626506024096386,5.481927710843374,1.9104843654199877,-7.816676885346413,6.0919681177191904,3.0,0.4388944388944389,2278.45220030349,-0.08624206048598561,-0.04673387331740568,0.1062875123827281,1390.4761904761904,-1.0,65.8234289731829,0.43914093003041843,
2023-08-16 13:54:20.002000,-7.759036144578314,1.6265060240963856,5.542168674698796,1.8859595340282034,-7.801961986511342,6.087063151440834,3.0,0.4388944388944389,2278.45220030349,-0.04032399044344752,0.106054425732766,0.13938581667734987,1389.7435897435896,-1.0,65.8234289731829,0.43913717535417157,
2023-08-16 13:54:20.010000,-7.72289156626506,1.63855421686747,5.542168674698796,1.908031882280809,-7.789699570815451,6.082158185162477,3.0,0.4388944388944389,2278.45220030349,0.051395606316647816,0.04323757356797364,0.061068702290076333,1386.080586080586,-1.0,65.8234289731829,0.43913339400900797,
2023-08-16 13:54:20.018000,-7.759036144578314,1.63855421686747,5.518072289156627,1.8565297363580624,-7.797057020232986,6.0625383200490495,3.0,0.4388944388944389,2278.45220030349,-0.10057688945865627,0.08554280053609885,0.02960200454518974,1383.150183150183,-1.0,65.8234289731829,0.43912958816719366,
2023-08-16 13:54:20.025000,-7.771084337349398,1.63855421686747,5.518072289156627,1.8516247700797055,-7.6989576946658485,6.0698957694665845,3.0,0.4388944388944389,2278.45220030349,-0.2843657129537912,0.329934153021385,0.06025289901520874,1381.6849816849815,-1.0,65.8234289731829,0.43912576005248816,
2023-08-16 13:54:20.033000,-7.746987951807229,1.6265060240963856,5.530120481927711,1.8663396689147762,-7.792152053954629,6.118945432250153,3.0,0.4388944388944389,2278.45220030349,-0.08659169046092811,-0.08554280053609885,-0.01619952217236751,1382.4175824175823,-1.0,65.8234289731829,0.4391219119347872,
2023-08-16 13:54:20.041000,-7.746987951807229,1.63855421686747,5.518072289156627,1.8933169834457386,-7.750459840588595,6.082158185162477,3.0,0.4388944388944389,2278.45220030349,-0.10279121263329563,-0.14649495950119434,-0.13728803682769047,1383.150183150183,-1.0,65.8234289731829,0.43911804612465005,
2023-08-16 13:54:20.048000,-7.746987951807229,1.63855421686747,5.530120481927711,1.8344573881054567,-7.797057020232986,6.12385039852851,3.0,0.4388944388944389,2278.45220030349,0.020628168521647974,0.007225686148825746,0.19905599906765356,1383.150183150183,-1.0,65.8234289731829,0.43911416496773986,
2023-08-16 13:54:20.056000,-7.771084337349398,1.6506024096385543,5.493975903614458,1.8859595340282034,-7.762722256284488,6.0919681177191904,3.0,0.4388944388944389,2278.45220030349,-0.010721985898257782,-0.0055940795990905645,0.04731658994231116,1382.4175824175823,-1.0,65.8234289731829,0.4391102708392005,
2023-08-16 13:54:20.064000,-7.746987951807229,1.6506024096385543,5.506024096385542,1.8810545677498467,-7.750459840588595,6.0919681177191904,3.0,0.4388944388944389,2278.45220030349,-0.17970980712079695,-0.036128430744128734,0.18413845347007743,1379.4871794871794,-1.0,65.8234289731829,0.4391063661379906,
2023-08-16 13:54:20.071000,-7.759036144578314,1.63855421686747,5.518072289156627,1.8982219497240955,-7.716125076640098,6.111587982832618,3.0,0.4388944388944389,2278.45220030349,-0.2559291416584115,0.04183905366820187,0.18402191014509658,1378.7545787545787,-1.0,65.8234289731829,0.43910245328120234,
2023-08-16 13:54:20.079000,-7.771084337349398,1.6626506024096386,5.506024096385542,1.9325567136725934,-7.765174739423666,6.028203556100552,3.0,0.4388944388944389,2278.45220030349,0.17329992424683882,0.21094341821572188,-0.12143814463026635,1380.2197802197802,-1.0,65.8234289731829,0.43909853469838667,
2023-08-16 13:54:20.087000,-7.746987951807229,1.6506024096385543,5.530120481927711,1.888412017167382,-7.767627222562845,6.082158185162477,3.0,0.4388944388944389,2278.45220030349,0.01794767204708353,0.027853854670473722,0.0,1382.4175824175823,-1.0,65.8234289731829,0.4390946128259076,
2023-08-16 13:54:20.094000,-7.759036144578314,1.6265060240963856,5.506024096385542,1.8491722869405272,-7.809319435928877,6.082158185162477,3.0,0.4388944388944389,2278.45220030349,0.24567332906007885,0.16525843482314548,-0.030417807820056895,1384.6153846153845,-1.0,65.8234289731829,0.4390906901013512,
2023-08-16 13:54:20.102000,-7.771084337349398,1.63855421686747,5.506024096385542,1.9006744328632739,-7.789699570815451,6.042918454935622,3.0,0.4388944388944389,2278.45220030349,0.2132742847153421,0.2097779849659118,0.01561680554746246,1387.5457875457876,-1.0,65.8234289731829,0.4390867689580087,
2023-08-16 13:54:20.109000,-7.759036144578314,1.6144578313253013,5.530120481927711,1.8810545677498467,-7.838749233599018,6.121397915389331,3.0,0.4388944388944389,2278.45220030349,-0.1699201678223876,-0.09719713303420506,-0.2750422469553056,1390.4761904761904,-1.0,65.8234289731829,0.439082851819456,
2023-08-16 13:54:20.117000,-7.807228915662651,1.6265060240963856,5.506024096385542,1.8491722869405272,-7.806866952789699,6.138565297363581,3.0,0.4388944388944389,2278.45220030349,-0.16968708117242592,-0.036478060719072974,0.10698677233261486,1394.8717948717947,-1.0,65.8234289731829,0.4390789410942518,
2023-08-16 13:54:20.125000,-7.759036144578314,1.6144578313253013,5.530120481927711,1.8663396689147762,-7.814224402207234,6.0772532188841195,3.0,0.4384504384504386,2280.7594936708856,0.18507080006992585,-0.3111706776994339,0.10640405570770937,1398.5347985347985,-1.0,65.8234289731829,0.4390750391707713,
2023-08-16 13:54:20.132000,-7.746987951807229,1.6506024096385543,5.518072289156627,1.9840588595953401,-7.762722256284488,6.023298589822194,3.0,0.4388944388944389,2278.45220030349,0.23180467338733154,-0.32422353009731364,0.06001981236524664,1401.4652014652013,-1.0,65.8234289731829,0.4390711484016534,
2023-08-16 13:54:20.140000,-7.746987951807229,1.674698795180723,5.530120481927711,1.942366646229307,-7.779889638258736,6.096873083997547,3.0,0.4388944388944389,2278.45220030349,0.2918244857525786,0.05990326904026623,0.05815511916554978,1400.0,-1.0,65.8234289731829,0.43906727106725374,
2023-08-16 13:54:20.148000,-7.734939759036145,1.674698795180723,5.530120481927711,1.9251992642550582,-7.740649908031882,6.0993255671367255,3.0,0.4388944388944389,2278.45220030349,0.27527533360526857,-0.06293339548977318,-0.09416700658469768,1397.8021978021977,-1.0,65.8234289731829,0.4390634094023239,
2023-08-16 13:54:20.155000,-7.72289156626506,1.6506024096385543,5.542168674698796,1.9570815450643775,-7.752912323727774,6.0993255671367255,3.0,0.4388944388944389,2278.45220030349,-0.10990035545714054,0.04580152671755725,-0.18402191014509658,1390.4761904761904,-1.0,65.8234289731829,0.4390595656017333,
2023-08-16 13:54:20.163000,-7.746987951807229,1.6626506024096386,5.55421686746988,1.883507050889025,-7.799509503372164,6.0772532188841195,3.0,0.4388944388944389,2278.45220030349,-0.6265369150981883,0.30720820465007853,-0.0146844589476136,1382.4175824175823,-1.0,65.8234289731829,0.4390557418158773,
2023-08-16 13:54:20.171000,-7.746987951807229,1.63855421686747,5.530120481927711,1.8786020846106681,-7.75781729000613,6.1287553648068664,3.0,0.4388944388944389,2278.45220030349,-0.22399627061359986,0.09206922673503957,-0.34881417166831785,1375.8241758241757,-1.0,65.8234289731829,0.4390519401463292,
2023-08-16 13:54:20.178000,-7.759036144578314,1.6265060240963856,5.542168674698796,1.8344573881054567,-7.848559166155733,6.079705702023298,3.0,0.4388944388944389,2278.45220030349,0.14404754967659159,0.06339956878969827,-0.05559116601596661,1368.4981684981683,-1.0,65.8234289731829,0.43904816264175306,
2023-08-16 13:54:20.186000,-7.795180722891566,1.6265060240963856,5.518072289156627,1.8442673206621703,-7.779889638258736,6.121397915389331,3.0,0.4388944388944389,2278.45220030349,-0.024241011596060846,0.20255229881708603,-0.16246139502360019,1361.904761904762,-1.0,65.8234289731829,0.43904441129409494,
2023-08-16 13:54:20.194000,-7.771084337349398,1.63855421686747,5.506024096385542,1.8687921520539545,-7.811771919068056,6.042918454935622,3.0,0.4388944388944389,2278.45220030349,0.2508012353592443,0.3090728978497754,0.3580210943418217,1357.5091575091574,-1.0,65.8234289731829,0.43904068803505686,
2023-08-16 13:54:20.201000,-7.771084337349398,1.63855421686747,5.506024096385542,1.908031882280809,-7.797057020232986,6.057633353770693,3.0,0.4388944388944389,2278.45220030349,0.12679913757939482,0.12341938115494361,-0.23844764291125223,1359.7069597069597,-1.0,65.8234289731829,0.4390369947328725,
2023-08-16 13:54:20.209000,-7.771084337349398,1.6265060240963856,5.518072289156627,1.888412017167382,-7.794604537093807,6.0551808706315144,3.0,0.4388944388944389,2278.45220030349,0.5506672105355163,-0.07563661791270866,-0.04032399044344752,1363.3699633699632,-1.0,65.8234289731829,0.439033333189388,
2023-08-16 13:54:20.217000,-7.746987951807229,1.63855421686747,5.506024096385542,1.8687921520539545,-7.787247087676271,6.084610668301655,3.0,0.4388944388944389,2278.45220030349,0.45183847095157603,0.13717149350271007,0.06608006526426184,1368.4981684981683,-1.0,65.8234289731829,0.43902970513745565,
2023-08-16 13:54:20.224000,-7.759036144578314,1.63855421686747,5.518072289156627,1.8761496014714898,-7.784794604537093,6.1066830165542605,3.0,0.4388944388944389,2278.45220030349,0.44915797447701156,0.13472408367810731,0.0657304352893189,1371.4285714285713,-1.0,65.8234289731829,0.439026112238649,
2023-08-16 13:54:20.232000,-7.783132530120482,1.6626506024096386,5.518072289156627,1.888412017167382,-7.792152053954629,6.0625383200490495,3.0,0.4388944388944389,2278.45220030349,0.16945399452246426,-0.2206165141891504,0.2617563079074646,1374.3589743589744,-1.0,65.8234289731829,0.4390225560812963,
2023-08-16 13:54:20.240000,-7.759036144578314,1.6626506024096386,5.530120481927711,1.9325567136725934,-7.83629675045984,6.0993255671367255,3.0,0.4388944388944389,2278.45220030349,-0.09067070683526607,0.18926635976924464,0.3502126915680905,1378.021978021978,-1.0,65.8234289731829,0.4390190381788415,
2023-08-16 13:54:20.247000,-7.759036144578314,1.63855421686747,5.506024096385542,1.888412017167382,-7.767627222562845,6.0453709380748,3.0,0.4388944388944389,2278.45220030349,-0.1505739758755323,-0.2425266592855893,0.11934036478060739,1382.4175824175823,934.50927734375,64.20482006400627,0.43901555996852565,
2023-08-16 13:54:20.255000,-7.746987951807229,1.63855421686747,5.530120481927711,1.930104230533415,-7.748007357449417,6.067443286327406,3.0,0.4388944388944389,2278.45220030349,0.033564477594545124,-0.2900763358778626,0.11922382145562611,1388.278388278388,-1.0,64.20482006400627,0.439012122810391,
2023-08-16 13:54:20.263000,-7.746987951807229,1.6506024096385543,5.493975903614458,1.8565297363580624,-7.770079705702023,6.1066830165542605,3.0,0.4388944388944389,2278.45220030349,0.15721694539945213,8.15803274867591E-4,0.012470135772973802,1393.4065934065934,-1.0,64.20482006400627,0.43900872798660295,
2023-08-16 13:54:20.270000,-7.746987951807229,1.6506024096385543,5.530120481927711,1.930104230533415,-7.76026977314531,6.094420600858369,3.0,0.4388944388944389,2278.45220030349,-0.12062234135539832,-0.0916030534351145,0.16712312802284232,1400.0,-1.0,64.20482006400627,0.4390053767010829,
2023-08-16 13:54:20.278000,-7.771084337349398,1.6626506024096386,5.518072289156627,1.8957694665849172,-7.792152053954629,6.0993255671367255,3.0,0.4384504384504386,2280.7594936708856,0.32165957694773,0.12178777460521016,0.42573276615581834,1408.7912087912086,-1.0,64.20482006400627,0.4390020700794467,
2023-08-16 13:54:20.286000,-7.759036144578314,1.6506024096385543,5.518072289156627,1.9104843654199877,-7.728387492335989,6.060085836909871,3.0,0.4388944388944389,2278.45220030349,-0.16933745119748342,-0.047433133267292434,0.2531321018588658,1419.7802197802198,-1.0,64.20482006400627,0.43899880915869477,
2023-08-16 13:54:20.293000,-7.734939759036145,1.6265060240963856,5.518072289156627,1.9325567136725934,-7.75781729000613,6.111587982832618,3.0,0.4388944388944389,2278.45220030349,0.13507371365304982,0.029368917895228067,-0.194394266068411,1429.3040293040292,-1.0,64.20482006400627,0.43899559499477114,
2023-08-16 13:54:20.301000,-7.771084337349398,1.6265060240963856,5.518072289156627,1.8638871857755976,-7.799509503372164,6.094420600858369,3.0,0.4388944388944389,2278.45220030349,0.16385991492337196,0.21222539479051283,-0.22679331041314602,1438.8278388278388,-1.0,64.20482006400627,0.4389924285355525,
2023-08-16 13:54:20.309000,-7.746987951807229,1.6265060240963856,5.530120481927711,1.9153893316983446,-7.797057020232986,6.079705702023298,3.0,0.4388944388944389,2278.45220030349,0.28669657945341137,0.04428646349280291,-0.10349047258318282,1446.153846153846,-1.0,64.20482006400627,0.4389893105044523,
2023-08-16 13:54:20.316000,-7.759036144578314,1.6265060240963856,5.518072289156627,1.8982219497240955,-7.809319435928877,6.052728387492336,3.0,0.4388944388944389,2278.45220030349,0.29939980187634685,0.07353883806305013,-0.08799021036070162,1452.7472527472526,-1.0,64.20482006400627,0.4389862415504484,
2023-08-16 13:54:20.324000,-7.759036144578314,1.63855421686747,5.518072289156627,1.8712446351931329,-7.801961986511342,6.143470263641937,3.0,0.4388944388944389,2278.45220030349,0.26793310413146026,0.025522988170851784,0.03542917079424284,1459.3406593406592,-1.0,64.20482006400627,0.4389832222490585,
2023-08-16 13:54:20.332000,-7.759036144578314,1.6506024096385543,5.530120481927711,1.9448191293684856,-7.806866952789699,6.094420600858369,3.0,0.4388944388944389,2278.45220030349,0.07027562496357977,-0.0983625662840169,-0.041839053668201,1466.6666666666665,-1.0,64.20482006400627,0.4389802531035537,
2023-08-16 13:54:20.339000,-7.795180722891566,1.6506024096385543,5.493975903614458,1.9276517473942365,-7.767627222562845,6.089515634580012,3.0,0.4388944388944389,2278.45220030349,0.31769710389837463,0.008158032748674174,-0.039624730493560766,1473.260073260073,-1.0,64.20482006400627,0.43897733454639665,
2023-08-16 13:54:20.347000,-7.746987951807229,1.6626506024096386,5.542168674698796,1.883507050889025,-7.728387492335989,6.082158185162477,3.0,0.4388944388944389,2278.45220030349,0.026804964745644456,0.05069634636676106,0.16152904842375132,1478.3882783882782,-1.0,64.20482006400627,0.4389744669408934,
2023-08-16 13:54:20.355000,-7.746987951807229,1.6626506024096386,5.530120481927711,1.9006744328632739,-7.782342121397915,6.0993255671367255,3.0,0.4388944388944389,2278.45220030349,-0.17201794767204787,-0.3934502651360641,0.544024241011596,1479.8534798534797,-1.0,64.20482006400627,0.43897165058304244,
2023-08-16 13:54:20.362000,-7.734939759036145,1.6506024096385543,5.530120481927711,2.0036787247087675,-7.777437155119558,6.042918454935622,3.0,0.4388944388944389,2278.45220030349,-0.3238739001223711,-0.07179068818833412,0.4349396888293222,1476.923076923077,-1.0,64.20482006400627,0.438968885703575,
2023-08-16 13:54:20.370000,-7.746987951807229,1.6506024096385543,5.530120481927711,1.883507050889025,-7.765174739423666,6.087063151440834,3.0,0.4388944388944389,2278.45220030349,-0.6285181516228661,-0.3185129071732422,-0.08787366703572036,1472.5274725274724,-1.0,64.20482006400627,0.43896617247016456,
2023-08-16 13:54:20.378000,-7.734939759036145,1.6626506024096386,5.542168674698796,1.8565297363580624,-7.82158185162477,6.094420600858369,3.0,0.4388944388944389,2278.45220030349,-0.31804673387331717,0.07901637433715986,-0.1017423227084668,1464.4688644688645,-1.0,64.20482006400627,0.4389635111285441,
2023-08-16 13:54:20.385000,-7.759036144578314,1.6506024096385543,5.493975903614458,1.8859595340282034,-7.750459840588595,6.094420600858369,3.0,0.4388944388944389,2278.45220030349,-0.33273119282093033,0.2628051978322948,0.15861546529922477,1454.212454212454,-1.0,64.20482006400627,0.43896090184588643,
2023-08-16 13:54:20.393000,-7.746987951807229,1.6506024096385543,5.518072289156627,1.8320049049662783,-7.74310239117106,6.126302881667688,3.0,0.4388944388944389,2278.45220030349,-0.20849600839111912,-0.1960258726181453,-0.2849484295786958,1445.4212454212454,-1.0,64.20482006400627,0.4389583445858257,
2023-08-16 13:54:20.401000,-7.771084337349398,1.63855421686747,5.530120481927711,1.8467198038013488,-7.730839975475168,6.104230533415082,3.0,0.4388944388944389,2278.45220030349,-0.3898374220616513,0.033914107569489364,-0.23588368976166904,1438.8278388278388,-1.0,64.20482006400627,0.43895583939904675,
2023-08-16 13:54:20.408000,-7.771084337349398,1.63855421686747,5.506024096385542,1.858982219497241,-7.770079705702023,6.084610668301655,3.0,0.4388944388944389,2278.45220030349,-0.2644368043820282,0.5063807470427134,-0.15663422877454708,1430.7692307692307,-1.0,64.20482006400627,0.4389533862667951,
2023-08-16 13:54:20.416000,-7.72289156626506,1.6506024096385543,5.506024096385542,1.8859595340282034,-7.819129368485592,6.087063151440834,3.0,0.4384504384504386,2280.7594936708856,-0.12540061767962304,0.09311811665986884,-0.44566167472757995,1422.7106227106226,-1.0,64.20482006400627,0.4389509849759792,
2023-08-16 13:54:20.424000,-7.759036144578314,1.63855421686747,5.506024096385542,1.9325567136725934,-7.762722256284488,6.087063151440834,3.0,0.4388944388944389,2278.45220030349,-0.26082396130761537,0.21851873433949015,0.21350737136530507,1416.117216117216,-1.0,64.20482006400627,0.4389486351217518,
2023-08-16 13:54:20.431000,-7.710843373493976,1.63855421686747,5.518072289156627,1.8957694665849172,-7.740649908031882,6.141017780502759,3.0,0.4384504384504386,2280.7594936708856,-0.2104772449157968,0.15756657537439464,-0.26105704795757834,1410.989010989011,-1.0,64.20482006400627,0.4389463362375582,
2023-08-16 13:54:20.439000,-7.734939759036145,1.63855421686747,5.530120481927711,1.8761496014714898,-7.828939301042305,6.111587982832618,3.0,0.4384504384504386,2280.7594936708856,-0.16176213507371343,0.035196084144280305,-0.04510226676767093,1405.8608058608058,-1.0,64.20482006400627,0.4389440879461938,
2023-08-16 13:54:20.447000,-7.759036144578314,1.6265060240963856,5.542168674698796,1.8933169834457386,-7.765174739423666,6.050275904353157,3.0,0.4388944388944389,2278.45220030349,-0.006293339548977319,0.2505681487092827,-0.1502243459005885,1399.2673992673992,-1.0,64.20482006400627,0.4389418896425541,
2023-08-16 13:54:20.454000,-7.771084337349398,1.63855421686747,5.493975903614458,1.8687921520539545,-7.804414469650521,6.084610668301655,3.0,0.4388944388944389,2278.45220030349,0.058388205815511886,0.06386574208962162,0.11106578870695194,1395.6043956043954,-1.0,64.20482006400627,0.4389397406548994,
2023-08-16 13:54:20.462000,-7.759036144578314,1.63855421686747,5.493975903614458,1.9791538933169834,-7.75781729000613,6.028203556100552,3.0,0.4388944388944389,2278.45220030349,0.19590932929316449,0.1982401957927864,0.14218285647689516,1394.8717948717947,-1.0,64.20482006400627,0.4389376404164896,
2023-08-16 13:54:20.470000,-7.746987951807229,1.63855421686747,5.493975903614458,1.883507050889025,-7.83629675045984,6.072348252605763,3.0,0.4388944388944389,2278.45220030349,0.11922382145562654,0.19765747916788048,0.052327952916496674,1394.139194139194,-1.0,64.20482006400627,0.4389355883288082,
2023-08-16 13:54:20.477000,-7.746987951807229,1.6867469879518073,5.506024096385542,1.917841814837523,-7.777437155119558,6.074800735744941,3.0,0.4388944388944389,2278.45220030349,0.07097488491346653,-0.18716857991958438,0.22201503408892262,1394.139194139194,-1.0,64.20482006400627,0.43893358376355374,
2023-08-16 13:54:20.485000,-7.734939759036145,1.674698795180723,5.506024096385542,1.8344573881054567,-7.745554874310239,6.0772532188841195,3.0,0.4388944388944389,2278.45220030349,0.05244449624147708,-0.016082978847386676,0.006293339548977319,1394.8717948717947,-1.0,64.20482006400627,0.43893162606463887,
2023-08-16 13:54:20.492000,-7.734939759036145,1.6626506024096386,5.530120481927711,1.9227467811158798,-7.745554874310239,6.0404659717964435,3.0,0.4388944388944389,2278.45220030349,0.4468271079773914,-0.04603461336751892,-0.03927510051861782,1395.6043956043954,-1.0,64.20482006400627,0.43892971455019797,
2023-08-16 13:54:20.500000,-7.759036144578314,1.6506024096385543,5.530120481927711,1.9031269160024524,-7.730839975475168,6.148375229920294,3.0,0.4388944388944389,2278.45220030349,-0.06246722218984984,-0.10803566225744368,0.09871219625895941,1395.6043956043954,-1.0,64.20482006400627,0.43892784851460276,
2023-08-16 13:54:20.508000,-7.759036144578314,1.674698795180723,5.542168674698796,1.8859595340282034,-7.750459840588595,6.111587982832618,3.0,0.4388944388944389,2278.45220030349,-0.06304993881475403,-0.10815220558242453,0.09812947963405393,1391.9413919413919,-1.0,64.20482006400627,0.43892602723048,
2023-08-16 13:54:20.515000,-7.759036144578314,1.6506024096385543,5.518072289156627,1.883507050889025,-7.841201716738197,6.143470263641937,3.0,0.4388944388944389,2278.45220030349,0.1661907814229939,-0.06130178894003801,-0.10209195268341018,1390.4761904761904,-1.0,64.20482006400627,0.4389242499507332,
2023-08-16 13:54:20.523000,-7.759036144578314,1.63855421686747,5.542168674698796,1.8982219497240955,-7.784794604537093,6.114040465971796,3.0,0.4388944388944389,2278.45220030349,0.13204358720354287,0.03274867431967753,-0.2700308839811201,1389.7435897435896,-1.0,64.20482006400627,0.4389225159105623,
2023-08-16 13:54:20.531000,-7.783132530120482,1.63855421686747,5.530120481927711,1.9251992642550582,-7.797057020232986,6.158185162477007,3.0,0.4388944388944389,2278.45220030349,-0.06794475846395957,-0.28576423285356295,0.03799312394382602,1388.278388278388,-1.0,64.20482006400627,0.4389208243294834,
2023-08-16 13:54:20.538000,-7.746987951807229,1.6265060240963856,5.530120481927711,1.9104843654199877,-7.797057020232986,6.067443286327406,3.0,0.4388944388944389,2278.45220030349,-0.15896509527416816,0.6017131868772215,-0.05477536274109902,1386.080586080586,-1.0,64.20482006400627,0.43891917441334377,
2023-08-16 13:54:20.546000,-7.771084337349398,1.63855421686747,5.518072289156627,1.9399141630901287,-7.806866952789699,6.082158185162477,3.0,0.4388944388944389,2278.45220030349,0.17574733407144158,0.2918244857525786,-0.08461045393625086,1387.5457875457876,-1.0,64.20482006400627,0.43891756535633086,
2023-08-16 13:54:20.554000,-7.746987951807229,1.63855421686747,5.481927710843374,1.8172900061312078,-7.779889638258736,6.094420600858369,3.0,0.4388944388944389,2278.45220030349,0.09719713303420506,0.16922090787250085,-0.146961132801119,1390.4761904761904,-1.0,64.20482006400627,0.43891599634297745,
2023-08-16 13:54:20.561000,-7.746987951807229,1.63855421686747,5.518072289156627,1.8810545677498467,-7.784794604537093,6.0478234212139785,3.0,0.4388944388944389,2278.45220030349,-0.1642095448983162,0.029485461220208904,-0.00850766272361755,1394.139194139194,-1.0,64.20482006400627,0.4389144666889027,
2023-08-16 13:54:20.569000,-7.759036144578314,1.63855421686747,5.530120481927711,1.8663396689147762,-7.809319435928877,6.104230533415082,3.0,0.4388944388944389,2278.45220030349,0.09626478643435664,0.5942544140784342,-0.28331682302896105,1396.3369963369962,-1.0,64.20482006400627,0.4389129756836672,
2023-08-16 13:54:20.577000,-7.771084337349398,1.6265060240963856,5.518072289156627,1.9399141630901287,-7.794604537093807,6.084610668301655,3.0,0.4388944388944389,2278.45220030349,-0.4098828739583933,-0.24998543208437674,-0.06666278188916733,1398.5347985347985,-1.0,64.20482006400627,0.43891152246513027,
2023-08-16 13:54:20.584000,-7.783132530120482,1.63855421686747,5.493975903614458,1.9202942979767013,-7.784794604537093,6.035561005518087,3.0,0.4384504384504386,2280.7594936708856,0.3265543965969356,0.2552298817085248,-0.14288211642678147,1399.2673992673992,-1.0,64.20482006400627,0.43891010617050213,
2023-08-16 13:54:20.592000,-7.759036144578314,1.63855421686747,5.481927710843374,1.8859595340282034,-7.814224402207234,6.067443286327406,3.0,0.4388944388944389,2278.45220030349,0.09591515645941413,-0.32760328652176485,-0.32527242002214335,1398.5347985347985,-1.0,64.20482006400627,0.4389087259275413,
2023-08-16 13:54:20.600000,-7.746987951807229,1.6506024096385543,5.481927710843374,1.8712446351931329,-7.828939301042305,6.0919681177191904,3.0,0.4384504384504386,2280.7594936708856,0.2939222656022371,-0.14369791970164908,-0.04801584989219748,1397.8021978021977,-1.0,64.20482006400627,0.43890738096331905,
2023-08-16 13:54:20.607000,-7.759036144578314,1.6265060240963856,5.518072289156627,1.930104230533415,-7.792152053954629,6.079705702023298,3.0,0.4388944388944389,2278.45220030349,0.18448808344501993,-0.02191014509643891,0.08799021036070162,1399.2673992673992,-1.0,64.20482006400627,0.4389060703288311,
2023-08-16 13:54:20.615000,-7.734939759036145,1.6506024096385543,5.506024096385542,1.888412017167382,-7.711220110361741,6.104230533415082,3.0,0.4388944388944389,2278.45220030349,0.06270030883981152,-0.12924654740399757,0.11794184488083431,1402.197802197802,-1.0,64.20482006400627,0.4389047930494068,
2023-08-16 13:54:20.623000,-7.759036144578314,1.63855421686747,5.518072289156627,1.9055793991416308,-7.765174739423666,6.0551808706315144,3.0,0.4388944388944389,2278.45220030349,-0.08729095041081487,-0.40452188100926445,-0.09533243983450865,1402.197802197802,-1.0,64.20482006400627,0.4389035482749165,
2023-08-16 13:54:20.630000,-7.746987951807229,1.6506024096385543,5.518072289156627,1.8859595340282034,-7.755364806866952,6.1361128142244015,3.0,0.4388944388944389,2278.45220030349,0.04941436979197012,-0.26560223763184004,0.11945690810558822,1402.9304029304028,-1.0,64.20482006400627,0.43890233501432857,
2023-08-16 13:54:20.638000,-7.746987951807229,1.6506024096385543,5.530120481927711,1.8982219497240955,-7.77498467198038,6.0404659717964435,3.0,0.4388944388944389,2278.45220030349,0.0961482431093758,-0.18821746984441537,0.04335411689295491,1403.6630036630036,-1.0,64.20482006400627,0.4389011522857317,
2023-08-16 13:54:20.646000,-7.759036144578314,1.6506024096385543,5.506024096385542,1.8467198038013488,-7.740649908031882,6.084610668301655,3.0,0.4388944388944389,2278.45220030349,0.1256337043295847,-0.2016199522172376,-0.10920109550725465,1403.6630036630036,-1.0,64.20482006400627,0.438899999117086,
2023-08-16 13:54:20.653000,-7.759036144578314,1.6506024096385543,5.518072289156627,1.888412017167382,-7.858369098712446,6.096873083997547,3.0,0.4388944388944389,2278.45220030349,0.2312219567624256,-0.30767437795000363,-0.18413845347007743,1404.3956043956043,-1.0,64.20482006400627,0.43889887454699983,
2023-08-16 13:54:20.661000,-7.759036144578314,1.6626506024096386,5.530120481927711,1.9006744328632739,-7.804414469650521,6.082158185162477,3.0,0.4388944388944389,2278.45220030349,0.16747275799778483,-0.032049414369792514,-0.15255521240020956,1405.128205128205,-1.0,64.20482006400627,0.4388977776255441,
2023-08-16 13:54:20.669000,-7.759036144578314,1.6506024096385543,5.530120481927711,1.8736971183323115,-7.787247087676271,6.131207847946045,3.0,0.4388944388944389,2278.45220030349,-0.032632130994696695,0.1355398869529749,-0.13670532020278542,1402.9304029304028,-1.0,64.20482006400627,0.43889670741510806,
2023-08-16 13:54:20.676000,-7.734939759036145,1.6506024096385543,5.518072289156627,1.8295524218270998,-7.799509503372164,6.0257510729613735,3.0,0.4388944388944389,2278.45220030349,0.030184721170095657,0.1497581726006647,0.03181632771982997,1400.7326007326005,-1.0,64.20482006400627,0.4388956631300585,
2023-08-16 13:54:20.684000,-7.759036144578314,1.674698795180723,5.530120481927711,1.8393623543838136,-7.801961986511342,6.116492949110975,3.0,0.4388944388944389,2278.45220030349,-0.10593788240778515,0.11805838820581471,0.031117067769943652,1397.069597069597,-1.0,64.20482006400627,0.4388946439785742,
2023-08-16 13:54:20.692000,-7.759036144578314,1.6506024096385543,5.493975903614458,1.9276517473942365,-7.782342121397915,6.12385039852851,3.0,0.4388944388944389,2278.45220030349,-0.10698677233261442,0.1052386224578984,-0.13740458015267176,1394.8717948717947,-1.0,64.20482006400627,0.43889364903605754,
2023-08-16 13:54:20.699000,-7.759036144578314,1.6506024096385543,5.506024096385542,1.9031269160024524,-7.824034334763948,6.0036787247087675,3.0,0.4388944388944389,2278.45220030349,-0.01200396247304872,-0.17225103432200956,0.13670532020278542,1393.4065934065934,-1.0,64.20482006400627,0.43889267753407046,
2023-08-16 13:54:20.707000,-7.759036144578314,1.63855421686747,5.518072289156627,1.854077253218884,-7.787247087676271,6.0993255671367255,3.0,0.4384504384504386,2280.7594936708856,0.1562845987996037,0.13309247712837213,-0.24648913233494557,1394.8717948717947,-1.0,64.20482006400627,0.4388917288409135,
2023-08-16 13:54:20.715000,-7.771084337349398,1.6506024096385543,5.506024096385542,1.9276517473942365,-7.819129368485592,6.057633353770693,3.0,0.4388944388944389,2278.45220030349,-0.13484062700308813,-0.06759512848901532,0.27469261698036224,1396.3369963369962,-1.0,64.20482006400627,0.4388908020266212,
2023-08-16 13:54:20.722000,-7.759036144578314,1.6626506024096386,5.530120481927711,1.9055793991416308,-7.794604537093807,6.060085836909871,3.0,0.4388944388944389,2278.45220030349,0.23250393333721828,-0.1305285239787885,0.28961016257793837,1397.8021978021977,-1.0,64.20482006400627,0.43888989601296596,
2023-08-16 13:54:20.730000,-7.759036144578314,1.6265060240963856,5.542168674698796,1.888412017167382,-7.826486817903127,6.0625383200490495,3.0,0.4388944388944389,2278.45220030349,0.1523221257502483,-0.05617388264087252,-0.2179360177145855,1397.8021978021977,-1.0,64.20482006400627,0.43888900988247387,
2023-08-16 13:54:20.738000,-7.746987951807229,1.63855421686747,5.542168674698796,1.9276517473942365,-7.814224402207234,6.114040465971796,3.0,0.4384504384504386,2280.7594936708856,0.0759862478876529,-0.19509352601829688,-0.019928908571761654,1396.3369963369962,-1.0,64.20482006400627,0.4388881427403509,
2023-08-16 13:54:20.745000,-7.746987951807229,1.63855421686747,5.518072289156627,1.9031269160024524,-7.730839975475168,6.114040465971796,3.0,0.4384504384504386,2280.7594936708856,-0.029485461220208904,-0.2101276149408543,-0.0031466697744886593,1393.4065934065934,-1.0,64.20482006400627,0.4388872937047033,
2023-08-16 13:54:20.753000,-7.759036144578314,1.6506024096385543,5.530120481927711,1.912936848559166,-7.816676885346413,6.094420600858369,3.0,0.4384504384504386,2280.7594936708856,-0.08868947031058838,0.034380280869412715,0.08647514713594771,1389.7435897435896,-1.0,64.20482006400627,0.43888646186514085,
2023-08-16 13:54:20.761000,-7.759036144578314,1.63855421686747,5.530120481927711,1.8810545677498467,-7.762722256284488,6.153280196198651,3.0,0.4384504384504386,2280.7594936708856,-0.1786609171959677,0.33855835906998427,-0.03566225744420495,1385.3479853479853,-1.0,64.20482006400627,0.43888564613404996,
2023-08-16 13:54:20.768000,-7.759036144578314,1.6265060240963856,5.530120481927711,1.8957694665849172,-7.733292458614347,6.0919681177191904,3.0,0.4388944388944389,2278.45220030349,-0.1305285239787885,-0.20057106229240662,0.03974127381854204,1381.6849816849815,-1.0,64.20482006400627,0.43888484540600325,
2023-08-16 13:54:20.776000,-7.746987951807229,1.63855421686747,5.55421686746988,1.9202942979767013,-7.733292458614347,6.079705702023298,3.0,0.4388944388944389,2278.45220030349,-0.14393100635161074,-0.3835440825126739,-0.14393100635161118,1382.4175824175823,-1.0,64.20482006400627,0.4388840586959214,
2023-08-16 13:54:20.784000,-7.759036144578314,1.6506024096385543,5.566265060240964,1.8442673206621703,-7.765174739423666,6.082158185162477,3.0,0.4388944388944389,2278.45220030349,-0.14276557310180063,-0.3798146961132802,-0.14020161995221703,1386.8131868131868,-1.0,64.20482006400627,0.4388832850319719,
2023-08-16 13:54:20.791000,-7.746987951807229,1.6626506024096386,5.506024096385542,1.917841814837523,-7.833844267320662,6.1066830165542605,3.0,0.4388944388944389,2278.45220030349,0.13320902045335295,0.09708058970922423,0.13507371365305068,1391.9413919413919,-1.0,64.20482006400627,0.4388825234661826,
2023-08-16 13:54:20.799000,-7.746987951807229,1.6506024096385543,5.530120481927711,1.8810545677498467,-7.782342121397915,6.0772532188841195,3.0,0.4384504384504386,2280.7594936708856,0.16397645824835452,0.09661441640930088,-0.004661732999242571,1395.6043956043954,-1.0,64.20482006400627,0.43888177321340976,
2023-08-16 13:54:20.807000,-7.783132530120482,1.6506024096385543,5.530120481927711,1.883507050889025,-7.77498467198038,6.079705702023298,3.0,0.4388944388944389,2278.45220030349,-0.187984383194452,0.12679913757939482,-0.43202610570479566,1397.069597069597,-1.0,64.20482006400627,0.4388810333432848,
2023-08-16 13:54:20.814000,-7.771084337349398,1.63855421686747,5.518072289156627,1.8663396689147762,-7.745554874310239,6.028203556100552,3.0,0.4388944388944389,2278.45220030349,0.08752403706077655,0.06619660858924355,0.1666569547229181,1397.069597069597,-1.0,64.20482006400627,0.43888030278055057,
2023-08-16 13:54:20.822000,-7.746987951807229,1.63855421686747,5.530120481927711,1.9055793991416308,-7.779889638258736,6.079705702023298,3.0,0.4388944388944389,2278.45220030349,0.11759221490589136,0.24893654215954747,0.026921508070625294,1398.5347985347985,-1.0,64.20482006400627,0.4388795806137918,
2023-08-16 13:54:20.830000,-7.759036144578314,1.6265060240963856,5.518072289156627,1.8663396689147762,-7.819129368485592,6.126302881667688,3.0,0.4388944388944389,2278.45220030349,-0.12913000407901673,0.41559349688246644,-0.2040673620418391,1401.4652014652013,-1.0,64.20482006400627,0.43887886595716746,
2023-08-16 13:54:20.837000,-7.759036144578314,1.63855421686747,5.493975903614458,1.8761496014714898,-7.74310239117106,6.087063151440834,3.0,0.4388944388944389,2278.45220030349,-0.08402773731134625,-0.048248936542160024,-0.14043470660217913,1402.9304029304028,-1.0,64.20482006400627,0.43887815795107266,
2023-08-16 13:54:20.845000,-7.771084337349398,1.6506024096385543,5.518072289156627,1.883507050889025,-7.792152053954629,6.0993255671367255,3.0,0.4388944388944389,2278.45220030349,-0.024590641571003356,0.011188159198181129,-0.24648913233494557,1403.6630036630036,-1.0,64.20482006400627,0.43887745576298254,
2023-08-16 13:54:20.853000,-7.759036144578314,1.63855421686747,5.506024096385542,1.8663396689147762,-7.797057020232986,6.084610668301655,3.0,0.4384504384504386,2280.7594936708856,0.06771167181399616,0.33179884622108186,0.060952158965095066,1403.6630036630036,-1.0,64.20482006400627,0.4388767587272279,
2023-08-16 13:54:20.860000,-7.771084337349398,1.63855421686747,5.542168674698796,1.836909871244635,-7.819129368485592,6.060085836909871,3.0,0.4388944388944389,2278.45220030349,-0.009323465998484274,-0.14556261290134592,0.2415943126857409,1404.3956043956043,-1.0,64.20482006400627,0.4388760660377813,
2023-08-16 13:54:20.868000,-7.771084337349398,1.6265060240963856,5.566265060240964,1.8786020846106681,-7.782342121397915,6.084610668301655,3.0,0.4388944388944389,2278.45220030349,-0.1637433715983911,-0.14276557310180063,0.14987471592564555,1403.6630036630036,-1.0,64.20482006400627,0.43887537688819633,
2023-08-16 13:54:20.875000,-7.759036144578314,1.6144578313253013,5.518072289156627,1.9227467811158798,-7.765174739423666,6.094420600858369,3.0,0.4388944388944389,2278.45220030349,-0.4369209253540012,0.11794184488083388,0.0713245148884099,1405.128205128205,-1.0,64.20482006400627,0.4388746907608211,
2023-08-16 13:54:20.883000,-7.759036144578314,1.6265060240963856,5.530120481927711,1.9399141630901287,-7.816676885346413,6.0625383200490495,3.0,0.4388944388944389,2278.45220030349,-0.32690402657187806,0.2695647106811954,0.16409300157333492,1404.3956043956043,-1.0,64.20482006400627,0.4388740070026463,
2023-08-16 13:54:20.891000,-7.734939759036145,1.6265060240963856,5.518072289156627,1.883507050889025,-7.752912323727774,6.1066830165542605,3.0,0.4384504384504386,2280.7594936708856,-0.4928617213449103,0.14532952625138426,-0.11059961540702773,1402.9304029304028,-1.0,64.20482006400627,0.43887332484829505,
2023-08-16 13:54:20.898000,-7.746987951807229,1.63855421686747,5.542168674698796,1.908031882280809,-7.74310239117106,6.101778050275904,3.0,0.4384504384504386,2280.7594936708856,-0.27504224695530516,0.207330575141309,-0.20290192879202854,1401.4652014652013,-1.0,64.20482006400627,0.4388726435600406,
2023-08-16 13:54:20.906000,-7.759036144578314,1.6265060240963856,5.493975903614458,1.888412017167382,-7.814224402207234,6.0551808706315144,3.0,0.4384504384504386,2280.7594936708856,0.12411864110483035,0.0393916438435991,0.3782996328885263,1401.4652014652013,-1.0,64.20482006400627,0.438871962386974,
2023-08-16 13:54:20.914000,-7.746987951807229,1.6506024096385543,5.493975903614458,1.8810545677498467,-7.801961986511342,6.084610668301655,3.0,0.4384504384504386,2280.7594936708856,0.045684983392576414,-0.18751820989452864,-0.1142124584814406,1401.4652014652013,-1.0,64.20482006400627,0.43887128055563746,
2023-08-16 13:54:20.921000,-7.759036144578314,1.63855421686747,5.493975903614458,1.930104230533415,-7.870631514408338,6.057633353770693,3.0,0.4388944388944389,2278.45220030349,-0.06165141891498225,0.16723967134782317,0.25289901520890373,1400.7326007326005,-1.0,64.20482006400627,0.43887059727095906,
2023-08-16 13:54:20.929000,-7.771084337349398,1.6506024096385543,5.542168674698796,1.8859595340282034,-7.814224402207234,6.0453709380748,3.0,0.4388944388944389,2278.45220030349,-0.17026979779733184,0.18308956354524816,0.11281393858166752,1401.4652014652013,-1.0,64.20482006400627,0.43886991172748163,
2023-08-16 13:54:20.937000,-7.759036144578314,1.6506024096385543,5.542168674698796,1.9055793991416308,-7.767627222562845,6.074800735744941,3.0,0.4384504384504386,2280.7594936708856,-0.1984732824427481,-0.01596643552240584,0.141367053202028,1401.4652014652013,-1.0,64.20482006400627,0.4388692232908081,
2023-08-16 13:54:20.944000,-7.759036144578314,1.6506024096385543,5.530120481927711,1.9448191293684856,-7.801961986511342,6.072348252605763,3.0,0.4388944388944389,2278.45220030349,-0.27236175048074074,0.3211934036478067,0.018996561971913226,1402.9304029304028,-1.0,64.20482006400627,0.438868531339055,
2023-08-16 13:54:20.952000,-7.759036144578314,1.6506024096385543,5.518072289156627,1.8761496014714898,-7.76026977314531,6.0625383200490495,3.0,0.4388944388944389,2278.45220030349,-0.21117650486568357,0.08903910028553089,0.018180758697045635,1403.6630036630036,-1.0,64.20482006400627,0.43886783524300543,
2023-08-16 13:54:20.960000,-7.759036144578314,1.63855421686747,5.530120481927711,1.8516247700797055,-7.782342121397915,6.121397915389331,3.0,0.4388944388944389,2278.45220030349,-0.10465590583299422,0.11817493153079728,0.06316648213973529,1401.4652014652013,-1.0,64.20482006400627,0.4388671345270266,
2023-08-16 13:54:20.967000,-7.771084337349398,1.63855421686747,5.518072289156627,1.8761496014714898,-7.828939301042305,6.0698957694665845,3.0,0.4388944388944389,2278.45220030349,0.017248412097196776,-0.11304702523163007,0.2758580502301732,1396.3369963369962,-1.0,64.20482006400627,0.4388664287320562,
2023-08-16 13:54:20.975000,-7.783132530120482,1.63855421686747,5.506024096385542,1.8761496014714898,-7.784794604537093,6.111587982832618,3.0,0.4384504384504386,2280.7594936708856,-0.10465590583299422,0.19381154944350595,0.012003962473049154,1391.9413919413919,-1.0,64.20482006400627,0.4388657174172964,
2023-08-16 13:54:20.983000,-7.771084337349398,1.6265060240963856,5.481927710843374,1.908031882280809,-7.811771919068056,6.057633353770693,3.0,0.4388944388944389,2278.45220030349,-0.1177087582308722,-0.23401899656197264,0.1661907814229939,1387.5457875457876,-1.0,64.20482006400627,0.43886500001256346,
2023-08-16 13:54:20.990000,-7.771084337349398,1.6506024096385543,5.518072289156627,1.8663396689147762,-7.826486817903127,6.104230533415082,3.0,0.4384504384504386,2280.7594936708856,-0.42328535633121556,-0.3084901812248712,0.3030126449507606,1383.8827838827838,-1.0,64.20482006400627,0.4388642759473051,
2023-08-16 13:54:20.998000,-7.759036144578314,1.6506024096385543,5.518072289156627,1.9350091968117717,-7.797057020232986,6.121397915389331,3.0,0.4384504384504386,2280.7594936708856,-0.29741856535166916,0.1523221257502483,0.27084668725598726,1380.2197802197802,-1.0,64.20482006400627,0.43886354466179966,
2023-08-16 13:54:21.006000,-7.746987951807229,1.6506024096385543,5.506024096385542,1.9276517473942365,-7.824034334763948,6.074800735744941,3.0,0.4388944388944389,2278.45220030349,-0.0057106229240714,0.10465590583299422,0.1474273061010432,1375.091575091575,-1.0,64.20482006400627,0.43886280544785544,
2023-08-16 13:54:21.013000,-7.734939759036145,1.6626506024096386,5.530120481927711,1.912936848559166,-7.801961986511342,6.111587982832618,3.0,0.4384504384504386,2280.7594936708856,-0.09754676300914931,0.08903910028553089,0.13204358720354287,1372.8937728937728,-1.0,64.20482006400627,0.4388620577364598,
2023-08-16 13:54:21.021000,-7.734939759036145,1.6506024096385543,5.493975903614458,1.8663396689147762,-7.784794604537093,6.089515634580012,3.0,0.4388944388944389,2278.45220030349,-0.17271720762193288,-0.003263213099470364,-0.3418215721694538,1372.8937728937728,-1.0,64.20482006400627,0.43886130096974973,
2023-08-16 13:54:21.029000,-7.746987951807229,1.6626506024096386,5.481927710843374,1.9276517473942365,-7.838749233599018,6.079705702023298,3.0,0.4384504384504386,2280.7594936708856,0.13320902045335295,0.0734222947380693,0.012120505798030423,1375.8241758241757,-1.0,64.20482006400627,0.43886053459055535,
2023-08-16 13:54:21.036000,-7.759036144578314,1.63855421686747,5.481927710843374,1.908031882280809,-7.811771919068056,6.0993255671367255,3.0,0.4388944388944389,2278.45220030349,0.099527999533827,0.21245848144047624,-0.0027970397995452823,1380.2197802197802,-1.0,64.20482006400627,0.4388597580529132,
2023-08-16 13:54:21.044000,-7.783132530120482,1.63855421686747,5.481927710843374,1.858982219497241,-7.860821581851624,6.060085836909871,3.0,0.4384504384504386,2280.7594936708856,-0.23774838296136636,-0.3091894411747562,-0.0029135831245265527,1382.4175824175823,-1.0,64.20482006400627,0.4388589708114231,
2023-08-16 13:54:21.052000,-7.807228915662651,1.63855421686747,5.530120481927711,1.908031882280809,-7.797057020232986,6.0551808706315144,3.0,0.4384504384504386,2280.7594936708856,0.03810966726880642,-0.4151273235825414,-0.0497639997669135,1385.3479853479853,-1.0,64.20482006400627,0.43885817247034825,
2023-08-16 13:54:21.059000,-7.771084337349398,1.6265060240963856,5.493975903614458,1.8393623543838136,-7.755364806866952,6.042918454935622,3.0,0.4384504384504386,2280.7594936708856,0.037993123943825584,-0.41221374045801523,-0.047899306567216214,1388.278388278388,-1.0,64.20482006400627,0.4388573624644105,
2023-08-16 13:54:21.067000,-7.759036144578314,1.63855421686747,5.518072289156627,1.8712446351931329,-7.841201716738197,6.020846106683016,3.0,0.4388944388944389,2278.45220030349,0.23611677641163117,-0.5315541052386227,0.15127323582541818,1389.0109890109889,-1.0,64.20482006400627,0.4388565400688328,
2023-08-16 13:54:21.075000,-7.734939759036145,1.6506024096385543,5.493975903614458,1.883507050889025,-7.819129368485592,6.064990803188228,3.0,0.4384504384504386,2280.7594936708856,0.019229648621874467,-0.39065322533651886,0.16677349804789937,1388.278388278388,-1.0,64.20482006400627,0.43885570469650353,
2023-08-16 13:54:21.082000,-7.759036144578314,1.6867469879518073,5.481927710843374,1.9644389944819127,-7.801961986511342,6.0919681177191904,3.0,0.4384504384504386,2280.7594936708856,0.1392692733523686,-0.15861546529922566,-0.01631606549734878,1387.5457875457876,-1.0,64.20482006400627,0.43885485576902267,
2023-08-16 13:54:21.090000,-7.72289156626506,1.6867469879518073,5.518072289156627,1.858982219497241,-7.75781729000613,6.050275904353157,3.0,0.4384504384504386,2280.7594936708856,0.2158382378649257,-0.33925761901987106,0.15080706252549397,1385.3479853479853,-1.0,64.20482006400627,0.43885399241738754,
2023-08-16 13:54:21.098000,-7.759036144578314,1.6506024096385543,5.530120481927711,1.9570815450643775,-7.779889638258736,6.0404659717964435,3.0,0.4388944388944389,2278.45220030349,-0.12155468795524675,-0.061884505564943924,0.012237049123011694,1381.6849816849815,-1.0,64.20482006400627,0.43885311377835623,
2023-08-16 13:54:21.105000,-7.771084337349398,1.63855421686747,5.542168674698796,1.8467198038013488,-7.728387492335989,6.12385039852851,3.0,0.4384504384504386,2280.7594936708856,0.14078433657712294,-0.136705320202785,-0.14078433657712253,1380.2197802197802,-1.0,64.20482006400627,0.4388522191310369,
2023-08-16 13:54:21.113000,-7.759036144578314,1.6265060240963856,5.518072289156627,1.7903126916002452,-7.841201716738197,6.060085836909871,3.0,0.4384504384504386,2280.7594936708856,-0.11817493153079728,0.27795583007983304,-0.13961890332731197,1381.6849816849815,-1.0,64.20482006400627,0.4388513077779009,
2023-08-16 13:54:21.121000,-7.783132530120482,1.6265060240963856,5.530120481927711,1.9374616799509503,-7.83629675045984,6.0698957694665845,3.0,0.4384504384504386,2280.7594936708856,0.12575024765456555,0.07645242118757625,-0.11013344210710352,1384.6153846153845,-1.0,64.20482006400627,0.4388503788732904,
2023-08-16 13:54:21.128000,-7.783132530120482,1.63855421686747,5.481927710843374,1.9350091968117717,-7.792152053954629,6.052728387492336,3.0,0.4388944388944389,2278.45220030349,-0.22760911368801273,0.4112813938581668,-0.16957053784744466,1389.7435897435896,880.889892578125,68.11293954616318,0.4388494314322306,
2023-08-16 13:54:21.136000,-7.771084337349398,1.63855421686747,5.506024096385542,1.942366646229307,-7.762722256284488,6.079705702023298,3.0,0.4384504384504386,2280.7594936708856,-0.13285939047841044,0.4208379465066145,-0.4575490938756483,1393.4065934065934,-1.0,68.11293954616318,0.4388484646267114,
2023-08-16 13:54:21.144000,-7.795180722891566,1.6144578313253013,5.506024096385542,1.854077253218884,-7.76026977314531,6.072348252605763,3.0,0.4388944388944389,2278.45220030349,0.007342229473806583,0.0026804964745644456,-0.16351028494842945,1395.6043956043954,-1.0,68.11293954616318,0.4388474776562017,
2023-08-16 13:54:21.151000,-7.783132530120482,1.63855421686747,5.518072289156627,1.8270999386879214,-7.833844267320662,6.074800735744941,3.0,0.4388944388944389,2278.45220030349,0.3607015908163866,-0.3636151739409127,-0.268632364081347,1396.3369963369962,-1.0,68.11293954616318,0.4388464698749398,
2023-08-16 13:54:21.159000,-7.771084337349398,1.63855421686747,5.493975903614458,1.8687921520539545,-7.83629675045984,6.064990803188228,3.0,0.4384504384504386,2280.7594936708856,0.22271429403880894,-0.6669774488666167,-0.06876056173882629,1397.8021978021977,-1.0,68.11293954616318,0.4388454409308147,
2023-08-16 13:54:21.167000,-7.783132530120482,1.63855421686747,5.506024096385542,1.8933169834457386,-7.819129368485592,6.101778050275904,3.0,0.4388944388944389,2278.45220030349,0.31186993764932064,-0.20383427539187698,0.18996561971913054,1400.0,-1.0,68.11293954616318,0.4388443903299241,
2023-08-16 13:54:21.174000,-7.795180722891566,1.63855421686747,5.506024096385542,1.8663396689147762,-7.797057020232986,6.0698957694665845,3.0,0.4384504384504386,2280.7594936708856,0.167356214672804,-0.13915273002738776,0.08158032748674304,1401.4652014652013,-1.0,68.11293954616318,0.43884331756615347,
2023-08-16 13:54:21.182000,-7.759036144578314,1.6265060240963856,5.493975903614458,1.8786020846106681,-7.814224402207234,6.050275904353157,3.0,0.4384504384504386,2280.7594936708856,-0.07994872093700829,-0.3055765981003433,0.032515587669716295,1402.197802197802,-1.0,68.11293954616318,0.438842222133242,
2023-08-16 13:54:21.190000,-7.783132530120482,1.6265060240963856,5.46987951807229,1.8491722869405272,-7.782342121397915,6.074800735744941,3.0,0.4388944388944389,2278.45220030349,-0.3531262746926166,-0.04347066021793532,0.19975525901753988,1405.128205128205,-1.0,68.11293954616318,0.43884110336665133,
2023-08-16 13:54:21.197000,-7.734939759036145,1.63855421686747,5.518072289156627,1.9031269160024524,-7.777437155119558,6.0993255671367255,3.0,0.4384504384504386,2280.7594936708856,-0.014801002272594002,-0.13344210710331636,-0.24578987238505925,1407.3260073260071,-1.0,68.11293954616318,0.4388399605939236,
2023-08-16 13:54:21.205000,-7.759036144578314,1.6626506024096386,5.481927710843374,1.8687921520539545,-7.770079705702023,6.0404659717964435,3.0,0.4384504384504386,2280.7594936708856,0.017714585397121858,-0.22189849076394133,0.27783928675485087,1413.1868131868132,-1.0,68.11293954616318,0.4388387933062683,
2023-08-16 13:54:21.213000,-7.734939759036145,1.6626506024096386,5.493975903614458,1.9006744328632739,-7.76026977314531,5.986511342734518,3.0,0.4384504384504386,2280.7594936708856,0.033797564244508534,0.22329701066371485,0.02960200454518974,1419.7802197802198,-1.0,68.11293954616318,0.43883760096930063,
2023-08-16 13:54:21.220000,-7.746987951807229,1.6626506024096386,5.481927710843374,1.9325567136725934,-7.787247087676271,6.0478234212139785,3.0,0.4384504384504386,2280.7594936708856,0.1446302663014975,-0.03869238389371234,-0.2152555212400211,1427.8388278388277,-1.0,68.11293954616318,0.43883638288651544,
2023-08-16 13:54:21.228000,-7.746987951807229,1.63855421686747,5.506024096385542,1.8933169834457386,-7.794604537093807,6.028203556100552,3.0,0.4384504384504386,2280.7594936708856,0.17761202727113842,-0.0680613017889404,-0.13682186352776626,1436.6300366300366,-1.0,68.11293954616318,0.4388351383500686,
2023-08-16 13:54:21.235000,-7.746987951807229,1.63855421686747,5.518072289156627,1.912936848559166,-7.794604537093807,6.057633353770693,3.0,0.4384504384504386,2280.7594936708856,0.2714294038808923,-0.3414719421945104,-0.1200396247304937,1446.153846153846,-1.0,68.11293954616318,0.4388338666423061,
2023-08-16 13:54:21.243000,-7.746987951807229,1.602409638554217,5.493975903614458,1.9031269160024524,-7.828939301042305,6.050275904353157,3.0,0.4384504384504386,2280.7594936708856,0.24031233611094996,0.025756074820815194,-0.17819474389604348,1455.6776556776556,-1.0,68.11293954616318,0.4388325670373359,
2023-08-16 13:54:21.251000,-7.771084337349398,1.602409638554217,5.530120481927711,1.8638871857755976,-7.848559166155733,6.052728387492336,3.0,0.4388944388944389,2278.45220030349,0.37538604976399975,0.08799021036070162,-0.21991725423926364,1463.003663003663,-1.0,68.11293954616318,0.43883123880263536,
2023-08-16 13:54:21.258000,-7.771084337349398,1.6144578313253013,5.506024096385542,1.8565297363580624,-7.77498467198038,6.0478234212139785,3.0,0.4388944388944389,2278.45220030349,0.17306683759687713,-0.12831420080414915,0.057572402540644295,1469.5970695970695,-1.0,68.11293954616318,0.43882988134998435,
2023-08-16 13:54:21.266000,-7.783132530120482,1.6506024096385543,5.493975903614458,1.8320049049662783,-7.83629675045984,6.0625383200490495,3.0,0.4384504384504386,2280.7594936708856,0.23320319328710504,-0.1906648796690164,0.08868947031058795,1473.9926739926739,-1.0,68.11293954616318,0.4388284942590119,
2023-08-16 13:54:21.274000,-7.759036144578314,1.63855421686747,5.506024096385542,1.8982219497240955,-7.784794604537093,6.052728387492336,3.0,0.4384504384504386,2280.7594936708856,0.415943126857409,0.08554280053609885,0.13402482372822097,1475.4578754578754,-1.0,68.11293954616318,0.43882707699253426,
2023-08-16 13:54:21.281000,-7.771084337349398,1.6506024096385543,5.506024096385542,1.9399141630901287,-7.799509503372164,6.072348252605763,3.0,0.4384504384504386,2280.7594936708856,0.2898432492279009,-0.2822679331041309,0.256511858283317,1471.062271062271,-1.0,68.11293954616318,0.438825628878268,
2023-08-16 13:54:21.289000,-7.771084337349398,1.674698795180723,5.530120481927711,1.8933169834457386,-7.772532188841201,6.0772532188841195,3.0,0.4384504384504386,2280.7594936708856,-0.045684983392576414,-0.11129887535691405,0.3037119049006469,1464.4688644688645,-1.0,68.11293954616318,0.4388241492496743,
2023-08-16 13:54:21.297000,-7.746987951807229,1.6626506024096386,5.506024096385542,1.9668914776210913,-7.841201716738197,6.067443286327406,3.0,0.4384504384504386,2280.7594936708856,-0.03123361109492492,-0.06503117533943172,0.1355398869529749,1460.8058608058607,-1.0,68.11293954616318,0.43882263744804856,
2023-08-16 13:54:21.304000,-7.746987951807229,1.6626506024096386,5.542168674698796,1.8614347026364193,-7.752912323727774,6.089515634580012,3.0,0.4384504384504386,2280.7594936708856,0.18390536682011577,-0.2475380222597757,-0.01946273527183744,1459.3406593406592,-1.0,68.11293954616318,0.43882109282459786,
2023-08-16 13:54:21.312000,-7.783132530120482,1.674698795180723,5.530120481927711,1.9350091968117717,-7.733292458614347,6.094420600858369,3.0,0.4384504384504386,2280.7594936708856,0.16863819124759666,-0.09136996678515283,-0.31093759104947266,1459.3406593406592,-1.0,68.11293954616318,0.43881951474249603,
2023-08-16 13:54:21.320000,-7.759036144578314,1.6506024096385543,5.530120481927711,1.9153893316983446,-7.735744941753525,6.094420600858369,3.0,0.4384504384504386,2280.7594936708856,0.23075578346250228,-0.30406153487559073,0.2862304061534876,1459.3406593406592,-1.0,68.11293954616318,0.438817902578913,
2023-08-16 13:54:21.327000,-7.759036144578314,1.674698795180723,5.506024096385542,1.8859595340282034,-7.804414469650521,6.094420600858369,3.0,0.4384504384504386,2280.7594936708856,-0.21129304819066438,0.08053143756191421,0.02400792494609874,1458.6080586080584,-1.0,68.11293954616318,0.4388162557270086,
2023-08-16 13:54:21.335000,-7.759036144578314,1.6626506024096386,5.518072289156627,1.9619865113427344,-7.806866952789699,6.089515634580012,3.0,0.4384504384504386,2280.7594936708856,-0.20744711846628985,0.08018180758696997,0.024241011596060846,1457.8754578754579,-1.0,68.11293954616318,0.4388145735978857,
2023-08-16 13:54:21.343000,-7.759036144578314,1.6626506024096386,5.542168674698796,1.8761496014714898,-7.811771919068056,6.052728387492336,3.0,0.4384504384504386,2280.7594936708856,0.03915855719363742,-0.4401841384534698,0.06969290833867473,1457.8754578754579,-1.0,68.11293954616318,0.43881285562249467,
2023-08-16 13:54:21.350000,-7.759036144578314,1.6626506024096386,5.506024096385542,1.8786020846106681,-7.770079705702023,6.067443286327406,3.0,0.438006438006438,2283.071464774455,-0.004312103024299628,0.051861779616572894,-0.0226094050463261,1453.4798534798533,-1.0,68.11293954616318,0.4388111012534873,
2023-08-16 13:54:21.358000,-7.759036144578314,1.6506024096385543,5.493975903614458,1.8810545677498467,-7.782342121397915,6.0772532188841195,3.0,0.4384504384504386,2280.7594936708856,0.07248994813822088,-0.07015908163859894,-0.05162869296661036,1448.3516483516482,-1.0,68.11293954616318,0.43880930995646444,
2023-08-16 13:54:21.366000,-7.746987951807229,1.674698795180723,5.506024096385542,1.8933169834457386,-7.828939301042305,6.067443286327406,3.0,0.4384504384504386,2280.7594936708856,-0.036011887419147896,-0.07248994813822088,0.1362391469028612,1440.2930402930401,-1.0,68.11293954616318,0.4388074811799966,
2023-08-16 13:54:21.373000,-7.746987951807229,1.6626506024096386,5.506024096385542,1.8565297363580624,-7.806866952789699,6.0478234212139785,3.0,0.4384504384504386,2280.7594936708856,-0.08379465066138284,-0.13344210710331636,0.07761785443738722,1432.9670329670328,-1.0,68.11293954616318,0.43880561438860904,
2023-08-16 13:54:21.381000,-7.746987951807229,1.6506024096385543,5.530120481927711,1.8516247700797055,-7.794604537093807,6.0698957694665845,3.0,0.4384504384504386,2280.7594936708856,-0.04195559699318271,-0.4095332439834508,-0.2745760736553814,1425.6410256410256,-1.0,68.11293954616318,0.4388037090745356,
2023-08-16 13:54:21.389000,-7.771084337349398,1.63855421686747,5.506024096385542,1.8614347026364193,-7.730839975475168,6.087063151440834,3.0,0.4384504384504386,2280.7594936708856,0.20033797564244493,-0.11561097838121367,0.07808402773731143,1419.7802197802198,-1.0,68.11293954616318,0.43880176475885757,
2023-08-16 13:54:21.396000,-7.746987951807229,1.674698795180723,5.506024096385542,1.8663396689147762,-7.684242795830778,6.042918454935622,3.0,0.4384504384504386,2280.7594936708856,0.272711380455685,0.024823728220966765,-0.07377192471301224,1415.3846153846152,-1.0,68.11293954616318,0.43879978099258143,
2023-08-16 13:54:21.404000,-7.759036144578314,1.6867469879518073,5.506024096385542,1.9448191293684856,-7.848559166155733,6.060085836909871,3.0,0.4384504384504386,2280.7594936708856,-0.2041839053668195,-0.41943942660684097,0.01643260882232962,1410.989010989011,-1.0,68.11293954616318,0.43879775735765,
2023-08-16 13:54:21.412000,-7.746987951807229,1.674698795180723,5.506024096385542,1.9374616799509503,-7.797057020232986,6.1066830165542605,3.0,0.4384504384504386,2280.7594936708856,-0.1139793718314785,-0.23262047666219912,0.09102033681020902,1408.7912087912086,-1.0,68.11293954616318,0.4387956934678928,
2023-08-16 13:54:21.419000,-7.72289156626506,1.6867469879518073,5.530120481927711,1.9153893316983446,-7.777437155119558,6.0993255671367255,3.0,0.4384504384504386,2280.7594936708856,0.1443971796515358,-0.31839636384826137,0.0282034846454171,1408.058608058608,-1.0,68.11293954616318,0.4387935889699186,
2023-08-16 13:54:21.427000,-7.72289156626506,1.6626506024096386,5.518072289156627,1.888412017167382,-7.789699570815451,6.089515634580012,3.0,0.4384504384504386,2280.7594936708856,0.035429170794241974,-0.3150166074238102,-0.356972204416992,1408.7912087912086,-1.0,68.11293954616318,0.4387914435439493,
2023-08-16 13:54:21.435000,-7.734939759036145,1.674698795180723,5.518072289156627,1.8933169834457386,-7.787247087676271,6.111587982832618,3.0,0.4384504384504386,2280.7594936708856,0.06363265543965994,-0.2649029776819533,0.044403006817784606,1410.989010989011,-1.0,68.11293954616318,0.4387892569046021,
2023-08-16 13:54:21.442000,-7.746987951807229,1.6626506024096386,5.530120481927711,1.9619865113427344,-7.782342121397915,6.101778050275904,3.0,0.4384504384504386,2280.7594936708856,0.16828856127265243,-0.2919410290775594,0.2101276149408543,1413.9194139194137,-1.0,68.11293954616318,0.4387870288016203,
2023-08-16 13:54:21.450000,-7.746987951807229,1.6506024096385543,5.518072289156627,1.930104230533415,-7.755364806866952,6.163090128755364,3.0,0.4384504384504386,2280.7594936708856,-0.2160713245148891,-0.02960200454518974,-0.3260882232970105,1416.117216117216,-1.0,68.11293954616318,0.4387847590205572,
2023-08-16 13:54:21.458000,-7.759036144578314,1.6506024096385543,5.542168674698796,1.8933169834457386,-7.853464132434089,6.118945432250153,3.0,0.4384504384504386,2280.7594936708856,0.014334828972670657,-0.07295612143814421,-0.20255229881708517,1416.8498168498168,-1.0,68.11293954616318,0.43878244738341565,
2023-08-16 13:54:21.465000,-7.759036144578314,1.6506024096385543,5.530120481927711,1.9153893316983446,-7.82158185162477,6.035561005518087,3.0,0.4384504384504386,2280.7594936708856,-8.15803274867591E-4,-0.2089621816910442,-0.18483771341996375,1415.3846153846152,-1.0,68.11293954616318,0.43878009374924837,
2023-08-16 13:54:21.473000,-7.771084337349398,1.6626506024096386,5.55421686746988,1.8712446351931329,-7.799509503372164,6.0625383200490495,3.0,0.438006438006438,2283.071464774455,-0.12167123128022758,-0.1443971796515358,-0.27387681370549505,1412.4542124542124,-1.0,68.11293954616318,0.43877769801471933,
2023-08-16 13:54:21.481000,-7.759036144578314,1.6506024096385543,5.542168674698796,1.8516247700797055,-7.779889638258736,6.057633353770693,3.0,0.4384504384504386,2280.7594936708856,-0.12003962473049413,0.2097779849659118,-0.10337392925820155,1409.5238095238094,-1.0,68.11293954616318,0.4387752599653399,
2023-08-16 13:54:21.488000,-7.746987951807229,1.6506024096385543,5.542168674698796,1.8786020846106681,-7.809319435928877,6.096873083997547,3.0,0.4384504384504386,2280.7594936708856,0.033914107569489364,0.008740749373580091,-0.16187867839869471,1402.9304029304028,-1.0,68.11293954616318,0.43877277940338627,
2023-08-16 13:54:21.496000,-7.771084337349398,1.6626506024096386,5.506024096385542,1.917841814837523,-7.789699570815451,6.0625383200490495,3.0,0.4384504384504386,2280.7594936708856,-0.11875764815570147,0.23798146961132802,0.06852747508886418,1394.8717948717947,-1.0,68.11293954616318,0.43877025630730854,
2023-08-16 13:54:21.504000,-7.746987951807229,1.6506024096385543,5.530120481927711,1.8614347026364193,-7.762722256284488,6.096873083997547,3.0,0.438006438006438,2283.071464774455,-0.16036361517394165,0.3125691975992074,-0.1306450673037702,1386.080586080586,-1.0,68.11293954616318,0.43876769069324734,
2023-08-16 13:54:21.511000,-7.759036144578314,1.63855421686747,5.518072289156627,1.8982219497240955,-7.725935009196811,6.067443286327406,3.0,0.4384504384504386,2280.7594936708856,-0.05279412621642132,0.3555736845172194,-0.29671930540178326,1378.7545787545787,-1.0,68.11293954616318,0.438765082465992,
2023-08-16 13:54:21.519000,-7.759036144578314,1.63855421686747,5.506024096385542,1.8908645003065603,-7.784794604537093,6.042918454935622,3.0,0.4384504384504386,2280.7594936708856,-0.2971854787017075,0.550900297185478,-0.1256337043295847,1375.091575091575,-1.0,68.11293954616318,0.4387624315466451,
2023-08-16 13:54:21.527000,-7.771084337349398,1.6265060240963856,5.518072289156627,1.8736971183323115,-7.843654199877375,6.03065603923973,3.0,0.4384504384504386,2280.7594936708856,-0.06468154536448921,0.5007866674436228,-0.09474972320960316,1375.8241758241757,-1.0,68.11293954616318,0.438759738031806,
2023-08-16 13:54:21.534000,-7.783132530120482,1.6144578313253013,5.530120481927711,1.8467198038013488,-7.806866952789699,6.0772532188841195,3.0,0.4384504384504386,2280.7594936708856,-0.15476953557484935,0.5738593322067479,-0.019579278596818277,1375.8241758241757,-1.0,68.11293954616318,0.4387570020548838,
2023-08-16 13:54:21.542000,-7.795180722891566,1.6265060240963856,5.506024096385542,1.9006744328632739,-7.841201716738197,6.072348252605763,3.0,0.4384504384504386,2280.7594936708856,-0.32200920692267426,-0.058388205815511886,-0.11059961540702773,1378.021978021978,-1.0,68.11293954616318,0.4387542237861766,
2023-08-16 13:54:21.550000,-7.783132530120482,1.63855421686747,5.493975903614458,1.854077253218884,-7.797057020232986,6.126302881667688,3.0,0.4384504384504386,2280.7594936708856,0.10675368568265274,0.0079249460987125,0.2563953149583358,1383.8827838827838,-1.0,68.11293954616318,0.4387514034329714,
2023-08-16 13:54:21.557000,-7.771084337349398,1.63855421686747,5.506024096385542,1.9202942979767013,-7.806866952789699,6.064990803188228,3.0,0.4384504384504386,2280.7594936708856,0.10733640230755867,-0.08123069751179923,0.1928792028436571,1391.9413919413919,-1.0,68.11293954616318,0.4387485412396714,
2023-08-16 13:54:21.565000,-7.759036144578314,1.63855421686747,5.518072289156627,1.9055793991416308,-7.755364806866952,6.057633353770693,3.0,0.4384504384504386,2280.7594936708856,-0.3048773381504566,-0.18588660334479346,0.09882873958394024,1400.7326007326005,-1.0,68.11293954616318,0.43874563748795276,
2023-08-16 13:54:21.573000,-7.783132530120482,1.63855421686747,5.518072289156627,1.8908645003065603,-7.801961986511342,6.0331085223789085,3.0,0.4384504384504386,2280.7594936708856,-0.25791037818308926,0.09090379348522774,0.09812947963405393,1411.7216117216117,-1.0,68.11293954616318,0.4387426924969595,
2023-08-16 13:54:21.580000,-7.771084337349398,1.6265060240963856,5.542168674698796,1.8933169834457386,-7.799509503372164,6.096873083997547,3.0,0.4384504384504386,2280.7594936708856,-0.01083852922323862,-0.1491754559757588,0.1411339665520659,1420.5128205128203,-1.0,68.11293954616318,0.4387397066235329,
2023-08-16 13:54:21.588000,-7.746987951807229,1.63855421686747,5.55421686746988,1.8933169834457386,-7.779889638258736,6.096873083997547,3.0,0.4384504384504386,2280.7594936708856,-0.013752112347764738,0.17108560107219944,0.0327486743196784,1423.4432234432234,-1.0,68.11293954616318,0.43873668026248547,
2023-08-16 13:54:21.596000,-7.759036144578314,1.63855421686747,5.542168674698796,1.8516247700797055,-7.828939301042305,6.114040465971796,3.0,0.4384504384504386,2280.7594936708856,0.06526426198939513,0.5385467047374867,-0.07540353126274699,1422.7106227106226,-1.0,68.11293954616318,0.43873361384691517,
2023-08-16 13:54:21.603000,-7.759036144578314,1.6506024096385543,5.530120481927711,1.9055793991416308,-7.797057020232986,6.0404659717964435,3.0,0.4384504384504386,2280.7594936708856,0.05034671639181855,0.3796981527882994,0.1517394091253424,1421.245421245421,-1.0,68.11293954616318,0.4387305078485643,
2023-08-16 13:54:21.611000,-7.746987951807229,1.6506024096385543,5.506024096385542,1.8565297363580624,-7.750459840588595,6.0036787247087675,3.0,0.4384504384504386,2280.7594936708856,0.052327952916496244,0.37608530971388654,0.1502243459005885,1419.047619047619,-1.0,68.11293954616318,0.4387273627782227,
2023-08-16 13:54:21.618000,-7.759036144578314,1.63855421686747,5.493975903614458,1.883507050889025,-7.809319435928877,6.153280196198651,3.0,0.4384504384504386,2280.7594936708856,-0.2365829497115545,0.3428704620942839,0.01235359244799253,1416.8498168498168,-1.0,68.11293954616318,0.43872417918617257,
2023-08-16 13:54:21.626000,-7.771084337349398,1.6506024096385543,5.518072289156627,1.8786020846106681,-7.804414469650521,6.050275904353157,3.0,0.4384504384504386,2280.7594936708856,-0.1119981353068008,0.599149233727638,0.15057397587553187,1412.4542124542124,-1.0,68.11293954616318,0.43872095766267655,
2023-08-16 13:54:21.634000,-7.771084337349398,1.6506024096385543,5.506024096385542,1.908031882280809,-7.828939301042305,6.118945432250153,3.0,0.4384504384504386,2280.7594936708856,0.07155760153837244,0.5765398286813123,-0.08029835091195167,1410.989010989011,-1.0,68.11293954616318,0.43871769883850453,
2023-08-16 13:54:21.641000,-7.759036144578314,1.6506024096385543,5.530120481927711,1.8761496014714898,-7.799509503372164,6.111587982832618,3.0,0.4384504384504386,2280.7594936708856,0.04102325039333428,0.44822562787716314,0.19602587261814575,1410.989010989011,-1.0,68.11293954616318,0.43871440338549644,
2023-08-16 13:54:21.649000,-7.783132530120482,1.6265060240963856,5.530120481927711,1.9227467811158798,-7.816676885346413,6.084610668301655,3.0,0.4384504384504386,2280.7594936708856,-0.38587494901229585,0.12295320785502026,-0.003612843074412873,1409.5238095238094,-1.0,68.11293954616318,0.4387110720171586,
2023-08-16 13:54:21.657000,-7.795180722891566,1.6265060240963856,5.55421686746988,1.854077253218884,-7.846106683016554,6.111587982832618,3.0,0.438006438006438,2283.071464774455,-0.16805547462269074,0.3954315016607418,0.36198356739117754,1407.3260073260071,-1.0,68.11293954616318,0.4387077054892857,
2023-08-16 13:54:21.664000,-7.771084337349398,1.6265060240963856,5.542168674698796,1.8050275904353157,-7.789699570815451,6.094420600858369,3.0,0.4384504384504386,2280.7594936708856,-0.2563953149583349,0.3138511741739983,0.15931472524911153,1405.128205128205,-1.0,68.11293954616318,0.4387043045900615,
2023-08-16 13:54:21.672000,-7.759036144578314,1.63855421686747,5.530120481927711,1.9668914776210913,-7.846106683016554,6.12385039852851,3.0,0.4384504384504386,2280.7594936708856,-0.4361051220791336,0.021210885146553893,-0.11794184488083431,1402.197802197802,-1.0,68.11293954616318,0.4387008701090083,
2023-08-16 13:54:21.680000,-7.759036144578314,1.6506024096385543,5.493975903614458,1.8957694665849172,-7.787247087676271,6.060085836909871,3.0,0.4384504384504386,2280.7594936708856,-0.6159314725249114,0.11374628518151682,0.5383136180875242,1400.0,-1.0,68.11293954616318,0.4386974028689802,
2023-08-16 13:54:21.687000,-7.759036144578314,1.63855421686747,5.518072289156627,1.912936848559166,-7.752912323727774,6.0698957694665845,3.0,0.4384504384504386,2280.7594936708856,-0.7175572519083969,0.6179127090495891,0.2595419847328244,1396.3369963369962,-1.0,68.11293954616318,0.4386939037369952,
2023-08-16 13:54:21.695000,-7.710843373493976,1.63855421686747,5.481927710843374,1.8736971183323115,-7.804414469650521,6.0625383200490495,3.0,0.4384504384504386,2280.7594936708856,-0.804148942369325,0.553114620360119,0.028669657945341313,1395.6043956043954,-1.0,68.11293954616318,0.43869037362452407,
2023-08-16 13:54:21.703000,-7.759036144578314,1.63855421686747,5.46987951807229,1.9374616799509503,-7.752912323727774,6.1066830165542605,3.0,0.4384504384504386,2280.7594936708856,-0.508361983567391,0.9161470776761258,0.3326146494959499,1396.3369963369962,-1.0,68.11293954616318,0.43868681348777805,
2023-08-16 13:54:21.710000,-7.746987951807229,1.63855421686747,5.481927710843374,1.854077253218884,-7.804414469650521,6.03065603923973,3.0,0.4384504384504386,2280.7594936708856,-0.8095099353184539,1.0147427306101044,-0.12703222422935734,1397.8021978021977,-1.0,68.11293954616318,0.438683224327987,
2023-08-16 13:54:21.718000,-7.746987951807229,1.6265060240963856,5.481927710843374,1.8516247700797055,-7.789699570815451,6.082158185162477,3.0,0.4384504384504386,2280.7594936708856,-0.7864343569722049,1.0232503933337211,0.46733873317405766,1400.0,-1.0,68.11293954616318,0.4386796071916652,
2023-08-16 13:54:21.726000,-7.771084337349398,1.63855421686747,5.506024096385542,1.8736971183323115,-7.748007357449417,6.082158185162477,3.0,0.4384504384504386,2280.7594936708856,-0.5977507138278662,1.4118058388205814,0.22143231746401712,1402.9304029304028,-1.0,68.11293954616318,0.438675963170858,
2023-08-16 13:54:21.733000,-7.783132530120482,1.63855421686747,5.518072289156627,1.8565297363580624,-7.873083997547517,6.087063151440834,3.0,0.4384504384504386,2280.7594936708856,-0.43820290192879213,1.0945749082221319,0.28285064972903684,1405.8608058608058,-1.0,68.11293954616318,0.4386722934033608,
2023-08-16 13:54:21.741000,-7.771084337349398,1.63855421686747,5.481927710843374,1.8761496014714898,-7.801961986511342,6.084610668301655,3.0,0.4384504384504386,2280.7594936708856,-0.6926169803624493,1.08560107219859,0.5078958102674669,1408.058608058608,-1.0,68.11293954616318,0.438668599072907,
2023-08-16 13:54:21.749000,-7.771084337349398,1.6144578313253013,5.493975903614458,1.888412017167382,-7.865726548129981,6.0551808706315144,3.0,0.4384504384504386,2280.7594936708856,-0.5944875007283958,0.877105063807471,0.2594254414078431,1411.7216117216117,-1.0,68.11293954616318,0.43866488140931426,
2023-08-16 13:54:21.756000,-7.783132530120482,1.6265060240963856,5.530120481927711,1.8957694665849172,-7.841201716738197,6.064990803188228,3.0,0.4384504384504386,2280.7594936708856,-0.4368043820290186,0.914282384476429,0.3640813472408369,1413.1868131868132,-1.0,68.11293954616318,0.4386611416885824,
2023-08-16 13:54:21.764000,-7.771084337349398,1.6144578313253013,5.506024096385542,1.8908645003065603,-7.75781729000613,6.0453709380748,3.0,0.4384504384504386,2280.7594936708856,-0.6166307324747982,0.8613717149350268,0.07167414486335284,1411.7216117216117,-1.0,68.11293954616318,0.4386573812329344,
2023-08-16 13:54:21.772000,-7.771084337349398,1.6144578313253013,5.493975903614458,1.888412017167382,-7.799509503372164,6.072348252605763,3.0,0.4384504384504386,2280.7594936708856,-0.4446127848027503,0.9332789464483418,0.37596876638890525,1408.058608058608,-1.0,68.11293954616318,0.43865360141079396,
2023-08-16 13:54:21.779000,-7.783132530120482,1.6144578313253013,5.493975903614458,1.812385039852851,-7.841201716738197,6.0036787247087675,3.0,0.4384504384504386,2280.7594936708856,-0.8536798554862778,0.8020511625196665,0.0372938639939397,1402.9304029304028,-1.0,68.11293954616318,0.43864980363668776,
2023-08-16 13:54:21.787000,-7.795180722891566,1.602409638554217,5.493975903614458,1.7976701410177804,-7.762722256284488,6.052728387492336,3.0,0.4384504384504386,2280.7594936708856,-0.4200221432317469,0.8382961365887761,0.24940271545947212,1398.5347985347985,-1.0,68.11293954616318,0.43864598937106714,
2023-08-16 13:54:21.795000,-7.807228915662651,1.566265060240964,5.493975903614458,1.8295524218270998,-7.809319435928877,6.0698957694665845,3.0,0.4384504384504386,2280.7594936708856,-0.6003146669774481,0.9199930074005004,0.20033797564244493,1394.8717948717947,-1.0,68.11293954616318,0.4386421601200403,
2023-08-16 13:54:21.802000,-7.819277108433735,1.5783132530120483,5.481927710843374,1.8001226241569588,-7.846106683016554,6.0453709380748,3.0,0.4384504384504386,2280.7594936708856,-0.8381795932637952,1.0046034613367525,0.01631606549734878,1392.6739926739926,-1.0,68.11293954616318,0.4386383174350029,
2023-08-16 13:54:21.810000,-7.819277108433735,1.5903614457831325,5.481927710843374,1.8467198038013488,-7.816676885346413,6.0478234212139785,3.0,0.438006438006438,2283.071464774455,-1.0281452129829267,0.5999650370025056,0.4280636326554394,1388.278388278388,-1.0,68.11293954616318,0.4386344629121656,
2023-08-16 13:54:21.818000,-7.819277108433735,1.5542168674698795,5.457831325301205,1.8001226241569588,-7.855916615573268,6.03065603923973,3.0,0.438006438006438,2283.071464774455,-0.8070625254938529,1.2825592914165838,0.5585921566342288,1383.8827838827838,-1.0,68.11293954616318,0.43863059818141586,
2023-08-16 13:54:21.825000,-7.771084337349398,1.5783132530120483,5.445783132530121,1.8516247700797055,-7.887798896382587,6.084610668301655,3.0,0.4384504384504386,2280.7594936708856,-1.119864809743022,0.7991375793951404,0.4636093467746635,1381.6849816849815,-1.0,68.11293954616318,0.43862672472460285,
2023-08-16 13:54:21.833000,-7.807228915662651,1.5903614457831325,5.433734939759036,1.8172900061312078,-7.804414469650521,6.018393623543838,3.0,0.4384504384504386,2280.7594936708856,-1.307849192937474,0.778742497523454,0.582017364955422,1382.4175824175823,-1.0,68.11293954616318,0.4386228440334341,
2023-08-16 13:54:21.841000,-7.795180722891566,1.566265060240964,5.46987951807229,1.8197424892703862,-7.83629675045984,6.006131207847946,3.0,0.4384504384504386,2280.7594936708856,-1.450381679389313,1.1108909737194803,0.6519433599440593,1383.150183150183,-1.0,68.11293954616318,0.4386189577775936,
2023-08-16 13:54:21.848000,-7.807228915662651,1.566265060240964,5.433734939759036,1.7805027590435314,-7.819129368485592,6.0110361741263025,3.0,0.4384504384504386,2280.7594936708856,-1.484528873608764,0.8415593496882464,0.7064856360351958,1384.6153846153845,-1.0,68.11293954616318,0.43861506766430985,
2023-08-16 13:54:21.856000,-7.807228915662651,1.530120481927711,5.445783132530121,1.7927651747394235,-7.828939301042305,6.018393623543838,3.0,0.4384504384504386,2280.7594936708856,-1.5636617912709048,0.9868888759396307,0.6528757065439077,1387.5457875457876,-1.0,68.11293954616318,0.43861117543654415,
2023-08-16 13:54:21.864000,-7.795180722891566,1.5542168674698795,5.457831325301205,1.7805027590435314,-7.860821581851624,6.0036787247087675,3.0,0.4384504384504386,2280.7594936708856,-1.8246022959035026,0.7212866383077906,1.182098945282909,1386.8131868131868,-1.0,68.11293954616318,0.43860728287105394,
2023-08-16 13:54:21.871000,-7.807228915662651,1.566265060240964,5.445783132530121,1.8172900061312078,-7.875536480686695,6.050275904353157,3.0,0.4384504384504386,2280.7594936708856,-2.0840277373113443,0.5914573742788889,1.3269622982343685,1384.6153846153845,-1.0,68.11293954616318,0.4386033917763294,
2023-08-16 13:54:21.879000,-7.807228915662651,1.566265060240964,5.46987951807229,1.807480073574494,-7.875536480686695,6.013488657265481,3.0,0.4384504384504386,2280.7594936708856,-2.0066429695239196,0.43202610570479566,1.439426606841093,1381.6849816849815,-1.0,68.11293954616318,0.4385995039904113,
2023-08-16 13:54:21.887000,-7.807228915662651,1.5783132530120483,5.481927710843374,1.7584304107909257,-7.880441446965052,6.0257510729613735,3.0,0.4384504384504386,2280.7594936708856,-1.992890857176155,0.42841326263038276,1.4282384476429113,1380.2197802197802,-1.0,68.11293954616318,0.4385956213785862,
2023-08-16 13:54:21.894000,-7.819277108433735,1.5783132530120483,5.481927710843374,1.8172900061312078,-7.819129368485592,6.084610668301655,3.0,0.4384504384504386,2280.7594936708856,-2.1462618728512326,0.3801643260882245,1.4024823728220965,1379.4871794871794,-1.0,68.11293954616318,0.4385917458309674,
2023-08-16 13:54:21.902000,-7.783132530120482,1.5542168674698795,5.493975903614458,1.753525444512569,-7.819129368485592,6.052728387492336,3.0,0.4384504384504386,2280.7594936708856,-2.314900064098829,0.3618670240661967,1.1610046034613364,1380.952380952381,-1.0,68.11293954616318,0.43858787925996423,
2023-08-16 13:54:21.910000,-7.783132530120482,1.5542168674698795,5.481927710843374,1.7682403433476395,-7.843654199877375,6.0551808706315144,3.0,0.4384504384504386,2280.7594936708856,-2.3278363731717264,0.5273585455393038,1.2869879377658644,1382.4175824175823,-1.0,68.11293954616318,0.43858402359764154,
2023-08-16 13:54:21.917000,-7.795180722891566,1.5421686746987953,5.481927710843374,1.8344573881054567,-7.853464132434089,6.084610668301655,3.0,0.4384504384504386,2280.7594936708856,-2.2306392401375215,0.7971563428704627,1.202610570479576,1381.6849816849815,-1.0,68.11293954616318,0.43858018079297906,
2023-08-16 13:54:21.925000,-7.807228915662651,1.5421686746987953,5.481927710843374,1.841814837522992,-7.804414469650521,6.0257510729613735,3.0,0.4384504384504386,2280.7594936708856,-2.226210593788241,0.9867723326146498,1.3898956937241416,1379.4871794871794,-1.0,68.11293954616318,0.4385763528090321,
2023-08-16 13:54:21.933000,-7.795180722891566,1.530120481927711,5.493975903614458,1.73635806253832,-7.875536480686695,6.018393623543838,3.0,0.4388944388944389,2278.45220030349,-2.4820231921216718,1.2996911601887997,1.4105238622457896,1380.2197802197802,-1.0,68.11293954616318,0.4385725416200004,
2023-08-16 13:54:21.940000,-7.807228915662651,1.5421686746987953,5.457831325301205,1.7584304107909257,-7.865726548129981,6.050275904353157,3.0,0.4384504384504386,2280.7594936708856,-2.751820989452829,1.350737136530505,1.4146028786201268,1380.952380952381,-1.0,68.11293954616318,0.43856874935750834,
2023-08-16 13:54:21.948000,-7.795180722891566,1.530120481927711,5.445783132530121,1.7142857142857142,-7.82158185162477,5.9963212752912325,3.0,0.438006438006438,2283.071464774455,-2.7600955655264836,1.7356797389429526,1.4645999650370023,1383.150183150183,-1.0,68.11293954616318,0.4385649781800932,
2023-08-16 13:54:21.956000,-7.795180722891566,1.530120481927711,5.445783132530121,1.731453096259963,-7.846106683016554,6.018393623543838,3.0,0.4384504384504386,2280.7594936708856,-2.8908571761552357,1.3567973894295207,1.7116718139968539,1387.5457875457876,-1.0,68.11293954616318,0.4385612301005603,
2023-08-16 13:54:21.963000,-7.819277108433735,1.5421686746987953,5.457831325301205,1.7682403433476395,-7.841201716738197,6.001226241569589,3.0,0.438006438006438,2283.071464774455,-3.248994813822039,1.6659868306042769,2.0483654798671407,1392.6739926739926,-1.0,68.11293954616318,0.43855750708997937,
2023-08-16 13:54:21.971000,-7.83132530120482,1.5542168674698795,5.46987951807229,1.7633353770692826,-7.846106683016554,5.9816063764561616,3.0,0.4384504384504386,2280.7594936708856,-3.084319095623797,1.4080764524211877,2.2300565235126157,1399.2673992673992,-1.0,68.11293954616318,0.4385538110953609,
2023-08-16 13:54:21.979000,-7.819277108433735,1.5180722891566265,5.481927710843374,1.778050275904353,-7.873083997547517,6.0478234212139785,3.0,0.4384504384504386,2280.7594936708856,-3.3014393100635155,1.5472291824485738,2.3049938814754385,1405.128205128205,-1.0,68.11293954616318,0.43855014415369425,
2023-08-16 13:54:21.986000,-7.843373493975904,1.5180722891566265,5.46987951807229,1.8320049049662783,-7.88289393010423,5.9963212752912325,3.0,0.4384504384504386,2280.7594936708856,-2.968008857292699,1.1684633762601244,2.0108385292232382,1410.2564102564102,-1.0,68.11293954616318,0.43854650826055763,
2023-08-16 13:54:21.994000,-7.855421686746988,1.5421686746987953,5.493975903614458,1.854077253218884,-7.841201716738197,6.035561005518087,3.0,0.4384504384504386,2280.7594936708856,-3.598857875415185,1.4915214731076263,2.239030359536157,1410.989010989011,-1.0,68.11293954616318,0.4385429052490541,
2023-08-16 13:54:22.001000,-7.819277108433735,1.5421686746987953,5.445783132530121,1.7608828939301042,-7.814224402207234,6.015941140404659,3.0,0.4384504384504386,2280.7594936708856,-3.7995454810325757,1.7045626711730084,1.809917836955888,1412.4542124542124,-1.0,68.11293954616318,0.4385393369349008,
2023-08-16 13:54:22.009000,-7.819277108433735,1.4819277108433735,5.46987951807229,1.7290006131207847,-7.900061312078479,5.991416309012875,3.0,0.4384504384504386,2280.7594936708856,-3.7074762542975344,0.9269856068993645,2.5592914165841147,1410.989010989011,-1.0,68.11293954616318,0.4385358051122355,
2023-08-16 13:54:22.017000,-7.819277108433735,1.5180722891566265,5.457831325301205,1.7755977927651747,-7.88289393010423,6.008583690987124,3.0,0.4384504384504386,2280.7594936708856,-3.949536740283199,0.6739700483654808,2.8591573917603874,1408.058608058608,-1.0,68.11293954616318,0.4385323115494487,
2023-08-16 13:54:22.024000,-7.83132530120482,1.566265060240964,5.46987951807229,1.7706928264868178,-7.828939301042305,6.0551808706315144,3.0,0.4384504384504386,2280.7594936708856,-3.518442981178253,0.7433133267292104,3.0953907114969983,1402.9304029304028,-1.0,68.11293954616318,0.43852885798506297,
2023-08-16 13:54:22.032000,-7.807228915662651,1.5783132530120483,5.433734939759036,1.7755977927651747,-7.765174739423666,6.008583690987124,3.0,0.4384504384504386,2280.7594936708856,-4.159664355224055,0.8724433308082289,2.959617737894062,1397.069597069597,-1.0,68.11293954616318,0.43852544612367483,
2023-08-16 13:54:22.040000,-7.795180722891566,1.566265060240964,5.46987951807229,1.8099325567136726,-7.83629675045984,5.979153893316983,3.0,0.4384504384504386,2280.7594936708856,-4.396480391585571,1.0469086883048777,3.0258143464833056,1391.9413919413919,-1.0,68.11293954616318,0.4385220776319808,
2023-08-16 13:54:22.047000,-7.783132530120482,1.5783132530120483,5.46987951807229,1.731453096259963,-7.860821581851624,6.0036787247087675,3.0,0.4384504384504386,2280.7594936708856,-4.2039508187168595,0.9004137288036834,2.7095157624847026,1386.8131868131868,-1.0,68.11293954616318,0.438518754134905,
2023-08-16 13:54:22.055000,-7.795180722891566,1.5180722891566265,5.481927710843374,1.7412630288166768,-7.841201716738197,6.03065603923973,3.0,0.438006438006438,2283.071464774455,-4.478759979022203,1.0530854845288742,2.8774546937824126,1383.150183150183,-1.0,68.11293954616318,0.43851547721184136,
2023-08-16 13:54:22.063000,-7.795180722891566,1.5180722891566265,5.481927710843374,1.7437155119558552,-7.870631514408338,5.993868792152053,3.0,0.4384504384504386,2280.7594936708856,-4.829905017190142,1.2515587669716224,3.0453936250801226,1379.4871794871794,-1.0,68.11293954616318,0.43851224824374085,
2023-08-16 13:54:22.070000,-7.83132530120482,1.5180722891566265,5.46987951807229,1.7755977927651747,-7.8779889638258735,5.9742489270386265,3.0,0.4384504384504386,2280.7594936708856,-4.646698910319913,1.6027038051395612,3.2133325563778325,1376.5567765567764,880.889892578125,68.11293954616318,0.4385090685370576,
2023-08-16 13:54:22.078000,-7.843373493975904,1.5180722891566265,5.457831325301205,1.7510729613733904,-7.858369098712446,6.013488657265481,3.0,0.4384504384504386,2280.7594936708856,-4.890973719480218,1.1752228891090268,3.3965386632480614,1370.6959706959706,-1.0,68.11293954616318,0.4385059394793848,
2023-08-16 13:54:22.086000,-7.819277108433735,1.5060240963855422,5.457831325301205,1.807480073574494,-7.853464132434089,5.991416309012875,3.0,0.4384504384504386,2280.7594936708856,-5.104714177495485,1.2668259425441415,3.625546296835848,1365.5677655677655,-1.0,68.11293954616318,0.43850286239739555,
2023-08-16 13:54:22.093000,-7.83132530120482,1.5180722891566265,5.457831325301205,1.7412630288166768,-7.863274064990803,6.028203556100552,3.0,0.4384504384504386,2280.7594936708856,-5.394790513373348,1.0836198356739124,3.5644775945457714,1362.6373626373625,-1.0,68.11293954616318,0.43849983855373953,
2023-08-16 13:54:22.101000,-7.819277108433735,1.5180722891566265,5.421686746987952,1.6897608828939301,-7.9074187614960145,5.976701410177805,3.0,0.4384504384504386,2280.7594936708856,-5.36425616222831,1.037818308956355,3.9156226327137102,1361.1721611721612,-1.0,68.11293954616318,0.43849686914415503,
2023-08-16 13:54:22.109000,-7.843373493975904,1.5421686746987953,5.433734939759036,1.778050275904353,-7.838749233599018,6.0453709380748,3.0,0.4384504384504386,2280.7594936708856,-5.333721811083271,1.205757240254065,4.098828739583939,1362.6373626373625,-1.0,68.11293954616318,0.43849395529481294,
2023-08-16 13:54:22.116000,-7.843373493975904,1.5421686746987953,5.445783132530121,1.8001226241569588,-7.863274064990803,6.015941140404659,3.0,0.438006438006438,2283.071464774455,-5.730668375968768,1.0530854845288742,4.282034846454168,1366.3003663003662,-1.0,68.11293954616318,0.43849109805990577,
2023-08-16 13:54:22.124000,-7.843373493975904,1.5542168674698795,5.433734939759036,1.8099325567136726,-7.900061312078479,6.0404659717964435,3.0,0.438006438006438,2283.071464774455,-5.669599673678691,0.9462152555212406,4.220966144164092,1372.161172161172,-1.0,68.11293954616318,0.4384882984089433,
2023-08-16 13:54:22.132000,-7.807228915662651,1.5421686746987953,5.457831325301205,1.7854077253218883,-7.860821581851624,6.035561005518087,3.0,0.438006438006438,2283.071464774455,-6.127614940854264,0.9309480799487215,4.449973777751878,1378.7545787545787,-1.0,68.11293954616318,0.43848555704385656,
2023-08-16 13:54:22.139000,-7.819277108433735,1.5421686746987953,5.445783132530121,1.7927651747394235,-7.895156345800122,6.038013488657265,3.0,0.4384504384504386,2280.7594936708856,-6.371889750014569,1.0683526601013933,4.678981411339665,1383.150183150183,-1.0,68.11293954616318,0.4384828745455726,
2023-08-16 13:54:22.147000,-7.819277108433735,1.530120481927711,5.457831325301205,1.8148375229920293,-7.890251379521765,6.008583690987124,3.0,0.4384504384504386,2280.7594936708856,-6.478759979022203,0.7935434997960499,4.663714235767145,1389.0109890109889,-1.0,68.11293954616318,0.43848025151006437,
2023-08-16 13:54:22.155000,-7.807228915662651,1.566265060240964,5.457831325301205,1.8148375229920293,-7.846106683016554,5.993868792152053,3.0,0.438006438006438,2283.071464774455,-6.448225627877164,1.3431618204067368,4.7247829380572215,1400.0,-1.0,68.11293954616318,0.43847768843931,
2023-08-16 13:54:22.162000,-7.819277108433735,1.566265060240964,5.457831325301205,1.7927651747394235,-7.851011649294911,6.013488657265481,3.0,0.4384504384504386,2280.7594936708856,-6.448225627877164,1.3431618204067368,4.7247829380572215,1416.117216117216,-1.0,68.11293954616318,0.43847518560085813,
2023-08-16 13:54:22.170000,-7.795180722891566,1.566265060240964,5.46987951807229,1.8270999386879214,-7.814224402207234,5.986511342734518,3.0,0.438006438006438,2283.071464774455,-6.463492803449684,0.9614824310937597,4.633179884622107,1434.4322344322343,-1.0,68.11293954616318,0.43847274315389206,
2023-08-16 13:54:22.178000,-7.807228915662651,1.566265060240964,5.433734939759036,1.778050275904353,-7.804414469650521,6.038013488657265,3.0,0.4384504384504386,2280.7594936708856,-6.69250043703747,0.7935434997960499,4.58737835790455,1454.212454212454,-1.0,68.11293954616318,0.4384703611578574,
2023-08-16 13:54:22.185000,-7.819277108433735,1.566265060240964,5.457831325301205,1.7339055793991416,-7.846106683016554,5.9816063764561616,3.0,0.4384504384504386,2280.7594936708856,-6.906240895052737,0.9614824310937597,4.938523396072489,1468.131868131868,-1.0,68.11293954616318,0.43846803956028596,
2023-08-16 13:54:22.193000,-7.819277108433735,1.5542168674698795,5.433734939759036,1.8442673206621703,-7.885346413243409,5.957081545064377,3.0,0.4384504384504386,2280.7594936708856,-6.799370666045103,0.8698793776586452,4.694248586912184,1478.3882783882782,-1.0,68.11293954616318,0.43846577835525147,
2023-08-16 13:54:22.201000,-7.807228915662651,1.5542168674698795,5.445783132530121,1.8761496014714898,-7.863274064990803,6.050275904353157,3.0,0.4384504384504386,2280.7594936708856,-6.997843948487851,0.9156809043762025,4.892721869354932,1486.4468864468863,-1.0,68.11293954616318,0.4384635774443345,
2023-08-16 13:54:22.208000,-7.843373493975904,1.566265060240964,5.481927710843374,1.8197424892703862,-7.860821581851624,6.057633353770693,3.0,0.4384504384504386,2280.7594936708856,-6.952042421770295,0.8698793776586452,4.969057747217527,1495.970695970696,-1.0,68.11293954616318,0.4384614366367265,
2023-08-16 13:54:22.216000,-7.807228915662651,1.5421686746987953,5.481927710843374,1.8736971183323115,-7.848559166155733,6.038013488657265,3.0,0.4384504384504386,2280.7594936708856,-7.181050055358081,0.9004137288036834,4.938523396072489,1504.0293040293038,-1.0,68.11293954616318,0.4384593556497285,
2023-08-16 13:54:22.224000,-7.819277108433735,1.5903614457831325,5.506024096385542,1.8221949724095645,-7.8779889638258735,6.089515634580012,3.0,0.4384504384504386,2280.7594936708856,-7.303187459938234,0.7630091486510117,4.877454693782412,1508.4249084249084,-1.0,68.11293954616318,0.4384573341096576,
2023-08-16 13:54:22.231000,-7.795180722891566,1.5903614457831325,5.481927710843374,1.7731453096259961,-7.819129368485592,6.0478234212139785,3.0,0.438006438006438,2283.071464774455,-7.471126391235943,1.0683526601013933,5.091195151797679,1509.1575091575091,-1.0,68.11293954616318,0.4384553715531508,
2023-08-16 13:54:22.239000,-7.783132530120482,1.5903614457831325,5.506024096385542,1.8786020846106681,-7.806866952789699,6.064990803188228,3.0,0.4384504384504386,2280.7594936708856,-7.5474622690985385,1.556902278422004,5.289668434240427,1506.9597069597069,-1.0,68.11293954616318,0.43845346727957885,
2023-08-16 13:54:22.247000,-7.783132530120482,1.6144578313253013,5.518072289156627,1.8172900061312078,-7.809319435928877,6.072348252605763,3.0,0.438006438006438,2283.071464774455,-7.837538604976401,1.1752228891090268,5.25913408309539,1502.5641025641025,-1.0,68.11293954616318,0.4384516206193233,
2023-08-16 13:54:22.254000,-7.771084337349398,1.6144578313253013,5.493975903614458,1.854077253218884,-7.770079705702023,6.064990803188228,3.0,0.4384504384504386,2280.7594936708856,-7.730668375968768,1.2973602936891795,5.106462327370199,1495.970695970696,-1.0,68.11293954616318,0.43844983078679,
2023-08-16 13:54:22.262000,-7.819277108433735,1.602409638554217,5.518072289156627,1.8442673206621703,-7.833844267320662,6.0772532188841195,3.0,0.4384504384504386,2280.7594936708856,-7.959676009556554,1.6179709807120803,5.014859273935084,1488.6446886446886,-1.0,68.11293954616318,0.43844809674416985,
2023-08-16 13:54:22.270000,-7.783132530120482,1.602409638554217,5.46987951807229,1.8761496014714898,-7.824034334763948,6.064990803188228,3.0,0.438006438006438,2283.071464774455,-8.127614940854263,1.4500320494143704,5.396538663248061,1479.120879120879,-1.0,68.11293954616318,0.43844641751255936,
2023-08-16 13:54:22.277000,-7.819277108433735,1.566265060240964,5.518072289156627,1.8197424892703862,-7.819129368485592,6.0625383200490495,3.0,0.438006438006438,2283.071464774455,-8.463492803449684,1.9996503700250574,5.320202785385466,1468.131868131868,-1.0,68.11293954616318,0.4384447920257509,
2023-08-16 13:54:22.285000,-7.795180722891566,1.566265060240964,5.481927710843374,1.812385039852851,-7.767627222562845,6.067443286327406,3.0,0.4384504384504386,2280.7594936708856,-8.35662257444205,1.6027038051395612,5.167531029660275,1456.4102564102564,-1.0,68.11293954616318,0.43844321909143025,
2023-08-16 13:54:22.293000,-7.783132530120482,1.566265060240964,5.481927710843374,1.7903126916002452,-7.792152053954629,6.018393623543838,3.0,0.4384504384504386,2280.7594936708856,-8.249752345434416,2.1981236524678054,5.6102791212633285,1442.4908424908424,-1.0,68.11293954616318,0.43844169753336254,
2023-08-16 13:54:22.300000,-7.795180722891566,1.566265060240964,5.457831325301205,1.8197424892703862,-7.794604537093807,5.9963212752912325,3.0,0.4384504384504386,2280.7594936708856,-8.570363032457317,2.0149175455975765,5.5034088922556945,1426.3736263736262,-1.0,68.11293954616318,0.4384402262166695,
2023-08-16 13:54:22.308000,-7.795180722891566,1.566265060240964,5.421686746987952,1.8393623543838136,-7.794604537093807,5.952176578786021,3.0,0.4384504384504386,2280.7594936708856,-8.646698910319913,2.5645358662082636,5.686614999125924,1408.7912087912086,-1.0,68.11293954616318,0.43843880377538696,
2023-08-16 13:54:22.316000,-7.795180722891566,1.5542168674698795,5.433734939759036,1.8982219497240955,-7.833844267320662,6.001226241569589,3.0,0.4384504384504386,2280.7594936708856,-8.67723326146495,1.938581667734981,5.579744770118291,1394.139194139194,-1.0,68.11293954616318,0.4384374286380445,
2023-08-16 13:54:22.323000,-7.795180722891566,1.566265060240964,5.46987951807229,1.8393623543838136,-7.831391784181483,5.9963212752912325,3.0,0.4384504384504386,2280.7594936708856,-8.784103490472585,2.167589301322767,5.488141716683176,1384.6153846153845,-1.0,68.11293954616318,0.4384360991809958,
2023-08-16 13:54:22.331000,-7.819277108433735,1.530120481927711,5.433734939759036,1.7290006131207847,-7.843654199877375,5.986511342734518,3.0,0.4384504384504386,2280.7594936708856,-8.967309597342814,1.8011770875823094,5.335469960957985,1378.021978021978,-1.0,68.11293954616318,0.4384348137327792,
2023-08-16 13:54:22.339000,-7.867469879518072,1.5421686746987953,5.433734939759036,1.8344573881054567,-7.831391784181483,6.008583690987124,3.0,0.438006438006438,2283.071464774455,-8.753569139327546,1.755375560864752,5.533943243400733,1376.5567765567764,-1.0,68.11293954616318,0.43843357071754036,
2023-08-16 13:54:22.346000,-7.867469879518072,1.5783132530120483,5.409638554216868,1.8197424892703862,-7.902513795217658,5.988963825873697,3.0,0.438006438006438,2283.071464774455,-8.875706543907699,1.4042305226968133,5.961424159431267,1380.2197802197802,-1.0,68.11293954616318,0.4384323683515849,
2023-08-16 13:54:22.354000,-7.83132530120482,1.5783132530120483,5.445783132530121,1.8050275904353157,-7.890251379521765,6.001226241569589,3.0,0.4384504384504386,2280.7594936708856,-8.982576772915332,1.2820931181166606,6.068294388438901,1387.5457875457876,-1.0,68.11293954616318,0.438431204499153,
2023-08-16 13:54:22.362000,-7.855421686746988,1.5903614457831325,5.433734939759036,1.8221949724095645,-7.794604537093807,6.0110361741263025,3.0,0.4384504384504386,2280.7594936708856,-8.952042421770294,1.4194976982693321,6.08356156401142,1396.3369963369962,-1.0,68.11293954616318,0.43843007711340426,
2023-08-16 13:54:22.369000,-7.83132530120482,1.5903614457831325,5.457831325301205,1.807480073574494,-7.784794604537093,6.03065603923973,3.0,0.4384504384504386,2280.7594936708856,-9.119981353068004,1.1446885379639888,6.053027212866382,1402.197802197802,-1.0,68.11293954616318,0.4384289842620121,
2023-08-16 13:54:22.377000,-7.795180722891566,1.566265060240964,5.457831325301205,1.8344573881054567,-7.782342121397915,6.042918454935622,3.0,0.4384504384504386,2280.7594936708856,-9.013111124060371,1.0836198356739124,5.824019579278596,1404.3956043956043,-1.0,68.11293954616318,0.43842792399387454,
2023-08-16 13:54:22.384000,-7.807228915662651,1.5783132530120483,5.445783132530121,1.8638871857755976,-7.824034334763948,6.028203556100552,3.0,0.438006438006438,2283.071464774455,-9.043645475205409,1.007283957811317,6.144630266301497,1406.5934065934066,-1.0,68.11293954616318,0.43842689434481436,
2023-08-16 13:54:22.392000,-7.795180722891566,1.566265060240964,5.481927710843374,1.7755977927651747,-7.765174739423666,6.028203556100552,3.0,0.438006438006438,2283.071464774455,-8.952042421770294,1.037818308956355,5.793485228133558,1410.989010989011,-1.0,68.11293954616318,0.43842589333294335,
2023-08-16 13:54:22.400000,-7.807228915662651,1.566265060240964,5.518072289156627,1.8320049049662783,-7.846106683016554,6.0331085223789085,3.0,0.4384504384504386,2280.7594936708856,-9.593263795816096,1.0530854845288742,6.3889050754618015,1416.117216117216,-1.0,68.11293954616318,0.4384249187837681,
2023-08-16 13:54:22.407000,-7.843373493975904,1.566265060240964,5.481927710843374,1.8467198038013488,-7.853464132434089,6.089515634580012,3.0,0.4384504384504386,2280.7594936708856,-9.577996620243576,1.1294213623914697,6.25150049530913,1420.5128205128203,-1.0,68.11293954616318,0.4384239684952138,
2023-08-16 13:54:22.415000,-7.843373493975904,1.5903614457831325,5.457831325301205,1.8344573881054567,-7.863274064990803,6.094420600858369,3.0,0.438006438006438,2283.071464774455,-9.36425616222831,1.2210244158265842,6.709515762484703,1422.7106227106226,-1.0,68.11293954616318,0.4384230404131583,
2023-08-16 13:54:22.423000,-7.807228915662651,1.566265060240964,5.481927710843374,1.8320049049662783,-7.848559166155733,6.0478234212139785,3.0,0.43756243756243757,2285.388127853881,-9.5169279179535,0.9767496066662789,6.678981411339664,1421.245421245421,-1.0,68.11293954616318,0.43842213234939165,
2023-08-16 13:54:22.430000,-7.771084337349398,1.566265060240964,5.542168674698796,1.7805027590435314,-7.831391784181483,6.072348252605763,3.0,0.438006438006438,2283.071464774455,-9.807004253831362,1.3431618204067368,6.75531728920226,1419.047619047619,-1.0,68.11293954616318,0.4384212419553185,
2023-08-16 13:54:22.438000,-7.795180722891566,1.5903614457831325,5.481927710843374,1.858982219497241,-7.77498467198038,6.060085836909871,3.0,0.438006438006438,2283.071464774455,-9.807004253831362,1.3431618204067368,6.75531728920226,1419.7802197802198,-1.0,68.11293954616318,0.4384203669722831,
2023-08-16 13:54:22.446000,-7.759036144578314,1.6265060240963856,5.46987951807229,1.7952176578786019,-7.721030042918454,6.03065603923973,3.0,0.438006438006438,2283.071464774455,-9.486393566808463,1.4347648738418513,6.526309655614473,1421.9780219780218,-1.0,68.11293954616318,0.43841950524694423,
2023-08-16 13:54:22.453000,-7.783132530120482,1.6144578313253013,5.481927710843374,1.8687921520539545,-7.755364806866952,5.988963825873697,3.0,0.438006438006438,2283.071464774455,-9.425324864518386,1.6027038051395612,6.3889050754618015,1427.8388278388277,-1.0,68.11293954616318,0.4384186545977535,
2023-08-16 13:54:22.461000,-7.783132530120482,1.5903614457831325,5.46987951807229,1.8172900061312078,-7.814224402207234,6.0257510729613735,3.0,0.438006438006438,2283.071464774455,-10.02074471184663,1.908047316589943,6.801118815919817,1434.4322344322343,-1.0,68.11293954616318,0.4384178126811079,
2023-08-16 13:54:22.469000,-7.795180722891566,1.602409638554217,5.457831325301205,1.8025751072961373,-7.846106683016554,6.057633353770693,3.0,0.438006438006438,2283.071464774455,-10.097080589709226,1.526367927276966,6.633179884622107,1441.0256410256409,-1.0,68.11293954616318,0.43841697701629956,
2023-08-16 13:54:22.476000,-7.807228915662651,1.566265060240964,5.457831325301205,1.8172900061312078,-7.831391784181483,6.074800735744941,3.0,0.4384504384504386,2280.7594936708856,-9.913874482838997,1.8775129654449048,6.694248586912184,1444.6886446886447,-1.0,68.11293954616318,0.43841614527649114,
2023-08-16 13:54:22.484000,-7.807228915662651,1.5783132530120483,5.481927710843374,1.8859595340282034,-7.900061312078479,6.018393623543838,3.0,0.4384504384504386,2280.7594936708856,-9.944408833984035,1.541635102849485,6.846920342637374,1443.956043956044,-1.0,68.11293954616318,0.43841531528167144,
2023-08-16 13:54:22.492000,-7.819277108433735,1.5903614457831325,5.46987951807229,1.8442673206621703,-7.885346413243409,6.0036787247087675,3.0,0.438006438006438,2283.071464774455,-10.158149291999301,1.7095740341471948,6.633179884622107,1442.4908424908424,-1.0,68.11293954616318,0.43841448489556817,
2023-08-16 13:54:22.499000,-7.807228915662651,1.5903614457831325,5.493975903614458,1.8565297363580624,-7.848559166155733,6.0036787247087675,3.0,0.4384504384504386,2280.7594936708856,-9.929141658411515,1.5874366295670421,6.969057747217527,1441.7582417582416,-1.0,68.11293954616318,0.43841365189090103,
2023-08-16 13:54:22.507000,-7.807228915662651,1.5783132530120483,5.481927710843374,1.8050275904353157,-7.809319435928877,6.067443286327406,3.0,0.438006438006438,2283.071464774455,-9.944408833984035,1.0530854845288742,6.7247829380572215,1440.2930402930401,-1.0,68.11293954616318,0.4384128140808522,
2023-08-16 13:54:22.515000,-7.795180722891566,1.602409638554217,5.506024096385542,1.8172900061312078,-7.838749233599018,6.0453709380748,3.0,0.4384504384504386,2280.7594936708856,-10.17341646757182,0.9462152555212406,6.74005011362974,1437.3626373626373,-1.0,68.11293954616318,0.438411969471562,
2023-08-16 13:54:22.522000,-7.771084337349398,1.602409638554217,5.457831325301205,1.8663396689147762,-7.809319435928877,6.064990803188228,3.0,0.438006438006438,2283.071464774455,-10.417691276732127,1.3278946448342177,7.121729502942718,1432.2344322344322,-1.0,68.11293954616318,0.43841111609562605,
2023-08-16 13:54:22.530000,-7.759036144578314,1.5903614457831325,5.493975903614458,1.8663396689147762,-7.770079705702023,6.057633353770693,3.0,0.438006438006438,2283.071464774455,-10.295553872151974,1.4805664005594086,6.785851640347298,1427.106227106227,-1.0,68.11293954616318,0.4384102520368839,
2023-08-16 13:54:22.538000,-7.783132530120482,1.602409638554217,5.506024096385542,1.7903126916002452,-7.752912323727774,6.126302881667688,3.0,0.438006438006438,2283.071464774455,-10.341355398869531,1.541635102849485,6.785851640347298,1427.106227106227,-1.0,68.11293954616318,0.43840937540237274,
2023-08-16 13:54:22.545000,-7.783132530120482,1.5783132530120483,5.493975903614458,1.8393623543838136,-7.814224402207234,6.074800735744941,3.0,0.438006438006438,2283.071464774455,-10.35662257444205,1.556902278422004,6.862187518209893,1429.3040293040292,-1.0,68.11293954616318,0.43840848417635814,
2023-08-16 13:54:22.553000,-7.795180722891566,1.5542168674698795,5.518072289156627,1.7952176578786019,-7.811771919068056,6.067443286327406,3.0,0.438006438006438,2283.071464774455,-10.432958452304645,1.7859099120097903,6.984324922790046,1432.9670329670328,-1.0,68.11293954616318,0.43840757638244604,
2023-08-16 13:54:22.561000,-7.795180722891566,1.566265060240964,5.530120481927711,1.858982219497241,-7.792152053954629,6.038013488657265,3.0,0.438006438006438,2283.071464774455,-10.295553872151974,1.7706427364372712,7.045393625080123,1438.8278388278388,-1.0,68.11293954616318,0.4384066500750914,
2023-08-16 13:54:22.568000,-7.771084337349398,1.5783132530120483,5.493975903614458,1.7608828939301042,-7.765174739423666,6.079705702023298,3.0,0.4384504384504386,2280.7594936708856,-10.234485169861898,1.541635102849485,7.121729502942718,1448.3516483516482,-1.0,68.11293954616318,0.4384057033519461,
2023-08-16 13:54:22.576000,-7.795180722891566,1.5903614457831325,5.493975903614458,1.8516247700797055,-7.841201716738197,6.067443286327406,3.0,0.438006438006438,2283.071464774455,-10.341355398869531,1.6790396830021566,7.07592797622516,1456.4102564102564,-1.0,68.11293954616318,0.438404734494207,
2023-08-16 13:54:22.584000,-7.771084337349398,1.5783132530120483,5.493975903614458,1.8025751072961373,-7.779889638258736,6.0698957694665845,3.0,0.438006438006438,2283.071464774455,-10.661966085892432,1.740108385292233,7.243866907522871,1466.6666666666665,-1.0,68.11293954616318,0.43840374185110936,
2023-08-16 13:54:22.591000,-7.771084337349398,1.5903614457831325,5.493975903614458,1.8050275904353157,-7.799509503372164,6.0551808706315144,3.0,0.438006438006438,2283.071464774455,-10.875706543907699,1.8164442631548283,7.0606608006526415,1478.3882783882782,-1.0,68.11293954616318,0.43840272381037654,
2023-08-16 13:54:22.599000,-7.783132530120482,1.602409638554217,5.493975903614458,1.8467198038013488,-7.826486817903127,6.072348252605763,3.0,0.438006438006438,2283.071464774455,-10.570363032457317,1.740108385292233,7.335469960957985,1489.3772893772893,-1.0,68.11293954616318,0.43840167878954645,
2023-08-16 13:54:22.607000,-7.795180722891566,1.5903614457831325,5.506024096385542,1.7878602084610666,-7.838749233599018,6.0993255671367255,3.0,0.4384504384504386,2280.7594936708856,-10.936775246197776,1.9996503700250574,7.488141716683176,1497.4358974358972,-1.0,68.11293954616318,0.438400605098809,
2023-08-16 13:54:22.614000,-7.783132530120482,1.566265060240964,5.493975903614458,1.8295524218270998,-7.855916615573268,6.089515634580012,3.0,0.438006438006438,2283.071464774455,-11.1963172309306,1.8317114387273474,7.350737136530504,1501.8315018315018,-1.0,68.11293954616318,0.43839950125074395,
2023-08-16 13:54:22.622000,-7.807228915662651,1.566265060240964,5.493975903614458,1.8270999386879214,-7.846106683016554,6.03065603923973,3.0,0.4384504384504386,2280.7594936708856,-11.089447001922967,1.7248412097197139,7.442340189965618,1503.2967032967033,-1.0,68.11293954616318,0.438398365961577,
2023-08-16 13:54:22.630000,-7.807228915662651,1.5542168674698795,5.481927710843374,1.765787860208461,-7.828939301042305,6.050275904353157,3.0,0.438006438006438,2283.071464774455,-11.135248528640524,1.7706427364372712,7.335469960957985,1504.7619047619046,-1.0,68.11293954616318,0.4383971979932563,
2023-08-16 13:54:22.637000,-7.807228915662651,1.566265060240964,5.493975903614458,1.8001226241569588,-7.782342121397915,6.035561005518087,3.0,0.4384504384504386,2280.7594936708856,-11.318454635510752,1.3889633471242941,7.289668434240427,1504.7619047619046,-1.0,68.11293954616318,0.43839599602701224,
2023-08-16 13:54:22.645000,-7.771084337349398,1.566265060240964,5.506024096385542,1.8050275904353157,-7.826486817903127,6.0772532188841195,3.0,0.438006438006438,2283.071464774455,-11.119981353068004,1.4347648738418513,7.518676067828214,1504.7619047619046,-1.0,68.11293954616318,0.4383947588136031,
2023-08-16 13:54:22.653000,-7.783132530120482,1.5783132530120483,5.493975903614458,1.836909871244635,-7.826486817903127,6.094420600858369,3.0,0.438006438006438,2283.071464774455,-11.1963172309306,1.4347648738418513,7.732416525843481,1505.4945054945053,-1.0,68.11293954616318,0.43839348531300576,
2023-08-16 13:54:22.660000,-7.783132530120482,1.5903614457831325,5.493975903614458,1.8467198038013488,-7.792152053954629,6.116492949110975,3.0,0.438006438006438,2283.071464774455,-11.013111124060371,1.4194976982693321,7.472874541110657,1505.4945054945053,-1.0,68.11293954616318,0.4383921743869361,
2023-08-16 13:54:22.668000,-7.746987951807229,1.5903614457831325,5.493975903614458,1.858982219497241,-7.77498467198038,6.050275904353157,3.0,0.438006438006438,2283.071464774455,-11.379523337800828,1.4194976982693321,7.427073014393099,1507.6923076923076,-1.0,68.11293954616318,0.43839082479961144,
2023-08-16 13:54:22.676000,-7.746987951807229,1.602409638554217,5.530120481927711,1.8687921520539545,-7.789699570815451,6.12385039852851,3.0,0.438006438006438,2283.071464774455,-11.104714177495485,1.8469786142998665,7.59501194569081,1509.1575091575091,-1.0,68.11293954616318,0.43838943537747094,
2023-08-16 13:54:22.683000,-7.759036144578314,1.602409638554217,5.518072289156627,1.8295524218270998,-7.826486817903127,6.074800735744941,3.0,0.438006438006438,2283.071464774455,-11.242118757648157,1.4500320494143704,7.442340189965618,1508.4249084249084,-1.0,68.11293954616318,0.4383880049984772,
2023-08-16 13:54:22.691000,-7.783132530120482,1.5903614457831325,5.518072289156627,1.8001226241569588,-7.806866952789699,6.0257510729613735,3.0,0.438006438006438,2283.071464774455,-11.18105005535808,1.5111007517044468,7.656080647980886,1506.9597069597069,-1.0,68.11293954616318,0.43838653246369774,
2023-08-16 13:54:22.699000,-7.795180722891566,1.602409638554217,5.506024096385542,1.807480073574494,-7.887798896382587,6.116492949110975,3.0,0.438006438006438,2283.071464774455,-11.5169279179535,1.6790396830021566,7.671347823553405,1504.0293040293038,-1.0,68.11293954616318,0.4383850167844148,
2023-08-16 13:54:22.706000,-7.783132530120482,1.5903614457831325,5.493975903614458,1.8786020846106681,-7.814224402207234,6.0698957694665845,3.0,0.438006438006438,2283.071464774455,-11.135248528640524,1.556902278422004,7.656080647980886,1501.098901098901,-1.0,68.11293954616318,0.43838345702215203,
2023-08-16 13:54:22.714000,-7.734939759036145,1.6265060240963856,5.493975903614458,1.8638871857755976,-7.828939301042305,6.028203556100552,3.0,0.438006438006438,2283.071464774455,-11.135248528640524,1.556902278422004,7.656080647980886,1500.3663003663003,-1.0,68.11293954616318,0.43838185229906323,
2023-08-16 13:54:22.722000,-7.783132530120482,1.6265060240963856,5.506024096385542,1.9251992642550582,-7.782342121397915,6.074800735744941,3.0,0.4384504384504386,2280.7594936708856,-11.21158440650312,1.6027038051395612,7.671347823553405,1501.098901098901,-1.0,68.11293954616318,0.43838020192601496,
2023-08-16 13:54:22.729000,-7.783132530120482,1.6265060240963856,5.481927710843374,1.8467198038013488,-7.765174739423666,6.052728387492336,3.0,0.43756243756243757,2285.388127853881,-11.608530971388614,1.6332381562845995,7.59501194569081,1500.3663003663003,-1.0,68.11293954616318,0.4383785052644284,
2023-08-16 13:54:22.737000,-7.783132530120482,1.6265060240963856,5.530120481927711,1.8320049049662783,-7.851011649294911,6.12385039852851,3.0,0.438006438006438,2283.071464774455,-11.135248528640524,1.6027038051395612,7.869821105996152,1500.3663003663003,-1.0,68.11293954616318,0.43837676160922195,
2023-08-16 13:54:22.745000,-7.746987951807229,1.6144578313253013,5.530120481927711,1.8663396689147762,-7.750459840588595,6.101778050275904,3.0,0.438006438006438,2283.071464774455,-11.700134024823729,1.9538488433075,7.5034088922556945,1499.6336996336995,-1.0,68.11293954616318,0.4383749702853721,
2023-08-16 13:54:22.752000,-7.783132530120482,1.6506024096385543,5.55421686746988,1.8025751072961373,-7.819129368485592,6.050275904353157,3.0,0.438006438006438,2283.071464774455,-11.165782879785562,1.8317114387273474,7.762950876988519,1498.9010989010987,-1.0,68.11293954616318,0.4383731307971086,
2023-08-16 13:54:22.760000,-7.771084337349398,1.63855421686747,5.518072289156627,1.9031269160024524,-7.833844267320662,6.074800735744941,3.0,0.4384504384504386,2280.7594936708856,-10.967309597342814,1.6943068585746757,7.6102791212633285,1498.9010989010987,-1.0,68.11293954616318,0.4383712426897319,
2023-08-16 13:54:22.767000,-7.759036144578314,1.6265060240963856,5.518072289156627,1.8933169834457386,-7.809319435928877,6.121397915389331,3.0,0.4384504384504386,2280.7594936708856,-11.119981353068004,1.8164442631548283,7.671347823553405,1496.7032967032967,-1.0,68.11293954616318,0.43836930569943433,
2023-08-16 13:54:22.775000,-7.771084337349398,1.6265060240963856,5.518072289156627,1.9153893316983446,-7.748007357449417,6.079705702023298,3.0,0.438006438006438,2283.071464774455,-11.34898898665579,1.8164442631548283,7.762950876988519,1494.5054945054944,-1.0,68.11293954616318,0.4383673197756738,
2023-08-16 13:54:22.783000,-7.759036144578314,1.63855421686747,5.518072289156627,1.888412017167382,-7.819129368485592,6.121397915389331,3.0,0.4384504384504386,2280.7594936708856,-11.272653108793195,1.8164442631548283,7.5034088922556945,1491.5750915750914,-1.0,68.11293954616318,0.43836528479528747,
2023-08-16 13:54:22.790000,-7.783132530120482,1.6506024096385543,5.542168674698796,1.8442673206621703,-7.765174739423666,6.0698957694665845,3.0,0.438006438006438,2283.071464774455,-11.242118757648157,1.6637725074296377,7.59501194569081,1488.6446886446886,-1.0,68.11293954616318,0.4383632005534807,
2023-08-16 13:54:22.798000,-7.746987951807229,1.63855421686747,5.518072289156627,1.8736971183323115,-7.843654199877375,6.0698957694665845,3.0,0.4384504384504386,2280.7594936708856,-11.257385933220675,2.0149175455975765,7.57974477011829,1484.2490842490843,-1.0,68.11293954616318,0.4383610667963311,
2023-08-16 13:54:22.806000,-7.746987951807229,1.63855421686747,5.506024096385542,1.8761496014714898,-7.75781729000613,6.118945432250153,3.0,0.438006438006438,2283.071464774455,-11.455859215663423,1.6637725074296377,7.243866907522871,1476.923076923077,-1.0,68.11293954616318,0.4383588834986471,
2023-08-16 13:54:22.813000,-7.746987951807229,1.63855421686747,5.530120481927711,1.8712446351931329,-7.755364806866952,6.104230533415082,3.0,0.438006438006438,2283.071464774455,-11.089447001922967,1.9843831944525383,7.5034088922556945,1468.8644688644688,-1.0,68.11293954616318,0.4383566508547285,
2023-08-16 13:54:22.821000,-7.771084337349398,1.6506024096385543,5.46987951807229,1.8933169834457386,-7.831391784181483,6.074800735744941,3.0,0.4384504384504386,2280.7594936708856,-11.165782879785562,1.9996503700250574,7.533943243400733,1461.5384615384614,-1.0,68.11293954616318,0.4383543689714036,
2023-08-16 13:54:22.829000,-7.771084337349398,1.63855421686747,5.506024096385542,1.8663396689147762,-7.797057020232986,6.0453709380748,3.0,0.438006438006438,2283.071464774455,-11.104714177495485,1.908047316589943,7.396538663248061,1455.6776556776556,-1.0,68.11293954616318,0.43835203815747337,
2023-08-16 13:54:22.836000,-7.771084337349398,1.63855421686747,5.46987951807229,1.841814837522992,-7.792152053954629,6.094420600858369,3.0,0.438006438006438,2283.071464774455,-11.33372181108327,1.9843831944525383,7.3812714876755425,1452.7472527472526,-1.0,68.11293954616318,0.43834965879763366,
