Shimmer_F5D4_Timestamp_FormattedUnix_CAL,Shimmer_F5D4_Accel_LN_X_CAL,Shimmer_F5D4_Accel_LN_Y_CAL,Shimmer_F5D4_Accel_LN_Z_CAL,Shimmer_F5D4_Accel_WR_X_CAL,Shimmer_F5D4_Accel_WR_Y_CAL,Shimmer_F5D4_Accel_WR_Z_CAL,Shimmer_F5D4_GSR_Range_CAL,Shimmer_F5D4_GSR_Skin_Conductance_CAL,Shimmer_F5D4_GSR_Skin_Resistance_CAL,Shimmer_F5D4_Gyro_X_CAL,Shimmer_F5D4_Gyro_Y_CAL,Shimmer_F5D4_Gyro_Z_CAL,Shimmer_F5D4_PPG_A13_CAL,Shimmer_F5D4_PPG_IBI_CAL,Shimmer_F5D4_PPGtoHR_CAL,Shimmer_F5D4_GSR_Skin_Conductance_LPF_CAL,
yyyy/mm/dd hh:mm:ss.000,m/(s^2),m/(s^2),m/(s^2),m/(s^2),m/(s^2),m/(s^2),no_units,uS,kOhms,deg/s,deg/s,deg/s,mV,ms,BPM,uS,
2023-08-17 11:16:25.250000,-7.674698795180723,-2.4216867469879517,5.421686746987952,-2.280809319435929,-7.6989576946658485,5.998773758430411,2.0,1.4981684981684982,667.481662591687,-0.1018588660334472,-0.1828564768952865,-0.23157158673736944,1580.2197802197802,-1.0,79.12109139200773,1.4995915798328494,
2023-08-17 11:16:25.257000,-7.710843373493976,-2.4457831325301207,5.409638554216868,-2.3249540159411404,-7.706315144083384,5.927651747394236,2.0,1.4981684981684982,667.481662591687,-0.02330866499621242,0.21455626129013475,-0.5040498805430919,1539.9267399267399,-1.0,79.12109139200773,1.4995816623812188,
2023-08-17 11:16:25.265000,-7.698795180722892,-2.4457831325301207,5.397590361445784,-2.3274064990803187,-7.708767627222563,5.925199264255058,2.0,1.4981684981684982,667.481662591687,-0.2706136006060247,0.07656896451255708,-0.5919235475788123,1501.098901098901,-1.0,79.12109139200773,1.4995716376905195,
2023-08-17 11:16:25.273000,-7.674698795180723,-2.4457831325301207,5.409638554216868,-2.3126916002452482,-7.725935009196811,5.98405885959534,2.0,1.4981684981684982,667.481662591687,0.06712895518909198,0.24509061243517294,-0.22213157741390388,1465.201465201465,-1.0,79.12109139200773,1.4995614990020378,
2023-08-17 11:16:25.280000,-7.698795180722892,-2.4457831325301207,5.445783132530121,-2.393623543838136,-7.713672593500919,5.964438994481912,2.0,1.4981684981684982,667.481662591687,-0.025289901520890112,0.18448808344501993,-0.37363789988928375,1433.6996336996335,-1.0,79.12109139200773,1.4995512398769528,
2023-08-17 11:16:25.288000,-7.698795180722892,-2.4457831325301207,5.409638554216868,-2.3126916002452482,-7.6695278969957075,5.961986511342734,2.0,1.4981684981684982,667.481662591687,-0.22271429403880894,0.2490530854845283,-0.14148359652700884,1406.5934065934066,-1.0,79.12109139200773,1.4995408542158808,
2023-08-17 11:16:25.296000,-7.686746987951808,-2.4457831325301207,5.421686746987952,-2.3274064990803187,-7.706315144083384,5.96934396076027,2.0,1.4981684981684982,667.481662591687,-0.03717732066895799,0.27772274342986963,-0.5207155760153835,1383.8827838827838,-1.0,79.12109139200773,1.4995303362775143,
2023-08-17 11:16:25.303000,-7.698795180722892,-2.4457831325301207,5.433734939759036,-2.3274064990803187,-7.713672593500919,5.93746167995095,2.0,1.4981684981684982,667.481662591687,-0.3419381154944355,0.44251500495309176,-0.3500961482431092,1362.6373626373625,-1.0,79.12109139200773,1.4995196806962925,
2023-08-17 11:16:25.311000,-7.686746987951808,-2.4457831325301207,5.397590361445784,-2.3568362967504597,-7.770079705702023,5.954629061925199,2.0,1.4981684981684982,667.481662591687,0.1650253481731838,-0.0170153254472351,-0.24124468271079752,1344.3223443223442,-1.0,79.12109139200773,1.4995088824990734,
2023-08-17 11:16:25.319000,-7.686746987951808,-2.4578313253012047,5.373493975903615,-2.322501532801962,-7.711220110361741,5.900674432863274,2.0,1.4981684981684982,667.481662591687,-0.2936891789522755,-0.03146669774488659,-0.3462502185187342,1330.4029304029302,-1.0,79.12109139200773,1.499497937120732,
2023-08-17 11:16:25.326000,-7.686746987951808,-2.4457831325301207,5.385542168674699,-2.4034334763948495,-7.694052728387492,5.9742489270386265,2.0,1.4981684981684982,667.481662591687,0.0587378357904544,-0.1681720179476716,-0.11456208845638398,1318.6813186813185,-1.0,79.12109139200773,1.4994868404186594,
2023-08-17 11:16:25.334000,-7.686746987951808,-2.4698795180722892,5.385542168674699,-2.3617412630288164,-7.657265481299816,5.998773758430411,2.0,1.4981684981684982,667.481662591687,0.05955363906532199,-0.16770584464774824,-0.11479517510634565,1310.6227106227104,-1.0,79.12109139200773,1.499475588686106,
2023-08-17 11:16:25.342000,-7.686746987951808,-2.4457831325301207,5.373493975903615,-2.2857142857142856,-7.659717964438994,5.947271612507664,2.0,1.4981684981684982,667.481662591687,0.05955363906532199,-0.16689004137288066,-0.11328011188159218,1302.5641025641025,-1.0,79.12109139200773,1.4994641786643281,
2023-08-17 11:16:25.349000,-7.674698795180723,-2.4457831325301207,5.421686746987952,-2.3445738810545675,-7.6695278969957075,5.947271612507664,2.0,1.4981684981684982,667.481662591687,0.028553114620360476,-0.4099994172833759,-0.06701241186411028,1298.9010989010987,-1.0,79.12109139200773,1.4994526075535104,
2023-08-17 11:16:25.357000,-7.662650602409639,-2.433734939759036,5.397590361445784,-2.3249540159411404,-7.770079705702023,5.908031882280809,2.0,1.4967032967032967,668.1350954478708,-0.183206106870229,-0.10337392925820155,-0.15663422877454708,1298.168498168498,-1.0,79.12109139200773,1.4994408730224258,
2023-08-17 11:16:25.365000,-7.662650602409639,-2.4457831325301207,5.421686746987952,-2.322501532801962,-7.711220110361741,5.966891477621091,2.0,1.4967032967032967,668.1350954478708,0.12481790105471711,-0.5027679039683005,0.07388846803799308,1301.8315018315018,-1.0,79.12109139200773,1.4994289731819987,
2023-08-17 11:16:25.372000,-7.710843373493976,-2.4578313253012047,5.397590361445784,-2.300429184549356,-7.691600245248313,6.0331085223789085,2.0,1.4981684981684982,667.481662591687,-0.11864110483072063,-0.3486976283433361,-0.03449682419439442,1306.9597069597069,-1.0,79.12109139200773,1.4994169064529124,
2023-08-17 11:16:25.380000,-7.698795180722892,-2.433734939759036,5.409638554216868,-2.347026364193746,-7.740649908031882,5.966891477621091,2.0,1.4981684981684982,667.481662591687,-0.0417225103432193,-0.3321484761960261,0.05698968591573925,1308.4249084249084,-1.0,79.12109139200773,1.4994046720279084,
2023-08-17 11:16:25.388000,-7.710843373493976,-2.4698795180722892,5.409638554216868,-2.329858982219497,-7.730839975475168,6.013488657265481,2.0,1.4981684981684982,667.481662591687,-0.10279121263329563,-0.32958452304644253,0.10255812598333439,1309.1575091575091,-1.0,79.12109139200773,1.4993922694879216,
2023-08-17 11:16:25.395000,-7.698795180722892,-2.4457831325301207,5.409638554216868,-2.3126916002452482,-7.706315144083384,5.976701410177805,2.0,1.4981684981684982,667.481662591687,-0.02587261814579603,0.022959035021269912,-0.09696404638424339,1309.1575091575091,-1.0,79.12109139200773,1.49937969841623,
2023-08-17 11:16:25.403000,-7.698795180722892,-2.433734939759036,5.385542168674699,-2.3347639484978537,-7.767627222562845,5.9742489270386265,2.0,1.4981684981684982,667.481662591687,0.06631315191422439,-0.1279645708292049,0.10372355923314493,1310.6227106227104,-1.0,79.12109139200773,1.4993669588896585,
2023-08-17 11:16:25.411000,-7.698795180722892,-2.4578313253012047,5.385542168674699,-2.3249540159411404,-7.740649908031882,5.998773758430411,2.0,1.4981684981684982,667.481662591687,0.28121904317930163,0.028669657945341313,0.17901054717091108,1313.5531135531135,-1.0,79.12109139200773,1.4993540514758252,
2023-08-17 11:16:25.418000,-7.710843373493976,-2.4457831325301207,5.409638554216868,-2.322501532801962,-7.725935009196811,5.976701410177805,2.0,1.4981684981684982,667.481662591687,0.11211467863178164,-0.16595769477303224,0.17772857059611927,1318.6813186813185,-1.0,79.12109139200773,1.4993409776870184,
2023-08-17 11:16:25.426000,-7.686746987951808,-2.4457831325301207,5.409638554216868,-2.342121397915389,-7.733292458614347,5.98405885959534,2.0,1.4981684981684982,667.481662591687,-0.07330575141308847,-0.023075578346250746,0.2682827341064041,1326.007326007326,-1.0,79.12109139200773,1.4993277394498745,
2023-08-17 11:16:25.433000,-7.662650602409639,-2.433734939759036,5.409638554216868,-2.293071735131821,-7.713672593500919,5.90557939914163,2.0,1.4981684981684982,667.481662591687,-0.17877746052094853,-0.24928617213449172,0.509877046792145,1334.065934065934,-1.0,79.12109139200773,1.499314339135752,
2023-08-17 11:16:25.441000,-7.674698795180723,-2.4457831325301207,5.397590361445784,-2.3494788473329247,-7.706315144083384,5.991416309012875,2.0,1.4981684981684982,667.481662591687,0.13006235067886518,0.21397354466522883,0.17038634112231227,1342.1245421245421,-1.0,79.12109139200773,1.4993007795201445,
2023-08-17 11:16:25.449000,-7.686746987951808,-2.4457831325301207,5.433734939759036,-2.364193746167995,-7.701410177805027,5.957081545064377,2.0,1.4981684981684982,667.481662591687,-0.05477536274109902,-0.04591807004253809,0.2321543033622749,1347.985347985348,-1.0,79.12109139200773,1.4992870633523379,
2023-08-17 11:16:25.456000,-7.698795180722892,-2.433734939759036,5.421686746987952,-2.2955242182709994,-7.691600245248313,5.971796443899448,2.0,1.4981684981684982,667.481662591687,-0.0870578637608532,-0.07423809801293689,0.5517161004603464,1349.4505494505493,-1.0,79.12109139200773,1.4992731942950788,
2023-08-17 11:16:25.464000,-7.698795180722892,-2.433734939759036,5.409638554216868,-2.2906192519926423,-7.679337829552422,6.018393623543838,2.0,1.4981684981684982,667.481662591687,-0.05535807936600493,-0.22679331041314688,0.1816910436454751,1345.054945054945,-1.0,79.12109139200773,1.4992591763876102,
2023-08-17 11:16:25.472000,-7.662650602409639,-2.4698795180722892,5.421686746987952,-2.342121397915389,-7.691600245248313,5.9816063764561616,2.0,1.4981684981684982,667.481662591687,-0.08309539071149782,-0.1343744537031648,0.043936833517860395,1337.7289377289376,-1.0,79.12109139200773,1.4992450140696836,
2023-08-17 11:16:25.479000,-7.662650602409639,-2.4457831325301207,5.457831325301205,-2.3617412630288164,-7.667075413856529,6.020846106683016,2.0,1.4981684981684982,667.481662591687,-0.06561389196433763,-0.4079016374337156,0.09125342346017155,1328.2051282051282,-1.0,79.12109139200773,1.4992307121349,
2023-08-17 11:16:25.487000,-7.662650602409639,-2.4457831325301207,5.409638554216868,-2.369098712446352,-7.684242795830778,6.006131207847946,2.0,1.4967032967032967,668.1350954478708,0.34834799836839364,-0.17772857059611927,0.16677349804789937,1320.14652014652,-1.0,79.12109139200773,1.4992162752946252,
2023-08-17 11:16:25.495000,-7.638554216867471,-2.4698795180722892,5.433734939759036,-2.3249540159411404,-7.711220110361741,5.976701410177805,2.0,1.4981684981684982,667.481662591687,-0.3562729444671061,-0.04079016374337087,0.4254996795058562,1313.5531135531135,-1.0,79.12109139200773,1.4992017081616928,
2023-08-17 11:16:25.502000,-7.698795180722892,-2.4578313253012047,5.421686746987952,-2.388718577559779,-7.730839975475168,5.998773758430411,2.0,1.4981684981684982,667.481662591687,-0.09300157333488801,0.3265543965969356,0.05698968591573925,1311.3553113553112,-1.0,79.12109139200773,1.4991870161118566,
2023-08-17 11:16:25.510000,-7.674698795180723,-2.4819277108433737,5.421686746987952,-2.258736971183323,-7.6817903126916,5.942366646229307,2.0,1.4967032967032967,668.1350954478708,0.44169920167822413,-0.04207214031816354,0.3788823495134318,1309.89010989011,-1.0,79.12109139200773,1.4991722052657466,
2023-08-17 11:16:25.518000,-7.674698795180723,-2.4698795180722892,5.409638554216868,-2.3494788473329247,-7.708767627222563,5.898221949724095,2.0,1.4967032967032967,668.1350954478708,0.08833984033564414,0.09579861313443329,0.6976283433366353,1309.89010989011,-1.0,79.12109139200773,1.499157281556603,
2023-08-17 11:16:25.525000,-7.686746987951808,-2.4578313253012047,5.409638554216868,-2.381361128142244,-7.69650521152667,5.971796443899448,2.0,1.4967032967032967,668.1350954478708,0.3178136472233555,0.20208612551716096,0.7238505914573743,1309.1575091575091,-1.0,79.12109139200773,1.4991422510640469,
2023-08-17 11:16:25.533000,-7.662650602409639,-2.4578313253012047,5.409638554216868,-2.3617412630288164,-7.676885346413243,5.957081545064377,2.0,1.4981684981684982,667.481662591687,0.23949653283608235,0.21770293106462255,0.61033739292582,1307.6923076923076,-1.0,79.12109139200773,1.499127119958309,
2023-08-17 11:16:25.541000,-7.674698795180723,-2.4698795180722892,5.409638554216868,-2.3494788473329247,-7.6989576946658485,6.001226241569589,2.0,1.4981684981684982,667.481662591687,0.2373987529864221,0.09428354990967895,0.48307208204650093,1301.8315018315018,-1.0,79.12109139200773,1.4991118949705002,
2023-08-17 11:16:25.548000,-7.674698795180723,-2.4578313253012047,5.397590361445784,-2.3028816676885344,-7.6253832004904964,5.993868792152053,2.0,1.4981684981684982,667.481662591687,0.2966027620768016,0.5380805314375616,0.4937940679447583,1294.5054945054944,-1.0,79.12109139200773,1.4990965834411032,
2023-08-17 11:16:25.556000,-7.674698795180723,-2.433734939759036,5.409638554216868,-2.2906192519926423,-7.674432863274064,5.976701410177805,2.0,1.4967032967032967,668.1350954478708,0.2624555678573505,0.2453236990851346,0.39717965153545826,1287.179487179487,-1.0,79.12109139200773,1.4990811923849123,
2023-08-17 11:16:25.564000,-7.686746987951808,-2.433734939759036,5.421686746987952,-2.2636419374616796,-7.671980380134886,5.998773758430411,2.0,1.4981684981684982,667.481662591687,0.07668550783753793,0.30615931472524927,0.36373171726589354,1282.051282051282,-1.0,79.12109139200773,1.4990657280458775,
2023-08-17 11:16:25.571000,-7.686746987951808,-2.4578313253012047,5.421686746987952,-2.322501532801962,-7.728387492335989,5.954629061925199,2.0,1.4981684981684982,667.481662591687,0.21257502476545706,0.4894819649204591,0.34496824194394243,1278.3882783882782,-1.0,79.12109139200773,1.4990501967859047,
2023-08-17 11:16:25.579000,-7.686746987951808,-2.4578313253012047,5.385542168674699,-2.3347639484978537,-7.738197424892704,5.988963825873697,2.0,1.4981684981684982,667.481662591687,0.04125633704329595,0.7768778043237572,0.8436571295379058,1274.7252747252746,-1.0,79.12109139200773,1.4990346060433353,
2023-08-17 11:16:25.587000,-7.686746987951808,-2.4457831325301207,5.397590361445784,-2.2955242182709994,-7.691600245248313,5.979153893316983,2.0,1.4981684981684982,667.481662591687,0.14905891265077795,0.46745527649903934,0.6373754443214261,1271.062271062271,-1.0,79.12109139200773,1.4990189637838958,
2023-08-17 11:16:25.594000,-7.674698795180723,-2.4457831325301207,5.385542168674699,-2.329858982219497,-7.738197424892704,5.976701410177805,2.0,1.4981684981684982,667.481662591687,0.34706602179360097,0.32632130994697217,0.5236291591399101,1271.062271062271,-1.0,79.12109139200773,1.4990032779891127,
2023-08-17 11:16:25.602000,-7.674698795180723,-2.4216867469879517,5.385542168674699,-2.329858982219497,-7.733292458614347,5.947271612507664,2.0,1.4967032967032967,668.1350954478708,-0.006876056173883237,-0.13309247712837213,0.6087057863760852,1271.062271062271,-1.0,79.12109139200773,1.498987556637569,
2023-08-17 11:16:25.610000,-7.686746987951808,-2.433734939759036,5.397590361445784,-2.329858982219497,-7.730839975475168,5.93746167995095,2.0,1.4981684981684982,667.481662591687,0.00827457607365501,0.3701416001398517,0.6782821513897791,1270.3296703296703,-1.0,79.12109139200773,1.4989718067358948,
2023-08-17 11:16:25.617000,-7.698795180722892,-2.433734939759036,5.409638554216868,-2.258736971183323,-7.738197424892704,5.954629061925199,2.0,1.4981684981684982,667.481662591687,0.39123594196142475,0.24462443913524784,0.5808519317056114,1268.8644688644688,-1.0,79.12109139200773,1.4989560347884108,
2023-08-17 11:16:25.625000,-7.698795180722892,-2.4216867469879517,5.421686746987952,-2.270999386879215,-7.689147762109135,6.074800735744941,2.0,1.4967032967032967,668.1350954478708,0.38750655556202934,0.24182739933570255,0.5754909387564826,1266.6666666666665,-1.0,79.12109139200773,1.4989402482502467,
2023-08-17 11:16:25.633000,-7.698795180722892,-2.397590361445783,5.409638554216868,-2.2562844880441446,-7.706315144083384,5.998773758430411,2.0,1.4981684981684982,667.481662591687,0.38366062583765476,0.3328477361459129,0.6450673037701765,1263.7362637362637,-1.0,79.12109139200773,1.4989244544882507,
2023-08-17 11:16:25.640000,-7.710843373493976,-2.397590361445783,5.397590361445784,-2.251379521765788,-7.75781729000613,6.015941140404659,2.0,1.4981684981684982,667.481662591687,0.2731775537556083,0.36314900064098765,0.3633820872909502,1263.003663003663,-1.0,79.12109139200773,1.498908660235249,
2023-08-17 11:16:25.648000,-7.710843373493976,-2.4216867469879517,5.421686746987952,-2.3372164316370325,-7.794604537093807,5.971796443899448,2.0,1.4981684981684982,667.481662591687,0.16187867839869427,0.2399627061360057,0.37270555328943533,1260.8058608058607,-1.0,79.12109139200773,1.4988928726247637,
2023-08-17 11:16:25.656000,-7.710843373493976,-2.397590361445783,5.445783132530121,-2.280809319435929,-7.718577559779276,5.976701410177805,2.0,1.4981684981684982,667.481662591687,-0.13064506730376935,0.5893595944292286,0.3370432958452308,1259.3406593406592,-1.0,79.12109139200773,1.4988770991395912,
2023-08-17 11:16:25.663000,-7.674698795180723,-2.4096385542168677,5.409638554216868,-2.229307173513182,-7.728387492335989,5.939914163090129,2.0,1.4967032967032967,668.1350954478708,-0.11491171843132691,0.4792261523221264,0.2737602703805138,1258.6080586080586,-1.0,79.12109139200773,1.4988613471060594,
2023-08-17 11:16:25.671000,-7.710843373493976,-2.397590361445783,5.36144578313253,-2.2538320049049663,-7.765174739423666,5.9963212752912325,2.0,1.4967032967032967,668.1350954478708,-0.5263096556144746,0.3535924479925417,0.728978497756541,1263.003663003663,-1.0,79.12109139200773,1.4988456231892853,
2023-08-17 11:16:25.679000,-7.686746987951808,-2.397590361445783,5.397590361445784,-2.2440220723482525,-7.711220110361741,5.961986511342734,2.0,1.4967032967032967,668.1350954478708,-0.0019812365246776914,0.048015849892196615,-0.024357554921041684,1270.3296703296703,-1.0,79.12109139200773,1.4988299333099817,
2023-08-17 11:16:25.686000,-7.698795180722892,-2.3855421686746987,5.36144578313253,-2.2636419374616796,-7.76026977314531,5.96934396076027,2.0,1.4967032967032967,668.1350954478708,-0.26024124468271115,0.2938057222772563,0.34193811549443504,1280.5860805860805,-1.0,79.12109139200773,1.498814283086869,
2023-08-17 11:16:25.694000,-7.698795180722892,-2.4096385542168677,5.409638554216868,-2.251379521765788,-7.686695278969957,6.013488657265481,2.0,1.4967032967032967,668.1350954478708,-0.07412155468795606,-0.24124468271079838,0.3083736378998895,1290.10989010989,-1.0,79.12109139200773,1.4987986778217657,
2023-08-17 11:16:25.702000,-7.686746987951808,-2.397590361445783,5.421686746987952,-2.251379521765788,-7.652360515021459,5.9963212752912325,2.0,1.4981684981684982,667.481662591687,-0.056523512615815036,-0.0870578637608532,0.3697919701649088,1296.7032967032967,-1.0,79.12109139200773,1.4987831224852868,
2023-08-17 11:16:25.709000,-7.686746987951808,-2.397590361445783,5.433734939759036,-2.275904353157572,-7.725935009196811,6.0036787247087675,2.0,1.4981684981684982,667.481662591687,-0.010372355923315273,-0.2851815162286588,0.5343511450381679,1297.4358974358975,-1.0,79.12109139200773,1.4987676221958868,
2023-08-17 11:16:25.717000,-7.686746987951808,-2.4096385542168677,5.421686746987952,-2.2734518700183934,-7.6817903126916,6.038013488657265,2.0,1.4967032967032967,668.1350954478708,-0.24007924946098655,-0.31618204067362027,0.01165433249810621,1293.7728937728937,-1.0,79.12109139200773,1.4987521822791754,
2023-08-17 11:16:25.725000,-7.674698795180723,-2.397590361445783,5.433734939759036,-2.2440220723482525,-7.686695278969957,6.035561005518087,2.0,1.4967032967032967,668.1350954478708,-0.14544606957636508,0.06829438843890208,0.10302429928325817,1288.6446886446886,-1.0,79.12109139200773,1.498736807310861,
2023-08-17 11:16:25.732000,-7.698795180722892,-2.397590361445783,5.421686746987952,-2.2685469037400368,-7.75781729000613,5.957081545064377,2.0,1.4981684981684982,667.481662591687,-0.09789639298409182,-0.02365829497115493,0.07144105821339117,1283.5164835164835,-1.0,79.12109139200773,1.4987215010395332,
2023-08-17 11:16:25.740000,-7.72289156626506,-2.397590361445783,5.421686746987952,-2.3028816676885344,-7.76026977314531,6.001226241569589,2.0,1.4981684981684982,667.481662591687,-0.12808111415418746,0.5573101800594378,-0.05209486626653457,1279.8534798534797,-1.0,79.12109139200773,1.4987062668702442,
2023-08-17 11:16:25.748000,-7.72289156626506,-2.433734939759036,5.397590361445784,-2.3200490496627832,-7.706315144083384,5.957081545064377,2.0,1.4967032967032967,668.1350954478708,-0.34100576889458706,0.6876056173882646,-0.28110249985432084,1277.6556776556777,-1.0,79.12109139200773,1.4986911084536625,
2023-08-17 11:16:25.755000,-7.746987951807229,-2.4216867469879517,5.421686746987952,-2.3568362967504597,-7.721030042918454,5.959534028203556,2.0,1.4981684981684982,667.481662591687,0.0734222947380693,0.2697977973311571,-0.09568206980945158,1276.1904761904761,-1.0,79.12109139200773,1.4986760291550267,
2023-08-17 11:16:25.763000,-7.72289156626506,-2.397590361445783,5.421686746987952,-2.3274064990803187,-7.77498467198038,5.998773758430411,2.0,1.4981684981684982,667.481662591687,-0.37049123011479596,0.23693257968649875,0.11782530155585347,1274.7252747252746,-1.0,79.12109139200773,1.4986610319825957,
2023-08-17 11:16:25.771000,-7.759036144578314,-2.4216867469879517,5.445783132530121,-2.288166768853464,-7.738197424892704,5.935009196811771,2.0,1.4967032967032967,668.1350954478708,-9.323465998484274E-4,0.5856302080298349,-0.06538080531437553,1275.4578754578754,-1.0,79.12109139200773,1.498646119656541,
2023-08-17 11:16:25.778000,-7.710843373493976,-2.4096385542168677,5.421686746987952,-2.288166768853464,-7.716125076640098,6.008583690987124,2.0,1.4967032967032967,668.1350954478708,-0.16828856127265243,0.32259192354757843,-0.32515587669716206,1278.3882783882782,-1.0,79.12109139200773,1.4986312941868094,
2023-08-17 11:16:25.786000,-7.710843373493976,-2.397590361445783,5.421686746987952,-2.3274064990803187,-7.686695278969957,5.976701410177805,2.0,1.4967032967032967,668.1350954478708,-0.04754967659227327,0.4246838762309891,-0.3066254880251735,1279.120879120879,-1.0,79.12109139200773,1.498616557226966,
2023-08-17 11:16:25.794000,-7.674698795180723,-2.4096385542168677,5.421686746987952,-2.2906192519926423,-7.75781729000613,5.93746167995095,2.0,1.4967032967032967,668.1350954478708,0.04405337684284123,0.36023541751646154,-0.12306975118000109,1280.5860805860805,-1.0,79.12109139200773,1.498601910041002,
2023-08-17 11:16:25.801000,-7.674698795180723,-2.4096385542168677,5.397590361445784,-2.2440220723482525,-7.684242795830778,5.915389331698345,2.0,1.4981684981684982,667.481662591687,0.04335411689295448,0.021443971796515564,-0.06304993881475446,1287.9120879120878,-1.0,79.12109139200773,1.4985873535059113,
2023-08-17 11:16:25.809000,-7.662650602409639,-2.4096385542168677,5.409638554216868,-2.300429184549356,-7.686695278969957,5.976701410177805,2.0,1.4967032967032967,668.1350954478708,0.013285939047841392,0.09708058970922423,0.029135831245265524,1304.0293040293038,-1.0,79.12109139200773,1.49857288860789,
2023-08-17 11:16:25.816000,-7.674698795180723,-2.4096385542168677,5.433734939759036,-2.3347639484978537,-7.657265481299816,5.986511342734518,2.0,1.4952380952380953,668.7898089171974,0.19765747916788048,-0.23786492628634717,0.05745585921566346,1329.6703296703297,-1.0,79.12109139200773,1.4985585160263257,
2023-08-17 11:16:25.824000,-7.698795180722892,-2.4216867469879517,5.397590361445784,-2.3053341508277128,-7.657265481299816,6.0110361741263025,2.0,1.4967032967032967,668.1350954478708,-0.04871510984208337,-0.24916962880950913,-0.11199813530679993,1366.3003663003662,-1.0,79.12109139200773,1.498544235122011,
2023-08-17 11:16:25.832000,-7.662650602409639,-2.4216867469879517,5.421686746987952,-2.3053341508277128,-7.691600245248313,6.006131207847946,2.0,1.4967032967032967,668.1350954478708,-0.12540061767962304,-0.35289318804265496,-0.17446535749664976,1416.117216117216,-1.0,79.12109139200773,1.4985300448223793,
2023-08-17 11:16:25.839000,-7.674698795180723,-2.433734939759036,5.433734939759036,-2.3274064990803187,-7.708767627222563,5.9816063764561616,2.0,1.4967032967032967,668.1350954478708,0.15115669250043648,-0.07528698793776616,-0.4472932812773147,1478.3882783882782,-1.0,79.12109139200773,1.4985159441537148,
2023-08-17 11:16:25.847000,-7.650602409638554,-2.4457831325301207,5.409638554216868,-2.300429184549356,-7.69650521152667,5.96934396076027,2.0,1.4967032967032967,668.1350954478708,-0.017248412097196776,-0.18075869704562622,-0.24520715576015376,1550.18315018315,-1.0,79.12109139200773,1.4985019317912025,
2023-08-17 11:16:25.855000,-7.662650602409639,-2.4096385542168677,5.409638554216868,-2.2832618025751072,-7.642550582464745,5.959534028203556,2.0,1.4981684981684982,667.481662591687,0.04486918011770882,-0.19217994289377077,-0.2407785094108733,1627.106227106227,-1.0,79.12109139200773,1.498488006067638,
2023-08-17 11:16:25.862000,-7.674698795180723,-2.4457831325301207,5.421686746987952,-2.3494788473329247,-7.6989576946658485,5.961986511342734,2.0,1.4981684981684982,667.481662591687,-0.09125342346017198,0.29788473865159426,-0.421187576481557,1701.8315018315018,-1.0,79.12109139200773,1.498474165475587,
2023-08-17 11:16:25.870000,-7.674698795180723,-2.4457831325301207,5.409638554216868,-2.293071735131821,-7.728387492335989,5.9742489270386265,2.0,1.4981684981684982,667.481662591687,-0.0712079715634282,-0.0071091428238449095,-0.2770234834799833,1771.4285714285713,-1.0,79.12109139200773,1.4984604087498066,
2023-08-17 11:16:25.878000,-7.686746987951808,-2.4578313253012047,5.409638554216868,-2.3617412630288164,-7.701410177805027,5.96934396076027,2.0,1.4967032967032967,668.1350954478708,-0.10046034613367542,0.20686440184138394,-0.10302429928325817,1830.7692307692307,-1.0,79.12109139200773,1.4984467344258847,
2023-08-17 11:16:25.885000,-7.710843373493976,-2.4457831325301207,5.421686746987952,-2.376456161863887,-7.706315144083384,5.971796443899448,2.0,1.4967032967032967,668.1350954478708,0.20919526834100588,0.020278538546705464,-0.3276032865217644,1878.3882783882782,-1.0,79.12109139200773,1.498433140365371,
2023-08-17 11:16:25.893000,-7.686746987951808,-2.4578313253012047,5.409638554216868,-2.3568362967504597,-7.6989576946658485,6.023298589822194,2.0,1.4967032967032967,668.1350954478708,0.1798263504457778,0.24858691218460496,-0.0026804964745644456,1915.018315018315,-1.0,79.12109139200773,1.4984196237026162,
2023-08-17 11:16:25.901000,-7.698795180722892,-2.4457831325301207,5.397590361445784,-2.2857142857142856,-7.752912323727774,5.942366646229307,2.0,1.4981684981684982,667.481662591687,0.17877746052094853,0.24683876230988894,-0.0033797564244507665,1938.4615384615383,-1.0,79.12109139200773,1.4984061813172689,
2023-08-17 11:16:25.908000,-7.686746987951808,-2.4457831325301207,5.397590361445784,-2.2955242182709994,-7.69650521152667,5.939914163090129,2.0,1.4981684981684982,667.481662591687,0.16187867839869427,0.13880310005244526,-0.3088398111998137,1948.7179487179485,-1.0,79.12109139200773,1.4983928098841675,
2023-08-17 11:16:25.916000,-7.698795180722892,-2.4578313253012047,5.409638554216868,-2.3151440833844266,-7.689147762109135,5.991416309012875,2.0,1.4981684981684982,667.481662591687,0.22551133383835423,0.30930598449973706,0.13717149350270966,1946.5201465201465,-1.0,79.12109139200773,1.4983795064861674,
2023-08-17 11:16:25.924000,-7.698795180722892,-2.4578313253012047,5.421686746987952,-2.3151440833844266,-7.74310239117106,5.935009196811771,2.0,1.4981684981684982,667.481662591687,-0.09579861313443329,0.306858574675136,0.04603461336751936,1931.8681318681317,-1.0,79.12109139200773,1.498366268598837,
2023-08-17 11:16:25.931000,-7.698795180722892,-2.433734939759036,5.385542168674699,-2.2832618025751072,-7.6989576946658485,5.900674432863274,2.0,1.4967032967032967,668.1350954478708,0.058388205815511886,0.5805023017306676,-0.3210768603228254,1905.4945054945053,-1.0,79.12109139200773,1.4983530936208027,
2023-08-17 11:16:25.939000,-7.698795180722892,-2.433734939759036,5.385542168674699,-2.329858982219497,-7.767627222562845,5.90557939914163,2.0,1.4967032967032967,668.1350954478708,0.10418973253306914,0.2421770293106468,0.07959909096206491,1872.5274725274724,-1.0,79.12109139200773,1.4983399784049236,
2023-08-17 11:16:25.947000,-7.734939759036145,-2.4216867469879517,5.397590361445784,-2.3494788473329247,-7.725935009196811,5.93746167995095,2.0,1.4967032967032967,668.1350954478708,0.35032923489307133,0.1471942194510811,-0.17796165724608137,1835.164835164835,-1.0,79.12109139200773,1.4983269192106867,
2023-08-17 11:16:25.954000,-7.698795180722892,-2.4457831325301207,5.397590361445784,-2.3372164316370325,-7.706315144083384,5.927651747394236,2.0,1.4967032967032967,668.1350954478708,-0.16945399452246426,0.08321193403647865,-0.0992949128838649,1794.8717948717947,758.331298828125,79.12109139200773,1.498313912181723,
2023-08-17 11:16:25.962000,-7.710843373493976,-2.4457831325301207,5.373493975903615,-2.317596566523605,-7.6621704475781724,5.961986511342734,2.0,1.4967032967032967,668.1350954478708,0.03228250101975418,0.06747858516403449,0.012703222422935909,1756.0439560439559,-1.0,79.12109139200773,1.4983009533653755,
2023-08-17 11:16:25.970000,-7.710843373493976,-2.4457831325301207,5.36144578313253,-2.293071735131821,-7.748007357449417,5.930104230533415,2.0,1.4967032967032967,668.1350954478708,0.19858982576772893,-0.1642095448983162,-0.13670532020278542,1714.2857142857142,-1.0,79.12109139200773,1.4982880382742179,
2023-08-17 11:16:25.977000,-7.710843373493976,-2.433734939759036,5.409638554216868,-2.3274064990803187,-7.74310239117106,6.020846106683016,2.0,1.4967032967032967,668.1350954478708,-0.09067070683526607,-0.043936833517860395,0.06468154536448921,1672.5274725274724,-1.0,79.12109139200773,1.4982751624303263,
2023-08-17 11:16:25.985000,-7.710843373493976,-2.433734939759036,5.397590361445784,-2.251379521765788,-7.6621704475781724,5.932556713672593,2.0,1.4967032967032967,668.1350954478708,-0.31979488374803317,0.03158324106986743,-0.11817493153079642,1632.9670329670328,-1.0,79.12109139200773,1.4982623218052245,
2023-08-17 11:16:25.993000,-7.674698795180723,-2.4216867469879517,5.397590361445784,-2.329858982219497,-7.69650521152667,5.912936848559166,2.0,1.4967032967032967,668.1350954478708,-0.28669657945341137,-0.1048889924829559,-0.1616455917487326,1594.8717948717947,-1.0,79.12109139200773,1.4982495123462867,
2023-08-17 11:16:26,-7.710843373493976,-2.433734939759036,5.385542168674699,-2.3274064990803187,-7.674432863274064,5.979153893316983,2.0,1.4967032967032967,668.1350954478708,-0.05827166249053105,-0.009906182623390191,-0.022143231746401454,1558.974358974359,-1.0,79.12109139200773,1.4982367299953354,
2023-08-17 11:16:26.008000,-7.698795180722892,-2.4216867469879517,5.385542168674699,-2.280809319435929,-7.745554874310239,5.93746167995095,2.0,1.4967032967032967,668.1350954478708,-0.18134141367053214,0.03985781714352244,0.23809801293630886,1526.007326007326,-1.0,79.12109139200773,1.4982239707067053,
2023-08-17 11:16:26.016000,-7.686746987951808,-2.433734939759036,5.409638554216868,-2.241569589209074,-7.694052728387492,5.925199264255058,2.0,1.4967032967032967,668.1350954478708,-0.1806421537206454,0.011304702523163701,-0.12913000407901631,1495.970695970696,-1.0,79.12109139200773,1.4982112304646888,
2023-08-17 11:16:26.023000,-7.686746987951808,-2.433734939759036,5.385542168674699,-2.31023911710607,-7.664622930717351,5.964438994481912,2.0,1.4967032967032967,668.1350954478708,0.003263213099470364,0.24019579278596737,0.10034380280869416,1467.3992673992673,-1.0,79.12109139200773,1.4981985053003128,
2023-08-17 11:16:26.031000,-7.710843373493976,-2.4457831325301207,5.397590361445784,-2.3347639484978537,-7.718577559779276,5.9448191293684856,2.0,1.4967032967032967,668.1350954478708,0.06421537206456586,-0.09777984965911098,0.15943126857409237,1443.2234432234432,-1.0,79.12109139200773,1.4981857913073815,
2023-08-17 11:16:26.039000,-7.686746987951808,-2.4457831325301207,5.397590361445784,-2.293071735131821,-7.701410177805027,6.008583690987124,2.0,1.4967032967032967,668.1350954478708,0.04836547986714086,-0.02132742847153473,0.19043179301905475,1419.7802197802198,-1.0,79.12109139200773,1.4981730846577441,
2023-08-17 11:16:26.046000,-7.698795180722892,-2.4216867469879517,5.385542168674699,-2.2562844880441446,-7.6621704475781724,5.988963825873697,2.0,1.4967032967032967,668.1350954478708,-0.01281976574791631,0.3908863119864805,0.22108268748907417,1396.3369963369962,-1.0,79.12109139200773,1.498160381615725,
2023-08-17 11:16:26.054000,-7.686746987951808,-2.433734939759036,5.409638554216868,-2.3249540159411404,-7.76026977314531,6.0110361741263025,2.0,1.4967032967032967,668.1350954478708,-0.05885437911543697,0.3111706776994339,0.35708874774197286,1375.091575091575,-1.0,79.12109139200773,1.4981476785516923,
2023-08-17 11:16:26.062000,-7.698795180722892,-2.4216867469879517,5.373493975903615,-2.2906192519926423,-7.694052728387492,5.930104230533415,2.0,1.4967032967032967,668.1350954478708,0.01992890857176122,0.04591807004253809,0.17166831769710406,1356.0439560439559,-1.0,79.12109139200773,1.4981349719547257,
2023-08-17 11:16:26.069000,-7.698795180722892,-2.4216867469879517,5.36144578313253,-2.2538320049049663,-7.718577559779276,5.96934396076027,2.0,1.4967032967032967,668.1350954478708,0.0055940795990905645,-0.19975525901753902,0.20161995221723716,1342.8571428571427,-1.0,79.12109139200773,1.498122258444349,
2023-08-17 11:16:26.077000,-7.698795180722892,-2.433734939759036,5.409638554216868,-2.3617412630288164,-7.762722256284488,5.895769466584917,2.0,1.4967032967032967,668.1350954478708,0.08297884738651524,0.04498572344268966,0.093933919934736,1329.6703296703297,-1.0,79.12109139200773,1.4981095347813203,
2023-08-17 11:16:26.085000,-7.72289156626506,-2.4096385542168677,5.421686746987952,-2.3028816676885344,-7.738197424892704,5.927651747394236,2.0,1.4967032967032967,668.1350954478708,-0.08635860381096644,0.08554280053609885,0.20127032224229335,1320.8791208791208,-1.0,79.12109139200773,1.4980967978774506,
2023-08-17 11:16:26.092000,-7.686746987951808,-2.4216867469879517,5.421686746987952,-2.3053341508277128,-7.667075413856529,5.947271612507664,2.0,1.4967032967032967,668.1350954478708,-0.1495250859507013,-0.040440533768428356,-0.1659576947730318,1314.2857142857142,-1.0,79.12109139200773,1.498084044804452,
2023-08-17 11:16:26.100000,-7.698795180722892,-2.4216867469879517,5.409638554216868,-2.251379521765788,-7.674432863274064,5.959534028203556,2.0,1.4967032967032967,668.1350954478708,-0.36373171726589354,-0.11829147485577812,-0.33494551599557143,1312.087912087912,-1.0,79.12109139200773,1.4980712728018057,
2023-08-17 11:16:26.108000,-7.72289156626506,-2.4457831325301207,5.409638554216868,-2.2611894543225013,-7.713672593500919,5.920294297976701,2.0,1.4967032967032967,668.1350954478708,-0.1798263504457778,0.03239904434473502,-0.013285939047840959,1312.087912087912,-1.0,79.12109139200773,1.498058479283661,
2023-08-17 11:16:26.115000,-7.710843373493976,-2.4216867469879517,5.433734939759036,-2.317596566523605,-7.730839975475168,5.930104230533415,2.0,1.4967032967032967,668.1350954478708,-0.06083561564011466,-9.323465998484274E-4,0.1497581726006643,1312.087912087912,-1.0,79.12109139200773,1.498045661844764,
2023-08-17 11:16:26.123000,-7.710843373493976,-2.4457831325301207,5.421686746987952,-2.317596566523605,-7.713672593500919,5.9448191293684856,2.0,1.4952380952380953,668.7898089171974,-0.029135831245264657,0.011071615873200292,-0.12726531087931903,1310.6227106227104,-1.0,79.12109139200773,1.4980328182654412,
2023-08-17 11:16:26.131000,-7.686746987951808,-2.4216867469879517,5.421686746987952,-2.4206008583690988,-7.762722256284488,5.952176578786021,2.0,1.4967032967032967,668.1350954478708,0.13740458015267176,0.3435697220441707,-0.008857292698560493,1306.9597069597069,-1.0,79.12109139200773,1.4980199464808506,
2023-08-17 11:16:26.138000,-7.698795180722892,-2.433734939759036,5.433734939759036,-2.322501532801962,-7.748007357449417,5.9963212752912325,2.0,1.4967032967032967,668.1350954478708,0.28821164267816574,0.030650894470019004,0.18565351669483135,1306.227106227106,-1.0,79.12109139200773,1.498007044937355,
2023-08-17 11:16:26.146000,-7.686746987951808,-2.433734939759036,5.421686746987952,-2.3053341508277128,-7.694052728387492,5.959534028203556,2.0,1.4967032967032967,668.1350954478708,-0.06689586853912857,-0.04859856651710253,-0.06211759221490603,1307.6923076923076,-1.0,79.12109139200773,1.4979941121730398,
2023-08-17 11:16:26.154000,-7.686746987951808,-2.4216867469879517,5.421686746987952,-2.2660944206008584,-7.748007357449417,5.952176578786021,2.0,1.4967032967032967,668.1350954478708,0.13111124060369442,-0.2478876522347182,0.17959326379581614,1311.3553113553112,-1.0,79.12109139200773,1.4979811464315411,
2023-08-17 11:16:26.161000,-7.686746987951808,-2.4216867469879517,5.409638554216868,-2.288166768853464,-7.728387492335989,5.96934396076027,2.0,1.4967032967032967,668.1350954478708,0.17761202727113842,0.15080706252549397,0.2340189965619722,1315.7509157509157,-1.0,79.12109139200773,1.4979681461534675,
2023-08-17 11:16:26.169000,-7.698795180722892,-2.433734939759036,5.421686746987952,-2.2955242182709994,-7.706315144083384,5.949724095646842,2.0,1.4967032967032967,668.1350954478708,0.06852747508886375,0.11922382145562654,0.09078725016024691,1320.14652014652,-1.0,79.12109139200773,1.4979551099744188,
2023-08-17 11:16:26.177000,-7.686746987951808,-2.4216867469879517,5.409638554216868,-2.3200490496627832,-7.725935009196811,5.957081545064377,2.0,1.4967032967032967,668.1350954478708,0.06538080531437596,0.11805838820581471,0.08775712371073952,1324.5421245421244,-1.0,79.12109139200773,1.4979420367223633,
2023-08-17 11:16:26.184000,-7.698795180722892,-2.433734939759036,5.397590361445784,-2.275904353157572,-7.679337829552422,5.961986511342734,2.0,1.4967032967032967,668.1350954478708,0.017714585397121858,0.22725948371307023,-0.022143231746401454,1330.4029304029302,-1.0,79.12109139200773,1.4979289254144386,
2023-08-17 11:16:26.192000,-7.698795180722892,-2.433734939759036,5.409638554216868,-2.2857142857142856,-7.728387492335989,5.957081545064377,2.0,1.4967032967032967,668.1350954478708,-0.028203484645416232,-0.017831128722102692,-0.025989161470776866,1334.065934065934,-1.0,79.12109139200773,1.4979157752532386,
2023-08-17 11:16:26.199000,-7.698795180722892,-2.4216867469879517,5.385542168674699,-2.347026364193746,-7.76026977314531,5.947271612507664,2.0,1.4967032967032967,668.1350954478708,-0.16828856127265243,0.05792203251558681,0.10803566225744411,1336.9963369963368,-1.0,79.12109139200773,1.4979025856226706,
2023-08-17 11:16:26.207000,-7.674698795180723,-2.4216867469879517,5.385542168674699,-2.3249540159411404,-7.713672593500919,6.035561005518087,2.0,1.4967032967032967,668.1350954478708,-0.03100052444496325,-0.11374628518151682,0.14882582600081584,1335.5311355311355,-1.0,79.12109139200773,1.4978893560834485,
2023-08-17 11:16:26.215000,-7.698795180722892,-2.433734939759036,5.409638554216868,-2.317596566523605,-7.75781729000613,5.976701410177805,2.0,1.4967032967032967,668.1350954478708,0.2441582658353245,-0.13111124060369442,0.06887710506380713,1329.6703296703297,-1.0,79.12109139200773,1.497876086368296,
2023-08-17 11:16:26.222000,-7.698795180722892,-2.433734939759036,5.409638554216868,-2.2636419374616796,-7.708767627222563,5.92274678111588,2.0,1.4967032967032967,668.1350954478708,0.1823903035953614,-0.028436571295379638,0.26222248120738884,1323.076923076923,-1.0,79.12109139200773,1.497862776376936,
2023-08-17 11:16:26.230000,-7.698795180722892,-2.4457831325301207,5.409638554216868,-2.3028816676885344,-7.772532188841201,5.939914163090129,2.0,1.4967032967032967,668.1350954478708,-0.07936600431210238,-0.15651768544956537,0.028786201270322147,1319.4139194139193,-1.0,79.12109139200773,1.4978494261709363,
2023-08-17 11:16:26.238000,-7.698795180722892,-2.433734939759036,5.433734939759036,-2.3372164316370325,-7.718577559779276,6.050275904353157,2.0,1.4967032967032967,668.1350954478708,0.15092360585047482,0.04148942369325762,0.08927218693549344,1318.6813186813185,-1.0,79.12109139200773,1.497836035968475,
2023-08-17 11:16:26.245000,-7.710843373493976,-2.4457831325301207,5.409638554216868,-2.3568362967504597,-7.750459840588595,5.9742489270386265,2.0,1.4967032967032967,668.1350954478708,-0.02051162519666714,-0.038808927218693175,0.3748033331390947,1317.9487179487178,-1.0,79.12109139200773,1.4978226061391038,
2023-08-17 11:16:26.253000,-7.72289156626506,-2.4216867469879517,5.409638554216868,-2.3543838136112814,-7.721030042918454,6.018393623543838,2.0,1.4967032967032967,668.1350954478708,0.025639531495834356,-0.29916671522638516,0.2600081580327486,1317.216117216117,-1.0,79.12109139200773,1.4978091371985627,
2023-08-17 11:16:26.261000,-7.698795180722892,-2.433734939759036,5.409638554216868,-2.2685469037400368,-7.691600245248313,5.979153893316983,2.0,1.4967032967032967,668.1350954478708,0.28424916962881036,0.12854728745411081,0.2704970572810443,1315.018315018315,-1.0,79.12109139200773,1.497795629803718,
2023-08-17 11:16:26.268000,-7.686746987951808,-2.4096385542168677,5.409638554216868,-2.322501532801962,-7.6989576946658485,5.927651747394236,2.0,1.4967032967032967,668.1350954478708,0.2819183031291884,0.06747858516403449,0.27877163335469973,1309.89010989011,-1.0,79.12109139200773,1.4977820847476737,
2023-08-17 11:16:26.276000,-7.674698795180723,-2.4457831325301207,5.397590361445784,-2.3249540159411404,-7.691600245248313,5.98405885959534,2.0,1.4952380952380953,668.7898089171974,-0.012353592447992964,0.34170502884447207,0.19462735271837311,1301.098901098901,-1.0,79.12109139200773,1.497768502955112,
2023-08-17 11:16:26.284000,-7.698795180722892,-2.4457831325301207,5.385542168674699,-2.3053341508277128,-7.6817903126916,6.008583690987124,2.0,1.4952380952380953,668.7898089171974,-0.2407785094108733,-0.01083852922323862,0.19019870636909264,1292.3076923076922,-1.0,79.12109139200773,1.4977548854431162,
2023-08-17 11:16:26.291000,-7.698795180722892,-2.4216867469879517,5.421686746987952,-2.288166768853464,-7.75781729000613,6.013488657265481,2.0,1.4967032967032967,668.1350954478708,-0.02540644484587095,0.06631315191422439,-0.029135831245265524,1283.5164835164835,-1.0,79.12109139200773,1.4977412331776705,
2023-08-17 11:16:26.299000,-7.710843373493976,-2.4216867469879517,5.373493975903615,-2.3494788473329247,-7.713672593500919,5.925199264255058,2.0,1.4967032967032967,668.1350954478708,-0.08799021036070162,-0.2841326263038278,0.3655964104655904,1277.6556776556777,-1.0,79.12109139200773,1.4977275475265581,
2023-08-17 11:16:26.307000,-7.734939759036145,-2.4216867469879517,5.409638554216868,-2.317596566523605,-7.728387492335989,6.006131207847946,2.0,1.4967032967032967,668.1350954478708,-0.42351844298117897,-0.4637258900996439,-0.1616455917487326,1273.9926739926739,-1.0,79.12109139200773,1.497713829867837,
2023-08-17 11:16:26.314000,-7.686746987951808,-2.4216867469879517,5.409638554216868,-2.2979767014101777,-7.721030042918454,6.0036787247087675,2.0,1.4967032967032967,668.1350954478708,-0.04125633704329595,-0.167356214672804,0.2476545655847561,1271.7948717948716,-1.0,79.12109139200773,1.497700081656014,
2023-08-17 11:16:26.322000,-7.686746987951808,-2.4096385542168677,5.409638554216868,-2.2734518700183934,-7.711220110361741,5.979153893316983,2.0,1.4967032967032967,668.1350954478708,0.02132742847153473,-0.21257502476545706,-0.09346774663481136,1270.3296703296703,-1.0,79.12109139200773,1.497686304384078,
2023-08-17 11:16:26.330000,-7.698795180722892,-2.4096385542168677,5.421686746987952,-2.3372164316370325,-7.750459840588595,5.998773758430411,2.0,1.4967032967032967,668.1350954478708,0.12575024765456555,0.0019812365246776914,0.31524969407377185,1268.131868131868,-1.0,79.12109139200773,1.4976724991574337,
2023-08-17 11:16:26.337000,-7.686746987951808,-2.433734939759036,5.409638554216868,-2.2562844880441446,-7.654812998160637,6.006131207847946,2.0,1.4967032967032967,668.1350954478708,-0.0427714002680503,0.01538371889749992,0.21875182098945267,1266.6666666666665,-1.0,79.12109139200773,1.497658667181583,
2023-08-17 11:16:26.345000,-7.674698795180723,-2.4216867469879517,5.409638554216868,-2.280809319435929,-7.684242795830778,6.0110361741263025,2.0,1.4967032967032967,668.1350954478708,-0.07260649146320171,-0.07820057106229227,0.2756249635802111,1264.4688644688645,-1.0,79.12109139200773,1.497644809757784,
2023-08-17 11:16:26.353000,-7.686746987951808,-2.4216867469879517,5.409638554216868,-2.3200490496627832,-7.711220110361741,5.96934396076027,2.0,1.4967032967032967,668.1350954478708,-0.04113979371831512,-0.07948254763708494,0.27096323058096833,1264.4688644688645,-1.0,79.12109139200773,1.4976309282794005,
2023-08-17 11:16:26.360000,-7.710843373493976,-2.433734939759036,5.385542168674699,-2.2955242182709994,-7.748007357449417,5.976701410177805,2.0,1.4967032967032967,668.1350954478708,-0.04067362041839003,-0.03682769069401549,0.052910669541401945,1264.4688644688645,-1.0,79.12109139200773,1.4976170242289646,
2023-08-17 11:16:26.368000,-7.686746987951808,-2.4216867469879517,5.385542168674699,-2.2734518700183934,-7.706315144083384,5.964438994481912,2.0,1.4967032967032967,668.1350954478708,0.12609987762950806,-0.2211992308140546,-0.07260649146320128,1263.7362637362637,-1.0,79.12109139200773,1.4976030991759715,
2023-08-17 11:16:26.376000,-7.674698795180723,-2.397590361445783,5.409638554216868,-2.2906192519926423,-7.738197424892704,5.942366646229307,2.0,1.4967032967032967,668.1350954478708,0.20231921216712262,-0.30033214847619527,0.17096905774721752,1262.2710622710622,-1.0,79.12109139200773,1.4975891547754383,
2023-08-17 11:16:26.383000,-7.686746987951808,-2.4216867469879517,5.433734939759036,-2.300429184549356,-7.689147762109135,5.954629061925199,2.0,1.4952380952380953,668.7898089171974,0.09288503000990543,-0.08764058038575911,0.4271312860555912,1260.07326007326,-1.0,79.12109139200773,1.4975751927672087,
2023-08-17 11:16:26.391000,-7.698795180722892,-2.397590361445783,5.409638554216868,-2.317596566523605,-7.679337829552422,5.954629061925199,2.0,1.4967032967032967,668.1350954478708,0.06118524561505717,-0.2581434648330509,0.20872909504108145,1257.8754578754579,-1.0,79.12109139200773,1.49756121448335,
2023-08-17 11:16:26.399000,-7.710843373493976,-2.4216867469879517,5.421686746987952,-2.329858982219497,-7.711220110361741,6.0110361741263025,2.0,1.4967032967032967,668.1350954478708,-0.047083503292348186,-0.15255521240021,0.02284249169628799,1257.8754578754579,-1.0,79.12109139200773,1.4975472212694354,
2023-08-17 11:16:26.406000,-7.710843373493976,-2.4216867469879517,5.433734939759036,-2.317596566523605,-7.6989576946658485,5.90557939914163,2.0,1.4967032967032967,668.1350954478708,-0.047083503292348186,6.992599498867545E-4,-0.10209195268341018,1263.003663003663,-1.0,79.12109139200773,1.4975332154684546,
2023-08-17 11:16:26.414000,-7.686746987951808,-2.4096385542168677,5.433734939759036,-2.2611894543225013,-7.6989576946658485,5.993868792152053,2.0,1.4967032967032967,668.1350954478708,-0.09218577006002042,0.10582133908280432,-0.2703805139560633,1270.3296703296703,-1.0,79.12109139200773,1.4975191994394266,
2023-08-17 11:16:26.422000,-7.698795180722892,-2.4216867469879517,5.421686746987952,-2.317596566523605,-7.725935009196811,5.98405885959534,2.0,1.4967032967032967,668.1350954478708,0.0020977798496585277,0.05862129246547356,-0.08565934386108034,1278.3882783882782,-1.0,79.12109139200773,1.497505175138596,
2023-08-17 11:16:26.429000,-7.686746987951808,-2.4096385542168677,5.409638554216868,-2.2636419374616796,-7.716125076640098,5.939914163090129,2.0,1.4952380952380953,668.7898089171974,-0.07353883806305013,-0.050812889691743635,-0.360351960841443,1285.7142857142856,-1.0,79.12109139200773,1.4974911450722896,
2023-08-17 11:16:26.437000,-7.72289156626506,-2.4216867469879517,5.409638554216868,-2.3077866339668915,-7.684242795830778,5.976701410177805,2.0,1.4952380952380953,668.7898089171974,-0.25686148825826,-0.11258085193170499,-0.37270555328943533,1290.10989010989,-1.0,79.12109139200773,1.497477111739938,
2023-08-17 11:16:26.445000,-7.710843373493976,-2.397590361445783,5.397590361445784,-2.3200490496627832,-7.772532188841201,5.920294297976701,2.0,1.4952380952380953,668.7898089171974,-0.11899073480566313,-0.16036361517394165,-0.19987180234252072,1292.3076923076922,-1.0,79.12109139200773,1.4974630770770079,
2023-08-17 11:16:26.452000,-7.674698795180723,-2.4216867469879517,5.36144578313253,-2.3249540159411404,-7.689147762109135,5.912936848559166,2.0,1.4952380952380953,668.7898089171974,-0.11724258493094886,-0.15849892197424306,-0.19882291241769123,1295.970695970696,-1.0,79.12109139200773,1.4974490429149936,
2023-08-17 11:16:26.460000,-7.710843373493976,-2.433734939759036,5.385542168674699,-2.322501532801962,-7.711220110361741,5.979153893316983,2.0,1.4967032967032967,668.1350954478708,0.3411223122195679,-0.005943709574034809,-0.2278422003379755,1298.168498168498,-1.0,79.12109139200773,1.497435010982731,
2023-08-17 11:16:26.468000,-7.686746987951808,-2.4216867469879517,5.385542168674699,-2.351931330472103,-7.667075413856529,5.947271612507664,2.0,1.4967032967032967,668.1350954478708,-0.043936833517860395,-0.14486335295145916,-0.22364664063865736,1298.168498168498,-1.0,79.12109139200773,1.4974209833995713,
2023-08-17 11:16:26.475000,-7.674698795180723,-2.4216867469879517,5.421686746987952,-2.2857142857142856,-7.750459840588595,5.96934396076027,2.0,1.4967032967032967,668.1350954478708,-0.13577297360293658,-0.29916671522638516,0.1288969174290542,1296.7032967032967,-1.0,79.12109139200773,1.4974069627472615,
2023-08-17 11:16:26.483000,-7.674698795180723,-2.4096385542168677,5.409638554216868,-2.339668914776211,-7.765174739423666,5.971796443899448,2.0,1.4967032967032967,668.1350954478708,0.1545364489248877,-0.16152904842375176,-0.3314492162461396,1294.5054945054944,-1.0,79.12109139200773,1.4973929516164868,
2023-08-17 11:16:26.491000,-7.710843373493976,-2.4216867469879517,5.433734939759036,-2.2979767014101777,-7.723482526057633,5.954629061925199,2.0,1.4967032967032967,668.1350954478708,-0.21374045801526717,0.01876347532195112,-0.22306392401375208,1292.3076923076922,-1.0,79.12109139200773,1.4973789526110715,
2023-08-17 11:16:26.498000,-7.698795180722892,-2.4457831325301207,5.397590361445784,-2.3274064990803187,-7.738197424892704,5.998773758430411,2.0,1.4967032967032967,668.1350954478708,0.15675077209952878,0.06200104888992476,-0.11491171843132691,1289.3772893772893,-1.0,79.12109139200773,1.497364968351953,
2023-08-17 11:16:26.506000,-7.72289156626506,-2.4216867469879517,5.421686746987952,-2.3347639484978537,-7.738197424892704,5.976701410177805,2.0,1.4952380952380953,668.7898089171974,-0.0916030534351145,0.07540353126274699,-0.18880018646932,1285.7142857142856,-1.0,79.12109139200773,1.497351001480909,
2023-08-17 11:16:26.514000,-7.734939759036145,-2.4457831325301207,5.433734939759036,-2.3126916002452482,-7.75781729000613,5.966891477621091,2.0,1.4967032967032967,668.1350954478708,-0.18343919352019067,-0.10698677233261442,-0.14276557310180063,1282.051282051282,-1.0,79.12109139200773,1.4973370541713527,
2023-08-17 11:16:26.521000,-7.72289156626506,-2.433734939759036,5.397590361445784,-2.3077866339668915,-7.77498467198038,5.925199264255058,2.0,1.4952380952380953,668.7898089171974,0.12644950760445228,0.09090379348522774,-0.20150340889225568,1279.8534798534797,-1.0,79.12109139200773,1.4973231280941441,
2023-08-17 11:16:26.529000,-7.734939759036145,-2.4216867469879517,5.385542168674699,-2.2955242182709994,-7.6989576946658485,6.020846106683016,2.0,1.4952380952380953,668.7898089171974,0.09544898315948905,-0.06281685216479235,-0.18099178369558877,1279.8534798534797,-1.0,79.12109139200773,1.49730922497747,
2023-08-17 11:16:26.537000,-7.710843373493976,-2.4216867469879517,5.409638554216868,-2.3543838136112814,-7.752912323727774,5.947271612507664,2.0,1.4952380952380953,668.7898089171974,-0.009906182623390191,0.09078725016024691,-0.2519666686090553,1279.120879120879,-1.0,79.12109139200773,1.4972953464999406,
2023-08-17 11:16:26.544000,-7.698795180722892,-2.4216867469879517,5.421686746987952,-2.2660944206008584,-7.689147762109135,5.98405885959534,2.0,1.4967032967032967,668.1350954478708,0.05291066954140216,0.014334828972670657,-0.24683876230988852,1280.5860805860805,-1.0,79.12109139200773,1.4972814942526675,
2023-08-17 11:16:26.552000,-7.710843373493976,-2.4096385542168677,5.409638554216868,-2.317596566523605,-7.711220110361741,5.979153893316983,2.0,1.4967032967032967,668.1350954478708,0.3442689819940557,0.12073888468037916,-0.19684167589301332,1286.4468864468863,-1.0,79.12109139200773,1.497267670227943,
2023-08-17 11:16:26.560000,-7.698795180722892,-2.433734939759036,5.421686746987952,-2.359288779889638,-7.657265481299816,5.957081545064377,2.0,1.4967032967032967,668.1350954478708,-0.037876580618844746,0.06176796223996309,-0.02494027154594717,1298.168498168498,-1.0,79.12109139200773,1.4972538768866113,
2023-08-17 11:16:26.567000,-7.674698795180723,-2.4096385542168677,5.397590361445784,-2.27835683629675,-7.745554874310239,5.949724095646842,2.0,1.4952380952380953,668.7898089171974,-0.050929433016724465,-0.3958976749606669,-0.2825010197540935,1317.9487179487178,-1.0,79.12109139200773,1.497240116242285,
2023-08-17 11:16:26.575000,-7.698795180722892,-2.4096385542168677,5.409638554216868,-2.329858982219497,-7.671980380134886,5.991416309012875,2.0,1.4967032967032967,668.1350954478708,-0.08053143756191421,-0.23891381621117644,-0.141367053202028,1350.18315018315,-1.0,79.12109139200773,1.4972263898936307,
2023-08-17 11:16:26.582000,-7.686746987951808,-2.433734939759036,5.397590361445784,-2.3126916002452482,-7.6989576946658485,5.949724095646842,2.0,1.4952380952380953,668.7898089171974,-0.07831711438727311,-0.14276557310180063,0.16654041139793727,1394.8717948717947,-1.0,79.12109139200773,1.4972126998656816,
2023-08-17 11:16:26.590000,-7.698795180722892,-2.433734939759036,5.409638554216868,-2.27835683629675,-7.691600245248313,5.932556713672593,2.0,1.4952380952380953,668.7898089171974,0.18215721694539974,-0.3962473049356094,-0.25686148825826,1452.7472527472526,-1.0,79.12109139200773,1.4971990481492892,
2023-08-17 11:16:26.598000,-7.698795180722892,-2.4216867469879517,5.409638554216868,-2.3543838136112814,-7.740649908031882,5.954629061925199,2.0,1.4952380952380953,668.7898089171974,0.07505390128780448,-0.34473515529398074,-0.17469844414661145,1518.6813186813185,-1.0,79.12109139200773,1.4971854361706751,
2023-08-17 11:16:26.605000,-7.686746987951808,-2.433734939759036,5.409638554216868,-2.3200490496627832,-7.740649908031882,6.064990803188228,2.0,1.4952380952380953,668.7898089171974,0.15348755900005842,-0.32515587669716206,-0.30767437795000274,1589.0109890109889,-1.0,79.12109139200773,1.4971718652433474,
2023-08-17 11:16:26.613000,-7.674698795180723,-2.433734939759036,5.409638554216868,-2.3568362967504597,-7.6989576946658485,5.961986511342734,2.0,1.4967032967032967,668.1350954478708,0.0759862478876529,-0.2939222656022371,-0.545772390886312,1661.5384615384614,-1.0,79.12109139200773,1.4971583365615593,
2023-08-17 11:16:26.621000,-7.698795180722892,-2.4457831325301207,5.433734939759036,-2.3372164316370325,-7.706315144083384,5.998773758430411,2.0,1.4967032967032967,668.1350954478708,-0.3214264902977683,-0.1827399335703039,-0.12493444437969795,1730.4029304029302,-1.0,79.12109139200773,1.4971448516858936,
2023-08-17 11:16:26.628000,-7.72289156626506,-2.4457831325301207,5.409638554216868,-2.2857142857142856,-7.694052728387492,6.0331085223789085,2.0,1.4952380952380953,668.7898089171974,0.2642037177320666,0.12516753102965963,-0.4254996795058562,1791.9413919413919,-1.0,79.12109139200773,1.4971314126078987,
2023-08-17 11:16:26.636000,-7.698795180722892,-2.4457831325301207,5.397590361445784,-2.2955242182709994,-7.74310239117106,5.942366646229307,2.0,1.4967032967032967,668.1350954478708,-0.05535807936600493,0.2475380222597757,-0.09777984965911098,1844.6886446886447,-1.0,79.12109139200773,1.4971180207971615,
2023-08-17 11:16:26.644000,-7.686746987951808,-2.433734939759036,5.409638554216868,-2.342121397915389,-7.721030042918454,5.986511342734518,2.0,1.4952380952380953,668.7898089171974,0.16187867839869427,0.3238739001223711,-0.03146669774488659,1883.5164835164833,-1.0,79.12109139200773,1.4971046776196713,
2023-08-17 11:16:26.651000,-7.686746987951808,-2.433734939759036,5.397590361445784,-2.3151440833844266,-7.667075413856529,5.959534028203556,2.0,1.4967032967032967,668.1350954478708,-0.09661441640930088,0.354058621292465,-0.15092360585047482,1909.8901098901097,-1.0,79.12109139200773,1.4970913839099904,
2023-08-17 11:16:26.659000,-7.698795180722892,-2.433734939759036,5.385542168674699,-2.3053341508277128,-7.730839975475168,5.976701410177805,2.0,1.4967032967032967,668.1350954478708,0.1956762426432028,0.001398519899773509,-0.025056814870928437,1924.5421245421244,-1.0,79.12109139200773,1.4970781404569764,
2023-08-17 11:16:26.667000,-7.698795180722892,-2.4457831325301207,5.409638554216868,-2.3151440833844266,-7.649908031882281,5.949724095646842,2.0,1.4967032967032967,668.1350954478708,0.3155993240487144,0.11211467863178164,-0.09882873958394024,1928.2051282051282,-1.0,79.12109139200773,1.4970649484899672,
2023-08-17 11:16:26.674000,-7.710843373493976,-2.433734939759036,5.421686746987952,-2.3126916002452482,-7.748007357449417,6.0625383200490495,2.0,1.4967032967032967,668.1350954478708,0.28203484645416926,-0.0078084027737316646,0.010721985898257782,1923.8095238095236,-1.0,79.12109139200773,1.4970518087944604,
2023-08-17 11:16:26.682000,-7.686746987951808,-2.433734939759036,5.385542168674699,-2.3568362967504597,-7.730839975475168,5.952176578786021,2.0,1.4967032967032967,668.1350954478708,0.29135831245265353,0.33028378299632927,0.061884505564943924,1909.8901098901097,-1.0,79.12109139200773,1.4970387226579214,
2023-08-17 11:16:26.690000,-7.698795180722892,-2.4216867469879517,5.385542168674699,-2.3126916002452482,-7.708767627222563,5.979153893316983,2.0,1.4967032967032967,668.1350954478708,0.25872618145795684,0.358137637666803,-0.04568498339257598,1887.9120879120878,-1.0,79.12109139200773,1.497025691341174,
2023-08-17 11:16:26.697000,-7.686746987951808,-2.4096385542168677,5.397590361445784,-2.342121397915389,-7.748007357449417,5.979153893316983,2.0,1.4967032967032967,668.1350954478708,-0.09626478643435664,0.08227958743663023,-0.07330575141308802,1859.3406593406592,743.011474609375,80.75245410112129,1.4970127156550852,
2023-08-17 11:16:26.705000,-7.686746987951808,-2.4096385542168677,5.445783132530121,-2.329858982219497,-7.75781729000613,5.959534028203556,2.0,1.4952380952380953,668.7898089171974,-0.18763475321950945,0.06398228541460245,-0.03985781714352331,1826.3736263736262,-1.0,80.75245410112129,1.4969997969095956,
2023-08-17 11:16:26.713000,-7.72289156626506,-2.4216867469879517,5.397590361445784,-2.280809319435929,-7.706315144083384,5.964438994481912,2.0,1.4967032967032967,668.1350954478708,0.0882232970106633,-0.2736437270555334,0.11596060835615618,1791.9413919413919,-1.0,80.75245410112129,1.4969869363535988,
2023-08-17 11:16:26.720000,-7.710843373493976,-2.4216867469879517,5.397590361445784,-2.293071735131821,-7.755364806866952,5.961986511342734,2.0,1.4952380952380953,668.7898089171974,-0.18728512324456695,-0.15220558242526575,0.1344909970281452,1756.7765567765566,-1.0,80.75245410112129,1.496974135108182,
2023-08-17 11:16:26.728000,-7.72289156626506,-2.4096385542168677,5.409638554216868,-2.347026364193746,-7.745554874310239,6.020846106683016,2.0,1.4967032967032967,668.1350954478708,-0.18763475321950945,-0.15407027562496434,0.1336751937532776,1721.6117216117216,-1.0,80.75245410112129,1.4969613942045337,
2023-08-17 11:16:26.736000,-7.686746987951808,-2.433734939759036,5.409638554216868,-2.293071735131821,-7.750459840588595,5.991416309012875,2.0,1.4952380952380953,668.7898089171974,0.11805838820581471,-0.030883981119980676,-0.019113105296894063,1682.051282051282,-1.0,80.75245410112129,1.4969487145526872,
2023-08-17 11:16:26.743000,-7.686746987951808,-2.433734939759036,5.385542168674699,-2.3445738810545675,-7.723482526057633,5.954629061925199,2.0,1.4952380952380953,668.7898089171974,0.23856418623623393,-0.16887127789755835,-0.15570188217469866,1641.0256410256409,-1.0,80.75245410112129,1.496936096980113,
2023-08-17 11:16:26.751000,-7.674698795180723,-2.397590361445783,5.409638554216868,-2.2979767014101777,-7.615573267933782,5.979153893316983,2.0,1.4952380952380953,668.7898089171974,-0.05430918944117393,-0.04183905366820187,0.2116426781656082,1597.069597069597,-1.0,80.75245410112129,1.4969235417084361,
2023-08-17 11:16:26.759000,-7.698795180722892,-2.4096385542168677,5.373493975903615,-2.2268546903740036,-7.667075413856529,5.979153893316983,2.0,1.4952380952380953,668.7898089171974,-0.1633937416234486,-0.1131635685566109,-0.09731367635918677,1555.311355311355,-1.0,80.75245410112129,1.4969110488131414,
2023-08-17 11:16:26.766000,-7.698795180722892,-2.4096385542168677,5.421686746987952,-2.239117106069896,-7.76026977314531,5.935009196811771,2.0,1.4952380952380953,668.7898089171974,0.12843074412913,0.16409300157333537,0.13181050055358076,1519.4139194139193,-1.0,80.75245410112129,1.4968986182253794,
2023-08-17 11:16:26.774000,-7.710843373493976,-2.4096385542168677,5.409638554216868,-2.2538320049049663,-7.711220110361741,5.959534028203556,2.0,1.4952380952380953,668.7898089171974,0.10931763883223636,0.14894236932579713,0.07074179826350442,1485.7142857142856,-1.0,80.75245410112129,1.496886249733754,
2023-08-17 11:16:26.782000,-7.698795180722892,-2.4216867469879517,5.409638554216868,-2.2857142857142856,-7.733292458614347,5.96934396076027,2.0,1.4952380952380953,668.7898089171974,-0.19695821921799375,0.09078725016024691,0.29881708525144224,1455.6776556776556,-1.0,80.75245410112129,1.496873942986083,
2023-08-17 11:16:26.789000,-7.698795180722892,-2.433734939759036,5.397590361445784,-2.329858982219497,-7.713672593500919,5.9742489270386265,2.0,1.4952380952380953,668.7898089171974,0.016898782122254267,0.24485752578521125,-0.13332556377833465,1428.5714285714284,-1.0,80.75245410112129,1.4968616974911255,
2023-08-17 11:16:26.797000,-7.698795180722892,-2.4216867469879517,5.421686746987952,-2.364193746167995,-7.723482526057633,5.9816063764561616,2.0,1.4952380952380953,668.7898089171974,0.016316065497348348,0.0779674844123306,0.2623390245323697,1403.6630036630036,-1.0,80.75245410112129,1.4968495126202894,
2023-08-17 11:16:26.805000,-7.734939759036145,-2.4216867469879517,5.397590361445784,-2.3274064990803187,-7.762722256284488,5.9448191293684856,2.0,1.4952380952380953,668.7898089171974,-0.10570479575782349,-0.3934502651360641,0.18308956354524772,1380.2197802197802,-1.0,80.75245410112129,1.4968373876093284,
2023-08-17 11:16:26.812000,-7.72289156626506,-2.4216867469879517,5.385542168674699,-2.2734518700183934,-7.701410177805027,5.976701410177805,2.0,1.4952380952380953,668.7898089171974,0.10908455218227295,-0.008857292698560929,-0.01724841209719721,1358.974358974359,-1.0,80.75245410112129,1.4968253215600131,
2023-08-17 11:16:26.820000,-7.710843373493976,-2.4216867469879517,5.409638554216868,-2.2734518700183934,-7.674432863274064,5.935009196811771,2.0,1.4952380952380953,668.7898089171974,0.10826874890740709,-0.08461045393625043,0.0441699201678225,1338.4615384615383,-1.0,80.75245410112129,1.4968133134418131,
2023-08-17 11:16:26.828000,-7.710843373493976,-2.4216867469879517,5.421686746987952,-2.3077866339668915,-7.748007357449417,6.018393623543838,2.0,1.4952380952380953,668.7898089171974,-0.013285939047841392,-0.42188683643144376,-0.12365246780490657,1320.14652014652,-1.0,80.75245410112129,1.4968013620935856,
2023-08-17 11:16:26.835000,-7.710843373493976,-2.4216867469879517,5.385542168674699,-2.3543838136112814,-7.738197424892704,5.991416309012875,2.0,1.4952380952380953,668.7898089171974,0.10850183555736877,-0.17656313734630918,-0.2151389779150398,1304.7619047619046,-1.0,80.75245410112129,1.4967894662252843,
2023-08-17 11:16:26.843000,-7.72289156626506,-2.433734939759036,5.433734939759036,-2.27835683629675,-7.723482526057633,5.991416309012875,2.0,1.4952380952380953,668.7898089171974,0.10663714235767191,-0.16292756832352354,-0.2758580502301732,1293.040293040293,-1.0,80.75245410112129,1.4967776244197113,
2023-08-17 11:16:26.851000,-7.686746987951808,-2.4096385542168677,5.457831325301205,-2.3053341508277128,-7.686695278969957,6.0036787247087675,2.0,1.4952380952380953,668.7898089171974,0.015267175572519083,0.020628168521647974,0.043470660217936184,1286.4468864468863,-1.0,80.75245410112129,1.4967658351343256,
2023-08-17 11:16:26.858000,-7.650602409638554,-2.433734939759036,5.421686746987952,-2.3838136112814223,-7.745554874310239,5.966891477621091,2.0,1.4952380952380953,668.7898089171974,-0.39729619486043866,-0.3171143872734687,-0.05034671639181855,1283.5164835164835,-1.0,80.75245410112129,1.4967540967031276,
2023-08-17 11:16:26.866000,-7.662650602409639,-2.433734939759036,5.385542168674699,-2.2979767014101777,-7.708767627222563,5.957081545064377,2.0,1.4952380952380953,668.7898089171974,-0.11922382145562654,-0.1333255637783338,0.03974127381854204,1284.9816849816848,-1.0,80.75245410112129,1.4967424073386375,
2023-08-17 11:16:26.874000,-7.674698795180723,-2.4216867469879517,5.397590361445784,-2.248927038626609,-7.667075413856529,5.9448191293684856,2.0,1.4952380952380953,668.7898089171974,0.0640988287395833,-0.05407610279121226,-0.20814637841617617,1286.4468864468863,-1.0,80.75245410112129,1.4967307651339907,
2023-08-17 11:16:26.881000,-7.686746987951808,-2.433734939759036,5.397590361445784,-2.31023911710607,-7.694052728387492,5.939914163090129,2.0,1.4952380952380953,668.7898089171974,0.10873492220733044,-0.11514480508128859,0.02016199522172376,1290.8424908424909,-1.0,80.75245410112129,1.4967191680651777,
2023-08-17 11:16:26.889000,-7.698795180722892,-2.4216867469879517,5.385542168674699,-2.2562844880441446,-7.777437155119558,5.979153893316983,2.0,1.4937728937728938,669.4458067680235,-0.060952158965095496,0.2075636617912707,0.049530913116951396,1295.2380952380952,-1.0,80.75245410112129,1.496707613993439,
2023-08-17 11:16:26.897000,-7.698795180722892,-2.433734939759036,5.46987951807229,-2.2342121397915387,-7.770079705702023,5.98405885959534,2.0,1.4952380952380953,668.7898089171974,0.12411864110483035,-0.2063982285414606,0.06165141891498182,1298.9010989010987,-1.0,80.75245410112129,1.4966961006330555,
2023-08-17 11:16:26.904000,-7.710843373493976,-2.4216867469879517,5.409638554216868,-2.3028816676885344,-7.799509503372164,5.998773758430411,2.0,1.4952380952380953,668.7898089171974,-0.18099178369558963,-0.004778276324222974,-0.13763766680263387,1303.2967032967033,-1.0,80.75245410112129,1.4966846259073767,
2023-08-17 11:16:26.912000,-7.734939759036145,-2.4216867469879517,5.433734939759036,-2.2685469037400368,-7.686695278969957,5.966891477621091,2.0,1.4952380952380953,668.7898089171974,0.08111415418681839,0.012120505798029556,-0.2590758114329002,1309.1575091575091,-1.0,80.75245410112129,1.4966731875300872,
2023-08-17 11:16:26.920000,-7.710843373493976,-2.4216867469879517,5.445783132530121,-2.3274064990803187,-7.745554874310239,6.0453709380748,2.0,1.4952380952380953,668.7898089171974,0.1426490297768198,0.08915564361051173,-0.2903094225278247,1314.2857142857142,-1.0,80.75245410112129,1.4966617826209132,
2023-08-17 11:16:26.927000,-7.686746987951808,-2.4216867469879517,5.397590361445784,-2.317596566523605,-7.733292458614347,5.949724095646842,2.0,1.4952380952380953,668.7898089171974,-0.20802983509119577,0.2126915680904379,0.01794767204708353,1320.8791208791208,-1.0,80.75245410112129,1.4966504081999796,
2023-08-17 11:16:26.935000,-7.686746987951808,-2.4216867469879517,5.397590361445784,-2.3274064990803187,-7.750459840588595,5.964438994481912,2.0,1.4952380952380953,668.7898089171974,0.15908163859914898,0.30476079482547574,-0.07377192471301224,1327.4725274725274,-1.0,80.75245410112129,1.4966390611898501,
2023-08-17 11:16:26.942000,-7.698795180722892,-2.4216867469879517,5.397590361445784,-2.3347639484978537,-7.674432863274064,5.998773758430411,2.0,1.4952380952380953,668.7898089171974,-0.04032399044344752,0.19975525901753902,-0.1981236524678047,1331.8681318681317,-1.0,80.75245410112129,1.4966277384179558,
2023-08-17 11:16:26.950000,-7.698795180722892,-2.4216867469879517,5.373493975903615,-2.2734518700183934,-7.728387492335989,5.927651747394236,2.0,1.4952380952380953,668.7898089171974,-0.08519317056115634,-0.04440300681778374,-0.24217702931064639,1334.065934065934,-1.0,80.75245410112129,1.4966164366194763,
2023-08-17 11:16:26.958000,-7.686746987951808,-2.433734939759036,5.385542168674699,-2.2636419374616796,-7.740649908031882,6.0110361741263025,2.0,1.4952380952380953,668.7898089171974,-0.24998543208437674,-0.13472408367810731,-0.27259483713070326,1335.5311355311355,-1.0,80.75245410112129,1.4966051524406756,
2023-08-17 11:16:26.965000,-7.710843373493976,-2.4216867469879517,5.385542168674699,-2.288166768853464,-7.730839975475168,5.991416309012875,2.0,1.4952380952380953,668.7898089171974,-0.1579162053493389,-0.20954489831594839,0.14055124992716042,1334.7985347985348,-1.0,80.75245410112129,1.4965938824427696,
2023-08-17 11:16:26.973000,-7.698795180722892,-2.4216867469879517,5.421686746987952,-2.2832618025751072,-7.69650521152667,5.949724095646842,2.0,1.4952380952380953,668.7898089171974,-0.15663422877454622,-0.5892430511042478,-0.08985490356039848,1336.263736263736,-1.0,80.75245410112129,1.4965826231063355,
2023-08-17 11:16:26.981000,-7.698795180722892,-2.4096385542168677,5.409638554216868,-2.246474555487431,-7.689147762109135,5.93746167995095,2.0,1.4952380952380953,668.7898089171974,-0.21513897791504066,-0.21968416758930198,0.3368102091952683,1336.9963369963368,-1.0,80.75245410112129,1.4965713708363007,
2023-08-17 11:16:26.988000,-7.698795180722892,-2.4216867469879517,5.409638554216868,-2.270999386879215,-7.76026977314531,5.98405885959534,2.0,1.4952380952380953,668.7898089171974,0.06048598566517042,-0.24893654215954747,0.10523862245789883,1336.9963369963368,-1.0,80.75245410112129,1.496560121967542,
2023-08-17 11:16:26.996000,-7.686746987951808,-2.4096385542168677,5.421686746987952,-2.2685469037400368,-7.684242795830778,5.971796443899448,2.0,1.4952380952380953,668.7898089171974,0.10325738593322072,-0.21630441116485077,0.17936017714585403,1334.7985347985348,-1.0,80.75245410112129,1.4965488727711118,
2023-08-17 11:16:27.004000,-7.710843373493976,-2.4096385542168677,5.421686746987952,-2.322501532801962,-7.738197424892704,6.015941140404659,2.0,1.4952380952380953,668.7898089171974,0.10011071615873118,-0.2154886078899832,0.17621350737136537,1331.135531135531,-1.0,80.75245410112129,1.496537619461123,
2023-08-17 11:16:27.011000,-7.698795180722892,-2.433734939759036,5.397590361445784,-2.3126916002452482,-7.679337829552422,5.993868792152053,2.0,1.4952380952380953,668.7898089171974,-0.17609696404638409,-0.13763766680263342,-0.024357554921041684,1323.8095238095236,-1.0,80.75245410112129,1.4965263582022859,
2023-08-17 11:16:27.019000,-7.710843373493976,-2.433734939759036,5.409638554216868,-2.2685469037400368,-7.718577559779276,5.9448191293684856,2.0,1.4952380952380953,668.7898089171974,-0.5427422644368037,-0.18215721694539974,0.23658294971155538,1315.7509157509157,-1.0,80.75245410112129,1.496515085118137,
2023-08-17 11:16:27.027000,-7.698795180722892,-2.4457831325301207,5.385542168674699,-2.258736971183323,-7.716125076640098,5.959534028203556,2.0,1.4952380952380953,668.7898089171974,-0.1279645708292049,-0.2876289260532598,0.04999708641687561,1308.4249084249084,-1.0,80.75245410112129,1.4965037967578128,
2023-08-17 11:16:27.034000,-7.698795180722892,-2.433734939759036,5.373493975903615,-2.3347639484978537,-7.770079705702023,6.023298589822194,2.0,1.4952380952380953,668.7898089171974,-0.005011362974186382,-0.36000233086649985,0.06503117533943259,1300.3663003663003,-1.0,80.75245410112129,1.496492489580495,
2023-08-17 11:16:27.042000,-7.674698795180723,-2.433734939759036,5.373493975903615,-2.317596566523605,-7.627835683629675,5.910484365419987,2.0,1.4937728937728938,669.4458067680235,0.28541460287862047,0.03892547054367401,0.14148359652700884,1291.5750915750914,-1.0,80.75245410112129,1.4964811595445582,
2023-08-17 11:16:27.050000,-7.710843373493976,-2.4216867469879517,5.397590361445784,-2.2955242182709994,-7.713672593500919,5.939914163090129,2.0,1.4952380952380953,668.7898089171974,-0.05244449624147708,-0.022609405046325665,0.2481207388846803,1285.7142857142856,-1.0,80.75245410112129,1.4964698025757026,
2023-08-17 11:16:27.057000,-7.686746987951808,-2.4216867469879517,5.397590361445784,-2.3200490496627832,-7.676885346413243,5.93746167995095,2.0,1.4952380952380953,668.7898089171974,-0.11339665520657258,-0.416409300157334,-0.027504224695530342,1280.5860805860805,-1.0,80.75245410112129,1.4964584149310975,
2023-08-17 11:16:27.065000,-7.686746987951808,-2.4216867469879517,5.385542168674699,-2.329858982219497,-7.659717964438994,5.903126916002452,2.0,1.4952380952380953,668.7898089171974,0.28378299632888526,-0.28867781597808906,-0.025173358195909275,1274.7252747252746,-1.0,80.75245410112129,1.4964469932470492,
2023-08-17 11:16:27.073000,-7.686746987951808,-2.4216867469879517,5.397590361445784,-2.2734518700183934,-7.75781729000613,5.90557939914163,2.0,1.4952380952380953,668.7898089171974,0.08309539071149782,-0.3012644950760437,-0.10057688945865627,1269.5970695970695,-1.0,80.75245410112129,1.496435533638451,
2023-08-17 11:16:27.080000,-7.698795180722892,-2.4096385542168677,5.409638554216868,-2.3151440833844266,-7.745554874310239,5.954629061925199,2.0,1.4952380952380953,668.7898089171974,0.12808111415418746,-0.40720237748382887,0.02330866499621242,1265.2014652014652,-1.0,80.75245410112129,1.4964240317811917,
2023-08-17 11:16:27.088000,-7.710843373493976,-2.4216867469879517,5.445783132530121,-2.3028816676885344,-7.767627222562845,6.008583690987124,2.0,1.4952380952380953,668.7898089171974,0.05116251966668614,-0.34252083211933965,-0.19043179301905475,1263.003663003663,-1.0,80.75245410112129,1.49641248341564,
2023-08-17 11:16:27.096000,-7.734939759036145,-2.433734939759036,5.409638554216868,-2.2562844880441446,-7.752912323727774,5.998773758430411,2.0,1.4952380952380953,668.7898089171974,0.12621642095449062,-0.1252840743546422,-0.15745003204941424,1263.003663003663,-1.0,80.75245410112129,1.4964008848159218,
2023-08-17 11:16:27.103000,-7.710843373493976,-2.4096385542168677,5.421686746987952,-2.2342121397915387,-7.708767627222563,5.959534028203556,2.0,1.4952380952380953,668.7898089171974,0.0017481498747160184,-0.002214323174639364,0.009906182623390191,1266.6666666666665,-1.0,80.75245410112129,1.4963892322767605,
2023-08-17 11:16:27.111000,-7.698795180722892,-2.433734939759036,5.421686746987952,-2.300429184549356,-7.75781729000613,6.0257510729613735,2.0,1.4952380952380953,668.7898089171974,0.013985198997728147,0.07353883806305013,-0.451255754326671,1272.5274725274724,-1.0,80.75245410112129,1.4963775217048783,
2023-08-17 11:16:27.119000,-7.710843373493976,-2.4216867469879517,5.421686746987952,-2.3666462293071735,-7.75781729000613,5.925199264255058,2.0,1.4952380952380953,668.7898089171974,-0.20150340889225504,0.13460754035312647,0.07062525493852315,1276.923076923077,-1.0,80.75245410112129,1.4963657491240612,
2023-08-17 11:16:27.126000,-7.662650602409639,-2.433734939759036,5.397590361445784,-2.27835683629675,-7.728387492335989,5.93746167995095,2.0,1.4952380952380953,668.7898089171974,0.08938873026047514,0.30184721170094964,-0.2651360643319154,1282.7838827838827,-1.0,80.75245410112129,1.4963539106880426,
2023-08-17 11:16:27.134000,-7.698795180722892,-2.433734939759036,5.409638554216868,-2.329858982219497,-7.6695278969957075,5.903126916002452,2.0,1.4952380952380953,668.7898089171974,0.011887419148067882,-0.3565060311170678,-0.06608006526426184,1287.179487179487,-1.0,80.75245410112129,1.4963420026938559,
2023-08-17 11:16:27.142000,-7.686746987951808,-2.4457831325301207,5.433734939759036,-2.270999386879215,-7.684242795830778,5.966891477621091,2.0,1.4952380952380953,668.7898089171974,-0.03321484761960261,-0.06071907231513382,0.17819474389604348,1289.3772893772893,-1.0,80.75245410112129,1.4963300220534717,
2023-08-17 11:16:27.149000,-7.686746987951808,-2.433734939759036,5.409638554216868,-2.3200490496627832,-7.716125076640098,6.0110361741263025,2.0,1.4952380952380953,668.7898089171974,0.07586970456267034,-0.7007750131111234,0.009906182623390191,1290.10989010989,-1.0,80.75245410112129,1.4963179657828227,
2023-08-17 11:16:27.157000,-7.662650602409639,-2.433734939759036,5.409638554216868,-2.342121397915389,-7.728387492335989,5.9963212752912325,2.0,1.4952380952380953,668.7898089171974,-0.09335120330983052,-0.25254938523396037,0.19217994289377077,1287.179487179487,-1.0,80.75245410112129,1.4963058305951533,
2023-08-17 11:16:27.165000,-7.686746987951808,-2.4457831325301207,5.433734939759036,-2.3323114653586754,-7.691600245248313,5.9742489270386265,2.0,1.4952380952380953,668.7898089171974,-0.015500262222480757,-0.3283025464716516,0.17644659402132748,1284.9816849816848,-1.0,80.75245410112129,1.496293613865658,
2023-08-17 11:16:27.172000,-7.698795180722892,-2.4457831325301207,5.433734939759036,-2.3126916002452482,-7.6253832004904964,5.959534028203556,2.0,1.4952380952380953,668.7898089171974,0.19952217236757736,-0.29357263562729463,0.2834333663539419,1284.9816849816848,-1.0,80.75245410112129,1.4962813131206594,
2023-08-17 11:16:27.180000,-7.650602409638554,-2.4457831325301207,5.457831325301205,-2.3274064990803187,-7.657265481299816,5.998773758430411,2.0,1.4952380952380953,668.7898089171974,0.19835673911776724,-0.32037760037293905,0.08321193403647778,1284.9816849816848,-1.0,80.75245410112129,1.4962689256309438,
2023-08-17 11:16:27.188000,-7.674698795180723,-2.4457831325301207,5.421686746987952,-2.2317596566523603,-7.711220110361741,5.917841814837523,2.0,1.4952380952380953,668.7898089171974,-0.23028961016257718,-0.11794184488083388,-0.10022725948371289,1283.5164835164835,-1.0,80.75245410112129,1.496256448918332,
2023-08-17 11:16:27.195000,-7.638554216867471,-2.4457831325301207,5.397590361445784,-2.31023911710607,-7.689147762109135,5.964438994481912,2.0,1.4937728937728938,669.4458067680235,0.18367228017015408,0.17539770409649733,0.19019870636909264,1279.120879120879,-1.0,80.75245410112129,1.4962438807695861,
2023-08-17 11:16:27.203000,-7.686746987951808,-2.4457831325301207,5.433734939759036,-2.3323114653586754,-7.694052728387492,5.93746167995095,2.0,1.4952380952380953,668.7898089171974,0.04451955014276631,-0.2376318396363855,0.0814637841617622,1276.1904761904761,-1.0,80.75245410112129,1.496231219215485,
2023-08-17 11:16:27.211000,-7.686746987951808,-2.433734939759036,5.385542168674699,-2.288166768853464,-7.679337829552422,5.98405885959534,2.0,1.4952380952380953,668.7898089171974,-0.033564477594545124,-0.05151214964162865,0.20360118874191488,1271.062271062271,-1.0,80.75245410112129,1.4962184628978104,
2023-08-17 11:16:27.218000,-7.710843373493976,-2.4457831325301207,5.385542168674699,-2.2734518700183934,-7.711220110361741,5.964438994481912,2.0,1.4952380952380953,668.7898089171974,-0.033681020919527696,-0.09708058970922423,0.17248412097197122,1267.3992673992673,-1.0,80.75245410112129,1.4962056111190305,
2023-08-17 11:16:27.226000,-7.72289156626506,-2.4578313253012047,5.409638554216868,-2.3151440833844266,-7.748007357449417,5.935009196811771,2.0,1.4952380952380953,668.7898089171974,0.3652467804906479,0.23926344618611894,0.5990326904026572,1266.6666666666665,-1.0,80.75245410112129,1.496192663400756,
2023-08-17 11:16:27.234000,-7.698795180722892,-2.433734939759036,5.373493975903615,-2.3249540159411404,-7.738197424892704,5.991416309012875,2.0,1.4952380952380953,668.7898089171974,0.043121030242992804,0.20744711846628985,0.13833692675252018,1267.3992673992673,-1.0,80.75245410112129,1.4961796194991133,
2023-08-17 11:16:27.241000,-7.674698795180723,-2.4216867469879517,5.433734939759036,-2.293071735131821,-7.748007357449417,5.949724095646842,2.0,1.4952380952380953,668.7898089171974,0.07260649146320171,0.006992599498864074,0.3053435114503817,1271.7948717948716,-1.0,80.75245410112129,1.4961664789612006,
2023-08-17 11:16:27.249000,-7.686746987951808,-2.4096385542168677,5.409638554216868,-2.322501532801962,-7.689147762109135,5.998773758430411,2.0,1.4952380952380953,668.7898089171974,0.01200396247304872,0.45078958102674677,0.27306101043062747,1276.1904761904761,-1.0,80.75245410112129,1.4961532412055867,
2023-08-17 11:16:27.257000,-7.710843373493976,-2.4096385542168677,5.445783132530121,-2.2857142857142856,-7.75781729000613,5.971796443899448,2.0,1.4952380952380953,668.7898089171974,-0.06468154536448921,0.34100576889458706,0.28902744595303287,1279.8534798534797,-1.0,80.75245410112129,1.4961399064806509,
2023-08-17 11:16:27.264000,-7.710843373493976,-2.4457831325301207,5.397590361445784,-2.300429184549356,-7.659717964438994,5.900674432863274,2.0,1.4952380952380953,668.7898089171974,-0.20150340889225504,-0.07528698793776616,0.5330691684633762,1282.051282051282,-1.0,80.75245410112129,1.4961264758045851,
2023-08-17 11:16:27.272000,-7.734939759036145,-2.433734939759036,5.385542168674699,-2.351931330472103,-7.750459840588595,5.979153893316983,2.0,1.4937728937728938,669.4458067680235,-0.12155468795524675,0.15605151214964202,0.39368335178602626,1282.7838827838827,-1.0,80.75245410112129,1.4961129500258123,
2023-08-17 11:16:27.280000,-7.72289156626506,-2.4216867469879517,5.397590361445784,-2.3028816676885344,-7.730839975475168,5.947271612507664,2.0,1.4952380952380953,668.7898089171974,-0.1185245615057398,0.15616805547462287,0.39286754851115907,1282.051282051282,-1.0,80.75245410112129,1.496099329407231,
2023-08-17 11:16:27.287000,-7.734939759036145,-2.4216867469879517,5.397590361445784,-2.3028816676885344,-7.730839975475168,5.939914163090129,2.0,1.4952380952380953,668.7898089171974,0.17236757764699037,0.020977798496590483,0.45253773090146276,1281.3186813186812,-1.0,80.75245410112129,1.4960856150012916,
2023-08-17 11:16:27.295000,-7.734939759036145,-2.4457831325301207,5.409638554216868,-2.3151440833844266,-7.716125076640098,5.93746167995095,2.0,1.4952380952380953,668.7898089171974,0.07761785443738635,0.08262921741157274,0.4659402132742846,1279.120879120879,-1.0,80.75245410112129,1.4960718086526872,
2023-08-17 11:16:27.303000,-7.698795180722892,-2.4216867469879517,5.385542168674699,-2.248927038626609,-7.674432863274064,5.954629061925199,2.0,1.4952380952380953,668.7898089171974,0.22947380688771132,-0.3136180875240367,0.5539304236349862,1278.3882783882782,-1.0,80.75245410112129,1.4960579121213264,
2023-08-17 11:16:27.310000,-7.710843373493976,-2.4216867469879517,5.385542168674699,-2.2979767014101777,-7.745554874310239,5.947271612507664,2.0,1.4937728937728938,669.4458067680235,0.13542334362799405,-0.15989744187401658,0.5221140959151567,1279.8534798534797,-1.0,80.75245410112129,1.496043928033437,
2023-08-17 11:16:27.318000,-7.686746987951808,-2.4096385542168677,5.409638554216868,-2.2268546903740036,-7.748007357449417,5.991416309012875,2.0,1.4937728937728938,669.4458067680235,0.6959967367869005,-0.3751529631140381,0.9598508245440242,1285.7142857142856,-1.0,80.75245410112129,1.4960298593214318,
2023-08-17 11:16:27.325000,-7.698795180722892,-2.397590361445783,5.397590361445784,-2.2047823421213977,-7.6989576946658485,5.96934396076027,2.0,1.4952380952380953,668.7898089171974,0.29333954897733294,-0.18961598974418717,0.863003321484762,1298.168498168498,-1.0,80.75245410112129,1.496015708662333,
2023-08-17 11:16:27.333000,-7.686746987951808,-2.397590361445783,5.421686746987952,-2.212139791538933,-7.6695278969957075,5.986511342734518,2.0,1.4937728937728938,669.4458067680235,0.2453236990851346,-0.15849892197424306,1.054367461103665,1317.216117216117,-1.0,80.75245410112129,1.496001479424566,
2023-08-17 11:16:27.341000,-7.72289156626506,-2.397590361445783,5.397590361445784,-2.3053341508277128,-7.6327406499080315,5.9448191293684856,2.0,1.4937728937728938,669.4458067680235,0.32061068702290074,-0.2481207388846799,0.8656838179593265,1347.2527472527472,-1.0,80.75245410112129,1.4959871747837716,
2023-08-17 11:16:27.348000,-7.662650602409639,-2.4096385542168677,5.457831325301205,-2.251379521765788,-7.654812998160637,5.998773758430411,2.0,1.4923076923076923,670.1030927835052,0.11922382145562654,-0.016316065497348348,0.6013635569022782,1389.0109890109889,-1.0,80.75245410112129,1.4959727977155381,
2023-08-17 11:16:27.356000,-7.686746987951808,-2.4096385542168677,5.409638554216868,-2.288166768853464,-7.691600245248313,5.964438994481912,2.0,1.4937728937728938,669.4458067680235,0.30079832177612037,-0.15337101567507758,0.47689528582250446,1440.2930402930401,-1.0,80.75245410112129,1.4959583518302728,
2023-08-17 11:16:27.364000,-7.686746987951808,-2.4096385542168677,5.421686746987952,-2.2685469037400368,-7.711220110361741,5.971796443899448,2.0,1.4937728937728938,669.4458067680235,-0.037876580618844746,0.01596643552240584,0.3838937124876169,1498.168498168498,-1.0,80.75245410112129,1.4959438407652128,
2023-08-17 11:16:27.371000,-7.698795180722892,-2.3855421686746987,5.409638554216868,-2.258736971183323,-7.676885346413243,6.035561005518087,2.0,1.4952380952380953,668.7898089171974,-0.0533768428413255,0.0011654332498101003,0.07621933453761415,1560.4395604395604,-1.0,80.75245410112129,1.4959292682751666,
2023-08-17 11:16:27.379000,-7.686746987951808,-2.3855421686746987,5.409638554216868,-2.329858982219497,-7.725935009196811,6.018393623543838,2.0,1.4952380952380953,668.7898089171974,0.2989336285764235,-0.13705495017772923,0.6096381329759336,1623.4432234432234,-1.0,80.75245410112129,1.4959146387442135,
2023-08-17 11:16:27.387000,-7.674698795180723,-2.4096385542168677,5.421686746987952,-2.3053341508277128,-7.730839975475168,6.0478234212139785,2.0,1.4952380952380953,668.7898089171974,0.2063982285414606,0.13740458015267176,0.3316823028961019,1683.5164835164835,-1.0,80.75245410112129,1.4958999572403535,
2023-08-17 11:16:27.394000,-7.698795180722892,-2.397590361445783,5.421686746987952,-2.329858982219497,-7.735744941753525,5.976701410177805,2.0,1.4952380952380953,668.7898089171974,0.02214323174640232,0.1823903035953614,0.3631490006409885,1739.194139194139,-1.0,80.75245410112129,1.4958852285861335,
2023-08-17 11:16:27.402000,-7.686746987951808,-2.4096385542168677,5.409638554216868,-2.3445738810545675,-7.75781729000613,6.013488657265481,2.0,1.4952380952380953,668.7898089171974,0.174931530796574,0.4852864052211403,0.40801818075869734,1789.7435897435896,-1.0,80.75245410112129,1.4958704574113424,
2023-08-17 11:16:27.410000,-7.674698795180723,-2.4096385542168677,5.433734939759036,-2.2611894543225013,-7.667075413856529,5.976701410177805,2.0,1.4952380952380953,668.7898089171974,0.3104714177495489,0.008041489423693338,0.5427422644368046,1834.4322344322343,-1.0,80.75245410112129,1.4958556486260148,
2023-08-17 11:16:27.417000,-7.686746987951808,-2.397590361445783,5.433734939759036,-2.31023911710607,-7.708767627222563,6.023298589822194,2.0,1.4952380952380953,668.7898089171974,0.3228250101975401,0.17679622399627085,0.27853854670473766,1871.0622710622708,-1.0,80.75245410112129,1.4958408078585703,
2023-08-17 11:16:27.425000,-7.686746987951808,-2.4216867469879517,5.433734939759036,-2.27835683629675,-7.716125076640098,5.939914163090129,2.0,1.4937728937728938,669.4458067680235,0.16677349804789982,0.5740924188567095,0.4425150049530909,1896.7032967032965,-1.0,80.75245410112129,1.4958259413688921,
2023-08-17 11:16:27.433000,-7.686746987951808,-2.397590361445783,5.433734939759036,-2.2832618025751072,-7.6989576946658485,5.895769466584917,2.0,1.4952380952380953,668.7898089171974,0.3179301905483363,0.4794592389720881,0.4386690752287168,1909.1575091575091,-1.0,80.75245410112129,1.4958110550477604,
2023-08-17 11:16:27.440000,-7.686746987951808,-2.3855421686746987,5.433734939759036,-2.2660944206008584,-7.735744941753525,6.008583690987124,2.0,1.4952380952380953,668.7898089171974,0.1772623972961942,0.048831653167064205,0.43272536565468195,1909.1575091575091,-1.0,80.75245410112129,1.495796154363857,
2023-08-17 11:16:27.448000,-7.72289156626506,-2.3855421686746987,5.421686746987952,-2.2906192519926423,-7.770079705702023,6.001226241569589,2.0,1.4952380952380953,668.7898089171974,-0.2843657129537912,0.47596293922265603,0.45719946390070537,1897.4358974358972,-1.0,80.75245410112129,1.4957812449396064,
2023-08-17 11:16:27.456000,-7.710843373493976,-2.397590361445783,5.421686746987952,-2.300429184549356,-7.713672593500919,6.013488657265481,2.0,1.4952380952380953,668.7898089171974,0.09824602295903433,0.38039741273818617,0.10104306275858005,1877.6556776556774,743.011474609375,80.75245410112129,1.4957663325649857,
2023-08-17 11:16:27.463000,-7.710843373493976,-2.3734939759036147,5.409638554216868,-2.3126916002452482,-7.721030042918454,5.93746167995095,2.0,1.4937728937728938,669.4458067680235,0.035196084144280305,0.056523512615815036,0.46512440999941695,1851.2820512820513,-1.0,80.75245410112129,1.4957514231771127,
2023-08-17 11:16:27.471000,-7.72289156626506,-2.36144578313253,5.421686746987952,-2.293071735131821,-7.730839975475168,6.0036787247087675,2.0,1.4937728937728938,669.4458067680235,0.11351319853155341,0.5454227609113682,0.1086183788823496,1821.245421245421,-1.0,80.75245410112129,1.4957365228057424,
2023-08-17 11:16:27.479000,-7.734939759036145,-2.3734939759036147,5.421686746987952,-2.258736971183323,-7.772532188841201,5.959534028203556,2.0,1.4937728937728938,669.4458067680235,-0.13227667385350453,0.14404754967659159,0.09067070683526607,1787.5457875457873,-1.0,80.75245410112129,1.4957216374148952,
2023-08-17 11:16:27.486000,-7.698795180722892,-2.3734939759036147,5.397590361445784,-2.251379521765788,-7.723482526057633,5.9816063764561616,2.0,1.4937728937728938,669.4458067680235,-0.025756074820815194,0.2330866499621242,0.2281918303129191,1752.3809523809523,-1.0,80.75245410112129,1.4957067728487372,
2023-08-17 11:16:27.494000,-7.72289156626506,-2.3855421686746987,5.409638554216868,-2.3077866339668915,-7.706315144083384,5.927651747394236,2.0,1.4952380952380953,668.7898089171974,0.02109434182157132,-0.043936833517860395,-0.24951925878445297,1713.5531135531135,-1.0,80.75245410112129,1.495691934811944,
2023-08-17 11:16:27.502000,-7.698795180722892,-2.3855421686746987,5.397590361445784,-2.3028816676885344,-7.701410177805027,5.9963212752912325,2.0,1.4937728937728938,669.4458067680235,0.018996561971912792,0.1252840743546422,0.025289901520890546,1673.260073260073,-1.0,80.75245410112129,1.4956771293425295,
2023-08-17 11:16:27.509000,-7.674698795180723,-2.3855421686746987,5.397590361445784,-2.2145922746781115,-7.76026977314531,6.0110361741263025,2.0,1.4937728937728938,669.4458067680235,0.1418332265019522,-0.25604568498339236,0.054542276091136474,1635.8974358974358,-1.0,80.75245410112129,1.4956623623714074,
2023-08-17 11:16:27.517000,-7.698795180722892,-2.3734939759036147,5.397590361445784,-2.187614960147149,-7.691600245248313,5.98405885959534,2.0,1.4937728937728938,669.4458067680235,0.01759804207214102,-0.09999417283375035,0.3730551832643787,1602.197802197802,-1.0,80.75245410112129,1.4956476391779459,
2023-08-17 11:16:27.525000,-7.686746987951808,-2.3734939759036147,5.397590361445784,-2.270999386879215,-7.694052728387492,5.93746167995095,2.0,1.4952380952380953,668.7898089171974,0.04626770001748233,-0.17551424742147817,0.3688596235650599,1569.9633699633698,-1.0,80.75245410112129,1.495632964828591,
2023-08-17 11:16:27.532000,-7.698795180722892,-2.3734939759036147,5.409638554216868,-2.2268546903740036,-7.69650521152667,5.979153893316983,2.0,1.4937728937728938,669.4458067680235,-0.06036944234018958,-0.15733348872443298,0.18099178369558921,1539.194139194139,-1.0,80.75245410112129,1.4956183446504874,
2023-08-17 11:16:27.540000,-7.698795180722892,-2.36144578313253,5.433734939759036,-2.2440220723482525,-7.76026977314531,5.957081545064377,2.0,1.4952380952380953,668.7898089171974,0.19998834566750243,-0.26257211118233137,-0.09696404638424339,1510.6227106227104,-1.0,80.75245410112129,1.4956037837922354,
2023-08-17 11:16:27.548000,-7.662650602409639,-2.3493975903614457,5.409638554216868,-2.2611894543225013,-7.664622930717351,5.96934396076027,2.0,1.4952380952380953,668.7898089171974,-0.22947380688771132,-0.167356214672804,0.03880892721869383,1480.5860805860805,-1.0,80.75245410112129,1.4955892871737055,
2023-08-17 11:16:27.555000,-7.686746987951808,-2.36144578313253,5.421686746987952,-2.2219497240956465,-7.721030042918454,5.932556713672593,2.0,1.4937728937728938,669.4458067680235,-0.22772565701299533,-0.1650253481731838,0.03612843074412938,1449.084249084249,-1.0,80.75245410112129,1.495574859998861,
2023-08-17 11:16:27.563000,-7.686746987951808,-2.36144578313253,5.397590361445784,-2.2440220723482525,-7.767627222562845,5.971796443899448,2.0,1.4937728937728938,669.4458067680235,-0.055824252665928276,-0.1313443272536561,-0.07307266476312592,1416.8498168498168,-1.0,80.75245410112129,1.4955605067941284,
2023-08-17 11:16:27.571000,-7.710843373493976,-2.36144578313253,5.397590361445784,-2.2685469037400368,-7.713672593500919,5.954629061925199,2.0,1.4952380952380953,668.7898089171974,-0.34613367519375254,-0.12889691742905507,-0.149641629275683,1387.5457875457876,-1.0,80.75245410112129,1.495546231326422,
2023-08-17 11:16:27.578000,-7.698795180722892,-2.3734939759036147,5.421686746987952,-2.2317596566523603,-7.792152053954629,5.976701410177805,2.0,1.4937728937728938,669.4458067680235,0.006876056173883237,-0.29788473865159426,-0.09020453353534208,1361.904761904762,-1.0,80.75245410112129,1.4955320375396979,
2023-08-17 11:16:27.586000,-7.72289156626506,-2.3855421686746987,5.421686746987952,-2.248927038626609,-7.767627222562845,6.020846106683016,2.0,1.4937728937728938,669.4458067680235,0.05162869296660949,-0.2659518676067826,-0.5645358662082627,1341.3919413919414,-1.0,80.75245410112129,1.4955179291213032,
2023-08-17 11:16:27.594000,-7.710843373493976,-2.397590361445783,5.409638554216868,-2.270999386879215,-7.74310239117106,5.957081545064377,2.0,1.4937728937728938,669.4458067680235,-0.16351028494842945,0.13285939047841044,-0.2390303595361577,1326.7399267399267,-1.0,80.75245410112129,1.4955039089652158,
2023-08-17 11:16:27.601000,-7.710843373493976,-2.3855421686746987,5.457831325301205,-2.2636419374616796,-7.676885346413243,5.976701410177805,2.0,1.4937728937728938,669.4458067680235,0.11351319853155341,-0.2977681953266134,-0.30091486510110144,1317.216117216117,-1.0,80.75245410112129,1.495489979619234,
2023-08-17 11:16:27.609000,-7.698795180722892,-2.3855421686746987,5.445783132530121,-2.258736971183323,-7.784794604537093,6.028203556100552,2.0,1.4937728937728938,669.4458067680235,-0.22306392401375144,-0.19043179301905475,-0.7128955189091541,1310.6227106227104,-1.0,80.75245410112129,1.4954761432753216,
2023-08-17 11:16:27.617000,-7.698795180722892,-2.3855421686746987,5.409638554216868,-2.2832618025751072,-7.713672593500919,5.9963212752912325,2.0,1.4937728937728938,669.4458067680235,-0.327486743196784,-0.41967251325680266,-0.49682419439426634,1307.6923076923076,-1.0,80.75245410112129,1.4954624017610427,
2023-08-17 11:16:27.624000,-7.698795180722892,-2.397590361445783,5.397590361445784,-2.2857142857142856,-7.645003065603923,5.961986511342734,2.0,1.4937728937728938,669.4458067680235,-0.29427189557718136,-0.26525260765689584,-0.7117300856593436,1306.9597069597069,-1.0,80.75245410112129,1.4954487565321437,
2023-08-17 11:16:27.632000,-7.698795180722892,-2.3855421686746987,5.409638554216868,-2.270999386879215,-7.735744941753525,5.998773758430411,2.0,1.4937728937728938,669.4458067680235,-0.5085950702173527,-0.11118233203193321,-0.43330808227958767,1308.4249084249084,-1.0,80.75245410112129,1.4954352086663496,
2023-08-17 11:16:27.640000,-7.686746987951808,-2.397590361445783,5.421686746987952,-2.2979767014101777,-7.6989576946658485,5.986511342734518,2.0,1.4952380952380953,668.7898089171974,0.07703513781248217,-0.06281685216479235,-0.46465823669949297,1312.087912087912,-1.0,80.75245410112129,1.4954217588584138,
2023-08-17 11:16:27.647000,-7.686746987951808,-2.3855421686746987,5.409638554216868,-2.275904353157572,-7.706315144083384,5.979153893316983,2.0,1.4937728937728938,669.4458067680235,-0.16863819124759666,-0.27341064040557,-0.2948546122020862,1315.7509157509157,-1.0,80.75245410112129,1.4954084079091459,
2023-08-17 11:16:27.655000,-7.698795180722892,-2.397590361445783,5.421686746987952,-2.293071735131821,-7.728387492335989,6.03065603923973,2.0,1.4923076923076923,670.1030927835052,0.07773439776236893,-0.1611794184488075,-0.2938057222772567,1317.216117216117,-1.0,80.75245410112129,1.495395156302646,
2023-08-17 11:16:27.663000,-7.686746987951808,-2.397590361445783,5.433734939759036,-2.3151440833844266,-7.649908031882281,5.979153893316983,2.0,1.4937728937728938,669.4458067680235,-0.1835557368451715,-0.33960724899481354,-0.3547578812423518,1317.9487179487178,-1.0,80.75245410112129,1.4953820036460999,
2023-08-17 11:16:27.670000,-7.686746987951808,-2.397590361445783,5.421686746987952,-2.280809319435929,-7.6989576946658485,6.006131207847946,2.0,1.4937728937728938,669.4458067680235,-0.05897092244041781,-0.4429811782530151,-0.36850999359011694,1316.4835164835165,-1.0,80.75245410112129,1.495368949024129,
2023-08-17 11:16:27.678000,-7.674698795180723,-2.397590361445783,5.409638554216868,-2.280809319435929,-7.730839975475168,6.006131207847946,2.0,1.4937728937728938,669.4458067680235,0.2793543499796048,-0.3920517452362924,-0.19952217236757777,1314.2857142857142,-1.0,80.75245410112129,1.4953559911046916,
2023-08-17 11:16:27.686000,-7.686746987951808,-2.397590361445783,5.445783132530121,-2.293071735131821,-7.723482526057633,6.03065603923973,2.0,1.4937728937728938,669.4458067680235,-0.07214031816327662,-0.037060777343977155,-0.7180234252083212,1311.3553113553112,-1.0,80.75245410112129,1.4953431281765617,
2023-08-17 11:16:27.693000,-7.674698795180723,-2.4096385542168677,5.445783132530121,-2.3151440833844266,-7.728387492335989,6.001226241569589,2.0,1.4937728937728938,669.4458067680235,-0.08496008391119467,-0.14020161995221703,-0.407785094108735,1308.4249084249084,-1.0,80.75245410112129,1.495330358153486,
2023-08-17 11:16:27.701000,-7.686746987951808,-2.4096385542168677,5.433734939759036,-2.300429184549356,-7.686695278969957,5.952176578786021,2.0,1.4937728937728938,669.4458067680235,-0.14369791970164908,-0.12015616805547498,-0.5129071732416528,1309.89010989011,-1.0,80.75245410112129,1.4953176785797888,
2023-08-17 11:16:27.708000,-7.686746987951808,-2.4096385542168677,5.385542168674699,-2.322501532801962,-7.637645616186388,5.954629061925199,2.0,1.4937728937728938,669.4458067680235,-0.15884855194918732,0.06561389196433763,-0.3884389021618786,1314.2857142857142,-1.0,80.75245410112129,1.495305086637466,
2023-08-17 11:16:27.716000,-7.698795180722892,-2.4096385542168677,5.421686746987952,-2.280809319435929,-7.721030042918454,5.9742489270386265,2.0,1.4937728937728938,669.4458067680235,-0.3272536565468206,-0.10127614940854301,-0.5242118757648154,1318.6813186813185,-1.0,80.75245410112129,1.4952925791547447,
2023-08-17 11:16:27.724000,-7.674698795180723,-2.4216867469879517,5.397590361445784,-2.248927038626609,-7.645003065603923,6.001226241569589,2.0,1.4937728937728938,669.4458067680235,-0.03426373754443188,0.3565060311170678,-0.3676941903152496,1324.5421245421244,-1.0,80.75245410112129,1.4952801526161106,
2023-08-17 11:16:27.731000,-7.698795180722892,-2.4096385542168677,5.421686746987952,-2.376456161863887,-7.728387492335989,5.986511342734518,2.0,1.4937728937728938,669.4458067680235,0.22387972728861905,0.2010372355923317,-0.5633704329584521,1330.4029304029302,-1.0,80.75245410112129,1.49526780317379,
2023-08-17 11:16:27.739000,-7.710843373493976,-2.4216867469879517,5.433734939759036,-2.3445738810545675,-7.713672593500919,5.993868792152053,2.0,1.4937728937728938,669.4458067680235,-0.0848435405862121,0.09253540003496293,-0.3453178719188858,1334.065934065934,-1.0,80.75245410112129,1.4952555266606495,
2023-08-17 11:16:27.747000,-7.698795180722892,-2.4096385542168677,5.421686746987952,-2.3445738810545675,-7.701410177805027,5.979153893316983,2.0,1.4937728937728938,669.4458067680235,0.02330866499621242,-0.09055416351028524,-0.8781539537322999,1333.3333333333333,-1.0,80.75245410112129,1.4952433186044993,
2023-08-17 11:16:27.754000,-7.710843373493976,-2.433734939759036,5.397590361445784,-2.2832618025751072,-7.716125076640098,5.966891477621091,2.0,1.4937728937728938,669.4458067680235,-0.15849892197424306,-0.07482081463784107,-0.5682652526076566,1330.4029304029302,-1.0,80.75245410112129,1.4952311742437623,
2023-08-17 11:16:27.762000,-7.698795180722892,-2.433734939759036,5.421686746987952,-2.288166768853464,-7.6817903126916,5.964438994481912,2.0,1.4937728937728938,669.4458067680235,-0.2342520832119343,0.41501078025756055,-0.8227958743662958,1326.7399267399267,-1.0,80.75245410112129,1.495219088544446,
2023-08-17 11:16:27.770000,-7.710843373493976,-2.4216867469879517,5.433734939759036,-2.3077866339668915,-7.676885346413243,5.9448191293684856,2.0,1.4937728937728938,669.4458067680235,-0.05069634636676106,-0.04603461336751892,-0.4364547520540761,1322.3443223443223,-1.0,80.75245410112129,1.4952070562184,
2023-08-17 11:16:27.777000,-7.710843373493976,-2.4096385542168677,5.397590361445784,-2.2538320049049663,-7.779889638258736,5.9742489270386265,2.0,1.4937728937728938,669.4458067680235,-0.12586679097954637,0.0023308664996219363,-0.28028669657945365,1316.4835164835165,-1.0,80.75245410112129,1.495195071742767,
2023-08-17 11:16:27.785000,-7.698795180722892,-2.4096385542168677,5.409638554216868,-2.3200490496627832,-7.686695278969957,6.023298589822194,2.0,1.4937728937728938,669.4458067680235,0.04370374686789872,0.1418332265019522,-0.3394907056698327,1310.6227106227104,-1.0,80.75245410112129,1.4951831293805853,
2023-08-17 11:16:27.793000,-7.686746987951808,-2.4096385542168677,5.433734939759036,-2.2832618025751072,-7.708767627222563,5.957081545064377,2.0,1.4937728937728938,669.4458067680235,0.2554629683584865,0.14241594312685812,-0.3201445137229761,1304.0293040293038,-1.0,80.75245410112129,1.4951712232024754,
2023-08-17 11:16:27.800000,-7.686746987951808,-2.433734939759036,5.397590361445784,-2.342121397915389,-7.713672593500919,5.988963825873697,2.0,1.4937728937728938,669.4458067680235,0.07027562496357977,-0.13064506730376935,-0.24310937591049436,1298.168498168498,-1.0,80.75245410112129,1.4951593471093123,
2023-08-17 11:16:27.808000,-7.686746987951808,-2.4216867469879517,5.457831325301205,-2.3126916002452482,-7.716125076640098,5.947271612507664,2.0,1.4937728937728938,669.4458067680235,-0.14404754967659159,-0.09754676300914931,-0.5453062175863878,1290.8424908424909,-1.0,80.75245410112129,1.4951474948558277,
2023-08-17 11:16:27.816000,-7.686746987951808,-2.4096385542168677,5.397590361445784,-2.2955242182709994,-7.74310239117106,6.0036787247087675,2.0,1.4923076923076923,670.1030927835052,-0.11339665520657258,-0.3431035487442456,-0.23506788648680146,1283.5164835164835,-1.0,80.75245410112129,1.4951356605329158,
2023-08-17 11:16:27.823000,-7.674698795180723,-2.4216867469879517,5.433734939759036,-2.2685469037400368,-7.691600245248313,5.979153893316983,2.0,1.4937728937728938,669.4458067680235,-0.020278538546705464,-0.2938057222772563,-0.1424159431268577,1277.6556776556777,-1.0,80.75245410112129,1.4951238380328744,
2023-08-17 11:16:27.831000,-7.686746987951808,-2.4096385542168677,5.433734939759036,-2.2955242182709994,-7.694052728387492,5.964438994481912,2.0,1.4937728937728938,669.4458067680235,-0.019462735271837873,-0.2912417691276727,-0.1416001398519897,1271.062271062271,-1.0,80.75245410112129,1.4951120205494595,
2023-08-17 11:16:27.839000,-7.710843373493976,-2.4216867469879517,5.421686746987952,-2.207234825260576,-7.691600245248313,6.023298589822194,2.0,1.4937728937728938,669.4458067680235,0.02622224812073854,0.014101742322708983,-0.1573334887244334,1265.9340659340658,-1.0,80.75245410112129,1.4951002011996262,
2023-08-17 11:16:27.846000,-7.698795180722892,-2.4216867469879517,5.409638554216868,-2.3200490496627832,-7.755364806866952,6.0919681177191904,2.0,1.4937728937728938,669.4458067680235,0.28623040615348805,0.18157450032049383,-0.46372589009964477,1263.003663003663,-1.0,80.75245410112129,1.4950883730832183,
2023-08-17 11:16:27.854000,-7.686746987951808,-2.397590361445783,5.433734939759036,-2.27835683629675,-7.728387492335989,5.986511342734518,2.0,1.4937728937728938,669.4458067680235,0.11677641163102377,-0.07959909096206579,-0.35603985781714315,1261.5384615384614,-1.0,80.75245410112129,1.4950765293082302,
2023-08-17 11:16:27.862000,-7.710843373493976,-2.4216867469879517,5.445783132530121,-2.31023911710607,-7.679337829552422,5.966891477621091,2.0,1.4937728937728938,669.4458067680235,0.23798146961132802,0.3038284482256273,-0.42992832585513624,1260.8058608058607,-1.0,80.75245410112129,1.495064663016352,
2023-08-17 11:16:27.869000,-7.698795180722892,-2.4096385542168677,5.421686746987952,-2.3151440833844266,-7.694052728387492,6.001226241569589,2.0,1.4937728937728938,669.4458067680235,0.0802983509119508,0.3917021152613481,-0.2596585280578057,1259.3406593406592,-1.0,80.75245410112129,1.4950527674087193,
2023-08-17 11:16:27.877000,-7.710843373493976,-2.4096385542168677,5.397590361445784,-2.239117106069896,-7.733292458614347,5.998773758430411,2.0,1.4937728937728938,669.4458067680235,-0.04358720354291789,0.2512674086591694,-0.15104014917545608,1260.07326007326,-1.0,80.75245410112129,1.4950408357717577,
2023-08-17 11:16:27.885000,-7.698795180722892,-2.4096385542168677,5.409638554216868,-2.3445738810545675,-7.735744941753525,6.001226241569589,2.0,1.4952380952380953,668.7898089171974,-0.21094341821572188,0.20406736204183865,-0.30464425150049534,1261.5384615384614,-1.0,80.75245410112129,1.4950288615030525,
2023-08-17 11:16:27.892000,-7.698795180722892,-2.4216867469879517,5.409638554216868,-2.3028816676885344,-7.733292458614347,6.03065603923973,2.0,1.4937728937728938,669.4458067680235,-0.33086649962123343,0.35522405454227685,-0.058388205815511886,1260.8058608058607,-1.0,80.75245410112129,1.4950168386297888,
2023-08-17 11:16:27.900000,-7.674698795180723,-2.4216867469879517,5.409638554216868,-2.258736971183323,-7.745554874310239,5.966891477621091,2.0,1.4937728937728938,669.4458067680235,-0.2832002797039794,0.6603344793426952,0.04883165316706507,1257.8754578754579,-1.0,80.75245410112129,1.4950047614138777,
2023-08-17 11:16:27.908000,-7.686746987951808,-2.4216867469879517,5.433734939759036,-2.248927038626609,-7.703862660944206,5.991416309012875,2.0,1.4937728937728938,669.4458067680235,-0.08181341413670515,0.4256162228308375,-0.47060194627352714,1254.212454212454,-1.0,80.75245410112129,1.494992623852784,
2023-08-17 11:16:27.915000,-7.674698795180723,-2.4096385542168677,5.409638554216868,-2.280809319435929,-7.735744941753525,5.9963212752912325,2.0,1.4937728937728938,669.4458067680235,0.06992599498863726,0.4079016374337156,-0.20896218169104333,1253.4798534798533,-1.0,80.75245410112129,1.4949804201629626,
2023-08-17 11:16:27.923000,-7.674698795180723,-2.433734939759036,5.421686746987952,-2.3053341508277128,-7.694052728387492,6.0404659717964435,2.0,1.4937728937728938,669.4458067680235,0.4056873142590763,0.22248120738884725,-0.24031233611094907,1252.014652014652,-1.0,80.75245410112129,1.4949681452627945,
2023-08-17 11:16:27.931000,-7.662650602409639,-2.4216867469879517,5.385542168674699,-2.3028816676885344,-7.701410177805027,5.9816063764561616,2.0,1.4937728937728938,669.4458067680235,-0.024007924946099175,0.5581259833343036,-0.16479226152322082,1252.014652014652,-1.0,80.75245410112129,1.494955794271929,
2023-08-17 11:16:27.938000,-7.710843373493976,-2.4096385542168677,5.421686746987952,-2.2979767014101777,-7.725935009196811,6.001226241569589,2.0,1.4937728937728938,669.4458067680235,-0.23937998951110154,0.8005360992949122,-0.07225686148825876,1254.9450549450548,-1.0,80.75245410112129,1.4949433621139152,
2023-08-17 11:16:27.946000,-7.698795180722892,-2.397590361445783,5.421686746987952,-2.300429184549356,-7.694052728387492,6.015941140404659,2.0,1.4937728937728938,669.4458067680235,-0.14497989627644,0.4616281102499854,-0.28646349280344974,1257.142857142857,-1.0,80.75245410112129,1.49493084403119,
2023-08-17 11:16:27.954000,-7.698795180722892,-2.4096385542168677,5.397590361445784,-2.2685469037400368,-7.689147762109135,5.935009196811771,2.0,1.4937728937728938,669.4458067680235,-0.08332847736145949,0.7046209428354998,-0.3320319328710449,1257.8754578754579,-1.0,80.75245410112129,1.4949182356064832,
2023-08-17 11:16:27.961000,-7.710843373493976,-2.3734939759036147,5.397590361445784,-2.2538320049049663,-7.679337829552422,5.954629061925199,2.0,1.4923076923076923,670.1030927835052,-0.007225686148825746,0.42480041955596987,-0.4386690752287168,1258.6080586080586,-1.0,80.75245410112129,1.4949055327832494,
2023-08-17 11:16:27.969000,-7.698795180722892,-2.3855421686746987,5.409638554216868,-2.2562844880441446,-7.713672593500919,6.0036787247087675,2.0,1.4923076923076923,670.1030927835052,-0.19252957286871328,0.5127906299166716,-0.3157158673736965,1258.6080586080586,-1.0,80.75245410112129,1.4948927318502316,
2023-08-17 11:16:27.977000,-7.710843373493976,-2.397590361445783,5.36144578313253,-2.248927038626609,-7.733292458614347,5.954629061925199,2.0,1.4937728937728938,669.4458067680235,-0.1772623972961942,-0.026455334770700212,-0.2821513897791505,1259.3406593406592,-1.0,80.75245410112129,1.4948798293202266,
2023-08-17 11:16:27.984000,-7.698795180722892,-2.397590361445783,5.409638554216868,-2.2023298589822193,-7.730839975475168,5.9742489270386265,2.0,1.4937728937728938,669.4458067680235,-0.03997436046850501,0.07668550783753793,-0.3574383777169162,1260.8058608058607,-1.0,80.75245410112129,1.4948668224036763,
2023-08-17 11:16:27.992000,-7.686746987951808,-2.3734939759036147,5.409638554216868,-2.270999386879215,-7.721030042918454,5.98405885959534,2.0,1.4937728937728938,669.4458067680235,0.09579861313443329,-0.12353592447992617,-0.4136122603577875,1260.8058608058607,-1.0,80.75245410112129,1.4948537090940048,
2023-08-17 11:16:28,-7.710843373493976,-2.3734939759036147,5.373493975903615,-2.248927038626609,-7.684242795830778,5.971796443899448,2.0,1.4937728937728938,669.4458067680235,0.14101742322708463,-0.09346774663481136,-0.39473224171085636,1260.07326007326,-1.0,80.75245410112129,1.4948404872680057,
2023-08-17 11:16:28.007000,-7.698795180722892,-2.36144578313253,5.421686746987952,-2.300429184549356,-7.689147762109135,5.952176578786021,2.0,1.4937728937728938,669.4458067680235,-0.08857292698560755,-0.3382087290950418,-0.2837829963288848,1258.6080586080586,-1.0,80.75245410112129,1.4948271547672172,
2023-08-17 11:16:28.015000,-7.686746987951808,-2.397590361445783,5.421686746987952,-2.241569589209074,-7.69650521152667,5.9448191293684856,2.0,1.4937728937728938,669.4458067680235,0.049997086416876044,-0.4894819649204591,-0.09731367635918634,1256.4102564102564,-1.0,80.75245410112129,1.4948137098983916,
2023-08-17 11:16:28.023000,-7.674698795180723,-2.397590361445783,5.421686746987952,-2.31023911710607,-7.728387492335989,5.976701410177805,2.0,1.4937728937728938,669.4458067680235,-0.1962589592681087,-0.34893071499329953,-0.24963580210943423,1254.212454212454,-1.0,80.75245410112129,1.49480015143991,
2023-08-17 11:16:28.030000,-7.686746987951808,-2.4096385542168677,5.421686746987952,-2.2906192519926423,-7.725935009196811,5.96934396076027,2.0,1.4937728937728938,669.4458067680235,-0.09230231338500125,-0.13344210710331636,-0.06293339548977318,1257.142857142857,-1.0,80.75245410112129,1.4947864786467848,
2023-08-17 11:16:28.038000,-7.698795180722892,-2.397590361445783,5.397590361445784,-2.21704475781729,-7.6989576946658485,5.959534028203556,2.0,1.4937728937728938,669.4458067680235,-0.18448808344501993,0.003263213099470364,-0.4286463492803449,1260.07326007326,-1.0,80.75245410112129,1.4947726912542865,
2023-08-17 11:16:28.046000,-7.710843373493976,-2.4096385542168677,5.433734939759036,-2.2906192519926423,-7.723482526057633,5.9963212752912325,2.0,1.4937728937728938,669.4458067680235,0.09136996678515283,0.18413845347007743,-0.5013693840685278,1265.2014652014652,-1.0,80.75245410112129,1.4947587899380352,
2023-08-17 11:16:28.053000,-7.710843373493976,-2.4216867469879517,5.445783132530121,-2.2857142857142856,-7.708767627222563,6.015941140404659,2.0,1.4937728937728938,669.4458067680235,0.06200104888992476,0.3055765981003433,-0.2370491230114796,1268.8644688644688,-1.0,80.75245410112129,1.4947447757897199,
2023-08-17 11:16:28.061000,-7.710843373493976,-2.4216867469879517,5.397590361445784,-2.31023911710607,-7.706315144083384,5.9742489270386265,2.0,1.4937728937728938,669.4458067680235,-0.12237049123011434,0.5019521006934329,-0.4929782646698907,1271.062271062271,-1.0,80.75245410112129,1.4947306503533275,
2023-08-17 11:16:28.069000,-7.710843373493976,-2.4216867469879517,5.421686746987952,-2.2979767014101777,-7.811771919068056,5.976701410177805,2.0,1.4937728937728938,669.4458067680235,-0.03100052444496325,0.26630149758172683,-0.44368043820290226,1271.7948717948716,-1.0,80.75245410112129,1.4947164160480293,
2023-08-17 11:16:28.076000,-7.734939759036145,-2.4216867469879517,5.373493975903615,-2.3151440833844266,-7.716125076640098,5.96934396076027,2.0,1.4937728937728938,669.4458067680235,0.06270030883981152,0.03333139094458345,-0.318396363848261,1270.3296703296703,-1.0,80.75245410112129,1.4947020756759546,
2023-08-17 11:16:28.084000,-7.734939759036145,-2.4216867469879517,5.409638554216868,-2.2734518700183934,-7.811771919068056,5.966891477621091,2.0,1.4937728937728938,669.4458067680235,0.032049414369792514,-0.060602528990151255,-0.36256628401608304,1269.5970695970695,-1.0,80.75245410112129,1.4946876319628024,
2023-08-17 11:16:28.091000,-7.698795180722892,-2.4216867469879517,5.421686746987952,-2.3347639484978537,-7.75781729000613,5.998773758430411,2.0,1.4937728937728938,669.4458067680235,0.017248412097196776,-0.2615232212575021,0.006759512848901098,1271.7948717948716,-1.0,80.75245410112129,1.494673087621672,
2023-08-17 11:16:28.099000,-7.698795180722892,-2.397590361445783,5.421686746987952,-2.2906192519926423,-7.725935009196811,5.932556713672593,2.0,1.4937728937728938,669.4458067680235,0.03251558766971586,0.3944991550608934,-0.5749082221315771,1276.923076923077,-1.0,80.75245410112129,1.4946584458361551,
2023-08-17 11:16:28.107000,-7.650602409638554,-2.4216867469879517,5.397590361445784,-2.280809319435929,-7.674432863274064,6.0110361741263025,2.0,1.4937728937728938,669.4458067680235,0.5673329060078088,-0.03682769069401549,-0.23588368976166904,1286.4468864468863,-1.0,80.75245410112129,1.4946437107074686,
2023-08-17 11:16:28.114000,-7.662650602409639,-2.397590361445783,5.397590361445784,-2.2906192519926423,-7.689147762109135,5.988963825873697,2.0,1.4923076923076923,670.1030927835052,0.5627877163335475,-0.036478060719072974,-0.2340189965619722,1302.5641025641025,-1.0,80.75245410112129,1.4946288867174993,
2023-08-17 11:16:28.122000,-7.662650602409639,-2.397590361445783,5.397590361445784,-2.2685469037400368,-7.686695278969957,5.932556713672593,2.0,1.4923076923076923,670.1030927835052,0.42095448983159534,0.08659169046092811,-0.5715284657071272,1330.4029304029302,-1.0,80.75245410112129,1.4946139782600338,
2023-08-17 11:16:28.130000,-7.674698795180723,-2.397590361445783,5.433734939759036,-2.300429184549356,-7.718577559779276,6.0036787247087675,2.0,1.4937728937728938,669.4458067680235,0.2938057222772563,-0.0961482431093758,-0.1544199055999073,1365.5677655677655,-1.0,80.75245410112129,1.49459898997952,
2023-08-17 11:16:28.137000,-7.674698795180723,-2.397590361445783,5.397590361445784,-2.3249540159411404,-7.689147762109135,5.998773758430411,2.0,1.4923076923076923,670.1030927835052,0.12400209777984952,-0.459413787075346,-0.35370899131752254,1411.7216117216117,-1.0,80.75245410112129,1.494583927212323,
2023-08-17 11:16:28.145000,-7.638554216867471,-2.4096385542168677,5.433734939759036,-2.27835683629675,-7.735744941753525,5.986511342734518,2.0,1.4923076923076923,670.1030927835052,0.10756948895752033,-0.06153487559000141,-0.5194335994405913,1466.6666666666665,-1.0,80.75245410112129,1.4945687955475524,
2023-08-17 11:16:28.153000,-7.674698795180723,-2.4096385542168677,5.409638554216868,-2.300429184549356,-7.740649908031882,5.993868792152053,2.0,1.4923076923076923,670.1030927835052,0.10617096905774683,-3.496299749425094E-4,-0.2697977973311571,1527.4725274725274,-1.0,80.75245410112129,1.4945535998240456,
2023-08-17 11:16:28.160000,-7.638554216867471,-2.4216867469879517,5.457831325301205,-2.3126916002452482,-7.6621704475781724,6.03065603923973,2.0,1.4937728937728938,669.4458067680235,-0.06235067886486727,-0.38727346891206765,-0.28285064972903684,1592.6739926739926,-1.0,80.75245410112129,1.4945383446336127,
2023-08-17 11:16:28.168000,-7.650602409638554,-2.4216867469879517,5.457831325301205,-2.3323114653586754,-7.659717964438994,6.018393623543838,2.0,1.4937728937728938,669.4458067680235,0.3034788182506848,-0.08088106753685671,-0.26385408775712316,1657.142857142857,-1.0,80.75245410112129,1.4945230357363393,
2023-08-17 11:16:28.176000,-7.674698795180723,-2.4216867469879517,5.457831325301205,-2.3372164316370325,-7.684242795830778,5.9963212752912325,2.0,1.4937728937728938,669.4458067680235,0.20907872501602504,0.1157275217061945,-0.4588310704504401,1718.6813186813185,-1.0,80.75245410112129,1.4945076795788088,
2023-08-17 11:16:28.183000,-7.674698795180723,-2.4216867469879517,5.445783132530121,-2.2979767014101777,-7.664622930717351,5.971796443899448,2.0,1.4937728937728938,669.4458067680235,0.13227667385350453,0.11258085193170499,-0.33086649962123343,1772.8937728937728,-1.0,80.75245410112129,1.4944922828489093,
2023-08-17 11:16:28.191000,-7.686746987951808,-2.433734939759036,5.433734939759036,-2.3543838136112814,-7.730839975475168,6.0110361741263025,2.0,1.4937728937728938,669.4458067680235,0.22399627061359986,0.17026979779733184,-0.2816852164792263,1818.3150183150183,-1.0,80.75245410112129,1.4944768524186351,
2023-08-17 11:16:28.199000,-7.686746987951808,-2.4216867469879517,5.46987951807229,-2.2636419374616796,-7.713672593500919,5.991416309012875,2.0,1.4937728937728938,669.4458067680235,0.17434881417166806,0.07633587786259542,-0.4937940679447587,1852.0146520146518,-1.0,80.75245410112129,1.4944613948983327,
2023-08-17 11:16:28.206000,-7.674698795180723,-2.433734939759036,5.457831325301205,-2.258736971183323,-7.723482526057633,6.052728387492336,2.0,1.4937728937728938,669.4458067680235,0.051861779616572894,0.22959035021269217,-0.06083561564011379,1874.7252747252746,-1.0,80.75245410112129,1.4944459171043145,
2023-08-17 11:16:28.214000,-7.686746987951808,-2.4216867469879517,5.433734939759036,-2.2366646229307174,-7.735744941753525,5.991416309012875,2.0,1.4937728937728938,669.4458067680235,0.4330749956296249,0.16479226152322038,-0.33424625604568553,1887.9120879120878,-1.0,80.75245410112129,1.4944304260341783,
2023-08-17 11:16:28.222000,-7.698795180722892,-2.4216867469879517,5.397590361445784,-2.275904353157572,-7.6989576946658485,6.006131207847946,2.0,1.4937728937728938,669.4458067680235,0.39857817143523133,0.14766039275100445,-0.19241302954373288,1894.5054945054944,758.331298828125,79.12109139200773,1.494414928842613,
2023-08-17 11:16:28.229000,-7.686746987951808,-2.397590361445783,5.457831325301205,-2.3028816676885344,-7.725935009196811,5.976701410177805,2.0,1.4937728937728938,669.4458067680235,0.28797855602820405,0.0692267350387505,-0.4335411689295495,1890.1098901098899,-1.0,79.12109139200773,1.4943994328178045,
2023-08-17 11:16:28.237000,-7.686746987951808,-2.397590361445783,5.421686746987952,-2.241569589209074,-7.713672593500919,5.959534028203556,2.0,1.4937728937728938,669.4458067680235,0.22702639706310856,0.1466115028261752,-0.6390070508711617,1874.7252747252746,-1.0,79.12109139200773,1.4943839453585683,
2023-08-17 11:16:28.245000,-7.698795180722892,-2.3855421686746987,5.421686746987952,-2.246474555487431,-7.74310239117106,5.927651747394236,2.0,1.4937728937728938,669.4458067680235,0.08775712371073996,0.3453178719188867,-0.23565060311170738,1849.084249084249,-1.0,79.12109139200773,1.49436847441016,
2023-08-17 11:16:28.252000,-7.710843373493976,-2.3855421686746987,5.397590361445784,-2.3249540159411404,-7.708767627222563,5.949724095646842,2.0,1.4937728937728938,669.4458067680235,0.2093118116659867,0.3883223588368969,-0.5210652059903269,1816.117216117216,-1.0,79.12109139200773,1.4943530279180048,
