Shimmer_F5D4_Timestamp_FormattedUnix_CAL,Shimmer_F5D4_Accel_LN_X_CAL,Shimmer_F5D4_Accel_LN_Y_CAL,Shimmer_F5D4_Accel_LN_Z_CAL,Shimmer_F5D4_Accel_WR_X_CAL,Shimmer_F5D4_Accel_WR_Y_CAL,Shimmer_F5D4_Accel_WR_Z_CAL,Shimmer_F5D4_GSR_Range_CAL,Shimmer_F5D4_GSR_Skin_Conductance_CAL,Shimmer_F5D4_GSR_Skin_Resistance_CAL,Shimmer_F5D4_Gyro_X_CAL,Shimmer_F5D4_Gyro_Y_CAL,Shimmer_F5D4_Gyro_Z_CAL,Shimmer_F5D4_PPG_A13_CAL,Shimmer_F5D4_PPG_IBI_CAL,Shimmer_F5D4_PPGtoHR_CAL,Shimmer_F5D4_GSR_Skin_Conductance_LPF_CAL,
yyyy/mm/dd hh:mm:ss.000,m/(s^2),m/(s^2),m/(s^2),m/(s^2),m/(s^2),m/(s^2),no_units,uS,kOhms,deg/s,deg/s,deg/s,mV,ms,BPM,uS,
2023-08-12 16:07:23.209000,-2.7228915662650603,-0.9036144578313253,9.325301204819278,-0.6965052115266707,-2.6223175965665235,10.028203556100552,2.0,2.5750915750915753,388.33570412517776,0.1414835965270097,-0.06817784511392125,-0.041372880368277,1380.2197802197802,-1.0,68.11293954616318,2.5787781774006295,
2023-08-12 16:07:23.217000,-2.710843373493976,-0.9036144578313253,9.337349397590362,-0.703862660944206,-2.6296750459840585,10.084610668301655,2.0,2.5750915750915753,388.33570412517776,0.07785094108734976,0.13274284715342963,0.0661966085892429,1375.8241758241757,-1.0,68.11293954616318,2.5787290608222273,
2023-08-12 16:07:23.225000,-2.734939759036145,-0.9156626506024097,9.361445783132531,-0.703862660944206,-2.6689147762109133,10.079705702023299,2.0,2.5736263736263743,388.5567890691716,0.033914107569489364,0.39321717848610244,-0.19043179301905475,1372.8937728937728,-1.0,68.11293954616318,2.5786800007396575,
2023-08-12 16:07:23.232000,-2.734939759036145,-0.8915662650602411,9.349397590361447,-0.7161250766400981,-2.644389944819129,10.020846106683017,2.0,2.5736263736263743,388.5567890691716,0.03298176096964094,0.39193520191130976,-0.18786783986947156,1372.8937728937728,-1.0,68.11293954616318,2.5786310075899013,
2023-08-12 16:07:23.240000,-2.7590361445783134,-0.8795180722891567,9.313253012048193,-0.6621704475781729,-2.6738197424892705,10.087063151440834,2.0,2.5736263736263743,388.5567890691716,0.26408717440708573,0.514189149816445,0.10325738593322072,1375.8241758241757,-1.0,68.11293954616318,2.5785820911752744,
2023-08-12 16:07:23.248000,-2.746987951807229,-0.8795180722891567,9.325301204819278,-0.6131207847946045,-2.6517473942366645,10.111587982832617,2.0,2.5736263736263743,388.5567890691716,0.20150340889225504,0.43493968882932177,-0.004428646349280247,1383.150183150183,-1.0,68.11293954616318,2.5785332615191088,
2023-08-12 16:07:23.255000,-2.7590361445783134,-0.8795180722891567,9.325301204819278,-0.640098099325567,-2.695892090741876,10.099325567136725,2.0,2.5736263736263743,388.5567890691716,-0.0734222947380693,0.29485461220208553,-0.07913291766214113,1391.2087912087911,-1.0,68.11293954616318,2.5784845283502777,
2023-08-12 16:07:23.263000,-2.7590361445783134,-0.8915662650602411,9.313253012048193,-0.6965052115266707,-2.683629675045984,10.052728387492335,2.0,2.5736263736263743,388.5567890691716,-0.4695530563486979,-0.1475438494260236,0.15208903910028534,1399.2673992673992,-1.0,68.11293954616318,2.578435901080323,
2023-08-12 16:07:23.271000,-2.746987951807229,-0.8795180722891567,9.349397590361447,-0.6891477621091354,-2.666462293071735,10.0453709380748,2.0,2.5736263736263743,388.5567890691716,-0.51372297651652,-0.29753510867665,0.2590758114329002,1410.2564102564102,-1.0,68.11293954616318,2.578387388780782,
2023-08-12 16:07:23.278000,-2.698795180722892,-0.9036144578313253,9.337349397590362,-0.6646229307173512,-2.6689147762109133,10.087063151440834,2.0,2.5736263736263743,388.5567890691716,-0.16141250509877092,-0.008973836023541765,-0.15465299224986895,1421.245421245421,-1.0,68.11293954616318,2.5783390001607596,
2023-08-12 16:07:23.286000,-2.710843373493976,-0.9036144578313253,9.337349397590362,-0.6621704475781729,-2.602697731453096,10.089515634580012,2.0,2.5736263736263743,388.5567890691716,0.02109434182157132,0.033914107569489364,-0.01491754559757614,1432.9670329670328,-1.0,68.11293954616318,2.5782907435449673,
2023-08-12 16:07:23.294000,-2.7228915662650603,-0.8915662650602411,9.337349397590362,-0.6670754138565297,-2.6983445738810543,10.084610668301655,2.0,2.5736263736263743,388.5567890691716,0.3102383310995855,-0.013868655672745575,0.17213449099702827,1441.7582417582416,-1.0,68.11293954616318,2.5782426268523833,
2023-08-12 16:07:23.301000,-2.710843373493976,-0.9036144578313253,9.325301204819278,-0.6597179644389944,-2.6811771919068055,10.020846106683017,2.0,2.5736263736263743,388.5567890691716,0.047433133267292434,0.0791329176621407,-0.009556552648447248,1452.7472527472526,-1.0,68.11293954616318,2.5781946575756787,
2023-08-12 16:07:23.309000,-2.710843373493976,-0.9156626506024097,9.313253012048193,-0.7210300429184548,-2.5977927651747392,10.001226241569588,2.0,2.5736263736263743,388.5567890691716,-0.2118757648155703,0.09335120330983052,0.2670007575316125,1460.8058608058607,-1.0,68.11293954616318,2.5781468427615786,
2023-08-12 16:07:23.317000,-2.710843373493976,-0.9036144578313253,9.301204819277109,-0.7087676272225628,-2.7277743715511953,10.042918454935622,2.0,2.5736263736263743,388.5567890691716,0.2180525610395668,0.18367228017015408,0.26618495425674465,1470.3296703296703,-1.0,68.11293954616318,2.578099188992322,
2023-08-12 16:07:23.324000,-2.6867469879518073,-0.9277108433734941,9.325301204819278,-0.6744328632740649,-2.646842427958308,10.052728387492335,2.0,2.5736263736263743,388.5567890691716,0.11024998543208478,0.10582133908280432,0.4347066021793601,1478.3882783882782,-1.0,68.11293954616318,2.578051701910516,
2023-08-12 16:07:23.332000,-2.6867469879518073,-0.9397590361445783,9.325301204819278,-0.6695278969957081,-2.602697731453096,10.07725321888412,2.0,2.5721611721611723,388.7781258900598,0.18588660334479346,-0.2943884389021622,0.4058038575840569,1483.5164835164835,-1.0,68.11293954616318,2.578004386270507,
2023-08-12 16:07:23.340000,-2.6867469879518073,-0.9036144578313253,9.337349397590362,-0.6842427958307786,-2.5977927651747392,10.038013488657265,2.0,2.5721611721611723,388.7781258900598,0.07808402773731143,-0.20057106229240662,0.1769127673212517,1487.179487179487,-1.0,68.11293954616318,2.577957246835536,
2023-08-12 16:07:23.347000,-2.698795180722892,-0.9277108433734941,9.313253012048193,-0.7112201103617413,-2.595340282035561,10.084610668301655,2.0,2.5736263736263743,388.5567890691716,0.03193287104481168,-0.18402191014509658,0.23914690286113854,1488.6446886446886,-1.0,68.11293954616318,2.577910287696929,
2023-08-12 16:07:23.355000,-2.710843373493976,-0.8915662650602411,9.301204819277109,-0.6866952789699571,-2.595340282035561,10.072348252605762,2.0,2.5736263736263743,388.5567890691716,0.43435697220441755,0.07808402773731143,0.20931181166598692,1485.7142857142856,-1.0,68.11293954616318,2.577863512295824,
2023-08-12 16:07:23.363000,-2.7228915662650603,-0.8915662650602411,9.337349397590362,-0.6842427958307786,-2.6321275291232373,10.094420600858369,2.0,2.5721611721611723,388.7781258900598,-0.03764349396888308,0.0181807586970452,-0.11281393858166774,1479.8534798534797,-1.0,68.11293954616318,2.5778169239737196,
2023-08-12 16:07:23.370000,-2.7228915662650603,-0.9036144578313253,9.313253012048193,-0.7014101778050276,-2.656652360515021,10.0453709380748,2.0,2.5736263736263743,388.5567890691716,0.3626828273410643,-0.057572402540644295,0.23972961948604404,1472.5274725274724,-1.0,68.11293954616318,2.5777705250146994,
2023-08-12 16:07:23.378000,-2.710843373493976,-0.9156626506024097,9.337349397590362,-0.6744328632740649,-2.6591048436541995,10.089515634580012,2.0,2.5736263736263743,388.5567890691716,-0.032632130994696695,-0.30044869180117784,0.26933162403123356,1463.7362637362637,-1.0,68.11293954616318,2.5777243170609,
2023-08-12 16:07:23.386000,-2.6506024096385543,-0.9156626506024097,9.337349397590362,-0.6965052115266707,-2.6051502145922747,10.011036174126302,2.0,2.5736263736263743,388.5567890691716,0.15325447235009676,-0.2973020220266883,-0.038575840568731506,1456.4102564102564,-1.0,68.11293954616318,2.5776783016343794,
2023-08-12 16:07:23.393000,-2.698795180722892,-0.8674698795180723,9.337349397590362,-0.7136725935009196,-2.624770079705702,10.0453709380748,2.0,2.5736263736263743,388.5567890691716,0.21420663131519224,-0.08123069751179923,-0.06945982168871262,1449.8168498168498,-1.0,68.11293954616318,2.577632479678453,
2023-08-12 16:07:23.401000,-2.710843373493976,-0.8674698795180723,9.337349397590362,-0.7014101778050276,-2.637032495401594,10.028203556100552,2.0,2.5736263736263743,388.5567890691716,0.518967426140668,-0.11234776528174331,-0.3459005885437913,1443.956043956044,-1.0,68.11293954616318,2.5775868515594653,
2023-08-12 16:07:23.409000,-2.734939759036145,-0.8674698795180723,9.337349397590362,-0.640098099325567,-2.6615573267933783,10.052728387492335,2.0,2.5736263736263743,388.5567890691716,0.07307266476312506,-0.0025639531495836093,-0.12924654740399735,1438.095238095238,-1.0,68.11293954616318,2.577541417071234,
2023-08-12 16:07:23.416000,-2.710843373493976,-0.8915662650602411,9.313253012048193,-0.6793378295524218,-2.678724708767627,10.035561005518087,2.0,2.5736263736263743,388.5567890691716,-0.10990035545714054,0.1064040557077085,0.10104306275858048,1432.9670329670328,-1.0,68.11293954616318,2.577496175442199,
2023-08-12 16:07:23.424000,-2.698795180722892,-0.8795180722891567,9.325301204819278,-0.6670754138565297,-2.617412630288167,10.023298589822195,2.0,2.5736263736263743,388.5567890691716,0.15115669250043648,0.030650894470019004,-0.2334362799370665,1430.03663003663,-1.0,68.11293954616318,2.577451125345326,
2023-08-12 16:07:23.431000,-2.710843373493976,-0.9036144578313253,9.313253012048193,-0.6670754138565297,-2.6419374616799507,10.047823421213979,2.0,2.5721611721611723,388.7781258900598,-0.2473049356098123,0.15325447235009676,-0.26152322125750255,1427.106227106227,-1.0,68.11293954616318,2.5774062653687153,
2023-08-12 16:07:23.439000,-2.7228915662650603,-0.8795180722891567,9.325301204819278,-0.7112201103617413,-2.5928877988963825,10.042918454935622,2.0,2.5736263736263743,388.5567890691716,-0.017248412097196776,-0.12155468795524675,-0.10896800885729276,1425.6410256410256,-1.0,68.11293954616318,2.577361593013339,
2023-08-12 16:07:23.447000,-2.710843373493976,-0.8674698795180723,9.337349397590362,-0.598405885959534,-2.708154506437768,10.050275904353157,2.0,2.5721611721611723,388.7781258900598,-0.003263213099470364,-0.0745877279878794,-0.33541168929549564,1424.1758241758241,-1.0,68.11293954616318,2.5773171047107657,
2023-08-12 16:07:23.454000,-2.734939759036145,-0.8795180722891567,9.313253012048193,-0.6719803801348866,-2.6738197424892705,10.072348252605762,2.0,2.5736263736263743,388.5567890691716,-0.09451663655964061,0.14078433657712294,0.08064798088689461,1422.7106227106226,-1.0,68.11293954616318,2.577272796826058,
2023-08-12 16:07:23.462000,-2.698795180722892,-0.8674698795180723,9.361445783132531,-0.6842427958307786,-2.6640098099325566,10.07725321888412,2.0,2.5736263736263743,388.5567890691716,-0.0012819765747909368,0.12481790105471711,0.21607132451488845,1423.4432234432234,-1.0,68.11293954616318,2.5772286651179543,
2023-08-12 16:07:23.470000,-2.698795180722892,-0.855421686746988,9.325301204819278,-0.7063151440833844,-2.6223175965665235,10.038013488657265,2.0,2.5736263736263743,388.5567890691716,-0.0011654332498101003,0.1681720179476716,0.12528407435464134,1423.4432234432234,-1.0,68.11293954616318,2.577184704867711,
2023-08-12 16:07:23.477000,-2.710843373493976,-0.8795180722891567,9.337349397590362,-0.6719803801348866,-2.637032495401594,10.035561005518087,2.0,2.5736263736263743,388.5567890691716,0.07575316123768949,-0.1242351844298112,-0.08612551716100456,1424.9084249084249,-1.0,68.11293954616318,2.5771409113987116,
2023-08-12 16:07:23.485000,-2.710843373493976,-0.855421686746988,9.313253012048193,-0.6621704475781729,-2.6909871244635193,10.001226241569588,2.0,2.5706959706959704,388.9997150185238,0.30476079482547574,-0.1729502942718963,0.1443971796515354,1424.9084249084249,-1.0,68.11293954616318,2.577097279580962,
2023-08-12 16:07:23.493000,-2.7228915662650603,-0.855421686746988,9.289156626506024,-0.6744328632740649,-2.5977927651747392,10.047823421213979,2.0,2.5721611721611723,388.7781258900598,-0.2305226968125406,0.11794184488083388,0.29905017190140437,1425.6410256410256,-1.0,68.11293954616318,2.577053802914727,
2023-08-12 16:07:23.500000,-2.698795180722892,-0.8674698795180723,9.313253012048193,-0.6523605150214592,-2.649294911097486,10.116492949110974,2.0,2.5721611721611723,388.7781258900598,0.09393391993473643,0.14556261290134592,-0.08006526426198934,1427.106227106227,-1.0,68.11293954616318,2.5770104743383704,
2023-08-12 16:07:23.508000,-2.698795180722892,-0.8915662650602411,9.301204819277109,-0.6719803801348866,-2.6689147762109133,10.07725321888412,2.0,2.5721611721611723,388.7781258900598,-0.030883981119980676,-0.25313210185886625,0.13565643027795574,1427.106227106227,-1.0,68.11293954616318,2.5769672867532982,
2023-08-12 16:07:23.516000,-2.674698795180723,-0.8795180722891567,9.337349397590362,-0.6817903126916002,-2.644389944819129,10.047823421213979,2.0,2.5721611721611723,388.7781258900598,-0.030184721170095657,-0.252782471883922,0.1385700134024823,1427.106227106227,-1.0,68.11293954616318,2.576924232601807,
2023-08-12 16:07:23.523000,-2.6867469879518073,-0.9036144578313253,9.337349397590362,-0.7063151440833844,-2.62722256284488,10.096873083997547,2.0,2.5721611721611723,388.7781258900598,0.032049414369792514,-0.11223122195676248,0.2773731134549269,1426.3736263736262,-1.0,68.11293954616318,2.576881303903766,
2023-08-12 16:07:23.531000,-2.674698795180723,-0.8915662650602411,9.349397590361447,-0.703862660944206,-2.6296750459840585,10.028203556100552,2.0,2.5721611721611723,388.7781258900598,-0.05780548919060597,0.17912709049589104,0.2019695821921799,1427.106227106227,-1.0,68.11293954616318,2.576838491836324,
2023-08-12 16:07:23.539000,-2.698795180722892,-0.8915662650602411,9.301204819277109,-0.7259350091968118,-2.624770079705702,10.055180870631514,2.0,2.5721611721611723,388.7781258900598,0.1119981353068008,0.2561622283083732,-0.13390828040323993,1430.7692307692307,-1.0,68.11293954616318,2.5767957872974048,
2023-08-12 16:07:23.546000,-2.7228915662650603,-0.855421686746988,9.337349397590362,-0.615573267933783,-2.678724708767627,10.028203556100552,2.0,2.5721611721611723,388.7781258900598,0.003962473049355383,0.6365596410465594,-0.00780840277373123,1434.4322344322343,-1.0,68.11293954616318,2.5767531813658895,
2023-08-12 16:07:23.554000,-2.7228915662650603,-0.8915662650602411,9.325301204819278,-0.6768853464132434,-2.619865113427345,10.025751072961373,2.0,2.5736263736263743,388.5567890691716,-0.10407318920808831,0.44799254122720145,-0.14323174640172487,1434.4322344322343,-1.0,68.11293954616318,2.576710664391413,
2023-08-12 16:07:23.562000,-2.734939759036145,-0.8674698795180723,9.325301204819278,-0.7087676272225628,-2.6419374616799507,10.096873083997547,2.0,2.5721611721611723,388.7781258900598,-0.2722452071557599,0.03135015441990576,-0.24928617213449106,1431.5018315018315,-1.0,68.11293954616318,2.5766682270529535,
2023-08-12 16:07:23.569000,-2.710843373493976,-0.8795180722891567,9.313253012048193,-0.6621704475781729,-2.6345800122624157,10.064990803188227,2.0,2.5721611721611723,388.7781258900598,-0.2089621816910442,0.10453936250801164,-0.2646698910319912,1424.9084249084249,-1.0,68.11293954616318,2.57662586040072,
2023-08-12 16:07:23.577000,-2.698795180722892,-0.8795180722891567,9.313253012048193,-0.640098099325567,-2.6345800122624157,10.025751072961373,2.0,2.5721611721611723,388.7781258900598,-0.1480100227259487,0.03927510051861826,-0.2019695821921799,1417.5824175824175,-1.0,68.11293954616318,2.5765835544232556,
2023-08-12 16:07:23.585000,-2.7228915662650603,-0.8433734939759037,9.301204819277109,-0.6229307173513182,-2.6321275291232373,10.050275904353157,2.0,2.5721611721611723,388.7781258900598,-0.14777693607598702,-0.03997436046850501,-0.489365421595478,1410.2564102564102,-1.0,68.11293954616318,2.5765412990734053,
2023-08-12 16:07:23.592000,-2.6867469879518073,-0.8674698795180723,9.337349397590362,-0.703862660944206,-2.717964438994482,10.050275904353157,2.0,2.5721611721611723,388.7781258900598,-0.20826292174115743,-0.2682827341064045,-0.37946506613833686,1405.128205128205,-1.0,68.11293954616318,2.5764990842745563,
2023-08-12 16:07:23.600000,-2.7228915662650603,-0.8674698795180723,9.337349397590362,-0.645003065603924,-2.676272225628449,10.09196811771919,2.0,2.5721611721611723,388.7781258900598,-0.1636268282734103,0.037760037293863916,0.035778800769186006,1400.7326007326005,-1.0,68.11293954616318,2.576456899996669,
2023-08-12 16:07:23.608000,-2.710843373493976,-0.8795180722891567,9.301204819277109,-0.7185775597792765,-2.7277743715511953,10.050275904353157,2.0,2.5721611721611723,388.7781258900598,-0.42456733290600823,0.005244449624148055,-0.44146611502826183,1397.069597069597,-1.0,68.11293954616318,2.5764147367207846,
2023-08-12 16:07:23.615000,-2.710843373493976,-0.8674698795180723,9.337349397590362,-0.7259350091968118,-2.6738197424892705,10.094420600858369,2.0,2.5721611721611723,388.7781258900598,-0.17854437387098687,0.09579861313443329,0.06363265543965972,1395.6043956043954,-1.0,68.11293954616318,2.576372584990061,
2023-08-12 16:07:23.623000,-2.734939759036145,-0.8795180722891567,9.325301204819278,-0.6965052115266707,-2.6738197424892705,10.067443286327405,2.0,2.5721611721611723,388.7781258900598,-0.3160654973486394,0.11048307208204645,-0.18308956354524794,1394.8717948717947,-1.0,68.11293954616318,2.5763304349951777,
2023-08-12 16:07:23.631000,-2.746987951807229,-0.8915662650602411,9.325301204819278,-0.7112201103617413,-2.678724708767627,10.064990803188227,2.0,2.5721611721611723,388.7781258900598,0.0643319153895467,0.0026804964745644456,-0.12237049123011477,1396.3369963369962,-1.0,68.11293954616318,2.5762882771421625,
2023-08-12 16:07:23.638000,-2.746987951807229,-0.9036144578313253,9.337349397590362,-0.7480073574494175,-2.6640098099325566,10.126302881667687,2.0,2.5706959706959704,388.9997150185238,-0.2097779849659118,0.32399044344735195,-0.21723675776469897,1396.3369963369962,-1.0,68.11293954616318,2.5762461025155283,
2023-08-12 16:07:23.646000,-2.734939759036145,-0.9036144578313253,9.349397590361447,-0.7161250766400981,-2.688534641324341,10.082158185162477,2.0,2.5706959706959704,388.9997150185238,-0.13157741390361952,-0.01083852922323862,-0.27853854670473743,1397.8021978021977,-1.0,68.11293954616318,2.576203902392659,
2023-08-12 16:07:23.654000,-2.7228915662650603,-0.9036144578313253,9.325301204819278,-0.6744328632740649,-2.6640098099325566,10.07725321888412,2.0,2.5721611721611723,388.7781258900598,-0.03717732066895799,-0.1772623972961942,-0.30942252782471874,1395.6043956043954,-1.0,68.11293954616318,2.5761616676874133,
2023-08-12 16:07:23.661000,-2.7228915662650603,-0.9036144578313253,9.325301204819278,-0.7283874923359902,-2.649294911097486,10.033108522378908,2.0,2.5721611721611723,388.7781258900598,-0.1279645708292049,-0.2211992308140546,-0.06468154536448921,1391.9413919413919,-1.0,68.11293954616318,2.5761193899717183,
2023-08-12 16:07:23.669000,-2.710843373493976,-0.8915662650602411,9.325301204819278,-0.7063151440833844,-2.6615573267933783,10.074800735744942,2.0,2.5721611721611723,388.7781258900598,-0.06456500203950837,0.14649495950119434,-0.0033797564244507665,1389.0109890109889,-1.0,68.11293954616318,2.5760770615471738,
2023-08-12 16:07:23.677000,-2.7228915662650603,-0.8795180722891567,9.349397590361447,-0.6719803801348866,-2.637032495401594,10.126302881667687,2.0,2.5721611721611723,388.7781258900598,0.28716275275333647,-0.11421245848144017,-0.2501019754093584,1387.5457875457876,-1.0,68.11293954616318,2.57603467460164,
2023-08-12 16:07:23.684000,-2.734939759036145,-0.8795180722891567,9.325301204819278,-0.7381974248927038,-2.6591048436541995,10.094420600858369,2.0,2.5721611721611723,388.7781258900598,0.34578404521881,-0.19124759629392235,0.04125633704329595,1389.0109890109889,-1.0,68.11293954616318,2.575992221735519,
2023-08-12 16:07:23.692000,-2.7228915662650603,-0.8674698795180723,9.337349397590362,-0.6891477621091354,-2.717964438994482,10.104230533415082,2.0,2.5721611721611723,388.7781258900598,0.358137637666803,0.09871219625895941,0.22353009731367632,1392.6739926739926,-1.0,68.11293954616318,2.575949695994003,
2023-08-12 16:07:23.700000,-2.7228915662650603,-0.8915662650602411,9.337349397590362,-0.6646229307173512,-2.688534641324341,10.089515634580012,2.0,2.5721611721611723,388.7781258900598,0.15698385874949047,-0.4372705553289437,0.3128022842491695,1394.8717948717947,-1.0,68.11293954616318,2.5759070908978208,
2023-08-12 16:07:23.707000,-2.734939759036145,-0.8915662650602411,9.337349397590362,-0.7063151440833844,-2.666462293071735,10.101778050275904,2.0,2.5721611721611723,388.7781258900598,0.035662257444205384,-0.17364955422178133,0.3096556144746809,1398.5347985347985,-1.0,68.11293954616318,2.5758644004725118,
2023-08-12 16:07:23.715000,-2.698795180722892,-0.9036144578313253,9.325301204819278,-0.7014101778050276,-2.595340282035561,10.025751072961373,2.0,2.5721611721611723,388.7781258900598,0.20255229881708603,-0.0658469786142993,0.7350387506555562,1401.4652014652013,-1.0,68.11293954616318,2.575821619276106,
2023-08-12 16:07:23.723000,-2.698795180722892,-0.9036144578313253,9.313253012048193,-0.7112201103617413,-2.747394236664623,10.062538320049049,2.0,2.5721611721611723,388.7781258900598,-0.17912709049589104,-0.508944700192297,0.44169920167822396,1403.6630036630036,-1.0,68.11293954616318,2.575778742425171,
2023-08-12 16:07:23.730000,-2.698795180722892,-0.8915662650602411,9.313253012048193,-0.7283874923359902,-2.6591048436541995,10.062538320049049,2.0,2.5721611721611723,388.7781258900598,0.1881009265194328,-0.5834158848551956,0.34823145504341235,1403.6630036630036,-1.0,68.11293954616318,2.5757357656192026,
2023-08-12 16:07:23.738000,-2.710843373493976,-0.9036144578313253,9.325301204819278,-0.6793378295524218,-2.6738197424892705,10.079705702023299,2.0,2.5721611721611723,388.7781258900598,0.27888817667968147,-0.4119806538080536,0.5301555853388498,1404.3956043956043,-1.0,68.11293954616318,2.575692685163299,
2023-08-12 16:07:23.746000,-2.710843373493976,-0.8915662650602411,9.325301204819278,-0.6817903126916002,-2.678724708767627,9.99877375843041,2.0,2.5721611721611723,388.7781258900598,0.016316065497348348,-0.35172775479284485,0.16048015849892205,1405.8608058608058,-1.0,68.11293954616318,2.575649497989074,
2023-08-12 16:07:23.753000,-2.6867469879518073,-0.8795180722891567,9.289156626506024,-0.6719803801348866,-2.617412630288167,10.089515634580012,2.0,2.5706959706959704,388.9997150185238,-0.33401316939572295,-0.6258376551483016,0.2369325796864983,1410.2564102564102,-1.0,68.11293954616318,2.5756062016738124,
2023-08-12 16:07:23.761000,-2.6867469879518073,-0.855421686746988,9.325301204819278,-0.6204782342121398,-2.5928877988963825,10.123850398528509,2.0,2.5706959706959704,388.9997150185238,-0.11689295495600462,-0.22656022376318347,0.11432900180642144,1413.9194139194137,-1.0,68.11293954616318,2.5755627939651333,
2023-08-12 16:07:23.769000,-2.6867469879518073,-0.855421686746988,9.27710843373494,-0.5935009196811771,-2.6002452483139176,10.01348865726548,2.0,2.5721611721611723,388.7781258900598,-0.02249286172134483,-0.39659693491055364,-0.00780840277373123,1419.7802197802198,-1.0,68.11293954616318,2.5755192727243066,
2023-08-12 16:07:23.776000,-2.710843373493976,-0.8795180722891567,9.313253012048193,-0.6719803801348866,-2.6713672593500917,10.064990803188227,2.0,2.5706959706959704,388.9997150185238,-0.5705961191072775,-0.2407785094108733,0.08519317056115613,1424.9084249084249,-1.0,68.11293954616318,2.57547563688491,
2023-08-12 16:07:23.784000,-2.710843373493976,-0.8674698795180723,9.337349397590362,-0.6744328632740649,-2.637032495401594,10.033108522378908,2.0,2.5721611721611723,388.7781258900598,0.1499912592506264,-0.34659984849367764,0.39298409183614014,1427.106227106227,-1.0,68.11293954616318,2.5754318864958545,
2023-08-12 16:07:23.791000,-2.6867469879518073,-0.8674698795180723,9.349397590361447,-0.6695278969957081,-2.6296750459840585,10.074800735744942,2.0,2.5692307692307694,389.2215568862275,0.14929199930073964,-0.34578404521881,0.38983742206165145,1425.6410256410256,-1.0,68.11293954616318,2.5753880221676333,
2023-08-12 16:07:23.799000,-2.6867469879518073,-0.855421686746988,9.325301204819278,-0.6670754138565297,-2.6738197424892705,10.062538320049049,2.0,2.5706959706959704,388.9997150185238,-0.10966726880717886,-0.23786492628634717,0.2809859565293398,1423.4432234432234,-1.0,68.11293954616318,2.5753440446551905,
2023-08-12 16:07:23.807000,-2.710843373493976,-0.8433734939759037,9.337349397590362,-0.6474555487431024,-2.6100551808706314,10.087063151440834,2.0,2.5706959706959704,388.9997150185238,-0.1252840743546422,-0.14789347940096786,0.5229298991900239,1419.7802197802198,-1.0,68.11293954616318,2.575299955177693,
2023-08-12 16:07:23.814000,-2.6867469879518073,-0.8674698795180723,9.325301204819278,-0.7529123237277743,-2.688534641324341,10.094420600858369,2.0,2.5706959706959704,388.9997150185238,-0.28995979255288173,-0.10092651943359877,0.32037760037293866,1413.1868131868132,-1.0,68.11293954616318,2.5752557559091334,
2023-08-12 16:07:23.822000,-2.6867469879518073,-0.8674698795180723,9.325301204819278,-0.5861434702636419,-2.6640098099325566,10.035561005518087,2.0,2.5706959706959704,388.9997150185238,-0.04323757356797364,-0.1471942194510811,0.3171143872734689,1408.058608058608,-1.0,68.11293954616318,2.5752114495178318,
2023-08-12 16:07:23.830000,-2.698795180722892,-0.8674698795180723,9.349397590361447,-0.6793378295524218,-2.607602697731453,10.118945432250152,2.0,2.5706959706959704,388.9997150185238,-0.043936833517860395,-0.13262630382844878,0.08554280053609929,1402.197802197802,-1.0,68.11293954616318,2.57516703916092,
2023-08-12 16:07:23.837000,-2.6867469879518073,-0.8674698795180723,9.349397590361447,-0.6965052115266707,-2.6296750459840585,10.062538320049049,2.0,2.5706959706959704,388.9997150185238,0.11153196200687572,0.06631315191422439,0.34287046209428346,1396.3369963369962,-1.0,68.11293954616318,2.575122528476092,
2023-08-12 16:07:23.845000,-2.710843373493976,-0.8674698795180723,9.325301204819278,-0.6768853464132434,-2.62722256284488,10.096873083997547,2.0,2.5706959706959704,388.9997150185238,0.12575024765456555,-0.4372705553289437,0.4041722510343219,1393.4065934065934,-1.0,68.11293954616318,2.5750779215707067,
2023-08-12 16:07:23.853000,-2.698795180722892,-0.8795180722891567,9.337349397590362,-0.6621704475781729,-2.5879828326180254,10.104230533415082,2.0,2.5706959706959704,388.9997150185238,0.23098887011246394,-0.37247246663947364,-0.02738768137054951,1390.4761904761904,-1.0,68.11293954616318,2.5750332230083557,
2023-08-12 16:07:23.860000,-2.674698795180723,-0.8674698795180723,9.349397590361447,-0.6695278969957081,-2.5511955855303494,10.101778050275904,2.0,2.5706959706959704,388.9997150185238,-0.12085542800536173,-0.6454169337451203,0.10978381213216014,1391.2087912087911,-1.0,68.11293954616318,2.5749884377930616,
2023-08-12 16:07:23.868000,-2.662650602409639,-0.8795180722891567,9.313253012048193,-0.645003065603924,-2.602697731453096,10.067443286327405,2.0,2.5706959706959704,388.9997150185238,0.09440009323465978,-0.47235009614824314,0.3680438202901927,1393.4065934065934,-1.0,68.11293954616318,2.5749435713512563,
2023-08-12 16:07:23.876000,-2.662650602409639,-0.8674698795180723,9.349397590361447,-0.6302881667688535,-2.602697731453096,10.118945432250152,2.0,2.5706959706959704,388.9997150185238,0.15616805547462287,-0.5281743488141715,0.5313210185886605,1395.6043956043954,-1.0,68.11293954616318,2.5748986295116945,
2023-08-12 16:07:23.883000,-2.6867469879518073,-0.9036144578313253,9.337349397590362,-0.7749846719803801,-2.6051502145922747,10.084610668301655,2.0,2.5706959706959704,388.9997150185238,0.07948254763708494,-0.3238739001223711,0.16152904842375132,1397.8021978021977,-1.0,68.11293954616318,2.574853618483503,
2023-08-12 16:07:23.891000,-2.6867469879518073,-0.9036144578313253,9.313253012048193,-0.7185775597792765,-2.6615573267933783,10.057633353770692,2.0,2.5706959706959704,388.9997150185238,-0.07365538138803097,-0.07528698793776616,0.1591981819241305,1394.8717948717947,-1.0,68.11293954616318,2.574808544832529,
2023-08-12 16:07:23.899000,-2.6867469879518073,-0.9036144578313253,9.325301204819278,-0.6499080318822807,-2.595340282035561,10.094420600858369,2.0,2.5706959706959704,388.9997150185238,0.43260882232970155,-0.10430627585804997,-0.011071615873200727,1390.4761904761904,-1.0,68.11293954616318,2.5747634154562014,
2023-08-12 16:07:23.906000,-2.6867469879518073,-0.9156626506024097,9.313253012048193,-0.6940527283874923,-2.5806253832004904,10.038013488657265,2.0,2.5706959706959704,388.9997150185238,0.38366062583765476,-0.08775712371073996,0.33972379231979505,1389.0109890109889,-1.0,68.11293954616318,2.5747182375571094,
2023-08-12 16:07:23.914000,-2.710843373493976,-0.8915662650602411,9.313253012048193,-0.7210300429184548,-2.654199877375843,10.116492949110974,2.0,2.5706959706959704,388.9997150185238,0.18227376027038059,-0.1279645708292049,-0.16700658469786148,1386.8131868131868,-1.0,68.11293954616318,2.5746730186155022,
2023-08-12 16:07:23.922000,-2.734939759036145,-0.8674698795180723,9.301204819277109,-0.6621704475781729,-2.676272225628449,10.074800735744942,2.0,2.5706959706959704,388.9997150185238,0.2569780315832408,-0.1562845987996037,0.06351611211467846,1383.150183150183,-1.0,68.11293954616318,2.5746277663609236,
2023-08-12 16:07:23.929000,-2.710843373493976,-0.8795180722891567,9.325301204819278,-0.7136725935009196,-2.6345800122624157,10.067443286327405,2.0,2.5706959706959704,388.9997150185238,0.13309247712837213,0.05862129246547356,-0.19707476254297543,1380.2197802197802,-1.0,68.11293954616318,2.574582488743202,
2023-08-12 16:07:23.937000,-2.710843373493976,-0.8915662650602411,9.325301204819278,-0.7063151440833844,-2.6983445738810543,10.141017780502759,2.0,2.5706959706959704,388.9997150185238,0.056756599265776704,-0.21420663131519224,0.07808402773731143,1380.2197802197802,-1.0,68.11293954616318,2.574537193903023,
2023-08-12 16:07:23.945000,-2.7228915662650603,-0.8795180722891567,9.337349397590362,-0.6916002452483139,-2.6615573267933783,10.006131207847945,2.0,2.5692307692307694,389.2215568862275,0.08565934386107969,-0.2901928792028434,0.09206922673503871,1380.2197802197802,-1.0,68.11293954616318,2.5744918901422857,
2023-08-12 16:07:23.952000,-2.7228915662650603,-0.8795180722891567,9.349397590361447,-0.6842427958307786,-2.666462293071735,10.062538320049049,2.0,2.5692307692307694,389.2215568862275,0.035662257444205384,-0.05733931589068263,-0.10652059903269064,1382.4175824175823,-1.0,68.11293954616318,2.574446585859677,
2023-08-12 16:07:23.960000,-2.6867469879518073,-0.8674698795180723,9.313253012048193,-0.6646229307173512,-2.649294911097486,10.09196811771919,2.0,2.5692307692307694,389.2215568862275,0.21828564768952846,-0.055008449391060685,0.01619952217236751,1386.080586080586,-1.0,68.11293954616318,2.574401289381823,
2023-08-12 16:07:23.968000,-2.710843373493976,-0.8795180722891567,9.337349397590362,-0.6744328632740649,-2.644389944819129,10.094420600858369,2.0,2.5706959706959704,388.9997150185238,-0.027970397995454557,0.1610628751238267,5.827166249054841E-4,1390.4761904761904,-1.0,68.11293954616318,2.574356008898241,
2023-08-12 16:07:23.975000,-2.734939759036145,-0.855421686746988,9.289156626506024,-0.6670754138565297,-2.6713672593500917,10.038013488657265,2.0,2.5692307692307694,389.2215568862275,0.10978381213215971,0.035545714119224546,-0.12167123128022846,1394.139194139194,-1.0,68.11293954616318,2.574310752923147,
2023-08-12 16:07:23.983000,-2.710843373493976,-0.8674698795180723,9.325301204819278,-0.6376456161863887,-2.666462293071735,10.062538320049049,2.0,2.5692307692307694,389.2215568862275,-0.061068702290076333,-0.055707709340947445,0.13938581667734987,1397.8021978021977,-1.0,68.11293954616318,2.574265529843703,
2023-08-12 16:07:23.991000,-2.6867469879518073,-0.8795180722891567,9.325301204819278,-0.6744328632740649,-2.654199877375843,10.023298589822195,2.0,2.5692307692307694,389.2215568862275,-0.15395373229998177,-0.22656022376318347,0.35254355806771154,1400.7326007326005,-1.0,68.11293954616318,2.574220347364088,
2023-08-12 16:07:23.998000,-2.6867469879518073,-0.8795180722891567,9.301204819277109,-0.6866952789699571,-2.6517473942366645,10.072348252605762,2.0,2.5692307692307694,389.2215568862275,-0.07843365771225394,0.04859856651710253,0.015383718897500353,1402.197802197802,-1.0,68.11293954616318,2.57417521247476,
2023-08-12 16:07:24.006000,-2.7228915662650603,-0.8674698795180723,9.349397590361447,-0.6793378295524218,-2.666462293071735,10.089515634580012,2.0,2.5706959706959704,388.9997150185238,-0.24637258900996387,0.06538080531437596,0.07633587786259542,1405.128205128205,-1.0,68.11293954616318,2.5741301314892424,
2023-08-12 16:07:24.014000,-2.6867469879518073,-0.8795180722891567,9.349397590361447,-0.703862660944206,-2.6909871244635193,10.104230533415082,2.0,2.5706959706959704,388.9997150185238,-0.39729619486043866,0.17388264087174474,-0.16782238797272864,1405.128205128205,-1.0,68.11293954616318,2.574085110995241,
2023-08-12 16:07:24.021000,-2.6867469879518073,-0.8674698795180723,9.361445783132531,-0.7136725935009196,-2.6713672593500917,10.011036174126302,2.0,2.5692307692307694,389.2215568862275,-0.05955363906532199,0.2805197832294149,-0.02773731134549245,1405.8608058608058,-1.0,68.11293954616318,2.5740401583518824,
2023-08-12 16:07:24.029000,-2.698795180722892,-0.8795180722891567,9.337349397590362,-0.6646229307173512,-2.6345800122624157,10.079705702023299,2.0,2.5706959706959704,388.9997150185238,-0.12003962473049413,0.2018530388671993,-0.04393683351786018,1403.6630036630036,-1.0,68.11293954616318,2.573995280188441,
2023-08-12 16:07:24.037000,-2.698795180722892,-0.8795180722891567,9.349397590361447,-0.6891477621091354,-2.644389944819129,10.052728387492335,2.0,2.5692307692307694,389.2215568862275,-0.27177903385583657,-0.07505390128780448,0.015966435522405405,1400.0,-1.0,68.11293954616318,2.5739504828384345,
2023-08-12 16:07:24.044000,-2.698795180722892,-0.8674698795180723,9.361445783132531,-0.6425505824647455,-2.578172900061312,10.0453709380748,2.0,2.5706959706959704,388.9997150185238,0.05023017306683771,-0.30138103840102626,0.07318920808810676,1394.8717948717947,-1.0,68.11293954616318,2.5739057727757446,
2023-08-12 16:07:24.052000,-2.6867469879518073,-0.8795180722891567,9.325301204819278,-0.6744328632740649,-2.585530349478847,10.099325567136725,2.0,2.5692307692307694,389.2215568862275,-0.3037119049006465,-0.08158032748674347,-0.12773148417924365,1386.080586080586,-1.0,68.11293954616318,2.5738611560699205,
2023-08-12 16:07:24.060000,-2.698795180722892,-0.855421686746988,9.325301204819278,-0.6057633353770693,-2.6713672593500917,10.050275904353157,2.0,2.5692307692307694,389.2215568862275,-0.18029252374570287,0.14882582600081629,0.25359827515879,1381.6849816849815,-1.0,68.11293954616318,2.5738166384057206,
2023-08-12 16:07:24.067000,-2.698795180722892,-0.8795180722891567,9.349397590361447,-0.7381974248927038,-2.6419374616799507,10.01348865726548,2.0,2.5692307692307694,389.2215568862275,-0.17842783054600603,0.14766039275100445,0.2504516053843014,1380.2197802197802,-1.0,68.11293954616318,2.5737722245426338,
2023-08-12 16:07:24.075000,-2.710843373493976,-0.855421686746988,9.337349397590362,-0.7161250766400981,-2.6345800122624157,10.084610668301655,2.0,2.5692307692307694,389.2215568862275,0.09871219625895941,0.3153662373987527,0.04906473981702718,1381.6849816849815,-1.0,68.11293954616318,2.573727918759364,
2023-08-12 16:07:24.083000,-2.698795180722892,-0.8433734939759037,9.313253012048193,-0.6842427958307786,-2.624770079705702,10.074800735744942,2.0,2.5692307692307694,389.2215568862275,0.17364955422178133,0.10162577938348553,-0.13414136705320182,1385.3479853479853,-1.0,68.11293954616318,2.573683724842581,
2023-08-12 16:07:24.090000,-2.698795180722892,-0.8433734939759037,9.313253012048193,-0.5959534028203556,-2.6296750459840585,10.10668301655426,2.0,2.5706959706959704,388.9997150185238,-0.16490880484820297,-0.1877512965444903,-0.011421245848143887,1389.7435897435896,-1.0,68.11293954616318,2.573639646077876,
2023-08-12 16:07:24.098000,-2.710843373493976,-0.855421686746988,9.325301204819278,-0.6499080318822807,-2.6296750459840585,10.079705702023299,2.0,2.567765567765568,389.44365192582023,-0.39403298176097007,-0.13996853330225537,-0.02797039799545499,1391.9413919413919,-1.0,68.11293954616318,2.5735956857357247,
2023-08-12 16:07:24.106000,-2.674698795180723,-0.8674698795180723,9.337349397590362,-0.6965052115266707,-2.6100551808706314,10.067443286327405,2.0,2.567765567765568,389.44365192582023,-0.1610628751238267,-0.1689878212225392,-0.11899073480566401,1393.4065934065934,-1.0,68.11293954616318,2.573551846154059,
2023-08-12 16:07:24.113000,-2.674698795180723,-0.855421686746988,9.325301204819278,-0.6646229307173512,-2.6615573267933783,10.143470263641937,2.0,2.5692307692307694,389.2215568862275,-0.45137229765165265,-0.013985198997728147,-0.16654041139793727,1393.4065934065934,-1.0,68.11293954616318,2.5735081281397965,
2023-08-12 16:07:24.121000,-2.63855421686747,-0.8313253012048193,9.325301204819278,-0.6253832004904966,-2.5830778663396687,10.035561005518087,2.0,2.5692307692307694,389.2215568862275,-0.06852747508886375,0.12493444437969795,0.01654915214731067,1397.8021978021977,788.970947265625,76.04842764862879,2.5734645323730816,
2023-08-12 16:07:24.129000,-2.662650602409639,-0.8433734939759037,9.313253012048193,-0.7014101778050276,-2.5683629675045982,10.084610668301655,2.0,2.5692307692307694,389.2215568862275,-0.14567915622632677,-0.30103140842608206,-0.4140784336577123,1402.197802197802,-1.0,76.04842764862879,2.573421059477278,
2023-08-12 16:07:24.136000,-2.63855421686747,-0.855421686746988,9.337349397590362,-0.6866952789699571,-2.6051502145922747,10.040465971796444,2.0,2.5692307692307694,389.2215568862275,-0.31152030767437816,-0.021793601771458074,-0.45789872385059144,1405.128205128205,-1.0,76.04842764862879,2.573377709566506,
2023-08-12 16:07:24.144000,-2.6867469879518073,-0.8674698795180723,9.313253012048193,-0.6670754138565297,-2.5977927651747392,10.047823421213979,2.0,2.5692307692307694,389.2215568862275,-0.4472932812773147,0.22492861721344828,-0.044636093467746496,1408.7912087912086,-1.0,76.04842764862879,2.5733344822537383,
2023-08-12 16:07:24.152000,-2.6506024096385543,-0.8674698795180723,9.337349397590362,-0.7063151440833844,-2.6738197424892705,10.09196811771919,2.0,2.5692307692307694,389.2215568862275,-0.3962473049356094,-0.0045451896742613,-0.3983450847852688,1410.989010989011,-1.0,76.04842764862879,2.573291376661614,
2023-08-12 16:07:24.159000,-2.662650602409639,-0.8674698795180723,9.325301204819278,-0.7087676272225628,-2.6296750459840585,10.074800735744942,2.0,2.5692307692307694,389.2215568862275,-0.28623040615348805,0.024940271545947603,-0.3065089447001924,1413.9194139194137,-1.0,76.04842764862879,2.5732483914359485,
2023-08-12 16:07:24.167000,-2.662650602409639,-0.8915662650602411,9.325301204819278,-0.7087676272225628,-2.5806253832004904,10.042918454935622,2.0,2.5692307692307694,389.2215568862275,-0.19404463609346762,0.4097663306334125,-0.3660625837655148,1415.3846153846152,-1.0,76.04842764862879,2.57320552521981,
2023-08-12 16:07:24.174000,-2.662650602409639,-0.8915662650602411,9.337349397590362,-0.6253832004904966,-2.5977927651747392,10.087063151440834,2.0,2.5692307692307694,389.2215568862275,-0.3612843074412908,0.6962298234368622,-0.9130004079016374,1415.3846153846152,-1.0,76.04842764862879,2.5731627761472455,
2023-08-12 16:07:24.182000,-2.6506024096385543,-0.8674698795180723,9.325301204819278,-0.6891477621091354,-2.585530349478847,10.020846106683017,2.0,2.5692307692307694,389.2215568862275,0.05465881941611818,0.17166831769710364,-0.6925004370374687,1413.9194139194137,-1.0,76.04842764862879,2.5731201414436007,
2023-08-12 16:07:24.190000,-2.662650602409639,-0.855421686746988,9.313253012048193,-0.640098099325567,-2.624770079705702,10.089515634580012,2.0,2.5692307692307694,389.2215568862275,0.1177087582308722,0.354058621292465,-1.3158906823611678,1410.989010989011,-1.0,76.04842764862879,2.5730776179415313,
2023-08-12 16:07:24.197000,-2.674698795180723,-0.855421686746988,9.289156626506024,-0.6253832004904966,-2.602697731453096,10.109135499693439,2.0,2.5692307692307694,389.2215568862275,-0.02191014509643891,0.655672746343453,-1.2911834974651824,1406.5934065934066,-1.0,76.04842764862879,2.5730352021067824,
2023-08-12 16:07:24.205000,-2.662650602409639,-0.855421686746988,9.313253012048193,-0.627835683629675,-2.5536480686695278,10.052728387492335,2.0,2.567765567765568,389.44365192582023,0.1922964862187516,0.5740924188567095,-1.0071674144863354,1402.9304029304028,-1.0,76.04842764862879,2.5729928900663315,
2023-08-12 16:07:24.213000,-2.6867469879518073,-0.855421686746988,9.349397590361447,-0.5861434702636419,-2.624770079705702,10.089515634580012,2.0,2.5692307692307694,389.2215568862275,0.02447409824602252,0.7827049705728112,-0.938873026047433,1398.5347985347985,-1.0,76.04842764862879,2.572950677604013,
2023-08-12 16:07:24.220000,-2.6867469879518073,-0.8795180722891567,9.349397590361447,-0.7651747394236664,-2.595340282035561,10.069895769466584,2.0,2.5692307692307694,389.2215568862275,-0.08123069751179923,0.5322533651885094,-1.1150865334187985,1395.6043956043954,-1.0,76.04842764862879,2.572908560546281,
2023-08-12 16:07:24.228000,-2.63855421686747,-0.8915662650602411,9.349397590361447,-0.7259350091968118,-2.573267933782955,10.033108522378908,2.0,2.567765567765568,389.44365192582023,0.1798263504457778,0.4378532719538496,-1.18221548860789,1393.4065934065934,-1.0,76.04842764862879,2.5728665348328796,
2023-08-12 16:07:24.236000,-2.6867469879518073,-0.9036144578313253,9.325301204819278,-0.6621704475781729,-2.6051502145922747,10.09196811771919,2.0,2.567765567765568,389.44365192582023,-0.2790047200046623,0.4682710797739052,-1.418681894994464,1392.6739926739926,-1.0,76.04842764862879,2.5728245956057565,
2023-08-12 16:07:24.243000,-2.6867469879518073,-0.8915662650602411,9.325301204819278,-0.6817903126916002,-2.5462906192519923,10.094420600858369,2.0,2.5692307692307694,389.2215568862275,0.013752112347764738,0.9412038925470543,-1.393741623448517,1391.9413919413919,-1.0,76.04842764862879,2.572782737177388,
2023-08-12 16:07:24.251000,-2.6506024096385543,-0.8795180722891567,9.325301204819278,-0.6940527283874923,-2.6051502145922747,10.067443286327405,2.0,2.567765567765568,389.44365192582023,-0.06036944234018958,1.1824485752578526,-1.7025814346483303,1389.7435897435896,-1.0,76.04842764862879,2.5727409540172186,
2023-08-12 16:07:24.259000,-2.6867469879518073,-0.8915662650602411,9.349397590361447,-0.7676272225628449,-2.614960147148988,10.023298589822195,2.0,2.567765567765568,389.44365192582023,-0.2870462094283556,0.9021618786783995,-1.5059728454052794,1386.8131868131868,-1.0,76.04842764862879,2.5726992408250884,
2023-08-12 16:07:24.266000,-2.698795180722892,-0.8915662650602411,9.361445783132531,-0.6793378295524218,-2.624770079705702,10.099325567136725,2.0,2.567765567765568,389.44365192582023,-0.5598741332090197,0.9893362857642335,-1.433482897267059,1382.4175824175823,-1.0,76.04842764862879,2.572657591517695,
2023-08-12 16:07:24.274000,-2.698795180722892,-0.9156626506024097,9.337349397590362,-0.6989576946658491,-2.6689147762109133,10.09196811771919,2.0,2.5692307692307694,389.2215568862275,-0.0397412738185416,1.3014393100635158,-1.176504865683818,1378.021978021978,-1.0,76.04842764862879,2.572615999301908,
2023-08-12 16:07:24.282000,-2.746987951807229,-0.9036144578313253,9.337349397590362,-0.7063151440833844,-2.656652360515021,10.0453709380748,2.0,2.567765567765568,389.44365192582023,-0.25674494493327915,1.3961890332731197,-1.1953848843307497,1376.5567765567764,-1.0,76.04842764862879,2.572574457695799,
2023-08-12 16:07:24.289000,-2.783132530120482,-0.8795180722891567,9.361445783132531,-0.7161250766400981,-2.7277743715511953,10.064990803188227,2.0,2.5692307692307694,389.2215568862275,0.049647456441931796,1.4770701008099765,-1.324048715109842,1377.2893772893772,-1.0,76.04842764862879,2.5725329601434574,
2023-08-12 16:07:24.297000,-2.7951807228915664,-0.8433734939759037,9.349397590361447,-0.6131207847946045,-2.730226854690374,10.055180870631514,2.0,2.567765567765568,389.44365192582023,-0.3777169162636217,1.175922149058912,-1.0994697278713366,1381.6849816849815,-1.0,76.04842764862879,2.5724915000179878,
2023-08-12 16:07:24.305000,-2.819277108433735,-0.8433734939759037,9.313253012048193,-0.6768853464132434,-2.796443899448191,10.050275904353157,2.0,2.567765567765568,389.44365192582023,-0.5705961191072775,1.1361808752403704,-0.6613833692675248,1390.4761904761904,-1.0,76.04842764862879,2.572450070693761,
2023-08-12 16:07:24.312000,-2.819277108433735,-0.8433734939759037,9.325301204819278,-0.6695278969957081,-2.737584304107909,10.074800735744942,2.0,2.567765567765568,389.44365192582023,-0.35172775479284485,0.8072956121438145,-0.7928442398461626,1402.197802197802,-1.0,76.04842764862879,2.572408665056046,
2023-08-12 16:07:24.320000,-2.783132530120482,-0.8313253012048193,9.325301204819278,-0.6842427958307786,-2.784181483752299,10.09196811771919,2.0,2.567765567765568,389.44365192582023,-0.5944875007283958,0.2825010197540943,-0.47841034904725793,1417.5824175824175,-1.0,76.04842764862879,2.5723672759928347,
2023-08-12 16:07:24.328000,-2.783132530120482,-0.8674698795180723,9.337349397590362,-0.6621704475781729,-2.715511955855303,10.064990803188227,2.0,2.567765567765568,389.44365192582023,-0.46570712662432334,-0.03915855719363742,-0.4563836606258382,1434.4322344322343,-1.0,76.04842764862879,2.5723258964278726,
2023-08-12 16:07:24.335000,-2.734939759036145,-0.855421686746988,9.301204819277109,-0.6793378295524218,-2.7032495401594114,10.0453709380748,2.0,2.567765567765568,389.44365192582023,-0.4760794825476369,0.14486335295145916,-0.402657187809568,1449.8168498168498,-1.0,76.04842764862879,2.5722845193526758,
2023-08-12 16:07:24.343000,-2.746987951807229,-0.855421686746988,9.313253012048193,-0.7112201103617413,-2.6909871244635193,10.084610668301655,2.0,2.567765567765568,389.44365192582023,-0.4704854029485463,0.1412505098770463,-0.3953149583357614,1465.201465201465,-1.0,76.04842764862879,2.5722431378574786,
2023-08-12 16:07:24.351000,-2.710843373493976,-0.8795180722891567,9.313253012048193,-0.640098099325567,-2.637032495401594,10.079705702023299,2.0,2.567765567765568,389.44365192582023,-0.7557834625021859,0.12306975118000109,-0.7255987413320902,1480.5860805860805,-1.0,76.04842764862879,2.5722017451610233,
2023-08-12 16:07:24.358000,-2.7228915662650603,-0.8915662650602411,9.337349397590362,-0.6621704475781729,-2.656652360515021,10.011036174126302,2.0,2.567765567765568,389.44365192582023,-0.3674611036652873,-0.24602295903502136,-0.25895926810791936,1495.2380952380952,-1.0,76.04842764862879,2.572160334639131,
2023-08-12 16:07:24.366000,-2.698795180722892,-0.8915662650602411,9.325301204819278,-0.7308399754751685,-2.6615573267933783,10.055180870631514,2.0,2.567765567765568,389.44365192582023,-0.31490006409882937,-0.13705495017772923,-0.23879727288619473,1506.227106227106,-1.0,76.04842764862879,2.572118899852021,
2023-08-12 16:07:24.374000,-2.674698795180723,-0.9156626506024097,9.289156626506024,-0.7283874923359902,-2.5708154506437766,10.079705702023299,2.0,2.567765567765568,389.44365192582023,-0.2510343220092077,0.10803566225744368,0.007808402773730796,1510.6227106227104,-1.0,76.04842764862879,2.572077434570321,
2023-08-12 16:07:24.381000,-2.674698795180723,-0.9156626506024097,9.301204819277109,-0.6989576946658491,-2.607602697731453,10.094420600858369,2.0,2.567765567765568,389.44365192582023,-0.23040615348755977,0.04533535341763217,0.11782530155585347,1508.4249084249084,-1.0,76.04842764862879,2.5720359327997255,
2023-08-12 16:07:24.389000,-2.6867469879518073,-0.9156626506024097,9.313253012048193,-0.7234825260576333,-2.6223175965665235,10.116492949110974,2.0,2.567765567765568,389.44365192582023,0.13822038342753934,-0.01876347532195112,0.10512207913291713,1506.227106227106,-1.0,76.04842764862879,2.5719943888042995,
2023-08-12 16:07:24.397000,-2.674698795180723,-0.9036144578313253,9.301204819277109,-0.6744328632740649,-2.62722256284488,10.025751072961373,2.0,2.567765567765568,389.44365192582023,0.09323465998484969,0.1313443272536561,-0.03193287104481037,1501.8315018315018,-1.0,76.04842764862879,2.571952797128383,
2023-08-12 16:07:24.404000,-2.6867469879518073,-0.9036144578313253,9.349397590361447,-0.7357449417535254,-2.617412630288167,10.074800735744942,2.0,2.5663003663003665,389.66600057093916,-0.1341413670532014,0.2971854787017075,-0.13763766680263428,1495.2380952380952,-1.0,76.04842764862879,2.57191115261711,
2023-08-12 16:07:24.412000,-2.6867469879518073,-0.9036144578313253,9.361445783132531,-0.7259350091968118,-2.5928877988963825,10.047823421213979,2.0,2.5663003663003665,389.66600057093916,0.07004253831361809,0.24777110890973736,-0.2293572635627292,1487.9120879120878,-1.0,76.04842764862879,2.571869450400726,
2023-08-12 16:07:24.420000,-2.6867469879518073,-0.8915662650602411,9.325301204819278,-0.645003065603924,-2.62722256284488,10.050275904353157,2.0,2.567765567765568,389.44365192582023,-0.036011887419147896,0.35219392809276817,-0.10500553580793673,1481.3186813186812,-1.0,76.04842764862879,2.5718276857728557,
2023-08-12 16:07:24.427000,-2.674698795180723,-0.855421686746988,9.349397590361447,-0.6302881667688535,-2.5757204169221337,9.991416309012875,2.0,2.567765567765568,389.44365192582023,-0.005244449624148055,-0.03193287104481168,-0.5447235009614828,1476.1904761904761,-1.0,76.04842764862879,2.5717858542055714,
2023-08-12 16:07:24.435000,-2.674698795180723,-0.8795180722891567,9.337349397590362,-0.5640711220110362,-2.556100551808706,10.015941140404658,2.0,2.567765567765568,389.44365192582023,-0.2628051978322948,-0.06258376551483068,-0.3882058155119161,1471.062271062271,-1.0,76.04842764862879,2.5717439515012606,
2023-08-12 16:07:24.443000,-2.6867469879518073,-0.8674698795180723,9.325301204819278,-0.6768853464132434,-2.644389944819129,10.042918454935622,2.0,2.567765567765568,389.44365192582023,-0.17026979779733184,0.07586970456267034,-0.248353825534642,1466.6666666666665,-1.0,76.04842764862879,2.5717019738385614,
2023-08-12 16:07:24.450000,-2.674698795180723,-0.8674698795180723,9.325301204819278,-0.6940527283874923,-2.624770079705702,10.064990803188227,2.0,2.567765567765568,389.44365192582023,-0.21409008799020968,0.10430627585804997,-0.49006468154536503,1463.003663003663,-1.0,76.04842764862879,2.5716599177822674,
2023-08-12 16:07:24.458000,-2.6506024096385543,-0.8795180722891567,9.337349397590362,-0.627835683629675,-2.602697731453096,10.042918454935622,2.0,2.567765567765568,389.44365192582023,-0.1658411514480514,0.025989161470776866,-0.7316589942311059,1457.8754578754579,-1.0,76.04842764862879,2.571617780749908,
2023-08-12 16:07:24.466000,-2.6867469879518073,-0.8795180722891567,9.349397590361447,-0.657265481299816,-2.637032495401594,10.123850398528509,2.0,2.567765567765568,389.44365192582023,-0.46978614299865956,0.2704970572810439,-0.800303012644951,1452.014652014652,-1.0,76.04842764862879,2.571575560494274,
2023-08-12 16:07:24.473000,-2.698795180722892,-0.8795180722891567,9.313253012048193,-0.6719803801348866,-2.6002452483139176,10.087063151440834,2.0,2.567765567765568,389.44365192582023,-0.3279529164967073,0.6809626478643431,-0.7451780199289081,1445.4212454212454,-1.0,76.04842764862879,2.571533254688853,
2023-08-12 16:07:24.481000,-2.6867469879518073,-0.8674698795180723,9.349397590361447,-0.6327406499080318,-2.624770079705702,10.07725321888412,2.0,2.567765567765568,389.44365192582023,-0.5993823203775996,0.5542800536099292,-1.1338500087407488,1440.2930402930401,-1.0,76.04842764862879,2.5714908614254863,
2023-08-12 16:07:24.489000,-2.698795180722892,-0.8795180722891567,9.313253012048193,-0.7161250766400981,-2.6983445738810543,9.991416309012875,2.0,2.567765567765568,389.44365192582023,-0.37958160946331854,0.42631548278072423,-1.0631082104772445,1432.9670329670328,-1.0,76.04842764862879,2.5714483792184617,
2023-08-12 16:07:24.496000,-2.7228915662650603,-0.8674698795180723,9.313253012048193,-0.7014101778050276,-2.686082158185162,10.03065603923973,2.0,2.5663003663003665,389.66600057093916,-0.7703513781248182,0.6806130178894007,-0.9147485577763528,1425.6410256410256,-1.0,76.04842764862879,2.5714058070077823,
2023-08-12 16:07:24.504000,-2.734939759036145,-0.8795180722891567,9.337349397590362,-0.7185775597792765,-2.6419374616799507,10.062538320049049,2.0,2.5663003663003665,389.66600057093916,-0.4293456092302312,0.27865509002971806,-0.8120738884680384,1419.7802197802198,-1.0,76.04842764862879,2.571363143669079,
2023-08-12 16:07:24.512000,-2.698795180722892,-0.8674698795180723,9.313253012048193,-0.6768853464132434,-2.637032495401594,10.079705702023299,2.0,2.5663003663003665,389.66600057093916,-0.4243342462560448,0.6891206806130172,-0.8046151156692501,1414.6520146520145,-1.0,76.04842764862879,2.5713203879433415,
2023-08-12 16:07:24.519000,-2.710843373493976,-0.8915662650602411,9.337349397590362,-0.6965052115266707,-2.590435315757204,10.015941140404658,2.0,2.567765567765568,389.44365192582023,-0.26758347415651773,0.37585222306392485,-1.0856010721985896,1412.4542124542124,-1.0,76.04842764862879,2.5712775388905857,
2023-08-12 16:07:24.527000,-2.7228915662650603,-0.8795180722891567,9.349397590361447,-0.7112201103617413,-2.6419374616799507,10.067443286327405,2.0,2.5663003663003665,389.66600057093916,-0.4020744711846634,0.8740749373579623,-0.8147543849426029,1413.9194139194137,-1.0,76.04842764862879,2.5712345968351102,
2023-08-12 16:07:24.535000,-2.710843373493976,-0.8915662650602411,9.301204819277109,-0.6768853464132434,-2.7032495401594114,10.0453709380748,2.0,2.5663003663003665,389.66600057093916,-0.18390536682011577,0.7588135889516928,-0.8196492045918067,1414.6520146520145,-1.0,76.04842764862879,2.5711915624136217,
2023-08-12 16:07:24.542000,-2.7228915662650603,-0.8915662650602411,9.313253012048193,-0.7602697731453096,-2.624770079705702,10.015941140404658,2.0,2.5663003663003665,389.66600057093916,-0.19707476254297457,0.47864343569722045,-0.9166132509760501,1414.6520146520145,-1.0,76.04842764862879,2.571148435622448,
2023-08-12 16:07:24.550000,-2.734939759036145,-0.8915662650602411,9.301204819277109,-0.6940527283874923,-2.6983445738810543,10.052728387492335,2.0,2.567765567765568,389.44365192582023,-0.4378532719538496,0.43016141250509876,-0.8626536915098195,1412.4542124542124,-1.0,76.04842764862879,2.5711052172180033,
2023-08-12 16:07:24.557000,-2.710843373493976,-0.9036144578313253,9.313253012048193,-0.6499080318822807,-2.6909871244635193,10.067443286327405,2.0,2.564835164835165,389.8886032562125,-0.5401783112872202,0.23227084668725662,-0.7470427131286054,1412.4542124542124,-1.0,76.04842764862879,2.571061908675673,
2023-08-12 16:07:24.565000,-2.7228915662650603,-0.9397590361445783,9.325301204819278,-0.6916002452483139,-2.7007970570202326,10.10668301655426,2.0,2.564835164835165,389.8886032562125,-0.5356331216129588,0.9963288852630958,-0.6790979546646463,1413.1868131868132,-1.0,76.04842764862879,2.5710185113041946,
2023-08-12 16:07:24.573000,-2.734939759036145,-0.9277108433734941,9.337349397590362,-0.7014101778050276,-2.666462293071735,10.094420600858369,2.0,2.5663003663003665,389.66600057093916,-0.3949653283608185,0.6369092710215019,-0.6124351727754798,1414.6520146520145,-1.0,76.04842764862879,2.5709750260640516,
2023-08-12 16:07:24.580000,-2.746987951807229,-0.9277108433734941,9.349397590361447,-0.7921520539546291,-2.7326793378295524,10.06008583690987,2.0,2.5663003663003665,389.66600057093916,0.01992890857176122,0.26548569430685925,-0.45475205407610303,1415.3846153846152,-1.0,76.04842764862879,2.5709314544718915,
2023-08-12 16:07:24.588000,-2.7590361445783134,-0.9518072289156627,9.325301204819278,-0.7112201103617413,-2.737584304107909,10.07725321888412,2.0,2.5663003663003665,389.66600057093916,-0.1632771982984678,0.3696754268399284,-0.46570712662432334,1417.5824175824175,-1.0,76.04842764862879,2.5708877986598337,
2023-08-12 16:07:24.596000,-2.771084337349398,-0.9277108433734941,9.313253012048193,-0.7259350091968118,-2.676272225628449,10.0453709380748,2.0,2.5663003663003665,389.66600057093916,-0.3450847852689233,0.12132160130528508,-0.3718897500145686,1420.5128205128203,-1.0,76.04842764862879,2.5708440609089407,
2023-08-12 16:07:24.603000,-2.734939759036145,-0.9277108433734941,9.289156626506024,-0.7234825260576333,-2.6934396076026976,10.072348252605762,2.0,2.5663003663003665,389.66600057093916,-0.44962414777693666,-0.47806071907231457,-0.35429170794242804,1421.9780219780218,-1.0,76.04842764862879,2.5708002436399284,
2023-08-12 16:07:24.611000,-2.7228915662650603,-0.9156626506024097,9.325301204819278,-0.7063151440833844,-2.602697731453096,10.01348865726548,2.0,2.5663003663003665,389.66600057093916,-0.2934560923023138,-0.3377425557951167,-0.0893887302604747,1426.3736263736262,-1.0,76.04842764862879,2.570756349403381,
2023-08-12 16:07:24.619000,-2.710843373493976,-0.9156626506024097,9.325301204819278,-0.6866952789699571,-2.6345800122624157,9.99877375843041,2.0,2.5663003663003665,389.66600057093916,-0.29310646232736953,-0.3361109492453815,-0.0896218169104368,1425.6410256410256,-1.0,76.04842764862879,2.57071238086964,
2023-08-12 16:07:24.626000,-2.7228915662650603,-0.9277108433734941,9.301204819277109,-0.6695278969957081,-2.686082158185162,10.055180870631514,2.0,2.5663003663003665,389.66600057093916,-0.3214264902977683,-0.272711380455685,-0.009673095973428084,1421.9780219780218,-1.0,76.04842764862879,2.570668340818451,
2023-08-12 16:07:24.634000,-2.710843373493976,-0.9277108433734941,9.301204819277109,-0.7578172900061312,-2.646842427958308,10.079705702023299,2.0,2.5663003663003665,389.66600057093916,-0.5795699551308192,-0.3165316706485628,-0.3443855253190378,1419.7802197802198,-1.0,76.04842764862879,2.570624232128552,
2023-08-12 16:07:24.642000,-2.710843373493976,-0.9277108433734941,9.289156626506024,-0.7308399754751685,-2.708154506437768,10.067443286327405,2.0,2.5663003663003665,389.66600057093916,-0.8175514247421473,0.051395606316647816,-0.20278538546704727,1418.3150183150183,-1.0,76.04842764862879,2.570580057767308,
2023-08-12 16:07:24.649000,-2.710843373493976,-0.9277108433734941,9.325301204819278,-0.7431023911710607,-2.656652360515021,10.035561005518087,2.0,2.5663003663003665,389.66600057093916,-0.384010255812599,0.22049997086416956,-0.1545364489248877,1416.117216117216,-1.0,76.04842764862879,2.5705358207805262,
2023-08-12 16:07:24.657000,-2.746987951807229,-0.9156626506024097,9.289156626506024,-0.7676272225628449,-2.676272225628449,10.09196811771919,2.0,2.5663003663003665,389.66600057093916,-0.47223355282326235,0.17201794767204787,0.09136996678515195,1413.1868131868132,-1.0,76.04842764862879,2.5704915242826045,
2023-08-12 16:07:24.665000,-2.734939759036145,-0.9277108433734941,9.349397590361447,-0.6866952789699571,-2.654199877375843,10.03065603923973,2.0,2.5663003663003665,389.66600057093916,-0.28424916962881036,0.2905425091777877,-0.1381038401025585,1413.1868131868132,-1.0,76.04842764862879,2.570447171447115,
2023-08-12 16:07:24.672000,-2.734939759036145,-0.9036144578313253,9.337349397590362,-0.7308399754751685,-2.6909871244635193,10.09196811771919,2.0,2.5663003663003665,389.66600057093916,-0.3731717265893604,0.026105704795757703,-0.21129304819066527,1413.9194139194137,-1.0,76.04842764862879,2.5704027654979633,
2023-08-12 16:07:24.680000,-2.710843373493976,-0.9277108433734941,9.325301204819278,-0.7357449417535254,-2.6517473942366645,10.094420600858369,2.0,2.5663003663003665,389.66600057093916,-0.17085251442223603,0.28553114620360126,-0.19183031291882696,1414.6520146520145,-1.0,76.04842764862879,2.570358310159089,
2023-08-12 16:07:24.688000,-2.710843373493976,-0.9036144578313253,9.313253012048193,-0.6891477621091354,-2.656652360515021,10.023298589822195,2.0,2.5663003663003665,389.66600057093916,-0.1658411514480514,0.03717732066895799,-0.20488316531670667,1415.3846153846152,-1.0,76.04842764862879,2.570313809121968,
2023-08-12 16:07:24.695000,-2.698795180722892,-0.9036144578313253,9.361445783132531,-0.6866952789699571,-2.6591048436541995,10.07725321888412,2.0,2.5663003663003665,389.66600057093916,-0.31303537089913247,-0.2098945282908909,-0.27667385350504037,1416.117216117216,-1.0,76.04842764862879,2.5702692656180193,
2023-08-12 16:07:24.703000,-2.710843373493976,-0.9518072289156627,9.337349397590362,-0.6548129981606376,-2.6223175965665235,10.074800735744942,2.0,2.5663003663003665,389.66600057093916,-0.24520715576015376,-0.19334537614358085,-0.5449565876114448,1416.8498168498168,-1.0,76.04842764862879,2.570224682905113,
2023-08-12 16:07:24.711000,-2.7228915662650603,-0.9277108433734941,9.349397590361447,-0.7234825260576333,-2.654199877375843,10.082158185162477,2.0,2.564835164835165,389.8886032562125,-0.14882582600081629,0.32282501019754184,-0.505098770467922,1413.9194139194137,-1.0,76.04842764862879,2.570180064262504,
2023-08-12 16:07:24.718000,-2.746987951807229,-0.9397590361445783,9.313253012048193,-0.6940527283874923,-2.6689147762109133,10.052728387492335,2.0,2.564835164835165,389.8886032562125,-0.08461045393625043,0.3179301905483363,-0.09906182623390279,1413.9194139194137,-1.0,76.04842764862879,2.5701354129521183,
2023-08-12 16:07:24.726000,-2.7228915662650603,-0.9036144578313253,9.313253012048193,-0.6916002452483139,-2.6738197424892705,10.082158185162477,2.0,2.564835164835165,389.8886032562125,0.02622224812073854,0.6191946856243801,-0.10500553580793673,1413.9194139194137,-1.0,76.04842764862879,2.570090732076401,
2023-08-12 16:07:24.734000,-2.746987951807229,-0.9277108433734941,9.337349397590362,-0.6916002452483139,-2.676272225628449,10.067443286327405,2.0,2.564835164835165,389.8886032562125,-0.034613367519376124,0.16665695472291897,-0.12831420080414915,1416.117216117216,-1.0,76.04842764862879,2.5700460240829703,
2023-08-12 16:07:24.741000,-2.746987951807229,-0.9156626506024097,9.289156626506024,-0.6940527283874923,-2.676272225628449,10.018393623543838,2.0,2.564835164835165,389.8886032562125,0.13682186352776582,0.37340481323932206,-0.27422644368043847,1419.047619047619,-1.0,76.04842764862879,2.5700012912871313,
2023-08-12 16:07:24.749000,-2.746987951807229,-0.9277108433734941,9.337349397590362,-0.7553648068669527,-2.666462293071735,10.116492949110974,2.0,2.5663003663003665,389.66600057093916,-0.18087524037060707,-0.04615115669249976,-0.21910145096439607,1421.245421245421,-1.0,76.04842764862879,2.5699565358326475,
2023-08-12 16:07:24.757000,-2.734939759036145,-0.9156626506024097,9.337349397590362,-0.7431023911710607,-2.6591048436541995,10.079705702023299,2.0,2.5663003663003665,389.66600057093916,-0.13169395722860036,-0.15675077209952878,-0.07552007458772783,1423.4432234432234,-1.0,76.04842764862879,2.569911759757395,
2023-08-12 16:07:24.764000,-2.7228915662650603,-0.9156626506024097,9.325301204819278,-0.7234825260576333,-2.6394849785407724,10.057633353770692,2.0,2.564835164835165,389.8886032562125,-0.28401608297884695,0.006176796223996482,0.021793601771458074,1423.4432234432234,-1.0,76.04842764862879,2.5698669660104834,
2023-08-12 16:07:24.772000,-2.734939759036145,-0.9277108433734941,9.325301204819278,-0.7431023911710607,-2.6321275291232373,9.99877375843041,2.0,2.564835164835165,389.8886032562125,-0.09766330633413015,-0.3024299283258555,0.11747567158091053,1421.9780219780218,-1.0,76.04842764862879,2.5698221574354037,
2023-08-12 16:07:24.780000,-2.710843373493976,-0.9518072289156627,9.313253012048193,-0.6916002452483139,-2.656652360515021,10.011036174126302,2.0,2.5663003663003665,389.66600057093916,-0.1715517743721228,-0.4115144805081285,0.318396363848261,1419.047619047619,-1.0,76.04842764862879,2.5697773362121,
2023-08-12 16:07:24.787000,-2.710843373493976,-0.9518072289156627,9.325301204819278,-0.7406499080318822,-2.624770079705702,10.067443286327405,2.0,2.564835164835165,389.8886032562125,-0.3559233144921619,-0.5186177961657238,0.35056232154303385,1417.5824175824175,-1.0,76.04842764862879,2.569732504809924,
2023-08-12 16:07:24.795000,-2.734939759036145,-0.9397590361445783,9.301204819277109,-0.7847946045370937,-2.619865113427345,9.986511342734518,2.0,2.564835164835165,389.8886032562125,-0.2433424625604569,-0.35091195151797727,-0.16479226152322082,1416.8498168498168,-1.0,76.04842764862879,2.569687665570017,
2023-08-12 16:07:24.803000,-2.710843373493976,-0.9518072289156627,9.313253012048193,-0.6548129981606376,-2.6591048436541995,10.07725321888412,2.0,2.564835164835165,389.8886032562125,-0.20791329176621492,-0.6425033506205924,-0.18763475321950904,1416.117216117216,-1.0,76.04842764862879,2.56964282018419,
2023-08-12 16:07:24.810000,-2.7228915662650603,-0.9397590361445783,9.361445783132531,-0.7283874923359902,-2.6615573267933783,10.035561005518087,2.0,2.564835164835165,389.8886032562125,-0.26630149758172683,-0.18297302022026732,-0.012586679097954637,1415.3846153846152,-1.0,76.04842764862879,2.5695979701572944,
2023-08-12 16:07:24.818000,-2.7228915662650603,-0.9156626506024097,9.313253012048193,-0.703862660944206,-2.686082158185162,10.050275904353157,2.0,2.564835164835165,389.8886032562125,0.10314084260823987,0.27376027038051426,0.30044869180117745,1415.3846153846152,-1.0,76.04842764862879,2.569553116812279,
2023-08-12 16:07:24.826000,-2.7228915662650603,-0.9397590361445783,9.337349397590362,-0.7406499080318822,-2.62722256284488,10.10668301655426,2.0,2.564835164835165,389.8886032562125,-0.26432026105704737,0.08612551716100478,0.33482897267059014,1415.3846153846152,-1.0,76.04842764862879,2.5695082612957956,
2023-08-12 16:07:24.833000,-2.7590361445783134,-0.9397590361445783,9.325301204819278,-0.6940527283874923,-2.6615573267933783,10.104230533415082,2.0,2.564835164835165,389.8886032562125,-0.03169978439484827,0.036944234018996325,0.3231746401724844,1413.9194139194137,-1.0,76.04842764862879,2.569463404584403,
2023-08-12 16:07:24.841000,-2.771084337349398,-0.9397590361445783,9.325301204819278,-0.7234825260576333,-2.6934396076026976,10.038013488657265,2.0,2.564835164835165,389.8886032562125,0.15337101567507758,0.0340306508944702,0.43202610570479566,1413.1868131868132,-1.0,76.04842764862879,2.5694185474913795,
2023-08-12 16:07:24.849000,-2.746987951807229,-0.9397590361445783,9.337349397590362,-0.7725321888412017,-2.6713672593500917,10.111587982832617,2.0,2.564835164835165,389.8886032562125,-0.10453936250801164,-0.30324573160072316,0.2672338441815748,1412.4542124542124,-1.0,76.04842764862879,2.5693736906741798,
2023-08-12 16:07:24.856000,-2.746987951807229,-0.9397590361445783,9.337349397590362,-0.7504598405885959,-2.6640098099325566,10.025751072961373,2.0,2.564835164835165,389.8886032562125,0.06712895518909198,-0.7028727929607838,0.3331973661208554,1412.4542124542124,-1.0,76.04842764862879,2.5693288346425303,
2023-08-12 16:07:24.864000,-2.746987951807229,-0.9397590361445783,9.337349397590362,-0.6989576946658491,-2.715511955855303,10.06008583690987,2.0,2.563369963369963,390.1114604172621,0.10092651943359877,-0.32037760037293905,0.4717673795233377,1408.7912087912086,-1.0,76.04842764862879,2.5692839797672042,
2023-08-12 16:07:24.872000,-2.7228915662650603,-0.9397590361445783,9.337349397590362,-0.7357449417535254,-2.6615573267933783,10.141017780502759,2.0,2.563369963369963,390.1114604172621,0.17761202727113842,-0.5841151448050805,0.48819998834566775,1405.8608058608058,-1.0,76.04842764862879,2.5692391262546743,
2023-08-12 16:07:24.879000,-2.734939759036145,-0.9277108433734941,9.337349397590362,-0.733292458614347,-2.6394849785407724,10.072348252605762,2.0,2.564835164835165,389.8886032562125,-0.004195559699318791,-0.3560398578171427,0.4148942369325797,1405.128205128205,-1.0,76.04842764862879,2.5691942740178115,
2023-08-12 16:07:24.887000,-2.698795180722892,-0.9156626506024097,9.349397590361447,-0.6817903126916002,-2.644389944819129,10.084610668301655,2.0,2.564835164835165,389.8886032562125,0.04486918011770882,-0.4049880543091895,0.46559058329934117,1401.4652014652013,-1.0,76.04842764862879,2.56914942268545,
2023-08-12 16:07:24.895000,-2.6867469879518073,-0.9277108433734941,9.337349397590362,-0.6817903126916002,-2.6419374616799507,10.087063151440834,2.0,2.563369963369963,390.1114604172621,0.04720004661733076,-0.40627003088398045,0.46733873317405766,1397.8021978021977,-1.0,76.04842764862879,2.569104571750816,
2023-08-12 16:07:24.902000,-2.6867469879518073,-0.9277108433734941,9.313253012048193,-0.7112201103617413,-2.6517473942366645,10.114040465971796,2.0,2.563369963369963,390.1114604172621,-0.012703222422935475,-0.48202319212167166,0.5912242876289263,1397.8021978021977,-1.0,76.04842764862879,2.569059720581277,
2023-08-12 16:07:24.910000,-2.6867469879518073,-0.9397590361445783,9.337349397590362,-0.745554874310239,-2.62722256284488,10.074800735744942,2.0,2.564835164835165,389.8886032562125,-0.037760037293863916,-0.38948779208670875,0.23961307616106275,1398.5347985347985,-1.0,76.04842764862879,2.569014867831508,
2023-08-12 16:07:24.918000,-2.6867469879518073,-0.8915662650602411,9.325301204819278,-0.745554874310239,-2.5928877988963825,10.062538320049049,2.0,2.564835164835165,389.8886032562125,0.39508187168579934,-0.6334129712720699,0.42771400268049686,1400.0,-1.0,76.04842764862879,2.568970011978636,
2023-08-12 16:07:24.925000,-2.674698795180723,-0.9277108433734941,9.325301204819278,-0.7063151440833844,-2.6419374616799507,10.050275904353157,2.0,2.564835164835165,389.8886032562125,0.2887943593030716,-0.814754384942602,0.2899597925528813,1400.0,-1.0,76.04842764862879,2.5689251518923295,
2023-08-12 16:07:24.933000,-2.6867469879518073,-0.9156626506024097,9.289156626506024,-0.6989576946658491,-2.614960147148988,10.09196811771919,2.0,2.564835164835165,389.8886032562125,6.992599498867545E-4,-0.39951051803507975,0.3076743779500032,1400.0,-1.0,76.04842764862879,2.5688802863879747,
2023-08-12 16:07:24.940000,-2.662650602409639,-0.9277108433734941,9.313253012048193,-0.6695278969957081,-2.6223175965665235,10.084610668301655,2.0,2.563369963369963,390.1114604172621,0.2787716333546989,-0.2605908746576537,0.3996270613600606,1399.2673992673992,-1.0,76.04842764862879,2.568835414238573,
2023-08-12 16:07:24.948000,-2.662650602409639,-0.9277108433734941,9.325301204819278,-0.7553648068669527,-2.6640098099325566,10.052728387492335,2.0,2.563369963369963,390.1114604172621,0.019812365246780383,-0.5064972903676942,0.3403065089447003,1400.7326007326005,-1.0,76.04842764862879,2.568790533694888,
2023-08-12 16:07:24.956000,-2.662650602409639,-0.9156626506024097,9.313253012048193,-0.7308399754751685,-2.6002452483139176,10.038013488657265,2.0,2.564835164835165,389.8886032562125,-0.06899364838878884,-0.21677058446477412,0.23576714643668778,1403.6630036630036,-1.0,76.04842764862879,2.5687456424269683,
2023-08-12 16:07:24.963000,-2.674698795180723,-0.9277108433734941,9.337349397590362,-0.7112201103617413,-2.619865113427345,10.057633353770692,2.0,2.563369963369963,390.1114604172621,0.01048889924829611,-0.15651768544956537,0.08472699726123213,1406.5934065934066,-1.0,76.04842764862879,2.568700738483736,
2023-08-12 16:07:24.971000,-2.710843373493976,-0.9397590361445783,9.301204819277109,-0.6891477621091354,-2.6100551808706314,10.020846106683017,2.0,2.563369963369963,390.1114604172621,0.15185595245032324,0.17807820057106177,-0.12528407435464134,1408.058608058608,-1.0,76.04842764862879,2.5686558203397403,
2023-08-12 16:07:24.979000,-2.710843373493976,-0.9518072289156627,9.313253012048193,-0.7381974248927038,-2.644389944819129,10.035561005518087,2.0,2.563369963369963,390.1114604172621,0.21397354466522883,0.32853563312161327,-0.04370374686789785,1408.7912087912086,-1.0,76.04842764862879,2.5686108858551817,
2023-08-12 16:07:24.986000,-2.710843373493976,-0.9518072289156627,9.313253012048193,-0.7161250766400981,-2.676272225628449,10.033108522378908,2.0,2.563369963369963,390.1114604172621,0.01713186877221594,0.49216246139502356,-0.07050871161354232,1408.058608058608,-1.0,76.04842764862879,2.5685659327811483,
2023-08-12 16:07:24.994000,-2.734939759036145,-0.9397590361445783,9.325301204819278,-0.7161250766400981,-2.6517473942366645,10.038013488657265,2.0,2.563369963369963,390.1114604172621,0.04953091311695096,0.48586912184604625,-0.2019695821921801,1406.5934065934066,-1.0,76.04842764862879,2.5685209587374187,
2023-08-12 16:07:25.002000,-2.734939759036145,-0.9397590361445783,9.289156626506024,-0.7553648068669527,-2.7204169221336603,10.069895769466584,2.0,2.563369963369963,390.1114604172621,-0.1480100227259487,0.3714235767146444,-0.08647514713594814,1407.3260073260071,-1.0,76.04842764862879,2.568475960801928,
2023-08-12 16:07:25.009000,-2.783132530120482,-0.9518072289156627,9.301204819277109,-0.8044144696505211,-2.688534641324341,10.023298589822195,2.0,2.563369963369963,390.1114604172621,-0.2518501252840736,0.3820290192879196,-0.06596352193928058,1407.3260073260071,-1.0,76.04842764862879,2.5684309360137205,
2023-08-12 16:07:25.017000,-2.783132530120482,-0.9518072289156627,9.289156626506024,-0.7259350091968118,-2.713059472716125,10.047823421213979,2.0,2.5619047619047617,390.33457249070636,-0.11188159198181996,0.5300390420138683,0.06176796223996266,1405.8608058608058,-1.0,76.04842764862879,2.568385881383583,
2023-08-12 16:07:25.025000,-2.783132530120482,-0.9518072289156627,9.301204819277109,-0.6719803801348866,-2.737584304107909,10.099325567136725,2.0,2.563369963369963,390.1114604172621,-0.3710739467397001,0.49449332789464545,0.06456500203950837,1400.7326007326005,-1.0,76.04842764862879,2.568340794328126,
2023-08-12 16:07:25.032000,-2.7951807228915664,-0.9397590361445783,9.301204819277109,-0.7210300429184548,-2.7400367872470874,10.116492949110974,2.0,2.563369963369963,390.1114604172621,-0.35091195151797727,0.33785909912009754,0.541693374511975,1393.4065934065934,-1.0,76.04842764862879,2.5682956725092905,
2023-08-12 16:07:25.040000,-2.807228915662651,-0.9277108433734941,9.325301204819278,-0.7259350091968118,-2.759656652360515,10.084610668301655,2.0,2.563369963369963,390.1114604172621,-0.48400442864634935,0.2428762892605318,0.5570770934094753,1389.7435897435896,-1.0,76.04842764862879,2.5682505134611215,
2023-08-12 16:07:25.048000,-2.783132530120482,-0.9518072289156627,9.301204819277109,-0.7995095033721643,-2.676272225628449,10.07725321888412,2.0,2.563369963369963,390.1114604172621,-0.08286230406153441,-0.38785618553697354,0.17586387739642198,1386.080586080586,-1.0,76.04842764862879,2.568205314639177,
2023-08-12 16:07:25.055000,-2.783132530120482,-0.963855421686747,9.361445783132531,-0.7504598405885959,-2.7572041692213363,10.069895769466584,2.0,2.563369963369963,390.1114604172621,-0.4914632014451368,0.12947963405395924,0.5919235475788123,1384.6153846153845,-1.0,76.04842764862879,2.5681600734349015,
2023-08-12 16:07:25.063000,-2.771084337349398,-0.9759036144578314,9.337349397590362,-0.7504598405885959,-2.6615573267933783,10.062538320049049,2.0,2.563369963369963,390.1114604172621,-0.24310937591049522,-0.04253831361808689,0.7132451488840977,1383.150183150183,-1.0,76.04842764862879,2.5681147871898578,
2023-08-12 16:07:25.071000,-2.783132530120482,-0.9759036144578314,9.325301204819278,-0.8068669527896996,-2.7743715511955855,10.038013488657265,2.0,2.563369963369963,390.1114604172621,-0.02622224812073854,-0.05885437911543697,0.7907464599965033,1380.2197802197802,-1.0,76.04842764862879,2.56806945320979,
2023-08-12 16:07:25.078000,-2.783132530120482,-0.9759036144578314,9.313253012048193,-0.762722256284488,-2.7400367872470874,10.06008583690987,2.0,2.563369963369963,390.1114604172621,-0.1468445894761386,-0.2887943593030716,0.8371307033389664,1377.2893772893772,-1.0,76.04842764862879,2.5680240687785956,
2023-08-12 16:07:25.086000,-2.7951807228915664,-0.9518072289156627,9.313253012048193,-0.7357449417535254,-2.6713672593500917,10.074800735744942,2.0,2.563369963369963,390.1114604172621,-0.0048948196492038095,-0.19509352601829688,1.1411922382145558,1373.6263736263736,-1.0,76.04842764862879,2.567978631172211,
2023-08-12 16:07:25.094000,-2.7590361445783134,-0.9397590361445783,9.337349397590362,-0.7357449417535254,-2.7204169221336603,10.072348252605762,2.0,2.563369963369963,390.1114604172621,0.22819183031291865,-0.4243342462560448,1.15144805081289,1370.6959706959706,-1.0,76.04842764862879,2.567933137214595,
2023-08-12 16:07:25.101000,-2.734939759036145,-0.9397590361445783,9.337349397590362,-0.7406499080318822,-2.654199877375843,10.087063151440834,2.0,2.563369963369963,390.1114604172621,-0.0621175922149056,-0.7914457199463896,1.0556494376784566,1369.9633699633698,-1.0,76.04842764862879,2.567887583816695,
2023-08-12 16:07:25.109000,-2.7228915662650603,-0.9277108433734941,9.313253012048193,-0.7602697731453096,-2.6738197424892705,10.069895769466584,2.0,2.563369963369963,390.1114604172621,0.07552007458772783,-0.31571586737369695,1.29631140376435,1369.230769230769,-1.0,76.04842764862879,2.56784196841148,
2023-08-12 16:07:25.117000,-2.734939759036145,-0.9277108433734941,9.301204819277109,-0.7136725935009196,-2.6713672593500917,10.074800735744942,2.0,2.563369963369963,390.1114604172621,0.2901928792028434,-0.1491754559757588,1.7481498747159263,1367.7655677655678,-1.0,76.04842764862879,2.567796288475867,
2023-08-12 16:07:25.124000,-2.746987951807229,-0.9397590361445783,9.301204819277109,-0.6548129981606376,-2.683629675045984,10.008583690987123,2.0,2.563369963369963,390.1114604172621,0.24147776936076004,-0.5018355573684521,1.6923256220499963,1365.5677655677655,-1.0,76.04842764862879,2.567750541545475,
2023-08-12 16:07:25.132000,-2.7228915662650603,-0.9518072289156627,9.301204819277109,-0.7504598405885959,-2.686082158185162,10.01348865726548,2.0,2.563369963369963,390.1114604172621,-0.06351611211467911,-0.6217586387739636,1.8214556261290131,1362.6373626373625,-1.0,76.04842764862879,2.56770472522948,
2023-08-12 16:07:25.140000,-2.6867469879518073,-0.963855421686747,9.289156626506024,-0.8240343347639485,-2.6223175965665235,10.069895769466584,2.0,2.563369963369963,390.1114604172621,0.014917545597576574,-0.11805838820581471,1.396655206573043,1361.1721611721612,-1.0,76.04842764862879,2.56765883722567,
2023-08-12 16:07:25.147000,-2.6867469879518073,-1.0120481927710845,9.27710843373494,-0.7798896382587369,-2.637032495401594,10.055180870631514,2.0,2.563369963369963,390.1114604172621,0.12202086125517184,0.0632830254647157,1.3105296894120393,1360.4395604395604,-1.0,76.04842764862879,2.567612875335674,
2023-08-12 16:07:25.155000,-2.710843373493976,-0.9879518072289157,9.301204819277109,-0.7431023911710607,-2.678724708767627,10.050275904353157,2.0,2.563369963369963,390.1114604172621,0.0745877279878794,1.0389837422061652,1.1212633296427938,1361.1721611721612,-1.0,76.04842764862879,2.5675668374804066,
2023-08-12 16:07:25.163000,-2.7590361445783134,-1.0,9.289156626506024,-0.8142244022072348,-2.708154506437768,10.008583690987123,2.0,2.563369963369963,390.1114604172621,-0.14008507662723618,1.150515704213041,0.8543791154361636,1363.3699633699632,-1.0,76.04842764862879,2.567520721715752,
2023-08-12 16:07:25.170000,-2.771084337349398,-1.0240963855421688,9.253012048192772,-0.7995095033721643,-2.776824034334764,9.930104230533415,2.0,2.5604395604395602,390.5579399141631,-0.13857001340248185,1.139211001689879,0.8497173824369202,1367.7655677655678,-1.0,76.04842764862879,2.567474526248484,
2023-08-12 16:07:25.178000,-2.819277108433735,-1.0240963855421688,9.289156626506024,-0.8976088289393009,-2.784181483752299,10.0453709380748,2.0,2.5619047619047617,390.33457249070636,-0.2890274459530333,1.4819649204591803,1.3636734456034023,1375.8241758241757,988.128662109375,60.7208375799129,2.5674282489249793,
2023-08-12 16:07:25.186000,-2.855421686746988,-1.0602409638554218,9.27710843373494,-0.8853464132434089,-2.7719190680564068,9.99877375843041,2.0,2.5619047619047617,390.33457249070636,-0.3174640172484112,1.595245032340772,1.2129829264028908,1383.8827838827838,-1.0,60.7208375799129,2.567381887528697,
2023-08-12 16:07:25.193000,-2.8674698795180724,-1.072289156626506,9.27710843373494,-0.8608215818516247,-2.808706315144083,10.062538320049049,2.0,2.563369963369963,390.1114604172621,-0.586795641279645,1.6730959734281219,1.0039042013868649,1389.7435897435896,-1.0,60.7208375799129,2.56733543982741,
2023-08-12 16:07:25.201000,-2.9036144578313254,-1.0481927710843375,9.289156626506024,-0.8657265481299815,-2.877375843041079,10.006131207847945,2.0,2.563369963369963,390.1114604172621,-0.48715109842083715,1.5226385408775704,1.783928675485111,1394.8717948717947,-1.0,60.7208375799129,2.5672889036890734,
2023-08-12 16:07:25.209000,-2.927710843373494,-1.0481927710843375,9.289156626506024,-0.8779889638258737,-2.855303494788473,10.008583690987123,2.0,2.5619047619047617,390.33457249070636,-0.38925470543674534,1.4671639181865863,1.6267117300856586,1396.3369963369962,-1.0,60.7208375799129,2.567242277655232,
2023-08-12 16:07:25.216000,-2.963855421686747,-1.036144578313253,9.27710843373494,-0.8240343347639485,-2.8822808093194356,9.988963825873697,2.0,2.563369963369963,390.1114604172621,-0.5957694773031867,1.1061126973952573,1.8543208437736722,1398.5347985347985,-1.0,60.7208375799129,2.567195560004325,
2023-08-12 16:07:25.224000,-2.91566265060241,-1.0240963855421688,9.289156626506024,-0.8804414469650521,-2.9239730226854688,9.991416309012875,2.0,2.5619047619047617,390.33457249070636,-0.8172017947672048,0.7035720529106688,2.4774780024474103,1405.128205128205,-1.0,60.7208375799129,2.5671487491864022,
2023-08-12 16:07:25.232000,-2.927710843373494,-1.0240963855421688,9.265060240963855,-0.8240343347639485,-2.9166155732679337,9.964438994481913,2.0,2.5619047619047617,390.33457249070636,-0.7628926053260291,0.4396014218285639,2.941670065846979,1413.1868131868132,-1.0,60.7208375799129,2.5671018438695783,
2023-08-12 16:07:25.239000,-2.927710843373494,-1.036144578313253,9.240963855421688,-0.86817903126916,-2.884733292458614,9.96934396076027,2.0,2.5619047619047617,390.33457249070636,-1.0428296719305399,0.4364547520540761,3.3252141483596533,1419.7802197802198,-1.0,60.7208375799129,2.5670548424243815,
2023-08-12 16:07:25.247000,-2.91566265060241,-1.036144578313253,9.27710843373494,-0.8191293684855916,-2.884733292458614,10.003678724708767,2.0,2.5619047619047617,390.33457249070636,-1.2019113105296888,0.46407552007458813,3.734281219043179,1426.3736263736262,-1.0,60.7208375799129,2.567007743390906,
2023-08-12 16:07:25.255000,-2.9036144578313254,-1.0602409638554218,9.265060240963855,-0.8240343347639485,-2.855303494788473,9.932556713672593,2.0,2.563369963369963,390.1114604172621,-1.265893595944293,0.3882058155119161,3.804207214031815,1433.6996336996335,-1.0,60.7208375799129,2.5669605454879143,
2023-08-12 16:07:25.262000,-2.927710843373494,-1.0602409638554218,9.253012048192772,-0.8313917841814837,-2.9215205395462904,9.996321275291232,2.0,2.5619047619047617,390.33457249070636,-0.9481964920459184,0.8186003146669782,4.176213507371366,1439.5604395604394,-1.0,60.7208375799129,2.566913248114434,
2023-08-12 16:07:25.270000,-2.927710843373494,-1.072289156626506,9.253012048192772,-0.8902513795217657,-2.958307786633967,10.028203556100552,2.0,2.5619047619047617,390.33457249070636,-1.1231280228424922,0.358137637666803,4.638074704271314,1446.153846153846,-1.0,60.7208375799129,2.566865850938067,
2023-08-12 16:07:25.278000,-2.951807228915663,-1.0843373493975905,9.228915662650603,-0.9147762109135499,-2.855303494788473,9.979153893316983,2.0,2.5619047619047617,390.33457249070636,-1.0239496532836079,0.6041605967018243,5.401899656197193,1453.4798534798533,-1.0,60.7208375799129,2.5668183533791473,
2023-08-12 16:07:25.285000,-2.9397590361445785,-1.0843373493975905,9.240963855421688,-0.9245861434702636,-2.8724708767627223,9.961986511342735,2.0,2.5619047619047617,390.33457249070636,-1.1810500553580792,0.14847619602587203,5.718664413495717,1460.8058608058607,-1.0,60.7208375799129,2.5667707550777576,
2023-08-12 16:07:25.293000,-2.927710843373494,-1.1204819277108435,9.204819277108435,-0.9245861434702636,-2.928877988963826,9.96934396076027,2.0,2.5619047619047617,390.33457249070636,-0.8604393683351784,0.42328535633121556,6.558359069984267,1465.9340659340658,-1.0,60.7208375799129,2.566723056360616,
2023-08-12 16:07:25.300000,-2.9759036144578315,-1.108433734939759,9.240963855421688,-0.9245861434702636,-2.8749233599019006,9.944819129368485,2.0,2.5619047619047617,390.33457249070636,-1.2268515820756365,0.7896975700716735,6.649962123419382,1469.5970695970695,-1.0,60.7208375799129,2.566675258182688,
2023-08-12 16:07:25.308000,-2.963855421686747,-1.1325301204819278,9.240963855421688,-0.9196811771919068,-2.8700183936235435,9.905579399141631,2.0,2.5619047619047617,390.33457249070636,-1.2879202843657127,0.31641512732358196,7.321717848610221,1473.9926739926739,-1.0,60.7208375799129,2.5666273611896884,
2023-08-12 16:07:25.316000,-2.9759036144578315,-1.1325301204819278,9.19277108433735,-0.9147762109135499,-2.9926425505824645,9.961986511342735,2.0,2.5619047619047617,390.33457249070636,-1.5627294446710562,0.4690868830487728,8.039275100518617,1478.3882783882782,-1.0,60.7208375799129,2.566579366255434,
2023-08-12 16:07:25.323000,-2.987951807228916,-1.144578313253012,9.204819277108435,-0.9932556713672593,-2.965665236051502,9.866339668914776,2.0,2.5604395604395602,390.5579399141631,-1.5474622690985371,0.5301555853388491,8.375152963114038,1482.051282051282,-1.0,60.7208375799129,2.566531274456547,
2023-08-12 16:07:25.331000,-2.987951807228916,-1.1204819277108435,9.204819277108435,-0.9908031882280809,-2.9411404046597176,9.883507050889024,2.0,2.5619047619047617,390.33457249070636,-1.6695996736786898,0.2706136006060247,8.83316823028961,1484.2490842490843,-1.0,60.7208375799129,2.5664830870814157,
2023-08-12 16:07:25.339000,-3.0120481927710845,-1.1566265060240966,9.156626506024097,-0.9319435928877988,-2.9632127529123236,9.846719803801347,2.0,2.5619047619047617,390.33457249070636,-1.913874482838995,0.3774838296136583,9.703397237923198,1484.9816849816848,-1.0,60.7208375799129,2.566434805957173,
2023-08-12 16:07:25.346000,-3.0120481927710845,-1.1325301204819278,9.180722891566266,-0.9368485591661557,-2.995095033721643,9.885959534028203,2.0,2.5619047619047617,390.33457249070636,-2.2039508187168577,0.3927510051861774,10.314084260823961,1482.051282051282,-1.0,60.7208375799129,2.566386433070767,
2023-08-12 16:07:25.354000,-3.036144578313253,-1.1204819277108435,9.19277108433735,-0.9074187614960146,-2.9852851011649295,9.932556713672593,2.0,2.5619047619047617,390.33457249070636,-2.7230347881825065,0.17901054717091022,10.68049647456442,1478.3882783882782,-1.0,60.7208375799129,2.566337970612068,
2023-08-12 16:07:25.362000,-3.0481927710843375,-1.1325301204819278,9.180722891566266,-0.9393010423053341,-3.04659717964439,9.912936848559166,2.0,2.5619047619047617,390.33457249070636,-2.8909737194802165,0.10267466930831479,11.67286288677816,1475.4578754578754,-1.0,60.7208375799129,2.56628942098143,
2023-08-12 16:07:25.369000,-3.0481927710843375,-1.144578313253012,9.180722891566266,-0.9858982219497241,-3.049049662783568,9.92274678111588,2.0,2.5619047619047617,390.33457249070636,-3.1505157042130407,-0.3248062467222195,12.191946856243808,1472.5274725274724,-1.0,60.7208375799129,2.5662407867965173,
2023-08-12 16:07:25.377000,-3.072289156626506,-1.108433734939759,9.19277108433735,-0.973635806253832,-3.0343347639484977,9.90803188228081,2.0,2.5619047619047617,390.33457249070636,-3.4558592156634225,-0.5232795291649677,12.787366703572053,1469.5970695970695,-1.0,60.7208375799129,2.5661920708984054,
2023-08-12 16:07:25.385000,-3.0843373493975905,-1.1325301204819278,9.204819277108435,-0.9491109748620478,-3.049049662783568,9.90803188228081,2.0,2.5619047619047617,390.33457249070636,-3.562729444671056,-1.0270963230580974,13.84080181807587,1467.3992673992673,-1.0,60.7208375799129,2.5661432763570033,
2023-08-12 16:07:25.392000,-3.072289156626506,-1.1566265060240966,9.180722891566266,-0.9074187614960146,-2.977927651747394,9.957081545064376,2.0,2.5619047619047617,390.33457249070636,-4.0054775362741095,-1.3782413612260362,14.604160596701824,1463.003663003663,-1.0,60.7208375799129,2.5660944064758255,
2023-08-12 16:07:25.400000,-3.060240963855422,-1.144578313253012,9.19277108433735,-0.9196811771919068,-3.053954629061925,9.971796443899448,2.0,2.5619047619047617,390.33457249070636,-4.448225627877163,-2.019462735271838,15.367519375327777,1456.4102564102564,-1.0,60.7208375799129,2.566045464796118,
2023-08-12 16:07:25.408000,-3.024096385542169,-1.1566265060240966,9.216867469879519,-0.9809932556713672,-3.0318822808093193,10.020846106683017,2.0,2.5619047619047617,390.33457249070636,-4.127614940854262,-2.614882582600082,16.344618611969,1448.3516483516482,-1.0,60.7208375799129,2.5659964551004095,
2023-08-12 16:07:25.415000,-3.0120481927710845,-1.1686746987951808,9.240963855421688,-0.9343960760269773,-2.896995708154506,9.925199264255058,2.0,2.5619047619047617,390.33457249070636,-4.3413553988695295,-3.164500903210769,17.428588077617857,1438.095238095238,-1.0,60.7208375799129,2.5659473814154934,
2023-08-12 16:07:25.423000,-2.963855421686747,-1.144578313253012,9.216867469879519,-0.9711833231146535,-2.9141630901287554,9.957081545064376,2.0,2.5604395604395602,390.5579399141631,-4.478759979022201,-3.301905483363441,17.71866441349572,1428.5714285714284,-1.0,60.7208375799129,2.5658982480148818,
2023-08-12 16:07:25.431000,-2.951807228915663,-1.1204819277108435,9.289156626506024,-0.9221336603310851,-2.884733292458614,10.003678724708767,2.0,2.5619047619047617,390.33457249070636,-4.6619660858924306,-3.714119223821456,18.329351436396482,1422.7106227106226,-1.0,60.7208375799129,2.565849058928125,
2023-08-12 16:07:25.438000,-2.879518072289157,-1.1325301204819278,9.253012048192772,-0.8559166155732679,-2.8528510116492947,9.991416309012875,2.0,2.5619047619047617,390.33457249070636,-4.860439368335178,-3.6530505215313798,19.260649146320144,1418.3150183150183,-1.0,60.7208375799129,2.565799818362799,
2023-08-12 16:07:25.446000,-2.855421686746988,-1.1204819277108435,9.240963855421688,-0.956468424279583,-2.865113427345187,9.96934396076027,2.0,2.5619047619047617,390.33457249070636,-5.1199813530680025,-3.866790979546647,19.52019113105297,1416.8498168498168,-1.0,60.7208375799129,2.5657505312301185,
2023-08-12 16:07:25.454000,-2.843373493975904,-1.1204819277108435,9.228915662650603,-0.9662783568362967,-2.8283261802575104,9.988963825873697,2.0,2.5619047619047617,390.33457249070636,-5.1199813530680025,-3.866790979546647,19.52019113105297,1417.5824175824175,-1.0,60.7208375799129,2.5657012026871846,
2023-08-12 16:07:25.461000,-2.8313253012048194,-1.1325301204819278,9.265060240963855,-0.9172286940527283,-2.76701410177805,10.008583690987123,2.0,2.5604395604395602,390.5579399141631,-4.5703630324573155,-4.111065788706952,20.68049647456442,1417.5824175824175,-1.0,60.7208375799129,2.5656518381367888,
2023-08-12 16:07:25.469000,-2.855421686746988,-1.072289156626506,9.240963855421688,-0.8730839975475169,-2.754751686082158,10.003678724708767,2.0,2.5604395604395602,390.5579399141631,-4.417691276732125,-3.9583940329817615,20.772099527999536,1419.7802197802198,-1.0,60.7208375799129,2.5656024427342867,
2023-08-12 16:07:25.477000,-2.819277108433735,-1.0963855421686748,9.265060240963855,-0.8877988963825874,-2.835683629675046,10.003678724708767,2.0,2.5589743589743588,390.78156312625254,-5.013111124060369,-3.5003787658061887,21.245381970747626,1419.047619047619,-1.0,60.7208375799129,2.5655530213147077,
2023-08-12 16:07:25.484000,-2.855421686746988,-1.108433734939759,9.253012048192772,-0.8976088289393009,-2.7939914163090127,9.966891477621092,2.0,2.5604395604395602,390.5579399141631,-5.181050055358079,-4.004195559699319,21.245381970747626,1419.7802197802198,-1.0,60.7208375799129,2.5655035788093743,
2023-08-12 16:07:25.492000,-2.819277108433735,-1.108433734939759,9.253012048192772,-0.9123237277743715,-2.7326793378295524,10.01348865726548,2.0,2.5604395604395602,390.5579399141631,-5.257385933220674,-3.8209894528290897,22.06980945166366,1422.7106227106226,-1.0,60.7208375799129,2.565454120591895,
2023-08-12 16:07:25.500000,-2.843373493975904,-1.108433734939759,9.240963855421688,-0.9319435928877988,-2.7572041692213363,10.01348865726548,2.0,2.5604395604395602,390.5579399141631,-5.745935551541285,-3.698852048248937,22.115610978381216,1422.7106227106226,-1.0,60.7208375799129,2.5654046525063543,
2023-08-12 16:07:25.507000,-2.855421686746988,-1.144578313253012,9.240963855421688,-0.9417535254445125,-2.789086450030656,9.961986511342735,2.0,2.5604395604395602,390.5579399141631,-5.868072956121438,-3.362974185653517,22.84843540586213,1424.1758241758241,-1.0,60.7208375799129,2.5653551799460135,
2023-08-12 16:07:25.515000,-2.8674698795180724,-1.144578313253012,9.265060240963855,-0.973635806253832,-2.86020846106683,9.988963825873697,2.0,2.5604395604395602,390.5579399141631,-5.150515704213041,-3.2103024299283263,22.787366703572054,1424.9084249084249,-1.0,60.7208375799129,2.5653057083716972,
2023-08-12 16:07:25.523000,-2.9036144578313254,-1.1204819277108435,9.240963855421688,-0.8853464132434089,-2.9019006744328633,9.95217657878602,2.0,2.5604395604395602,390.5579399141631,-5.028378299632888,-3.5461802925237462,23.795000291358313,1422.7106227106226,-1.0,60.7208375799129,2.5652562437250737,
2023-08-12 16:07:25.530000,-2.91566265060241,-1.1204819277108435,9.253012048192772,-0.956468424279583,-2.847946045370938,10.015941140404658,2.0,2.5604395604395602,390.5579399141631,-5.547462269098537,-3.851523803974128,24.35988578754152,1419.7802197802198,-1.0,60.7208375799129,2.5652067919277846,
2023-08-12 16:07:25.538000,-2.879518072289157,-1.1325301204819278,9.253012048192772,-0.8927038626609441,-2.825873697118332,9.976701410177805,2.0,2.5604395604395602,390.5579399141631,-5.608530971388613,-3.6072489948138227,24.84843540586213,1419.047619047619,-1.0,60.7208375799129,2.5651573588723457,
2023-08-12 16:07:25.546000,-2.927710843373494,-1.144578313253012,9.265060240963855,-0.8828939301042305,-2.8626609442060085,9.961986511342735,2.0,2.5604395604395602,390.5579399141631,-5.715401200396247,-3.7904551016840515,25.581259833343047,1421.245421245421,-1.0,60.7208375799129,2.56510794995437,
2023-08-12 16:07:25.553000,-2.9397590361445785,-1.1204819277108435,9.27710843373494,-0.956468424279583,-2.936235438381361,9.954629061925198,2.0,2.5604395604395602,390.5579399141631,-6.188683643144339,-3.561447468096265,25.68813006235068,1423.4432234432234,-1.0,60.7208375799129,2.565058570129267,
2023-08-12 16:07:25.561000,-2.9759036144578315,-1.1325301204819278,9.27710843373494,-0.9172286940527283,-2.877375843041079,9.981606376456162,2.0,2.5604395604395602,390.5579399141631,-6.417691276732125,-4.065264261989395,25.978206398228544,1427.106227106227,-1.0,60.7208375799129,2.565009224847363,
2023-08-12 16:07:25.569000,-2.963855421686747,-1.1325301204819278,9.27710843373494,-0.9368485591661557,-2.8920907418761495,9.974248927038627,2.0,2.5604395604395602,390.5579399141631,-6.097080589709224,-3.7599207505390133,26.68049647456442,1426.3736263736262,-1.0,60.7208375799129,2.56495991951359,
2023-08-12 16:07:25.576000,-2.951807228915663,-1.108433734939759,9.240963855421688,-0.8559166155732679,-2.8920907418761495,9.976701410177805,2.0,2.5604395604395602,390.5579399141631,-6.646698910319911,-3.729386399393975,27.50492395548045,1426.3736263736262,-1.0,60.7208375799129,2.564910659509406,
2023-08-12 16:07:25.584000,-2.963855421686747,-1.108433734939759,9.27710843373494,-0.9000613120784794,-2.857755977927652,9.966891477621092,2.0,2.5604395604395602,390.5579399141631,-6.860439368335178,-3.9736612085542804,27.68813006235068,1425.6410256410256,-1.0,60.7208375799129,2.5648614501453557,
2023-08-12 16:07:25.592000,-2.951807228915663,-1.0963855421686748,9.253012048192772,-0.9147762109135499,-2.877375843041079,10.006131207847945,2.0,2.5604395604395602,390.5579399141631,-7.1199813530680025,-4.034729910844357,28.19194685624381,1424.9084249084249,-1.0,60.7208375799129,2.564812296683434,
2023-08-12 16:07:25.599000,-2.927710843373494,-1.0843373493975905,9.265060240963855,-0.927038626609442,-2.8503985285101163,10.052728387492335,2.0,2.5604395604395602,390.5579399141631,-7.425324864518384,-3.775187926111532,28.756832352427015,1423.4432234432234,-1.0,60.7208375799129,2.564763204748227,
2023-08-12 16:07:25.607000,-2.879518072289157,-1.108433734939759,9.27710843373494,-0.9025137952176578,-2.8528510116492947,10.023298589822195,2.0,2.5604395604395602,390.5579399141631,-7.6695996736786896,-3.683584872676418,28.833168230289612,1421.245421245421,-1.0,60.7208375799129,2.5647141798250987,
2023-08-12 16:07:25.615000,-2.8674698795180724,-1.0843373493975905,9.289156626506024,-0.86817903126916,-2.818516247700797,10.011036174126302,2.0,2.5604395604395602,390.5579399141631,-7.440592040090904,-4.355340597867258,29.65759571120564,1418.3150183150183,-1.0,60.7208375799129,2.5646652272514037,
2023-08-12 16:07:25.622000,-2.8674698795180724,-1.0963855421686748,9.313253012048193,-0.9000613120784794,-2.865113427345187,10.079705702023299,2.0,2.5604395604395602,390.5579399141631,-7.791737078258842,-4.080531437561914,30.573626245556788,1413.1868131868132,-1.0,60.7208375799129,2.564616352208102,
2023-08-12 16:07:25.630000,-2.843373493975904,-1.0843373493975905,9.289156626506024,-0.8902513795217657,-2.6983445738810543,10.028203556100552,2.0,2.5589743589743588,390.78156312625254,-7.944408833984033,-3.882058155119166,30.6652292989919,1402.9304029304028,-1.0,60.7208375799129,2.5645675592540895,
2023-08-12 16:07:25.638000,-2.783132530120482,-1.0602409638554218,9.325301204819278,-0.9123237277743715,-2.708154506437768,10.028203556100552,2.0,2.5589743589743588,390.78156312625254,-7.364256162228308,-4.080531437561914,30.51255754326671,1391.9413919413919,-1.0,60.7208375799129,2.5645188528093756,
2023-08-12 16:07:25.645000,-2.771084337349398,-1.0602409638554218,9.313253012048193,-0.9172286940527283,-2.6713672593500917,10.050275904353157,2.0,2.5589743589743588,390.78156312625254,-7.715401200396247,-4.2942718955771815,31.01637433715984,1383.150183150183,-1.0,60.7208375799129,2.564470237430372,
2023-08-12 16:07:25.653000,-2.710843373493976,-1.0602409638554218,9.289156626506024,-0.8142244022072348,-2.6909871244635193,10.018393623543838,2.0,2.5604395604395602,390.5579399141631,-8.600897383602353,-3.897325330691685,31.733931589068234,1378.7545787545787,-1.0,60.7208375799129,2.564421716818414,
2023-08-12 16:07:25.661000,-2.698795180722892,-1.0963855421686748,9.313253012048193,-0.9343960760269773,-2.649294911097486,10.003678724708767,2.0,2.5604395604395602,390.5579399141631,-8.005477536274109,-4.019462735271838,32.16141250509877,1379.4871794871794,-1.0,60.7208375799129,2.5643732943732362,
2023-08-12 16:07:25.668000,-2.6867469879518073,-1.0963855421686748,9.301204819277109,-0.8019619865113427,-2.585530349478847,10.155732679337829,2.0,2.5604395604395602,390.5579399141631,-7.196317230930598,-4.095798613134433,32.16141250509877,1381.6849816849815,-1.0,60.7208375799129,2.5643249737469094,
2023-08-12 16:07:25.676000,-2.662650602409639,-1.0120481927710845,9.337349397590362,-0.7921520539546291,-2.5413856529736356,10.12139791538933,2.0,2.5604395604395602,390.5579399141631,-8.005477536274109,-4.279004720004662,32.08507662723617,1382.4175824175823,-1.0,60.7208375799129,2.56427675838119,
2023-08-12 16:07:25.683000,-2.6506024096385543,-0.9879518072289157,9.337349397590362,-0.8068669527896996,-2.578172900061312,10.067443286327405,2.0,2.5604395604395602,390.5579399141631,-8.402424101159605,-3.882058155119166,31.779733115785792,1385.3479853479853,-1.0,60.7208375799129,2.5642286515040777,
2023-08-12 16:07:25.691000,-2.63855421686747,-0.9759036144578314,9.325301204819278,-0.7970570202329859,-2.5095033721643163,10.064990803188227,2.0,2.5604395604395602,390.5579399141631,-8.036011887419148,-3.912592506264204,31.82553464250335,1389.7435897435896,-1.0,60.7208375799129,2.5641806561277805,
2023-08-12 16:07:25.699000,-2.6144578313253013,-0.963855421686747,9.337349397590362,-0.7676272225628449,-2.465358675659105,10.094420600858369,2.0,2.5604395604395602,390.5579399141631,-7.837538604976399,-3.866790979546647,31.96293922265602,1396.3369963369962,-1.0,60.7208375799129,2.564132775048192,
2023-08-12 16:07:25.706000,-2.5903614457831328,-0.9397590361445783,9.361445783132531,-0.6891477621091354,-2.526670754138565,10.087063151440834,2.0,2.5604395604395602,390.5579399141631,-7.82227142940388,-3.897325330691685,32.0240079249461,1402.9304029304028,-1.0,60.7208375799129,2.5640850108459445,
2023-08-12 16:07:25.714000,-2.5542168674698797,-0.9156626506024097,9.373493975903616,-0.6768853464132434,-2.475168608215818,10.07725321888412,2.0,2.5589743589743588,390.78156312625254,-8.005477536274109,-3.5919818192413033,31.245381970747626,1409.5238095238094,-1.0,60.7208375799129,2.564037365889119,
2023-08-12 16:07:25.722000,-2.5421686746987953,-0.9036144578313253,9.373493975903616,-0.6768853464132434,-2.4800735744941753,10.131207847946046,2.0,2.5589743589743588,390.78156312625254,-8.402424101159605,-3.088165025348174,31.275916321892662,1413.9194139194137,-1.0,60.7208375799129,2.5639898418449842,
2023-08-12 16:07:25.729000,-2.5542168674698797,-0.8674698795180723,9.361445783132531,-0.5763335377069282,-2.5168608215818513,10.158185162477007,2.0,2.5589743589743588,390.78156312625254,-8.402424101159605,-3.088165025348174,31.275916321892662,1416.8498168498168,-1.0,60.7208375799129,2.5639424396139656,
2023-08-12 16:07:25.737000,-2.5301204819277108,-0.8915662650602411,9.3855421686747,-0.6499080318822807,-2.47271612507664,10.18516247700797,2.0,2.5589743589743588,390.78156312625254,-8.112347765281744,-3.332439834508479,31.688130062350677,1419.7802197802198,-1.0,60.7208375799129,2.563895159789884,
2023-08-12 16:07:25.745000,-2.5542168674698797,-0.8795180722891567,9.361445783132531,-0.6376456161863887,-2.5119558553034946,10.123850398528509,2.0,2.5589743589743588,390.78156312625254,-8.097080589709224,-3.179768078783288,31.382786550900295,1422.7106227106226,-1.0,60.7208375799129,2.5638480031213646,
2023-08-12 16:07:25.752000,-2.5421686746987953,-0.855421686746988,9.3855421686747,-0.6180257510729613,-2.4310239117106067,10.175352544451256,2.0,2.5589743589743588,390.78156312625254,-8.081813414136704,-3.2103024299283263,31.47438960433541,1426.3736263736262,-1.0,60.7208375799129,2.5638009699914845,
2023-08-12 16:07:25.760000,-2.5783132530120483,-0.8433734939759037,9.3855421686747,-0.645003065603924,-2.5462906192519923,10.123850398528509,2.0,2.5589743589743588,390.78156312625254,-8.432958452304645,-2.9354932696229827,31.19958044403007,1426.3736263736262,-1.0,60.7208375799129,2.5637540600026556,
2023-08-12 16:07:25.768000,-2.5903614457831328,-0.855421686746988,9.3855421686747,-0.6106683016554261,-2.5683629675045982,10.145922746781116,2.0,2.5589743589743588,390.78156312625254,-7.929141658411514,-2.920226094050464,31.275916321892662,1425.6410256410256,-1.0,60.7208375799129,2.5637072729337853,
2023-08-12 16:07:25.775000,-2.5783132530120483,-0.8433734939759037,9.373493975903616,-0.627835683629675,-2.5389331698344573,10.158185162477007,2.0,2.5589743589743588,390.78156312625254,-8.173416467571819,-2.782821513897792,31.046908688304878,1423.4432234432234,-1.0,60.7208375799129,2.563660608680921,
2023-08-12 16:07:25.783000,-2.5421686746987953,-0.8072289156626506,9.373493975903616,-0.598405885959534,-2.507050889025138,10.116492949110974,2.0,2.5575091575091573,391.00544256659987,-8.280286696579452,-3.011829147485578,31.107977390594954,1419.047619047619,-1.0,60.7208375799129,2.563614066320187,
2023-08-12 16:07:25.791000,-2.5903614457831328,-0.8072289156626506,9.373493975903616,-0.6229307173513182,-2.477621091354997,10.10668301655426,2.0,2.5575091575091573,391.00544256659987,-8.188683643144339,-3.179768078783288,31.260649146320144,1413.1868131868132,-1.0,60.7208375799129,2.56356764415438,
2023-08-12 16:07:25.798000,-2.5542168674698797,-0.8072289156626506,9.325301204819278,-0.5763335377069282,-2.4604537093807477,10.069895769466584,2.0,2.5589743589743588,390.78156312625254,-8.723034788182506,-2.98129479634054,30.756832352427015,1406.5934065934066,-1.0,60.7208375799129,2.5635213400766714,
2023-08-12 16:07:25.806000,-2.5421686746987953,-0.7710843373493976,9.349397590361447,-0.551808706315144,-2.494788473329246,10.055180870631514,2.0,2.5589743589743588,390.78156312625254,-8.387156925587087,-2.569081055882525,30.970572810442285,1400.0,-1.0,60.7208375799129,2.563475152038983,
2023-08-12 16:07:25.814000,-2.5421686746987953,-0.783132530120482,9.337349397590362,-0.6057633353770693,-2.4236664622930717,10.114040465971796,2.0,2.5589743589743588,390.78156312625254,-8.188683643144339,-2.614882582600082,31.092710215022436,1393.4065934065934,-1.0,60.7208375799129,2.5634290776768567,
2023-08-12 16:07:25.821000,-2.5301204819277108,-0.783132530120482,9.373493975903616,-0.5787860208461066,-2.435928877988964,10.114040465971796,2.0,2.5589743589743588,390.78156312625254,-8.234485169861896,-2.5232795291649674,30.772099527999536,1386.080586080586,-1.0,60.7208375799129,2.563383114392868,
2023-08-12 16:07:25.829000,-2.5060240963855422,-0.7951807228915663,9.3855421686747,-0.522378908645003,-2.4629061925199265,10.074800735744942,2.0,2.5589743589743588,390.78156312625254,-7.837538604976399,-2.843890216187868,29.917137695938465,1380.2197802197802,-1.0,60.7208375799129,2.563337259336737,
2023-08-12 16:07:25.837000,-2.4216867469879517,-0.7710843373493976,9.433734939759036,-0.5027590435315757,-2.2470876762722254,10.18270999386879,2.0,2.5589743589743588,390.78156312625254,-8.280286696579452,-2.5538138803100057,29.962939222656022,1377.2893772893772,-1.0,60.7208375799129,2.5632915094559894,
2023-08-12 16:07:25.844000,-2.27710843373494,-0.710843373493976,9.421686746987952,-0.4782342121397915,-2.1097486204782343,10.155732679337829,2.0,2.5589743589743588,390.78156312625254,-7.6695996736786896,-3.912592506264204,28.115610978381213,1374.3589743589744,-1.0,60.7208375799129,2.5632458619359806,
2023-08-12 16:07:25.852000,-2.108433734939759,-0.819277108433735,9.325301204819278,-0.6376456161863887,-2.0533415082771307,9.964438994481913,2.0,2.5589743589743588,390.78156312625254,-7.700134024823727,-5.4087757123710745,25.50492395548045,1371.4285714285713,-1.0,60.7208375799129,2.5632003137274784,
2023-08-12 16:07:25.860000,-2.2289156626506026,-0.9759036144578314,9.180722891566266,-0.733292458614347,-2.1784181483752296,9.856529736358063,2.0,2.5589743589743588,390.78156312625254,-6.921508070625254,-2.4316764757298532,25.413320902045335,1371.4285714285713,-1.0,60.7208375799129,2.56315486156758,
2023-08-12 16:07:25.867000,-2.325301204819277,-0.9277108433734941,9.156626506024097,-0.6499080318822807,-2.185775597792765,9.910484365419988,2.0,2.5589743589743588,390.78156312625254,-6.387156925587086,1.3087815395373223,25.932404871510986,1372.161172161172,-1.0,60.7208375799129,2.5631095020012853,
2023-08-12 16:07:25.875000,-2.3373493975903616,-0.7349397590361446,9.096385542168676,-0.46842427958307786,-2.1686082158185163,9.795217657878602,2.0,2.5589743589743588,390.78156312625254,-7.058912650777926,0.9271021502243453,24.085076627236177,1374.3589743589744,-1.0,60.7208375799129,2.563064231403718,
2023-08-12 16:07:25.883000,-2.325301204819277,-0.5903614457831325,9.27710843373494,-0.35561005518087063,-2.2103004291845494,10.015941140404658,2.0,2.5589743589743588,390.78156312625254,-7.379523337800827,-3.133966552065731,21.092710215022436,1374.3589743589744,-1.0,60.7208375799129,2.563019046002946,
2023-08-12 16:07:25.890000,-2.240963855421687,-0.5542168674698795,9.421686746987952,-0.3041079092581238,-2.134273451870018,10.165542611894542,2.0,2.5589743589743588,390.78156312625254,-7.33372181108327,-0.6912184604626775,21.291183497465184,1371.4285714285713,-1.0,60.7208375799129,2.562973941903382,
2023-08-12 16:07:25.898000,-2.3373493975903616,-0.6265060240963856,9.433734939759036,-0.4316370324954016,-2.28632740649908,10.180257510729612,2.0,2.5589743589743588,390.78156312625254,-8.768836314900064,2.7896975700716733,22.253015558533885,1364.8351648351647,-1.0,60.7208375799129,2.562928915109752,
2023-08-12 16:07:25.906000,-2.5421686746987953,-0.7590361445783133,9.3855421686747,-0.6229307173513182,-2.467811158798283,10.13856529736358,2.0,2.5589743589743588,390.78156312625254,-9.16578287978556,3.3545830662548797,22.420954489831598,1354.5787545787546,-1.0,60.7208375799129,2.5628839615515497,
2023-08-12 16:07:25.913000,-2.710843373493976,-0.783132530120482,9.301204819277109,-0.5861434702636419,-2.676272225628449,10.055180870631514,2.0,2.5589743589743588,390.78156312625254,-9.16578287978556,1.6446594021327423,21.413320902045335,1344.3223443223442,-1.0,60.7208375799129,2.5628390771079874,
2023-08-12 16:07:25.921000,-2.7951807228915664,-0.746987951807229,9.253012048192772,-0.5321888412017167,-2.8283261802575104,9.898221949724094,2.0,2.5575091575091573,391.00544256659987,-8.600897383602353,-0.15686731542450963,21.413320902045335,1333.3333333333333,-1.0,60.7208375799129,2.562794257633382,
2023-08-12 16:07:25.929000,-2.8674698795180724,-0.746987951807229,9.265060240963855,-0.4904966278356836,-2.835683629675046,10.067443286327405,2.0,2.5589743589743588,390.78156312625254,-8.768836314900064,-2.1416001398519904,23.016374337159842,1327.4725274725274,-1.0,60.7208375799129,2.562749498490262,
2023-08-12 16:07:25.936000,-2.843373493975904,-0.746987951807229,9.301204819277109,-0.4218270999386879,-2.7988963825873694,10.069895769466584,2.0,2.556043956043956,391.22957867583835,-9.028378299632887,-2.462210826874891,24.16141250509877,1324.5421245421244,-1.0,60.7208375799129,2.562704794995957,
2023-08-12 16:07:25.944000,-2.8313253012048194,-0.7349397590361446,9.397590361445783,-0.5150214592274678,-2.779276517473942,10.221949724095646,2.0,2.556043956043956,391.22957867583835,-9.303187459938231,-2.9354932696229827,23.52019113105297,1322.3443223443223,-1.0,60.7208375799129,2.562660142446037,
2023-08-12 16:07:25.952000,-2.783132530120482,-0.7349397590361446,9.433734939759036,-0.5493562231759657,-2.7204169221336603,10.192519926425506,2.0,2.5575091575091573,391.00544256659987,-8.524561505739758,-3.2561039566458834,22.924771283724727,1321.6117216117216,-1.0,60.7208375799129,2.562615535470847,
2023-08-12 16:07:25.959000,-2.7590361445783134,-0.7228915662650602,9.46987951807229,-0.5027590435315757,-2.6811771919068055,10.20232985898222,2.0,2.5575091575091573,391.00544256659987,-8.768836314900064,-3.6377833459588604,23.138511741739993,1320.14652014652,-1.0,60.7208375799129,2.5625709685127744,
2023-08-12 16:07:25.967000,-2.7228915662650603,-0.7590361445783133,9.481927710843374,-0.5861434702636419,-2.688534641324341,10.283261802575106,2.0,2.5575091575091573,391.00544256659987,-8.555095856884796,-3.7446535749664944,23.672862886778162,1323.076923076923,-1.0,60.7208375799129,2.5625264359833775,
2023-08-12 16:07:25.975000,-2.710843373493976,-0.783132530120482,9.457831325301205,-0.5665236051502146,-2.656652360515021,10.234212139791538,2.0,2.5575091575091573,391.00544256659987,-8.310821047724492,-3.332439834508479,23.52019113105297,1323.8095238095236,-1.0,60.7208375799129,2.562481932315418,
2023-08-12 16:07:25.982000,-2.771084337349398,-0.8072289156626506,9.481927710843374,-0.6695278969957081,-2.676272225628449,10.226854690374003,2.0,2.5575091575091573,391.00544256659987,-7.700134024823727,-3.4545772390886316,23.36751937532778,1327.4725274725274,-1.0,60.7208375799129,2.5624374519796804,
2023-08-12 16:07:25.990000,-2.7590361445783134,-0.8433734939759037,9.481927710843374,-0.627835683629675,-2.678724708767627,10.251379521765788,2.0,2.5575091575091573,391.00544256659987,-7.3489889866557885,-3.775187926111532,23.169046092885033,1333.3333333333333,-1.0,60.7208375799129,2.5623929895013506,
2023-08-12 16:07:25.998000,-2.746987951807229,-0.8674698795180723,9.493975903614459,-0.6621704475781729,-2.683629675045984,10.214592274678111,2.0,2.5575091575091573,391.00544256659987,-7.33372181108327,-4.569081055882525,22.711030825709457,1341.3919413919414,-1.0,60.7208375799129,2.5623485394759826,
2023-08-12 16:07:26.005000,-2.662650602409639,-0.8433734939759037,9.46987951807229,-0.6768853464132434,-2.6002452483139176,10.27835683629675,2.0,2.5589743589743588,390.78156312625254,-7.33372181108327,-4.569081055882525,22.711030825709457,1353.113553113553,-1.0,60.7208375799129,2.5623040965850845,
2023-08-12 16:07:26.013000,-2.602409638554217,-0.8795180722891567,9.457831325301205,-0.7357449417535254,-2.484978540772532,10.172900061312077,2.0,2.5575091575091573,391.00544256659987,-6.936775246197773,-5.057630674203136,22.604160596701824,1368.4981684981683,-1.0,60.7208375799129,2.5622596561039654,
2023-08-12 16:07:26.021000,-2.5421686746987953,-0.8915662650602411,9.433734939759036,-0.7112201103617413,-2.448191293684856,10.207234825260576,2.0,2.5575091575091573,391.00544256659987,-6.432958452304644,-5.011829147485578,22.52782471883923,1384.6153846153845,-1.0,60.7208375799129,2.5622152134960907,
2023-08-12 16:07:26.028000,-2.5060240963855422,-0.9156626506024097,9.44578313253012,-0.7136725935009196,-2.404046597179644,10.275904353157571,2.0,2.5575091575091573,391.00544256659987,-6.371889750014567,-5.347707010080998,22.268282734106407,1402.9304029304028,-1.0,60.7208375799129,2.5621707639030755,
2023-08-12 16:07:26.036000,-2.4819277108433737,-0.9036144578313253,9.44578313253012,-0.7234825260576333,-2.448191293684856,10.246474555487431,2.0,2.5575091575091573,391.00544256659987,-6.051279062991667,-4.4164093001573335,21.99347357380106,1419.7802197802198,-1.0,60.7208375799129,2.5621263030751833,
2023-08-12 16:07:26.044000,-2.5060240963855422,-0.8795180722891567,9.421686746987952,-0.6646229307173512,-2.367259350091968,10.145922746781116,2.0,2.5575091575091573,391.00544256659987,-5.440592040090904,-3.866790979546647,21.85606899364839,1435.164835164835,-1.0,60.7208375799129,2.5620818273185315,
2023-08-12 16:07:26.051000,-2.4698795180722892,-0.8674698795180723,9.433734939759036,-0.6523605150214592,-2.455548743102391,10.194972409564684,2.0,2.5575091575091573,391.00544256659987,-4.860439368335178,-3.332439834508479,21.275916321892666,1450.5494505494505,-1.0,60.7208375799129,2.5620373330208257,
2023-08-12 16:07:26.059000,-2.5060240963855422,-0.8433734939759037,9.433734939759036,-0.615573267933783,-2.4506437768240343,10.224402207234824,2.0,2.5575091575091573,391.00544256659987,-5.318454635510751,-3.6377833459588604,21.18431326845755,1463.7362637362637,-1.0,60.7208375799129,2.5619928162109455,
2023-08-12 16:07:26.066000,-2.4457831325301207,-0.819277108433735,9.421686746987952,-0.6474555487431024,-2.4285714285714284,10.175352544451256,2.0,2.5575091575091573,391.00544256659987,-4.936775246197774,-4.47747800244741,20.573626245556788,1472.5274725274724,-1.0,60.7208375799129,2.5619482731006,
2023-08-12 16:07:26.074000,-2.397590361445783,-0.8313253012048193,9.433734939759036,-0.6425505824647455,-2.3525444512568976,10.141017780502759,2.0,2.5575091575091573,391.00544256659987,-4.6619660858924306,-4.706485636035197,20.420954489831598,1478.3882783882782,-1.0,60.7208375799129,2.561903700521045,
2023-08-12 16:07:26.082000,-2.3493975903614457,-0.8313253012048193,9.409638554216867,-0.6057633353770693,-2.274064990803188,10.165542611894542,2.0,2.5575091575091573,391.00544256659987,-4.478759979022201,-4.81335586504283,19.825534642503353,1481.3186813186812,-1.0,60.7208375799129,2.561859095445787,
2023-08-12 16:07:26.089000,-2.325301204819277,-0.783132530120482,9.3855421686747,-0.6082158185162476,-2.2225628448804415,10.18761496014715,2.0,2.556043956043956,391.22957867583835,-3.8375386049763995,-4.355340597867258,19.23011479517511,1480.5860805860805,-1.0,60.7208375799129,2.5618144545472155,
2023-08-12 16:07:26.097000,-2.313253012048193,-0.7349397590361446,9.409638554216867,-0.5787860208461066,-2.2397302268546904,10.18270999386879,2.0,2.556043956043956,391.22957867583835,-3.516927917953499,-4.4164093001573335,18.51255754326671,1477.6556776556777,-1.0,60.7208375799129,2.5617697747006165,
2023-08-12 16:07:26.105000,-2.289156626506024,-0.7228915662650602,9.409638554216867,-0.42427958307786634,-2.227467811158798,10.1704475781729,2.0,2.556043956043956,391.22957867583835,-3.4558592156634225,-4.2942718955771815,17.932404871510986,1468.8644688644688,1057.06787109375,56.76078295513598,2.5617250532787494,
2023-08-12 16:07:26.112000,-2.313253012048193,-0.7228915662650602,9.3855421686747,-0.5150214592274678,-2.2225628448804415,10.172900061312077,2.0,2.5575091575091573,391.00544256659987,-3.0894470019229647,-3.7904551016840515,16.86370258143465,1457.142857142857,-1.0,56.76078295513598,2.5616802871780315,
2023-08-12 16:07:26.120000,-2.27710843373494,-0.6987951807228916,9.421686746987952,-0.4537093807480073,-2.2004904966278356,10.177805027590434,2.0,2.5575091575091573,391.00544256659987,-3.3642561622283083,-3.4545772390886316,16.00874074937358,1443.2234432234432,-1.0,56.76078295513598,2.561635473388015,
2023-08-12 16:07:26.128000,-2.3012048192771086,-0.6987951807228916,9.457831325301205,-0.46842427958307786,-2.1980380134886572,10.155732679337829,2.0,2.5575091575091573,391.00544256659987,-2.99784394848785,-3.332439834508479,15.138511741739991,1431.5018315018315,-1.0,56.76078295513598,2.5615906095596146,
2023-08-12 16:07:26.135000,-2.2650602409638556,-0.6867469879518072,9.433734939759036,-0.4537093807480073,-2.215205395462906,10.214592274678111,2.0,2.5575091575091573,391.00544256659987,-2.7230347881825065,-2.4316764757298532,14.756832352427015,1422.7106227106226,-1.0,56.76078295513598,2.561545693555021,
2023-08-12 16:07:26.143000,-2.3012048192771086,-0.674698795180723,9.44578313253012,-0.4757817290006131,-2.232372777437155,10.148375229920294,2.0,2.5575091575091573,391.00544256659987,-2.7230347881825065,-2.4927451780199292,13.856068993648389,1416.117216117216,-1.0,56.76078295513598,2.561500723455022,
2023-08-12 16:07:26.151000,-2.289156626506024,-0.6506024096385542,9.44578313253012,-0.4193746167995095,-2.2176578786020844,10.175352544451256,2.0,2.5575091575091573,391.00544256659987,-2.3108210477244913,-2.279004720004662,13.123244566167473,1411.7216117216117,-1.0,56.76078295513598,2.5614556975659863,
2023-08-12 16:07:26.158000,-2.3012048192771086,-0.6265060240963856,9.433734939759036,-0.41446965052115264,-2.227467811158798,10.143470263641937,2.0,2.556043956043956,391.22957867583835,-2.1581492919993006,-2.2942718955771815,12.237748382961366,1409.5238095238094,-1.0,56.76078295513598,2.561410614426538,
2023-08-12 16:07:26.166000,-2.325301204819277,-0.6385542168674699,9.457831325301205,-0.40465971796443895,-2.2225628448804415,10.133660331085224,2.0,2.556043956043956,391.22957867583835,-2.265019521006934,-2.0957986131344333,11.688130062350679,1410.989010989011,-1.0,56.76078295513598,2.5613654723213717,
2023-08-12 16:07:26.174000,-2.3012048192771086,-0.6385542168674699,9.433734939759036,-0.42918454935622313,-2.22501532801962,10.15328019619865,2.0,2.556043956043956,391.22957867583835,-1.8070042538313615,-2.080531437561914,11.031641512732358,1411.7216117216117,-1.0,56.76078295513598,2.561320269215411,
2023-08-12 16:07:26.181000,-2.313253012048193,-0.6265060240963856,9.44578313253012,-0.43899448191293683,-2.2519926425505825,10.141017780502759,2.0,2.5575091575091573,391.00544256659987,-1.486393566808461,-1.851523803974128,9.871336169220909,1413.1868131868132,-1.0,56.76078295513598,2.56127500321241,
2023-08-12 16:07:26.189000,-2.325301204819277,-0.6024096385542169,9.44578313253012,-0.4316370324954016,-2.2765174739423664,10.126302881667687,2.0,2.556043956043956,391.22957867583835,-1.3947905133733463,-1.9583940329817615,9.107977390594954,1413.1868131868132,-1.0,56.76078295513598,2.561229673047764,
2023-08-12 16:07:26.197000,-2.325301204819277,-0.6144578313253012,9.409638554216867,-0.45861434702636417,-2.2519926425505825,10.209687308399754,2.0,2.556043956043956,391.22957867583835,-1.532195093526018,-1.683584872676418,8.84843540586213,1415.3846153846152,-1.0,56.76078295513598,2.5611842776676603,
2023-08-12 16:07:26.204000,-2.313253012048193,-0.6385542168674699,9.433734939759036,-0.43899448191293683,-2.283874923359902,10.236664622930716,2.0,2.556043956043956,391.22957867583835,-1.7917370782588424,-1.347707010080998,8.222481207388848,1416.8498168498168,-1.0,56.76078295513598,2.561138815703823,
2023-08-12 16:07:26.212000,-2.3373493975903616,-0.6385542168674699,9.433734939759036,-0.38749233599019006,-2.2814224402207235,10.18516247700797,2.0,2.556043956043956,391.22957867583835,-0.8757065439076975,-1.7751879261115324,7.474389604335411,1418.3150183150183,-1.0,56.76078295513598,2.5610932859309243,
