Shimmer_F5D4_Timestamp_FormattedUnix_CAL,Shimmer_F5D4_Accel_LN_X_CAL,Shimmer_F5D4_Accel_LN_Y_CAL,Shimmer_F5D4_Accel_LN_Z_CAL,Shimmer_F5D4_Accel_WR_X_CAL,Shimmer_F5D4_Accel_WR_Y_CAL,Shimmer_F5D4_Accel_WR_Z_CAL,Shimmer_F5D4_GSR_Range_CAL,Shimmer_F5D4_GSR_Skin_Conductance_CAL,Shimmer_F5D4_GSR_Skin_Resistance_CAL,Shimmer_F5D4_Gyro_X_CAL,Shimmer_F5D4_Gyro_Y_CAL,Shimmer_F5D4_Gyro_Z_CAL,Shimmer_F5D4_PPG_A13_CAL,Shimmer_F5D4_PPG_IBI_CAL,Shimmer_F5D4_PPGtoHR_CAL,Shimmer_F5D4_GSR_Skin_Conductance_LPF_CAL,
yyyy/mm/dd hh:mm:ss.000,m/(s^2),m/(s^2),m/(s^2),m/(s^2),m/(s^2),m/(s^2),no_units,uS,kOhms,deg/s,deg/s,deg/s,mV,ms,BPM,uS,
2023-08-17 13:05:28.767000,-8.891566265060241,-1.5421686746987953,-3.855421686746988,-1.4739423666462292,-8.746167995095034,-3.5119558553034946,2.0,1.6915750915750918,591.1650064963187,0.020395081871686302,-0.09067070683526607,-0.14789347940096742,1353.113553113553,-1.0,60.253754213913574,1.6914005856901766,
2023-08-17 13:05:28.775000,-8.867469879518072,-1.5542168674698795,-3.879518072289157,-1.4984671980380133,-8.724095646842427,-3.494788473329246,2.0,1.6915750915750918,591.1650064963187,-0.07295612143814421,-0.36244974069110264,0.14358137637666823,1339.194139194139,-1.0,60.253754213913574,1.6913971028412358,
2023-08-17 13:05:28.782000,-8.879518072289157,-1.5421686746987953,-3.855421686746988,-1.5107296137339055,-8.694665849172287,-3.524218270999387,2.0,1.6915750915750918,591.1650064963187,-0.11549443505623284,-0.25115086533418857,-0.160829788473865,1323.8095238095236,-1.0,60.253754213913574,1.6913936764787996,
2023-08-17 13:05:28.790000,-8.855421686746988,-1.5542168674698795,-3.879518072289157,-1.5058246474555486,-8.71919068056407,-3.502145922746781,2.0,1.6915750915750918,591.1650064963187,0.32806945982168817,-0.33762601247013585,-0.03787658061884518,1309.1575091575091,-1.0,60.253754213913574,1.6913903008313504,
2023-08-17 13:05:28.798000,-8.831325301204819,-1.5783132530120483,-3.8674698795180724,-1.5524218270999386,-8.746167995095034,-3.524218270999387,2.0,1.6901098901098905,591.6775032509752,-0.19555969931822195,-0.13693840685274666,-0.039624730493560766,1296.7032967032967,-1.0,60.253754213913574,1.69138697014411,
2023-08-17 13:05:28.805000,-8.855421686746988,-1.566265060240964,-3.91566265060241,-1.5058246474555486,-8.726548129981605,-3.5634580012262416,2.0,1.6901098901098905,591.6775032509752,-0.2419439426606834,-0.28891090262805247,-0.07190723151331495,1284.9816849816848,-1.0,60.253754213913574,1.6913836782029439,
2023-08-17 13:05:28.813000,-8.867469879518072,-1.5421686746987953,-3.891566265060241,-1.525444512568976,-8.733905579399142,-3.595340282035561,2.0,1.6915750915750918,591.1650064963187,-0.0734222947380693,0.12446827107977461,-0.0713245148884099,1274.7252747252746,-1.0,60.253754213913574,1.6913804178205696,
2023-08-17 13:05:28.821000,-8.855421686746988,-1.566265060240964,-3.891566265060241,-1.4396076026977314,-8.75107296137339,-3.531575720416922,2.0,1.6915750915750918,591.1650064963187,0.04789930656721578,-0.030883981119980676,-0.14626187285123224,1266.6666666666665,-1.0,60.253754213913574,1.6913771818647394,
2023-08-17 13:05:28.828000,-8.867469879518072,-1.5542168674698795,-3.891566265060241,-1.5058246474555486,-8.694665849172287,-3.543838136112814,2.0,1.6901098901098905,591.6775032509752,-0.07528698793776616,-0.10826874890740709,-0.03845929724375023,1261.5384615384614,-1.0,60.253754213913574,1.691373964286157,
2023-08-17 13:05:28.836000,-8.855421686746988,-1.5421686746987953,-3.855421686746988,-1.5475168608215817,-8.753525444512569,-3.524218270999387,2.0,1.6901098901098905,591.6775032509752,0.04778276324223494,0.04416992016782207,0.1142124584814406,1258.6080586080586,-1.0,60.253754213913574,1.6913707591112013,
2023-08-17 13:05:28.844000,-8.855421686746988,-1.566265060240964,-3.9036144578313254,-1.4543225015328018,-8.770692826486817,-3.531575720416922,2.0,1.6915750915750918,591.1650064963187,-0.27306101043062747,0.22702639706310856,-0.16176213507371343,1255.6776556776556,-1.0,60.253754213913574,1.6913675594344195,
2023-08-17 13:05:28.851000,-8.867469879518072,-1.5421686746987953,-3.891566265060241,-1.4641324340895157,-8.75107296137339,-3.5413856529736356,2.0,1.6901098901098905,591.6775032509752,0.03496299749431863,0.042654856943067726,-0.11479517510634565,1252.7472527472526,-1.0,60.253754213913574,1.6913643584457694,
2023-08-17 13:05:28.859000,-8.855421686746988,-1.5421686746987953,-3.9036144578313254,-1.5082771305947271,-8.721643163703249,-3.5389331698344573,2.0,1.6915750915750918,591.1650064963187,0.2010372355923317,-0.01829730202202604,0.11677641163102377,1250.5494505494505,-1.0,60.253754213913574,1.6913611504228672,
2023-08-17 13:05:28.867000,-8.867469879518072,-1.5421686746987953,-3.9036144578313254,-1.466584917228694,-8.731453096259962,-3.4874310239117103,2.0,1.6901098901098905,591.6775032509752,0.029951634520132248,-0.4784103490472588,-0.17423227084668724,1245.4212454212454,-1.0,60.253754213913574,1.69135793011097,
2023-08-17 13:05:28.874000,-8.855421686746988,-1.5421686746987953,-3.879518072289157,-1.4984671980380133,-8.75107296137339,-3.507050889025138,2.0,1.6915750915750918,591.1650064963187,0.04556844006759558,-0.27795583007983304,-0.033564477594545554,1241.7582417582416,-1.0,60.253754213913574,1.6913546913976654,
2023-08-17 13:05:28.882000,-8.855421686746988,-1.530120481927711,-3.8674698795180724,-1.449417535254445,-8.817290006131207,-3.502145922746781,2.0,1.6915750915750918,591.1650064963187,-0.25756074820814673,-0.24485752578521125,-0.1409008799021038,1239.5604395604396,-1.0,60.253754213913574,1.6913514278485506,
2023-08-17 13:05:28.889000,-8.843373493975903,-1.566265060240964,-3.91566265060241,-1.4935622317596566,-8.721643163703249,-3.526670754138565,2.0,1.6915750915750918,591.1650064963187,-0.07132451488840903,0.06479808868947004,-0.033447934269564716,1237.3626373626373,-1.0,60.253754213913574,1.6913481337331326,
2023-08-17 13:05:28.897000,-8.843373493975903,-1.5421686746987953,-3.879518072289157,-1.4886572654812997,-8.714285714285714,-3.5217657878602084,2.0,1.6915750915750918,591.1650064963187,-0.06841093176388291,0.06444845871452753,-0.032981760969640506,1235.164835164835,-1.0,60.253754213913574,1.691344803575641,
2023-08-17 13:05:28.905000,-8.855421686746988,-1.5421686746987953,-3.855421686746988,-1.4984671980380133,-8.721643163703249,-3.497240956468424,2.0,1.6915750915750918,591.1650064963187,0.146028786201271,0.32515587669716206,-0.13705495017772837,1232.967032967033,-1.0,60.253754213913574,1.6913414321643048,
2023-08-17 13:05:28.912000,-8.855421686746988,-1.5421686746987953,-3.855421686746988,-1.525444512568976,-8.814837522992029,-3.536480686695279,2.0,1.6915750915750918,591.1650064963187,0.11479517510634608,0.036128430744128734,0.23250393333721828,1233.6996336996335,-1.0,60.253754213913574,1.69133801456123,
2023-08-17 13:05:28.920000,-8.855421686746988,-1.566265060240964,-3.879518072289157,-1.461679950950337,-8.768240343347639,-3.524218270999387,2.0,1.6915750915750918,591.1650064963187,-0.16013052852397824,0.06596352193928014,-0.10570479575782304,1232.967032967033,-1.0,60.253754213913574,1.6913345461128675,
2023-08-17 13:05:28.928000,-8.879518072289157,-1.5542168674698795,-3.8674698795180724,-1.4469650521152666,-8.733905579399142,-3.531575720416922,2.0,1.6915750915750918,591.1650064963187,0.03927510051861826,0.0791329176621407,0.1692209078725017,1234.4322344322343,-1.0,60.253754213913574,1.6913310229189398,
2023-08-17 13:05:28.935000,-8.879518072289157,-1.5542168674698795,-3.855421686746988,-1.5352544451256898,-8.748620478234212,-3.5217657878602084,2.0,1.6901098901098905,591.6775032509752,-0.022725948371306502,0.001631606549735182,-0.24404172251034323,1235.8974358974358,-1.0,60.253754213913574,1.69132744131891,
2023-08-17 13:05:28.943000,-8.867469879518072,-1.5421686746987953,-3.855421686746988,-1.5352544451256898,-8.692213366033108,-3.556100551808706,2.0,1.6915750915750918,591.1650064963187,0.024823728220966765,0.12272012120505858,-0.07377192471301224,1235.8974358974358,-1.0,60.253754213913574,1.6913237969903154,
2023-08-17 13:05:28.951000,-8.867469879518072,-1.5421686746987953,-3.879518072289157,-1.4518700183936235,-8.743715511955855,-3.5757204169221333,2.0,1.6915750915750918,591.1650064963187,-0.5092943301672395,-0.15185595245032324,-0.17982635044577824,1236.6300366300366,-1.0,60.253754213913574,1.6913200858738453,
2023-08-17 13:05:28.958000,-8.855421686746988,-1.5542168674698795,-3.879518072289157,-1.5156345800122624,-8.675045984058858,-3.5217657878602084,2.0,1.6915750915750918,591.1650064963187,-0.350562321543033,0.27748965677990794,-0.1941611794184489,1234.4322344322343,-1.0,60.253754213913574,1.6913163051680615,
2023-08-17 13:05:28.966000,-8.867469879518072,-1.5421686746987953,-3.927710843373494,-1.496014714898835,-8.733905579399142,-3.5291232372777435,2.0,1.6915750915750918,591.1650064963187,0.004661732999242137,-0.14870928267583544,-0.2542975351086768,1230.03663003663,-1.0,60.253754213913574,1.6913124523584906,
2023-08-17 13:05:28.974000,-8.855421686746988,-1.566265060240964,-3.891566265060241,-1.4567749846719804,-8.763335377069282,-3.5193133047210297,2.0,1.6915750915750918,591.1650064963187,0.15896509527416816,0.2805197832294149,-0.23634986306159328,1224.1758241758241,-1.0,60.253754213913574,1.6913085248089013,
2023-08-17 13:05:28.981000,-8.855421686746988,-1.5421686746987953,-3.879518072289157,-1.4812998160637645,-8.692213366033108,-3.5340282035561,2.0,1.6915750915750918,591.1650064963187,0.12994580735388434,0.01911310529689363,0.05500844939106112,1217.5824175824175,-1.0,60.253754213913574,1.6913045202659724,
2023-08-17 13:05:28.989000,-8.855421686746988,-1.5421686746987953,-3.891566265060241,-1.4543225015328018,-8.704475781729,-3.526670754138565,2.0,1.6915750915750918,591.1650064963187,0.25219975525901783,0.11188159198181996,-0.05244449624147795,1214.6520146520145,-1.0,60.253754213913574,1.6913004373293203,
2023-08-17 13:05:28.997000,-8.843373493975903,-1.5542168674698795,-3.891566265060241,-1.4984671980380133,-8.76578786020846,-3.497240956468424,2.0,1.6915750915750918,591.1650064963187,0.20604859856651633,0.12714876755433904,0.025289901520890546,1213.1868131868132,-1.0,60.253754213913574,1.6912962749386067,
2023-08-17 13:05:29.004000,-8.843373493975903,-1.5421686746987953,-3.9036144578313254,-1.4984671980380133,-8.731453096259962,-3.514408338442673,2.0,1.6901098901098905,591.6775032509752,-0.2540644484587147,0.0658469786142993,-0.06782821513897787,1210.989010989011,-1.0,60.253754213913574,1.691292032422512,
2023-08-17 13:05:29.012000,-8.867469879518072,-1.5421686746987953,-3.891566265060241,-1.4837522992029428,-8.758430410790925,-3.56591048436542,2.0,1.6915750915750918,591.1650064963187,0.11491171843132691,-0.46745527649903934,0.0857758871860614,1210.989010989011,-1.0,60.253754213913574,1.6912877094429537,
2023-08-17 13:05:29.020000,-8.879518072289157,-1.5421686746987953,-3.8674698795180724,-1.4935622317596566,-8.704475781729,-3.556100551808706,2.0,1.6915750915750918,591.1650064963187,0.14393100635161074,-0.023192121671231584,-0.17446535749664935,1213.1868131868132,-1.0,60.253754213913574,1.691283306396317,
2023-08-17 13:05:29.027000,-8.879518072289157,-1.5421686746987953,-3.879518072289157,-1.5033721643163702,-8.675045984058858,-3.5119558553034946,2.0,1.6915750915750918,591.1650064963187,0.05384301614125059,0.007342229473806583,-0.08134724083678094,1214.6520146520145,-1.0,60.253754213913574,1.691278824427408,
2023-08-17 13:05:29.035000,-8.843373493975903,-1.5542168674698795,-3.891566265060241,-1.542611894543225,-8.684855916615573,-3.5634580012262416,2.0,1.6915750915750918,591.1650064963187,0.2518501252840736,0.17364955422178133,0.010139269273352298,1215.3846153846152,-1.0,60.253754213913574,1.691274264563364,
2023-08-17 13:05:29.043000,-8.879518072289157,-1.5542168674698795,-3.879518072289157,-1.5156345800122624,-8.716738197424892,-3.5683629675045982,2.0,1.6915750915750918,591.1650064963187,0.1571004020744713,0.3243400734222945,0.1030242992832586,1215.3846153846152,-1.0,60.253754213913574,1.6912696282174318,
2023-08-17 13:05:29.050000,-8.867469879518072,-1.5542168674698795,-3.855421686746988,-1.5082771305947271,-8.755977927651747,-3.5462906192519923,2.0,1.6915750915750918,591.1650064963187,0.016432608822329185,0.03321484761960261,-0.03507954081929947,1214.6520146520145,-1.0,60.253754213913574,1.6912649171988376,
2023-08-17 13:05:29.058000,-8.879518072289157,-1.5421686746987953,-3.8674698795180724,-1.491109748620478,-8.760882893930104,-3.507050889025138,2.0,1.6915750915750918,591.1650064963187,0.12318629450498193,-0.010955072548219456,-0.03309830429462134,1212.4542124542124,-1.0,60.253754213913574,1.6912601332634636,
2023-08-17 13:05:29.066000,-8.867469879518072,-1.5542168674698795,-3.8674698795180724,-1.5475168608215817,-8.768240343347639,-3.5389331698344573,2.0,1.6915750915750918,591.1650064963187,0.1386865567274627,0.09661441640930088,0.08822329701066374,1206.5934065934066,-1.0,60.253754213913574,1.6912552786461366,
2023-08-17 13:05:29.073000,-8.879518072289157,-1.5542168674698795,-3.8674698795180724,-1.471489883507051,-8.792765174739424,-3.5708154506437766,2.0,1.6915750915750918,591.1650064963187,-0.07668550783753793,0.27795583007983304,-0.15721694539945213,1200.7326007326008,-1.0,60.253754213913574,1.6912503560295644,
2023-08-17 13:05:29.081000,-8.879518072289157,-1.5542168674698795,-3.91566265060241,-1.5082771305947271,-8.763335377069282,-3.531575720416922,2.0,1.6915750915750918,591.1650064963187,-0.09195268341005701,0.03041780782005733,0.08775712371073952,1196.3369963369962,-1.0,60.253754213913574,1.691245368581603,
2023-08-17 13:05:29.089000,-8.867469879518072,-1.5421686746987953,-3.9036144578313254,-1.5009196811771919,-8.738810545677499,-3.637032495401594,2.0,1.6915750915750918,591.1650064963187,0.01654915214731002,-0.09171959676009533,0.027271138045568237,1192.6739926739926,-1.0,60.253754213913574,1.6912403203795998,
2023-08-17 13:05:29.096000,-8.855421686746988,-1.5542168674698795,-3.8674698795180724,-1.4297976701410178,-8.702023298589822,-3.5511955855303494,2.0,1.6930402930402932,590.6533967979229,-0.014101742322708983,-0.30499388147543915,-0.14031816327719832,1190.4761904761904,-1.0,60.253754213913574,1.6912352159199415,
2023-08-17 13:05:29.104000,-8.843373493975903,-1.566265060240964,-3.879518072289157,-1.4862047823421214,-8.731453096259962,-3.5413856529736356,2.0,1.6915750915750918,591.1650064963187,-0.043936833517860395,-0.07225686148825747,0.07552007458772783,1186.8131868131868,-1.0,60.253754213913574,1.6912300606112294,
2023-08-17 13:05:29.112000,-8.879518072289157,-1.5542168674698795,-3.8674698795180724,-1.5107296137339055,-8.731453096259962,-3.5757204169221333,2.0,1.6930402930402932,590.6533967979229,-0.17877746052094853,-0.05535807936600493,-0.13868655672746355,1182.4175824175823,-1.0,60.253754213913574,1.6912248598946782,
2023-08-17 13:05:29.119000,-8.855421686746988,-1.5542168674698795,-3.891566265060241,-1.4690374003678723,-8.733905579399142,-3.6100551808706314,2.0,1.6915750915750918,591.1650064963187,0.08239613076161106,0.1906648796690164,-0.21409008799021054,1181.6849816849815,-1.0,60.253754213913574,1.6912196197343639,
2023-08-17 13:05:29.127000,-8.831325301204819,-1.5542168674698795,-3.891566265060241,-1.5524218270999386,-8.714285714285714,-3.548743102391171,2.0,1.6930402930402932,590.6533967979229,0.06561389196433763,0.3426373754443222,-0.3052269681254004,1185.3479853479853,-1.0,60.253754213913574,1.6912143470714498,
2023-08-17 13:05:29.135000,-8.819277108433736,-1.566265060240964,-3.91566265060241,-1.4739423666462292,-8.704475781729,-3.548743102391171,2.0,1.6915750915750918,591.1650064963187,0.1409008799021038,-0.07027562496357977,-0.13658877687780416,1189.7435897435896,-1.0,60.253754213913574,1.6912090492941612,
2023-08-17 13:05:29.142000,-8.855421686746988,-1.566265060240964,-3.891566265060241,-1.437155119558553,-8.748620478234212,-3.536480686695279,2.0,1.6930402930402932,590.6533967979229,-0.16805547462269074,-0.19404463609346762,-0.3182798205232797,1194.1391941391942,-1.0,60.253754213913574,1.691203734268324,
2023-08-17 13:05:29.150000,-8.843373493975903,-1.566265060240964,-3.891566265060241,-1.5475168608215817,-8.711833231146535,-3.5119558553034946,2.0,1.6930402930402932,590.6533967979229,-0.060136355690227905,0.14078433657712294,-0.04125633704329595,1199.2673992673992,-1.0,60.253754213913574,1.6911984102967155,
2023-08-17 13:05:29.158000,-8.855421686746988,-1.5542168674698795,-3.8674698795180724,-1.4935622317596566,-8.721643163703249,-3.4800735744941753,2.0,1.6915750915750918,591.1650064963187,0.3218926635976917,-0.1361226035778808,-0.07015908163859894,1203.6630036630036,-1.0,60.253754213913574,1.691193086638901,
2023-08-17 13:05:29.165000,-8.855421686746988,-1.566265060240964,-3.879518072289157,-1.5475168608215817,-8.775597792765174,-3.5634580012262416,2.0,1.6915750915750918,591.1650064963187,0.41046559058329923,0.04813239321717919,-0.11572752170619408,1208.058608058608,-1.0,60.253754213913574,1.6911877725540088,
2023-08-17 13:05:29.173000,-8.855421686746988,-1.5542168674698795,-3.8674698795180724,-1.5401594114040464,-8.748620478234212,-3.504598405885959,2.0,1.6930402930402932,590.6533967979229,0.4059204009090379,0.04813239321717919,-0.11584406503117535,1210.2564102564102,-1.0,60.253754213913574,1.6911824776782791,
2023-08-17 13:05:29.181000,-8.843373493975903,-1.5421686746987953,-3.879518072289157,-1.491109748620478,-8.741263028816677,-3.5291232372777435,2.0,1.6930402930402932,590.6533967979229,0.21898490763941522,0.12295320785502026,-0.09917836955888362,1210.989010989011,-1.0,60.253754213913574,1.6911772128931946,
2023-08-17 13:05:29.188000,-8.855421686746988,-1.5542168674698795,-3.891566265060241,-1.4641324340895157,-8.792765174739424,-3.514408338442673,2.0,1.6930402930402932,590.6533967979229,0.01829730202202604,-0.048015849892196615,-0.03484645416933736,1210.989010989011,-1.0,60.253754213913574,1.6911719894341661,
2023-08-17 13:05:29.196000,-8.855421686746988,-1.5542168674698795,-3.891566265060241,-1.5033721643163702,-8.746167995095034,-3.56591048436542,2.0,1.6930402930402932,590.6533967979229,-0.39379989511100666,0.27341064040557,-0.14008507662723618,1208.7912087912086,-1.0,60.253754213913574,1.6911668184897837,
2023-08-17 13:05:29.204000,-8.855421686746988,-1.5421686746987953,-3.9036144578313254,-1.4862047823421214,-8.795217657878602,-3.514408338442673,2.0,1.6930402930402932,590.6533967979229,0.08204650078666682,-0.1571004020744713,-0.18553697336985006,1207.3260073260074,-1.0,60.253754213913574,1.6911617116779636,
2023-08-17 13:05:29.211000,-8.867469879518072,-1.5542168674698795,-3.8674698795180724,-1.5107296137339055,-8.758430410790925,-3.5217657878602084,2.0,1.6930402930402932,590.6533967979229,0.021560515121496402,0.12050579803041749,0.2751587902802869,1205.8608058608058,1026.42822265625,58.45513468514004,1.691156681027989,
2023-08-17 13:05:29.219000,-8.891566265060241,-1.5542168674698795,-3.91566265060241,-1.5475168608215817,-8.775597792765174,-3.5462906192519923,2.0,1.6930402930402932,590.6533967979229,0.09777984965911098,-0.1545364489248877,-0.10698677233261486,1205.128205128205,-1.0,58.45513468514004,1.6911517389611455,
2023-08-17 13:05:29.227000,-8.879518072289157,-1.566265060240964,-3.891566265060241,-1.5033721643163702,-8.746167995095034,-3.5879828326180254,2.0,1.6930402930402932,590.6533967979229,-0.19334537614358085,-0.04603461336751892,-0.16607423809801306,1201.4652014652013,-1.0,58.45513468514004,1.6911468982699673,
2023-08-17 13:05:29.234000,-8.867469879518072,-1.5421686746987953,-3.891566265060241,-1.471489883507051,-8.785407725321887,-3.6051502145922747,2.0,1.6930402930402932,590.6533967979229,0.18938290309422548,0.15185595245032324,-0.2870462094283552,1194.1391941391942,-1.0,58.45513468514004,1.691142172096145,
2023-08-17 13:05:29.242000,-8.867469879518072,-1.566265060240964,-3.891566265060241,-1.5009196811771919,-8.73635806253832,-3.5413856529736356,2.0,1.6930402930402932,590.6533967979229,-0.009440009323466846,-0.3091894411747562,0.2643202610570478,1185.3479853479853,-1.0,58.45513468514004,1.69113757390712,
2023-08-17 13:05:29.250000,-8.855421686746988,-1.566265060240964,-3.891566265060241,-1.5156345800122624,-8.753525444512569,-3.543838136112814,2.0,1.6930402930402932,590.6533967979229,-0.20628168521647974,-0.015616805547461593,0.06386574208962162,1178.021978021978,-1.0,58.45513468514004,1.6911331174714102,
2023-08-17 13:05:29.257000,-8.855421686746988,-1.566265060240964,-3.8674698795180724,-1.5058246474555486,-8.738810545677499,-3.5634580012262416,2.0,1.6930402930402932,590.6533967979229,0.13181050055358118,-0.016316065497348348,-0.06083561564011423,1172.8937728937728,-1.0,58.45513468514004,1.691128816832721,
2023-08-17 13:05:29.265000,-8.843373493975903,-1.566265060240964,-3.891566265060241,-1.5107296137339055,-8.68976088289393,-3.5193133047210297,2.0,1.6930402930402932,590.6533967979229,-0.022959035021269912,-0.09125342346017198,-0.029718547870170576,1171.4285714285713,-1.0,58.45513468514004,1.6911246862828777,
2023-08-17 13:05:29.272000,-8.843373493975903,-1.566265060240964,-3.879518072289157,-1.4788473329245861,-8.714285714285714,-3.5511955855303494,2.0,1.6930402930402932,590.6533967979229,0.11479517510634608,-0.27387681370549505,-0.028436571295379204,1169.230769230769,-1.0,58.45513468514004,1.691120740333647,
2023-08-17 13:05:29.280000,-8.843373493975903,-1.566265060240964,-3.8674698795180724,-1.4518700183936235,-8.724095646842427,-3.524218270999387,2.0,1.6930402930402932,590.6533967979229,-0.0067595128489024,-0.04859856651710253,0.03321484761960261,1169.9633699633698,-1.0,58.45513468514004,1.691116993687501,
2023-08-17 13:05:29.288000,-8.843373493975903,-1.5783132530120483,-3.8674698795180724,-1.5450643776824033,-8.760882893930104,-3.507050889025138,2.0,1.6930402930402932,590.6533967979229,-0.236233319736612,0.05535807936600493,0.10873492220733044,1172.8937728937728,-1.0,58.45513468514004,1.691113461207378,
2023-08-17 13:05:29.295000,-8.867469879518072,-1.5783132530120483,-3.8674698795180724,-1.5156345800122624,-8.741263028816677,-3.4898835070508887,2.0,1.6930402930402932,590.6533967979229,0.09941145620884616,0.14218285647689471,0.3066254880251735,1177.2893772893772,-1.0,58.45513468514004,1.6911101578855225,
2023-08-17 13:05:29.303000,-8.879518072289157,-1.566265060240964,-3.9036144578313254,-1.5082771305947271,-8.684855916615573,-3.5413856529736356,2.0,1.6930402930402932,590.6533967979229,0.005011362974186382,-0.3034788182506848,-0.1360060602528991,1183.150183150183,-1.0,58.45513468514004,1.691107098811454,
2023-08-17 13:05:29.311000,-8.867469879518072,-1.5542168674698795,-3.855421686746988,-1.4788473329245861,-8.733905579399142,-3.5585530349478844,2.0,1.6930402930402932,590.6533967979229,-0.08694132043587237,-0.07132451488840903,0.18402191014509658,1189.7435897435896,-1.0,58.45513468514004,1.6911042991391492,
2023-08-17 13:05:29.318000,-8.867469879518072,-1.5421686746987953,-3.879518072289157,-1.554874310239117,-8.76578786020846,-3.5757204169221333,2.0,1.6930402930402932,590.6533967979229,-0.17819474389604262,-0.37223937998951023,0.10920109550725465,1198.5347985347985,-1.0,58.45513468514004,1.6911017745113872,
2023-08-17 13:05:29.326000,-8.891566265060241,-1.5542168674698795,-3.879518072289157,-1.5009196811771919,-8.760882893930104,-3.497240956468424,2.0,1.6930402930402932,590.6533967979229,0.03834275391876983,-0.21385700134024802,0.2936891789522755,1208.058608058608,-1.0,58.45513468514004,1.691099540958325,
2023-08-17 13:05:29.334000,-8.891566265060241,-1.5421686746987953,-3.8674698795180724,-1.5009196811771919,-8.748620478234212,-3.5389331698344573,2.0,1.6930402930402932,590.6533967979229,-0.06701241186411114,-0.2371656663364604,0.1842549967950587,1214.6520146520145,-1.0,58.45513468514004,1.6910976139165226,
2023-08-17 13:05:29.341000,-8.855421686746988,-1.5542168674698795,-3.9036144578313254,-1.5058246474555486,-8.746167995095034,-3.543838136112814,2.0,1.6930402930402932,590.6533967979229,-0.11374628518151682,-0.2921741157275211,-0.030883981119981543,1219.047619047619,-1.0,58.45513468514004,1.6910960082646396,
2023-08-17 13:05:29.349000,-8.855421686746988,-1.5421686746987953,-3.879518072289157,-1.5033721643163702,-8.746167995095034,-3.5879828326180254,2.0,1.6930402930402932,590.6533967979229,-0.008391119398635847,-0.21315774139036126,-0.12155468795524718,1221.245421245421,-1.0,58.45513468514004,1.6910947387792223,
2023-08-17 13:05:29.357000,-8.843373493975903,-1.5421686746987953,-3.855421686746988,-1.5156345800122624,-8.682403433476395,-3.4580012262415694,2.0,1.6930402930402932,590.6533967979229,0.23355282326204754,-0.10418973253306914,0.0327486743196784,1219.7802197802198,-1.0,58.45513468514004,1.6910938200975227,
2023-08-17 13:05:29.364000,-8.855421686746988,-1.5421686746987953,-3.891566265060241,-1.4592274678111588,-8.729000613120784,-3.5462906192519923,2.0,1.6945054945054945,590.1426718547341,0.38319445253773143,-0.13600606025289824,-0.07330575141308802,1217.5824175824175,-1.0,58.45513468514004,1.6910932666801435,
2023-08-17 13:05:29.372000,-8.843373493975903,-1.530120481927711,-3.91566265060241,-1.5058246474555486,-8.729000613120784,-3.504598405885959,2.0,1.6945054945054945,590.1426718547341,0.16490880484820297,-0.44379698152788266,-0.014567915622632762,1215.3846153846152,-1.0,58.45513468514004,1.6910930928083943,
2023-08-17 13:05:29.380000,-8.867469879518072,-1.5180722891566265,-3.91566265060241,-1.471489883507051,-8.753525444512569,-3.5585530349478844,2.0,1.6945054945054945,590.1426718547341,0.17761202727113842,-0.15581842549968036,-0.09183614008507661,1213.1868131868132,-1.0,58.45513468514004,1.691093313144203,
2023-08-17 13:05:29.387000,-8.867469879518072,-1.5180722891566265,-3.9036144578313254,-1.4052728387492335,-8.768240343347639,-3.578172900061312,2.0,1.6945054945054945,590.1426718547341,0.1574500320494138,-0.23471825651185765,-0.2114095915156461,1210.2564102564102,-1.0,58.45513468514004,1.691093942661658,
2023-08-17 13:05:29.395000,-8.855421686746988,-1.5180722891566265,-3.891566265060241,-1.5229920294297976,-8.731453096259962,-3.5413856529736356,2.0,1.6945054945054945,590.1426718547341,0.051395606316647816,-0.12854728745411081,0.1877512965444903,1205.8608058608058,-1.0,58.45513468514004,1.691094996124144,
2023-08-17 13:05:29.403000,-8.867469879518072,-1.5542168674698795,-3.891566265060241,-1.5744941753525443,-8.731453096259962,-3.543838136112814,2.0,1.6945054945054945,590.1426718547341,-0.3147835207738485,-0.2018530388671993,0.11129887535691405,1204.3956043956043,-1.0,58.45513468514004,1.6910964880550725,
2023-08-17 13:05:29.410000,-8.843373493975903,-1.5421686746987953,-3.891566265060241,-1.5229920294297976,-8.790312691600246,-3.5193133047210297,2.0,1.6945054945054945,590.1426718547341,-0.052211409591515406,0.0020977798496585277,-0.056640055940795866,1205.8608058608058,-1.0,58.45513468514004,1.6910984327096084,
2023-08-17 13:05:29.418000,-8.867469879518072,-1.566265060240964,-3.9036144578313254,-1.5107296137339055,-8.758430410790925,-3.47271612507664,2.0,1.6945054945054945,590.1426718547341,-0.15733348872443298,-0.023891381621118337,0.14241594312685726,1211.7216117216117,-1.0,58.45513468514004,1.6911008440474375,
2023-08-17 13:05:29.426000,-8.867469879518072,-1.5542168674698795,-3.8674698795180724,-1.4935622317596566,-8.748620478234212,-3.5168608215818513,2.0,1.6945054945054945,590.1426718547341,0.0882232970106633,0.4526542742264436,0.4181574500320492,1225.6410256410256,-1.0,58.45513468514004,1.6911037357066376,
2023-08-17 13:05:29.433000,-8.879518072289157,-1.5542168674698795,-3.843373493975904,-1.5107296137339055,-8.795217657878602,-3.4825260576333537,2.0,1.6945054945054945,590.1426718547341,0.07388846803799265,0.3621001107161584,0.050113629741856444,1251.2820512820513,-1.0,58.45513468514004,1.691107120978674,
2023-08-17 13:05:29.441000,-8.903614457831326,-1.5542168674698795,-3.8192771084337354,-1.5450643776824033,-8.748620478234212,-3.497240956468424,2.0,1.6945054945054945,590.1426718547341,-0.15337101567507758,0.27073014393100553,-0.2562787716333545,1291.5750915750914,-1.0,58.45513468514004,1.6911110127845632,
2023-08-17 13:05:29.449000,-8.927710843373495,-1.5421686746987953,-3.843373493975904,-1.471489883507051,-8.738810545677499,-3.4898835070508887,2.0,1.6945054945054945,590.1426718547341,-0.15337101567507758,0.27259483713070415,-0.25522988170852523,1349.4505494505493,-1.0,58.45513468514004,1.6911154236522181,
2023-08-17 13:05:29.456000,-8.891566265060241,-1.5421686746987953,-3.855421686746988,-1.5328019619865112,-8.741263028816677,-3.502145922746781,2.0,1.6945054945054945,590.1426718547341,0.229706893537673,-0.20057106229240662,-0.2692150807062525,1427.8388278388277,-1.0,58.45513468514004,1.6911203656949942,
2023-08-17 13:05:29.464000,-8.879518072289157,-1.5542168674698795,-3.8674698795180724,-1.542611894543225,-8.731453096259962,-3.462906192519926,2.0,1.6930402930402932,590.6533967979229,-0.0010488899248292638,-0.49006468154536503,-0.2670007575316123,1523.0769230769229,-1.0,58.45513468514004,1.691125850591448,
2023-08-17 13:05:29.472000,-8.855421686746988,-1.5542168674698795,-3.891566265060241,-1.5450643776824033,-8.714285714285714,-3.5413856529736356,2.0,1.6945054945054945,590.1426718547341,-0.18635277664471853,-0.5676825359827513,-0.1890332731192821,1635.164835164835,-1.0,58.45513468514004,1.6911318895314946,
2023-08-17 13:05:29.479000,-8.807228915662652,-1.5542168674698795,-3.891566265060241,-1.4984671980380133,-8.733905579399142,-3.5708154506437766,2.0,1.6945054945054945,590.1426718547341,-0.20080414894237003,-0.6120855428005368,-0.1580327486743197,1758.2417582417581,-1.0,58.45513468514004,1.6911384935518066,
2023-08-17 13:05:29.487000,-8.831325301204819,-1.5421686746987953,-3.91566265060241,-1.4641324340895157,-8.71919068056407,-3.5511955855303494,2.0,1.6945054945054945,590.1426718547341,-0.2631548278072373,-0.33424625604568464,-0.20465007866674456,1884.9816849816848,-1.0,58.45513468514004,1.6911456735552697,
2023-08-17 13:05:29.495000,-8.843373493975903,-1.5421686746987953,-3.91566265060241,-1.5229920294297976,-8.733905579399142,-3.5757204169221333,2.0,1.6959706959706962,589.63282937365,-0.2939222656022371,-0.058388205815511886,-0.3709574034147193,2004.3956043956043,-1.0,58.45513468514004,1.6911534393827852,
2023-08-17 13:05:29.502000,-8.819277108433736,-1.5421686746987953,-3.9036144578313254,-1.5328019619865112,-8.714285714285714,-3.5757204169221333,2.0,1.6959706959706962,589.63282937365,-0.0941670065846981,-0.025056814870928437,0.07575316123768994,2112.8205128205127,-1.0,58.45513468514004,1.6911618003612514,
2023-08-17 13:05:29.510000,-8.807228915662652,-1.5542168674698795,-3.9036144578313254,-1.5156345800122624,-8.684855916615573,-3.5119558553034946,2.0,1.6959706959706962,589.63282937365,-0.01666569547229259,0.37422061651418964,0.12306975118000109,2202.197802197802,-1.0,58.45513468514004,1.6911707658526922,
2023-08-17 13:05:29.518000,-8.843373493975903,-1.566265060240964,-3.8674698795180724,-1.4935622317596566,-8.645616186388718,-3.494788473329246,2.0,1.6945054945054945,590.1426718547341,0.33517860264553306,0.5266592855894171,0.4433308082279589,2269.5970695970695,-1.0,58.45513468514004,1.6911803447873612,
2023-08-17 13:05:29.525000,-8.879518072289157,-1.5421686746987953,-3.855421686746988,-1.5303494788473329,-8.753525444512569,-3.5683629675045982,2.0,1.6959706959706962,589.63282937365,0.10430627585804997,0.6190781422993992,-0.2751587902802869,2313.5531135531132,-1.0,58.45513468514004,1.691190545163774,
2023-08-17 13:05:29.533000,-8.855421686746988,-1.566265060240964,-3.891566265060241,-1.5033721643163702,-8.731453096259962,-3.5119558553034946,2.0,1.6959706959706962,589.63282937365,0.12085542800536173,0.220383427539187,0.09381737660975473,2336.263736263736,-1.0,58.45513468514004,1.6912013744635883,
2023-08-17 13:05:29.541000,-8.879518072289157,-1.5783132530120483,-3.843373493975904,-1.4886572654812997,-8.790312691600246,-3.5095033721643163,2.0,1.6959706959706962,589.63282937365,0.2870462094283556,-0.20593205524153552,-0.1816910436454751,2339.9267399267396,-1.0,58.45513468514004,1.6912128401721156,
2023-08-17 13:05:29.548000,-8.867469879518072,-1.566265060240964,-3.855421686746988,-1.471489883507051,-8.738810545677499,-3.4874310239117103,2.0,1.6959706959706962,589.63282937365,0.17807820057106177,0.28261756307907515,-0.36384826059087483,2323.809523809524,-1.0,58.45513468514004,1.6912249493174227,
2023-08-17 13:05:29.556000,-8.879518072289157,-1.566265060240964,-3.855421686746988,-1.5009196811771919,-8.763335377069282,-3.4996934396076025,2.0,1.6959706959706962,589.63282937365,0.1298292640289035,0.0025639531495836093,-0.16187867839869471,2289.3772893772893,-1.0,58.45513468514004,1.6912377084687975,
2023-08-17 13:05:29.564000,-8.903614457831326,-1.566265060240964,-3.8313253012048194,-1.5695892090741874,-8.785407725321887,-3.5217657878602084,2.0,1.6959706959706962,589.63282937365,-0.25383136180875304,-0.09102033681020859,-0.4204883165316707,2238.8278388278386,-1.0,58.45513468514004,1.6912511237366474,
2023-08-17 13:05:29.571000,-8.903614457831326,-1.5542168674698795,-3.855421686746988,-1.461679950950337,-8.770692826486817,-3.5119558553034946,2.0,1.6959706959706962,589.63282937365,-0.40510459763417034,0.21397354466522883,-0.06281685216479235,2175.091575091575,-1.0,58.45513468514004,1.6912652007737212,
2023-08-17 13:05:29.579000,-8.867469879518072,-1.5542168674698795,-3.8674698795180724,-1.5082771305947271,-8.775597792765174,-3.585530349478847,2.0,1.6959706959706962,589.63282937365,-0.09754676300914931,-0.5683817959326382,-0.12283666453003898,2101.8315018315016,-1.0,58.45513468514004,1.6912799447775484,
2023-08-17 13:05:29.587000,-8.855421686746988,-1.5421686746987953,-3.8674698795180724,-1.4886572654812997,-8.748620478234212,-3.5634580012262416,2.0,1.6959706959706962,589.63282937365,0.16176213507371343,-0.3066254880251726,-0.5025348173183379,2024.1758241758241,-1.0,58.45513468514004,1.6912953604940077,
2023-08-17 13:05:29.594000,-8.855421686746988,-1.5421686746987953,-3.879518072289157,-1.4739423666462292,-8.748620478234212,-3.543838136112814,2.0,1.6959706959706962,589.63282937365,0.20546588194161217,-0.2292407202377479,-0.1611794184488084,1946.5201465201465,-1.0,58.45513468514004,1.6913114522218826,
2023-08-17 13:05:29.602000,-8.855421686746988,-1.5421686746987953,-3.879518072289157,-1.4420600858369097,-8.79767014101778,-3.5511955855303494,2.0,1.6959706959706962,589.63282937365,-0.04195559699318271,0.03041780782005733,-0.05500844939106112,1872.5274725274724,-1.0,58.45513468514004,1.691328223818298,
2023-08-17 13:05:29.610000,-8.831325301204819,-1.5421686746987953,-3.9036144578313254,-1.5352544451256898,-8.704475781729,-3.5511955855303494,2.0,1.6959706959706962,589.63282937365,-0.04125633704329595,0.0010488899248292638,0.021094341821572188,1805.8608058608058,-1.0,58.45513468514004,1.691345678704905,
2023-08-17 13:05:29.617000,-8.831325301204819,-1.5542168674698795,-3.9036144578313254,-1.4812998160637645,-8.699570815450643,-3.595340282035561,2.0,1.6945054945054945,590.1426718547341,0.022259775071383155,-0.11910727813064571,-0.16001398519899784,1749.4505494505493,-1.0,58.45513468514004,1.6913638198746823,
2023-08-17 13:05:29.625000,-8.831325301204819,-1.5542168674698795,-3.855421686746988,-1.5205395462906193,-8.724095646842427,-3.494788473329246,2.0,1.6945054945054945,590.1426718547341,-0.09894528290892109,0.22015034088922533,-0.11328011188159218,1704.7619047619046,-1.0,58.45513468514004,1.6913826498644253,
2023-08-17 13:05:29.633000,-8.843373493975903,-1.5421686746987953,-3.91566265060241,-1.5303494788473329,-8.738810545677499,-3.561005518087063,2.0,1.6959706959706962,589.63282937365,0.16246139502360019,-0.02330866499621242,-0.005827166249053105,1674.7252747252746,-1.0,58.45513468514004,1.6914021706229339,
2023-08-17 13:05:29.640000,-8.855421686746988,-1.5542168674698795,-3.855421686746988,-1.5180870631514407,-8.755977927651747,-3.5389331698344573,2.0,1.6959706959706962,589.63282937365,0.08635860381096644,0.07144105821339161,-0.2505681487092827,1654.9450549450548,-1.0,58.45513468514004,1.6914223835175783,
2023-08-17 13:05:29.648000,-8.891566265060241,-1.5421686746987953,-3.8674698795180724,-1.5107296137339055,-8.792765174739424,-3.5340282035561,2.0,1.6959706959706962,589.63282937365,0.21036070159081596,0.10162577938348553,-0.12679913757939523,1643.956043956044,-1.0,58.45513468514004,1.6914432894791254,
2023-08-17 13:05:29.655000,-8.879518072289157,-1.5421686746987953,-3.8674698795180724,-1.4862047823421214,-8.785407725321887,-3.531575720416922,2.0,1.6959706959706962,589.63282937365,0.1637433715983911,-0.2802866965794532,-0.0027970397995452823,1637.3626373626373,-1.0,58.45513468514004,1.691464889041891,
2023-08-17 13:05:29.663000,-8.867469879518072,-1.5542168674698795,-3.855421686746988,-1.5499693439607602,-8.79767014101778,-3.5806253832004904,2.0,1.6959706959706962,589.63282937365,0.16432608822329706,-0.1545364489248877,-0.1717848610220849,1630.7692307692307,-1.0,58.45513468514004,1.6914871823489932,
2023-08-17 13:05:29.671000,-8.855421686746988,-1.5542168674698795,-3.879518072289157,-1.5082771305947271,-8.724095646842427,-3.4923359901900675,2.0,1.6959706959706962,589.63282937365,0.06969290833867559,-0.2160713245148891,-0.13985198997727408,1624.9084249084249,-1.0,58.45513468514004,1.6915101691573742,
2023-08-17 13:05:29.678000,-8.855421686746988,-1.5542168674698795,-3.891566265060241,-1.5107296137339055,-8.721643163703249,-3.5511955855303494,2.0,1.6959706959706962,589.63282937365,-0.053493386166308075,-0.30837363789988864,0.013169395722860121,1616.8498168498168,-1.0,58.45513468514004,1.6915338488425218,
2023-08-17 13:05:29.686000,-8.867469879518072,-1.566265060240964,-3.891566265060241,-1.5156345800122624,-8.71919068056407,-3.5413856529736356,2.0,1.6959706959706962,589.63282937365,-0.20744711846628985,-0.1713186877221611,0.08845638366062585,1606.5934065934066,-1.0,58.45513468514004,1.691558220402778,
2023-08-17 13:05:29.694000,-8.879518072289157,-1.5421686746987953,-3.879518072289157,-1.496014714898835,-8.71919068056407,-3.504598405885959,2.0,1.6959706959706962,589.63282937365,0.06852747508886375,-0.01713186877221594,-0.0652642619893947,1591.9413919413919,-1.0,58.45513468514004,1.6915832824631614,
2023-08-17 13:05:29.701000,-8.843373493975903,-1.5542168674698795,-3.891566265060241,-1.5033721643163702,-8.741263028816677,-3.5683629675045982,2.0,1.6959706959706962,589.63282937365,0.2505681487092827,-0.27376027038051426,-0.09463317988462189,1578.021978021978,-1.0,58.45513468514004,1.6916090332786244,
2023-08-17 13:05:29.709000,-8.831325301204819,-1.5421686746987953,-3.8674698795180724,-1.4690374003678723,-8.770692826486817,-3.524218270999387,2.0,1.6959706959706962,589.63282937365,0.11153196200687572,-0.08845638366062497,0.15348755900005842,1564.102564102564,-1.0,58.45513468514004,1.691635470736664,
2023-08-17 13:05:29.717000,-8.855421686746988,-1.5421686746987953,-3.879518072289157,-1.5180870631514407,-8.76578786020846,-3.497240956468424,2.0,1.6959706959706962,589.63282937365,0.2793543499796048,0.049880543091895206,0.01643260882232962,1547.2527472527472,-1.0,58.45513468514004,1.6916625923592357,
2023-08-17 13:05:29.724000,-8.855421686746988,-1.566265060240964,-3.879518072289157,-1.5303494788473329,-8.782955242182709,-3.5119558553034946,2.0,1.6959706959706962,589.63282937365,0.27748965677990794,0.05326029951634467,0.016549152147310887,1530.4029304029302,-1.0,58.45513468514004,1.6916903953038889,
2023-08-17 13:05:29.732000,-8.891566265060241,-1.5783132530120483,-3.8674698795180724,-1.5082771305947271,-8.790312691600246,-3.5511955855303494,2.0,1.6959706959706962,589.63282937365,0.12132160130528508,0.08414428063632708,0.27690694015500245,1511.3553113553112,-1.0,58.45513468514004,1.6917188763641113,
2023-08-17 13:05:29.740000,-8.867469879518072,-1.5542168674698795,-3.8674698795180724,-1.4567749846719804,-8.785407725321887,-3.5193133047210297,2.0,1.6974358974358976,589.1238670694863,0.05955363906532199,-0.06701241186411114,-0.19800710914282388,1493.7728937728937,-1.0,58.45513468514004,1.6917480324266752,
2023-08-17 13:05:29.747000,-8.855421686746988,-1.566265060240964,-3.879518072289157,-1.525444512568976,-8.741263028816677,-3.556100551808706,2.0,1.6959706959706962,589.63282937365,-0.01713186877221594,-0.05116251966668614,-0.12050579803041792,1480.5860805860805,-1.0,58.45513468514004,1.691777860437789,
2023-08-17 13:05:29.755000,-8.855421686746988,-1.566265060240964,-3.9036144578313254,-1.5499693439607602,-8.770692826486817,-3.5291232372777435,2.0,1.6959706959706962,589.63282937365,-0.04545189674261474,0.11619369500611786,-0.1174756715809101,1469.5970695970695,-1.0,58.45513468514004,1.6918083565591926,
2023-08-17 13:05:29.763000,-8.867469879518072,-1.566265060240964,-3.9036144578313254,-1.5205395462906193,-8.711833231146535,-3.5708154506437766,2.0,1.6974358974358976,589.1238670694863,-0.12062234135539832,0.11479517510634608,-0.09976108618378868,1462.2710622710622,-1.0,58.45513468514004,1.6918395161324598,
2023-08-17 13:05:29.770000,-8.855421686746988,-1.566265060240964,-3.8674698795180724,-1.4592274678111588,-8.748620478234212,-3.5757204169221333,2.0,1.6959706959706962,589.63282937365,-0.07470427131286024,-0.374686789814113,-0.09638132975933791,1452.7472527472526,-1.0,58.45513468514004,1.6918713346253798,
2023-08-17 13:05:29.778000,-8.867469879518072,-1.566265060240964,-3.8674698795180724,-1.4690374003678723,-8.755977927651747,-3.5757204169221333,2.0,1.6959706959706962,589.63282937365,-0.25732766155818504,-0.08192995746168598,-0.17236757764699037,1444.6886446886447,-1.0,58.45513468514004,1.6919038076642499,
2023-08-17 13:05:29.786000,-8.843373493975903,-1.5542168674698795,-3.891566265060241,-1.5156345800122624,-8.758430410790925,-3.5462906192519923,2.0,1.6959706959706962,589.63282937365,-0.02703805139560613,0.09964454285880783,-0.19975525901753988,1438.8278388278388,-1.0,58.45513468514004,1.691936930436135,
2023-08-17 13:05:29.793000,-8.855421686746988,-1.5783132530120483,-3.879518072289157,-1.4984671980380133,-8.687308399754752,-3.5830778663396687,2.0,1.6959706959706962,589.63282937365,-0.3026630149758172,-0.3147835207738485,-0.1987063690927102,1435.8974358974358,-1.0,58.45513468514004,1.6919706976520854,
2023-08-17 13:05:29.801000,-8.831325301204819,-1.566265060240964,-3.9036144578313254,-1.5205395462906193,-8.684855916615573,-3.4776210913549965,2.0,1.6974358974358976,589.1238670694863,-0.0079249460987125,-0.1313443272536561,-0.013519025697803066,1435.164835164835,-1.0,58.45513468514004,1.6920051030857786,
2023-08-17 13:05:29.809000,-8.867469879518072,-1.566265060240964,-3.891566265060241,-1.554874310239117,-8.711833231146535,-3.4996934396076025,2.0,1.6959706959706962,589.63282937365,-0.2537148184837722,-0.1157275217061945,-0.5472874541110659,1435.8974358974358,-1.0,58.45513468514004,1.6920401401284644,
2023-08-17 13:05:29.816000,-8.831325301204819,-1.5783132530120483,-3.9036144578313254,-1.5033721643163702,-8.702023298589822,-3.5536480686695278,2.0,1.6974358974358976,589.1238670694863,-0.009440009323466846,0.1276149408542624,0.11362974185653511,1434.4322344322343,-1.0,58.45513468514004,1.6920758018504882,
2023-08-17 13:05:29.824000,-8.855421686746988,-1.566265060240964,-3.9036144578313254,-1.5180870631514407,-8.709380748007357,-3.5095033721643163,2.0,1.6974358974358976,589.1238670694863,-0.30009906182623364,-0.2995163452013294,-0.23809801293630886,1431.5018315018315,-1.0,58.45513468514004,1.6921120814159691,
2023-08-17 13:05:29.832000,-8.855421686746988,-1.566265060240964,-3.879518072289157,-1.5303494788473329,-8.75107296137339,-3.531575720416922,2.0,1.6974358974358976,589.1238670694863,-0.16013052852397824,-0.12913000407901673,0.00769185944874996,1426.3736263736262,-1.0,58.45513468514004,1.6921489720763914,
2023-08-17 13:05:29.839000,-8.843373493975903,-1.566265060240964,-3.8674698795180724,-1.5156345800122624,-8.724095646842427,-3.536480686695279,2.0,1.6974358974358976,589.1238670694863,0.09999417283375035,-0.02167705844647724,0.19136413961890317,1419.047619047619,-1.0,58.45513468514004,1.692186466285304,
2023-08-17 13:05:29.847000,-8.843373493975903,-1.5542168674698795,-3.879518072289157,-1.496014714898835,-8.753525444512569,-3.524218270999387,2.0,1.6974358974358976,589.1238670694863,0.31326845754909416,-0.036011887419147896,-0.052677582891440054,1409.5238095238094,-1.0,58.45513468514004,1.6922245561842242,
2023-08-17 13:05:29.855000,-8.867469879518072,-1.5783132530120483,-3.927710843373494,-1.5475168608215817,-8.763335377069282,-3.4825260576333537,2.0,1.6974358974358976,589.1238670694863,-0.04242177029310605,-0.17096905774721688,-0.022143231746401888,1398.5347985347985,-1.0,58.45513468514004,1.692263233596131,
2023-08-17 13:05:29.862000,-8.855421686746988,-1.5421686746987953,-3.879518072289157,-1.5401594114040464,-8.787860208461066,-3.573267933782955,2.0,1.6974358974358976,589.1238670694863,0.23285356331216078,-0.06200104888992476,0.023774838296136636,1387.5457875457876,-1.0,58.45513468514004,1.6923024900193124,
2023-08-17 13:05:29.870000,-8.891566265060241,-1.5542168674698795,-3.8674698795180724,-1.5303494788473329,-8.73635806253832,-3.5389331698344573,2.0,1.6974358974358976,589.1238670694863,0.049297826466989284,-0.04591807004253809,0.0710914282384478,1375.8241758241757,-1.0,58.45513468514004,1.6923423166216387,
2023-08-17 13:05:29.878000,-8.879518072289157,-1.566265060240964,-3.843373493975904,-1.4862047823421214,-8.770692826486817,-3.524218270999387,2.0,1.6974358974358976,589.1238670694863,0.23227084668725662,0.31769710389837463,0.14637841617621353,1364.8351648351647,-1.0,58.45513468514004,1.6923827042353494,
2023-08-17 13:05:29.885000,-8.891566265060241,-1.5421686746987953,-3.879518072289157,-1.5475168608215817,-8.733905579399142,-3.5389331698344573,2.0,1.6974358974358976,589.1238670694863,0.09335120330983052,-0.2512674086591694,-0.22061651418914996,1353.8461538461538,-1.0,58.45513468514004,1.69242364335243,
2023-08-17 13:05:29.893000,-8.879518072289157,-1.5421686746987953,-3.879518072289157,-1.5450643776824033,-8.768240343347639,-3.536480686695279,2.0,1.6974358974358976,589.1238670694863,0.227958743662957,-0.5408775712371069,0.009789639298409356,1342.8571428571427,-1.0,58.45513468514004,1.6924651241206394,
2023-08-17 13:05:29.901000,-8.855421686746988,-1.566265060240964,-3.855421686746988,-1.537706928264868,-8.800122624156959,-3.561005518087063,2.0,1.6974358974358976,589.1238670694863,0.02703805139560613,-0.2610570479575788,0.040790163743371737,1331.135531135531,-1.0,58.45513468514004,1.692507136340282,
2023-08-17 13:05:29.908000,-8.855421686746988,-1.566265060240964,-3.891566265060241,-1.4788473329245861,-8.706928264868179,-3.5389331698344573,2.0,1.6974358974358976,589.1238670694863,0.19404463609346762,0.01666569547229259,0.30056523512615824,1319.4139194139193,-1.0,58.45513468514004,1.6925496694617566,
2023-08-17 13:05:29.916000,-8.855421686746988,-1.566265060240964,-3.8674698795180724,-1.5892090741876148,-8.677498467198038,-3.526670754138565,2.0,1.6974358974358976,589.1238670694863,0.11712604160596629,-0.0874074937357957,-0.190548336344036,1309.1575091575091,-1.0,58.45513468514004,1.6925927125839706,
2023-08-17 13:05:29.924000,-8.843373493975903,-1.566265060240964,-3.879518072289157,-1.491109748620478,-8.716738197424892,-3.504598405885959,2.0,1.6959706959706962,589.63282937365,0.11689295495600462,-0.16234485169861934,-0.033914107569488934,1296.7032967032967,-1.0,58.45513468514004,1.6926362544536593,
2023-08-17 13:05:29.931000,-8.867469879518072,-1.5783132530120483,-3.855421686746988,-1.5401594114040464,-8.758430410790925,-3.5757204169221333,2.0,1.6974358974358976,589.1238670694863,0.022959035021269912,-0.4502068644018408,-0.3542917079424276,1287.9120879120878,-1.0,58.45513468514004,1.6926802834308576,
2023-08-17 13:05:29.939000,-8.855421686746988,-1.5783132530120483,-3.879518072289157,-1.5009196811771919,-8.68976088289393,-3.5757204169221333,2.0,1.6974358974358976,589.1238670694863,0.28238447642911174,-0.43039449915506045,-0.47165083619835685,1279.8534798534797,-1.0,58.45513468514004,1.6927247878433964,
2023-08-17 13:05:29.947000,-8.867469879518072,-1.5421686746987953,-3.891566265060241,-1.5450643776824033,-8.763335377069282,-3.5708154506437766,2.0,1.6974358974358976,589.1238670694863,0.050812889691743635,-0.27387681370549505,-0.1332090204533534,1272.5274725274724,-1.0,58.45513468514004,1.6927697555674426,
2023-08-17 13:05:29.954000,-8.855421686746988,-1.5421686746987953,-3.891566265060241,-1.466584917228694,-8.741263028816677,-3.5291232372777435,2.0,1.6974358974358976,589.1238670694863,0.05034671639181855,-0.48400442864634935,0.005477536274109728,1265.9340659340658,-1.0,58.45513468514004,1.692815173643274,
2023-08-17 13:05:29.962000,-8.867469879518072,-1.5421686746987953,-3.891566265060241,-1.4567749846719804,-8.79767014101778,-3.5340282035561,2.0,1.6974358974358976,589.1238670694863,-0.24427480916030533,-0.22131577413903541,-0.14777693607598616,1260.07326007326,-1.0,58.45513468514004,1.6928610287704968,
2023-08-17 13:05:29.970000,-8.867469879518072,-1.566265060240964,-3.843373493975904,-1.4886572654812997,-8.741263028816677,-3.561005518087063,2.0,1.6974358974358976,589.1238670694863,-0.23017306683759636,-0.01841384534700861,-0.528990152089039,1254.9450549450548,-1.0,58.45513468514004,1.692907307311742,
2023-08-17 13:05:29.977000,-8.843373493975903,-1.5542168674698795,-3.8674698795180724,-1.5009196811771919,-8.78050275904353,-3.5340282035561,2.0,1.6974358974358976,589.1238670694863,-0.13717149350271007,-0.3851756890624091,-0.2665345842316881,1252.7472527472526,-1.0,58.45513468514004,1.6929539952975277,
2023-08-17 13:05:29.985000,-8.867469879518072,-1.5421686746987953,-3.8674698795180724,-1.5597792765174738,-8.82709993868792,-3.504598405885959,2.0,1.6974358974358976,589.1238670694863,-0.013169395722860555,-0.5779383485810858,-0.1280811141541866,1252.014652014652,-1.0,58.45513468514004,1.693001078432305,
2023-08-17 13:05:29.993000,-8.855421686746988,-1.566265060240964,-3.8674698795180724,-1.491109748620478,-8.763335377069282,-3.494788473329246,2.0,1.6974358974358976,589.1238670694863,-0.027737311345492885,-0.3284190897966324,-0.20220266884214222,1249.084249084249,-1.0,58.45513468514004,1.6930485421017119,
2023-08-17 13:05:30,-8.855421686746988,-1.5421686746987953,-3.8674698795180724,-1.5033721643163702,-8.697118332311465,-3.4996934396076025,2.0,1.6974358974358976,589.1238670694863,-0.04125633704329595,-0.431210302429928,-0.06281685216479235,1244.6886446886447,-1.0,58.45513468514004,1.6930963713810236,
2023-08-17 13:05:30.008000,-8.855421686746988,-1.566265060240964,-3.8674698795180724,-1.5328019619865112,-8.755977927651747,-3.5413856529736356,2.0,1.6974358974358976,589.1238670694863,-0.0397412738185416,-0.4261989394557434,-0.06130178894003844,1241.0256410256409,-1.0,58.45513468514004,1.693144551044814,
2023-08-17 13:05:30.015000,-8.879518072289157,-1.566265060240964,-3.8674698795180724,-1.4763948497854076,-8.699570815450643,-3.5511955855303494,2.0,1.6974358974358976,589.1238670694863,-0.16385991492337196,-0.055241536041024095,-0.02995163452013268,1238.095238095238,-1.0,58.45513468514004,1.693193065577788,
2023-08-17 13:05:30.023000,-8.879518072289157,-1.5783132530120483,-3.843373493975904,-1.537706928264868,-8.741263028816677,-3.507050889025138,2.0,1.6974358974358976,589.1238670694863,-0.13157741390361952,-0.1339082804032397,-0.2877454693782415,1234.4322344322343,-1.0,58.45513468514004,1.6932418991868035,
2023-08-17 13:05:30.031000,-8.879518072289157,-1.566265060240964,-3.8313253012048194,-1.5450643776824033,-8.755977927651747,-3.5291232372777435,2.0,1.6974358974358976,589.1238670694863,-0.11456208845638441,0.17306683759687713,-0.42340189965619723,1232.2344322344322,-1.0,58.45513468514004,1.6932910358140154,
2023-08-17 13:05:30.038000,-8.843373493975903,-1.5903614457831325,-3.879518072289157,-1.5499693439607602,-8.748620478234212,-3.4898835070508887,2.0,1.6974358974358976,589.1238670694863,-0.052561039566459654,-0.28541460287862047,-0.11456208845638355,1231.5018315018315,-1.0,58.45513468514004,1.6933404591511274,
2023-08-17 13:05:30.046000,-8.855421686746988,-1.5783132530120483,-3.8674698795180724,-1.5180870631514407,-8.748620478234212,-3.462906192519926,2.0,1.6974358974358976,589.1238670694863,0.08682477711089152,-0.08262921741157274,-0.28063632655439663,1231.5018315018315,-1.0,58.45513468514004,1.6933901526547077,
2023-08-17 13:05:30.054000,-8.843373493975903,-1.566265060240964,-3.855421686746988,-1.5401594114040464,-8.65787860208461,-3.543838136112814,2.0,1.6974358974358976,589.1238670694863,-0.23355282326204754,-0.5824835382553472,-0.3073247479750598,1231.5018315018315,-1.0,58.45513468514004,1.6934400995625027,
2023-08-17 13:05:30.061000,-8.831325301204819,-1.5903614457831325,-3.8192771084337354,-1.5352544451256898,-8.709380748007357,-3.504598405885959,2.0,1.6974358974358976,589.1238670694863,-0.21665404113979328,0.049064739817027615,-0.15162286580036113,1232.967032967033,-1.0,58.45513468514004,1.693490282910711,
2023-08-17 13:05:30.069000,-8.855421686746988,-1.5903614457831325,-3.843373493975904,-1.5695892090741874,-8.724095646842427,-3.536480686695279,2.0,1.6989010989010989,588.6157826649418,-0.09218577006002042,-0.07260649146320171,-0.21082687489074062,1232.967032967033,-1.0,58.45513468514004,1.6935406860100024,
2023-08-17 13:05:30.077000,-8.855421686746988,-1.5903614457831325,-3.8674698795180724,-1.5695892090741874,-8.775597792765174,-3.497240956468424,2.0,1.6959706959706962,589.63282937365,-0.07540353126274699,-0.31466697744886596,-0.36023541751646154,1229.3040293040292,-1.0,58.45513468514004,1.6935912924320295,
2023-08-17 13:05:30.084000,-8.855421686746988,-1.5903614457831325,-3.855421686746988,-1.5744941753525443,-8.773145309625995,-3.5757204169221333,2.0,1.6974358974358976,589.1238670694863,0.09230231338500125,-0.3397237923197944,-0.18973253306916843,1222.7106227106226,-1.0,58.45513468514004,1.6936420851527265,
2023-08-17 13:05:30.092000,-8.855421686746988,-1.5903614457831325,-3.8674698795180724,-1.5524218270999386,-8.733905579399142,-3.6419374616799507,2.0,1.6974358974358976,589.1238670694863,-0.1994056290425965,0.030534351145038167,-0.2476545655847561,1216.8498168498168,-1.0,58.45513468514004,1.6936930468934106,
2023-08-17 13:05:30.100000,-8.855421686746988,-1.5783132530120483,-3.843373493975904,-1.4347026364193745,-8.706928264868179,-3.5413856529736356,2.0,1.6989010989010989,588.6157826649418,-0.014801002272594002,-0.07621933453761458,0.13717149350270966,1213.9194139194137,-1.0,58.45513468514004,1.6937441606356525,
2023-08-17 13:05:30.107000,-8.843373493975903,-1.5903614457831325,-3.855421686746988,-1.567136725935009,-8.731453096259962,-3.4702636419374615,2.0,1.6974358974358976,589.1238670694863,0.09183614008507618,0.10628751238272767,-0.29135831245265437,1213.1868131868132,-1.0,58.45513468514004,1.6937954096804262,
2023-08-17 13:05:30.115000,-8.855421686746988,-1.5783132530120483,-3.8313253012048194,-1.5867565910484365,-8.738810545677499,-3.536480686695279,2.0,1.6989010989010989,588.6157826649418,0.044752636792727986,0.2433424625604569,0.2621059378824076,1215.3846153846152,-1.0,58.45513468514004,1.693846776793862,
2023-08-17 13:05:30.123000,-8.867469879518072,-1.5783132530120483,-3.855421686746988,-1.4837522992029428,-8.760882893930104,-3.5119558553034946,2.0,1.6989010989010989,588.6157826649418,-0.552648447060194,-0.048015849892196615,-0.16735621467280487,1216.8498168498168,-1.0,58.45513468514004,1.6938982447242903,
2023-08-17 13:05:30.130000,-8.867469879518072,-1.5903614457831325,-3.855421686746988,-1.6161863887185774,-8.800122624156959,-3.5095033721643163,2.0,1.6989010989010989,588.6157826649418,-0.05955363906532199,-0.12155468795524675,-0.2887943593030708,1218.3150183150183,-1.0,58.45513468514004,1.6939497971773636,
2023-08-17 13:05:30.138000,-8.879518072289157,-1.5903614457831325,-3.8313253012048194,-1.567136725935009,-8.76578786020846,-3.502145922746781,2.0,1.6989010989010989,588.6157826649418,0.21595478118990652,0.21886836431443438,-0.1657246081230697,1219.047619047619,-1.0,58.45513468514004,1.6940014174372686,
2023-08-17 13:05:30.146000,-8.879518072289157,-1.5903614457831325,-3.855421686746988,-1.4984671980380133,-8.714285714285714,-3.4996934396076025,2.0,1.6989010989010989,588.6157826649418,-0.15127323582541732,0.12609987762950806,-0.4392517918536214,1217.5824175824175,-1.0,58.45513468514004,1.69405308846361,
2023-08-17 13:05:30.153000,-8.855421686746988,-1.5903614457831325,-3.843373493975904,-1.5744941753525443,-8.768240343347639,-3.536480686695279,2.0,1.6989010989010989,588.6157826649418,-0.2890274459530333,0.06363265543965994,-0.16246139502360019,1214.6520146520145,-1.0,58.45513468514004,1.6941047938671951,
2023-08-17 13:05:30.161000,-8.843373493975903,-1.5903614457831325,-3.8674698795180724,-1.5058246474555486,-8.746167995095034,-3.497240956468424,2.0,1.6989010989010989,588.6157826649418,-0.28751238272827895,0.14160013985199055,-0.06887710506380713,1214.6520146520145,-1.0,58.45513468514004,1.6941565178684654,
2023-08-17 13:05:30.169000,-8.855421686746988,-1.5903614457831325,-3.8313253012048194,-1.5328019619865112,-8.782955242182709,-3.5095033721643163,2.0,1.6989010989010989,588.6157826649418,-0.4052211409591512,0.23215430336227577,-0.09836256628401603,1213.1868131868132,-1.0,58.45513468514004,1.694208244377267,
2023-08-17 13:05:30.176000,-8.903614457831326,-1.566265060240964,-3.843373493975904,-1.537706928264868,-8.721643163703249,-3.502145922746781,2.0,1.6989010989010989,588.6157826649418,-0.3686265369150974,-0.05827166249053105,-0.14323174640172487,1210.989010989011,-1.0,58.45513468514004,1.6942599575478652,
2023-08-17 13:05:30.184000,-8.855421686746988,-1.5903614457831325,-3.8674698795180724,-1.5401594114040464,-8.748620478234212,-3.531575720416922,2.0,1.6989010989010989,588.6157826649418,-0.08799021036070162,0.01992890857176122,-0.15721694539945213,1208.7912087912086,-1.0,58.45513468514004,1.6943116417715263,
2023-08-17 13:05:30.192000,-8.831325301204819,-1.5783132530120483,-3.891566265060241,-1.567136725935009,-8.755977927651747,-3.5291232372777435,2.0,1.6989010989010989,588.6157826649418,-0.22306392401375144,-0.20721403181632816,-0.24730493560981315,1208.7912087912086,-1.0,58.45513468514004,1.6943632817382868,
2023-08-17 13:05:30.199000,-8.831325301204819,-1.5903614457831325,-3.8674698795180724,-1.5278969957081545,-8.704475781729,-3.497240956468424,2.0,1.6989010989010989,588.6157826649418,-0.1906648796690164,-0.052211409591515406,-0.1682885612726533,1209.5238095238094,-1.0,58.45513468514004,1.6944148628865987,
2023-08-17 13:05:30.207000,-8.843373493975903,-1.5903614457831325,-3.8192771084337354,-1.5843041079092581,-8.679950950337217,-3.5585530349478844,2.0,1.6989010989010989,588.6157826649418,0.06736204183905366,-0.0027970397995452823,-0.12120505798030425,1210.2564102564102,-1.0,58.45513468514004,1.6944663709389254,
2023-08-17 13:05:30.215000,-8.855421686746988,-1.5783132530120483,-3.843373493975904,-1.5695892090741874,-8.753525444512569,-3.497240956468424,2.0,1.6989010989010989,588.6157826649418,-0.17679622399627085,0.2720121205057982,0.016782238797272562,1211.7216117216117,-1.0,58.45513468514004,1.6945177914710907,
2023-08-17 13:05:30.222000,-8.867469879518072,-1.5903614457831325,-3.843373493975904,-1.5229920294297976,-8.755977927651747,-3.5413856529736356,2.0,1.6989010989010989,588.6157826649418,-0.5111590233669363,0.2720121205057982,-0.13285939047841044,1213.1868131868132,-1.0,58.45513468514004,1.6945691100056024,
2023-08-17 13:05:30.230000,-8.867469879518072,-1.5783132530120483,-3.879518072289157,-1.5352544451256898,-8.704475781729,-3.5389331698344573,2.0,1.6974358974358976,589.1238670694863,-0.3232911834974652,0.514189149816445,-0.2689819940562904,1216.8498168498168,-1.0,58.45513468514004,1.6946203129827007,
2023-08-17 13:05:30.238000,-8.831325301204819,-1.5903614457831325,-3.879518072289157,-1.5328019619865112,-8.763335377069282,-3.548743102391171,2.0,1.6989010989010989,588.6157826649418,-0.21537206456500235,0.5568440067595127,-0.1907814229939981,1219.047619047619,-1.0,58.45513468514004,1.694671387220203,
2023-08-17 13:05:30.245000,-8.843373493975903,-1.5421686746987953,-3.8674698795180724,-1.466584917228694,-8.755977927651747,-3.536480686695279,2.0,1.6989010989010989,588.6157826649418,-0.19695821921799375,0.0510459763417053,-0.20569896859157383,1221.245421245421,-1.0,58.45513468514004,1.6947223198645318,
2023-08-17 13:05:30.253000,-8.843373493975903,-1.5421686746987953,-3.8674698795180724,-1.5058246474555486,-8.748620478234212,-3.5217657878602084,2.0,1.6989010989010989,588.6157826649418,-0.10384010255812663,0.2936891789522755,-0.6437853271953847,1222.7106227106226,-1.0,58.45513468514004,1.6947730989368233,
2023-08-17 13:05:30.261000,-8.819277108433736,-1.5421686746987953,-3.91566265060241,-1.5597792765174738,-8.724095646842427,-3.556100551808706,2.0,1.6989010989010989,588.6157826649418,0.15500262222481276,0.13973544665229368,-0.2097779849659109,1219.7802197802198,-1.0,58.45513468514004,1.6948237128943537,
2023-08-17 13:05:30.268000,-8.867469879518072,-1.5421686746987953,-3.879518072289157,-1.4739423666462292,-8.729000613120784,-3.5217657878602084,2.0,1.6989010989010989,588.6157826649418,-0.1962589592681087,-0.10465590583299422,0.021560515121496402,1213.9194139194137,-1.0,58.45513468514004,1.6948741506480534,
2023-08-17 13:05:30.276000,-8.903614457831326,-1.5903614457831325,-3.891566265060241,-1.4862047823421214,-8.778050275904352,-3.4923359901900675,2.0,1.6989010989010989,588.6157826649418,-0.22539479051337338,-0.027154594720586966,0.08344502068644033,1206.5934065934066,-1.0,58.45513468514004,1.6949244011202824,
2023-08-17 13:05:30.284000,-8.879518072289157,-1.5783132530120483,-3.91566265060241,-1.5328019619865112,-8.775597792765174,-3.561005518087063,2.0,1.6989010989010989,588.6157826649418,-0.22271429403880894,-0.027970397995454557,0.08379465066138371,1200.0,-1.0,58.45513468514004,1.6949744533258075,
2023-08-17 13:05:30.291000,-9.10843373493976,-1.5421686746987953,-3.879518072289157,-1.471489883507051,-8.96934396076027,-3.543838136112814,2.0,1.6989010989010989,588.6157826649418,0.16071324514888416,-0.561389196433774,0.16094633179884626,1194.1391941391942,-1.0,58.45513468514004,1.69502429687188,
2023-08-17 13:05:30.299000,-8.795180722891567,-1.4457831325301205,-3.8674698795180724,-1.4224402207234825,-8.616186388718576,-3.5168608215818513,2.0,1.6989010989010989,588.6157826649418,0.4020744711846634,-3.2273177553755614,-0.06724549851407281,1190.4761904761904,-1.0,58.45513468514004,1.6950739219642637,
2023-08-17 13:05:30.307000,-8.674698795180724,-1.5180722891566265,-3.91566265060241,-1.4837522992029428,-8.579399141630901,-3.6125076640098097,2.0,1.6989010989010989,588.6157826649418,0.27772274342986963,-3.1393275450148597,-1.574616863819125,1187.5457875457876,-1.0,58.45513468514004,1.6951233194117925,
2023-08-17 13:05:30.314000,-8.759036144578314,-1.6265060240963856,-3.91566265060241,-1.6112814224402205,-8.694665849172287,-3.4825260576333537,2.0,1.6989010989010989,588.6157826649418,-1.4647165083619835,0.48680146844589467,-0.21886836431443352,1185.3479853479853,-1.0,58.45513468514004,1.6951724806294532,
2023-08-17 13:05:30.322000,-8.903614457831326,-1.6626506024096386,-3.843373493975904,-1.601471489883507,-8.760882893930104,-3.4825260576333537,2.0,1.6989010989010989,588.6157826649418,-0.9197599207505387,1.6749606666278187,0.4878503583707243,1183.150183150183,1041.748046875,57.59550035153504,1.6952213976399257,
2023-08-17 13:05:30.330000,-8.951807228915664,-1.5903614457831325,-3.8313253012048194,-1.5180870631514407,-8.822194972409564,-3.484978540772532,2.0,1.6989010989010989,588.6157826649418,0.17003671114736846,1.538721519724957,0.19625895926810785,1183.8827838827838,-1.0,57.59550035153504,1.6952700630735733,
2023-08-17 13:05:30.337000,-8.975903614457831,-1.530120481927711,-3.807228915662651,-1.437155119558553,-8.868792152053954,-3.4481912936848556,2.0,1.6989010989010989,588.6157826649418,0.2150224345900581,0.549618320610687,0.3968300215605149,1185.3479853479853,-1.0,57.59550035153504,1.6953184706247009,
2023-08-17 13:05:30.345000,-8.891566265060241,-1.5421686746987953,-3.8192771084337354,-1.5180870631514407,-8.692213366033108,-3.5119558553034946,2.0,1.6989010989010989,588.6157826649418,-0.2907755958277493,-0.752869879377658,0.06071907231513295,1188.278388278388,-1.0,57.59550035153504,1.6953666149810762,
2023-08-17 13:05:30.353000,-8.795180722891567,-1.602409638554217,-3.843373493975904,-1.5892090741876148,-8.665236051502145,-3.4923359901900675,2.0,1.6989010989010989,588.6157826649418,-0.16712312802284232,-1.1909562379814693,-0.1065205990326902,1189.0109890109889,-1.0,57.59550035153504,1.6954144908728135,
2023-08-17 13:05:30.360000,-8.831325301204819,-1.6265060240963856,-3.855421686746988,-1.5818516247700796,-8.697118332311465,-3.5806253832004904,2.0,1.6989010989010989,588.6157826649418,-0.7458772798787957,-0.037293863993940565,0.07796748441233016,1189.7435897435896,-1.0,57.59550035153504,1.6954620931367386,
2023-08-17 13:05:30.368000,-8.819277108433736,-1.6144578313253013,-3.8674698795180724,-1.601471489883507,-8.694665849172287,-3.5291232372777435,2.0,1.6989010989010989,588.6157826649418,-0.570246489132335,0.43668783870403777,0.01794767204708353,1189.7435897435896,-1.0,57.59550035153504,1.6955094176574503,
2023-08-17 13:05:30.376000,-8.819277108433736,-1.602409638554217,-3.891566265060241,-1.4935622317596566,-8.706928264868179,-3.56591048436542,2.0,1.6989010989010989,588.6157826649418,0.2312219567624256,0.3572052910669546,0.44612784802750416,1189.7435897435896,-1.0,57.59550035153504,1.6955564612889098,
2023-08-17 13:05:30.383000,-8.855421686746988,-1.566265060240964,-3.855421686746988,-1.5009196811771919,-8.702023298589822,-3.5217657878602084,2.0,1.6989010989010989,588.6157826649418,0.2921741157275211,0.2607074179826345,0.6577705261931124,1189.7435897435896,-1.0,57.59550035153504,1.6956032208954037,
2023-08-17 13:05:30.391000,-8.867469879518072,-1.566265060240964,-3.855421686746988,-1.4862047823421214,-8.75107296137339,-3.4874310239117103,2.0,1.6989010989010989,588.6157826649418,0.24590641571004052,0.5030009906182622,0.4855194918711028,1191.2087912087911,-1.0,57.59550035153504,1.6956496938658974,
2023-08-17 13:05:30.398000,-8.867469879518072,-1.566265060240964,-3.8674698795180724,-1.5328019619865112,-8.755977927651747,-3.5340282035561,2.0,1.6989010989010989,588.6157826649418,0.3525435580677124,0.544373870986539,0.6189615989744188,1194.1391941391942,-1.0,57.59550035153504,1.6956958780642701,
2023-08-17 13:05:30.406000,-8.867469879518072,-1.5542168674698795,-3.891566265060241,-1.491109748620478,-8.733905579399142,-3.556100551808706,2.0,1.6989010989010989,588.6157826649418,0.32014451372297564,0.3419381154944355,0.2963696754268399,1197.069597069597,-1.0,57.59550035153504,1.6957417718472132,
2023-08-17 13:05:30.414000,-8.91566265060241,-1.566265060240964,-3.891566265060241,-1.461679950950337,-8.724095646842427,-3.5193133047210297,2.0,1.6989010989010989,588.6157826649418,0.04090670706835344,0.36944234018996497,0.31152030767437816,1199.2673992673992,-1.0,57.59550035153504,1.6957873740107767,
2023-08-17 13:05:30.421000,-8.867469879518072,-1.530120481927711,-3.891566265060241,-1.4420600858369097,-8.760882893930104,-3.602697731453096,2.0,1.6989010989010989,588.6157826649418,0.4833051686964626,0.15395373229998177,0.447409824602296,1200.0,-1.0,57.59550035153504,1.6958326833468187,
2023-08-17 13:05:30.429000,-8.867469879518072,-1.5421686746987953,-3.9036144578313254,-1.4788473329245861,-8.763335377069282,-3.573267933782955,2.0,1.7003663003663008,588.1085738905643,0.3260882232970105,0.5047491404929781,0.400559407959909,1200.7326007326008,-1.0,57.59550035153504,1.695877699111249,
2023-08-17 13:05:30.437000,-8.879518072289157,-1.530120481927711,-3.855421686746988,-1.4101778050275904,-8.802575107296137,-3.5193133047210297,2.0,1.7003663003663008,588.1085738905643,0.5535807936600424,0.5205990326904032,0.35615640114212443,1198.5347985347985,-1.0,57.59550035153504,1.6959224214909947,
2023-08-17 13:05:30.444000,-8.903614457831326,-1.5180722891566265,-3.879518072289157,-1.4273451870018392,-8.814837522992029,-3.5168608215818513,2.0,1.7003663003663008,588.1085738905643,0.5349338616630739,0.33715983917021075,0.44671056465240966,1194.8717948717947,-1.0,57.59550035153504,1.6959668516493103,
2023-08-17 13:05:30.452000,-8.93975903614458,-1.530120481927711,-3.879518072289157,-1.4420600858369097,-8.836909871244634,-3.5511955855303494,2.0,1.7003663003663008,588.1085738905643,-0.1571004020744713,0.09335120330983052,0.6258376551483011,1190.4761904761904,-1.0,57.59550035153504,1.6960109912455097,
2023-08-17 13:05:30.460000,-8.91566265060241,-1.5421686746987953,-3.879518072289157,-1.525444512568976,-8.755977927651747,-3.5879828326180254,2.0,1.6989010989010989,588.6157826649418,0.011071615873200292,-0.24019579278596737,0.25394790513373344,1186.8131868131868,-1.0,57.59550035153504,1.6960548424122033,
2023-08-17 13:05:30.467000,-8.879518072289157,-1.5542168674698795,-3.91566265060241,-1.5009196811771919,-8.775597792765174,-3.5708154506437766,2.0,1.7003663003663008,588.1085738905643,-0.36874308024007996,0.020628168521647974,0.15954781189907322,1186.8131868131868,-1.0,57.59550035153504,1.6960984072395624,
2023-08-17 13:05:30.475000,-8.843373493975903,-1.5542168674698795,-3.879518072289157,-1.542611894543225,-8.71919068056407,-3.5536480686695278,2.0,1.6989010989010989,588.6157826649418,-0.2283083736378995,-0.18075869704562622,0.5696637725074295,1194.8717948717947,-1.0,57.59550035153504,1.6961416886303922,
2023-08-17 13:05:30.483000,-8.855421686746988,-1.5783132530120483,-3.9036144578313254,-1.5033721643163702,-8.729000613120784,-3.5536480686695278,2.0,1.6989010989010989,588.6157826649418,-0.38039741273818617,-0.1064040557077085,0.3359944059204011,1212.4542124542124,-1.0,57.59550035153504,1.6961846897833894,
2023-08-17 13:05:30.490000,-8.843373493975903,-1.566265060240964,-3.8674698795180724,-1.5278969957081545,-8.694665849172287,-3.5389331698344573,2.0,1.6989010989010989,588.6157826649418,-0.31769710389837463,-0.002447409824602773,0.4707184895985084,1244.6886446886447,-1.0,57.59550035153504,1.6962274132178172,
2023-08-17 13:05:30.498000,-8.831325301204819,-1.5542168674698795,-3.855421686746988,-1.525444512568976,-8.738810545677499,-3.4776210913549965,2.0,1.6989010989010989,588.6157826649418,-0.530738301963755,-0.09568206980945246,0.2834333663539419,1292.3076923076922,-1.0,57.59550035153504,1.6962698616936824,
2023-08-17 13:05:30.506000,-8.843373493975903,-1.5542168674698795,-3.8674698795180724,-1.4935622317596566,-8.755977927651747,-3.5168608215818513,2.0,1.6989010989010989,588.6157826649418,-0.2690985373812721,-0.2624555678573505,0.2794708933045861,1355.3113553113553,-1.0,57.59550035153504,1.6963120381808292,
2023-08-17 13:05:30.513000,-8.867469879518072,-1.566265060240964,-3.8674698795180724,-1.5352544451256898,-8.73635806253832,-3.56591048436542,2.0,1.6989010989010989,588.6157826649418,-0.16059670182390334,-0.4124468271079769,-0.05698968591573925,1435.8974358974358,-1.0,57.59550035153504,1.696353945827573,
2023-08-17 13:05:30.521000,-8.855421686746988,-1.5783132530120483,-3.855421686746988,-1.537706928264868,-8.733905579399142,-3.543838136112814,2.0,1.6989010989010989,588.6157826649418,0.16141250509877092,-0.2681661907814237,0.4949595011945693,1532.6007326007325,-1.0,57.59550035153504,1.6963955879289825,
2023-08-17 13:05:30.529000,-8.843373493975903,-1.566265060240964,-3.843373493975904,-1.496014714898835,-8.733905579399142,-3.536480686695279,2.0,1.7003663003663008,588.1085738905643,-0.0048948196492038095,-0.06270030883981152,0.3123361109492453,1642.4908424908424,-1.0,57.59550035153504,1.696436967894903,
2023-08-17 13:05:30.536000,-8.843373493975903,-1.566265060240964,-3.8674698795180724,-1.4984671980380133,-8.716738197424892,-3.4996934396076025,2.0,1.6974358974358976,589.1238670694863,-0.018996561971912792,-0.14812656605092953,0.40044286463492823,1758.974358974359,-1.0,57.59550035153504,1.6964780897104939,
2023-08-17 13:05:30.544000,-8.843373493975903,-1.5421686746987953,-3.9036144578313254,-1.4690374003678723,-8.746167995095034,-3.524218270999387,2.0,1.6989010989010989,588.6157826649418,0.0587378357904544,0.29846745527649843,0.4906473981702701,1875.4578754578754,-1.0,57.59550035153504,1.6965189574487674,
2023-08-17 13:05:30.552000,-8.843373493975903,-1.5542168674698795,-3.891566265060241,-1.5082771305947271,-8.724095646842427,-3.5119558553034946,2.0,1.6989010989010989,588.6157826649418,-0.03076743779499984,0.265136064331915,0.30324573160072227,1983.8827838827838,-1.0,57.59550035153504,1.696559574609307,
2023-08-17 13:05:30.559000,-8.867469879518072,-1.5542168674698795,-3.843373493975904,-1.5033721643163702,-8.726548129981605,-3.526670754138565,2.0,1.6989010989010989,588.6157826649418,-0.028786201270322147,0.26630149758172683,0.29905017190140437,2076.9230769230767,-1.0,57.59550035153504,1.6965999446481428,
2023-08-17 13:05:30.567000,-8.879518072289157,-1.5542168674698795,-3.8674698795180724,-1.4420600858369097,-8.753525444512569,-3.465358675659105,2.0,1.7003663003663008,588.1085738905643,0.033914107569489364,0.3111706776994339,0.41850708000699255,2152.3809523809523,-1.0,57.59550035153504,1.6966400709801348,
2023-08-17 13:05:30.575000,-8.879518072289157,-1.566265060240964,-3.8674698795180724,-1.4886572654812997,-8.699570815450643,-3.467811158798283,2.0,1.7003663003663008,588.1085738905643,-0.013635569022783902,0.2939222656022371,0.1991725423926344,2202.197802197802,-1.0,57.59550035153504,1.6966799574395983,
2023-08-17 13:05:30.582000,-8.879518072289157,-1.5542168674698795,-3.8674698795180724,-1.5352544451256898,-8.76578786020846,-3.5291232372777435,2.0,1.6989010989010989,588.6157826649418,-0.107802575607482,0.20278538546704772,0.19789056581784303,2228.5714285714284,-1.0,57.59550035153504,1.6967196083209053,
2023-08-17 13:05:30.590000,-8.867469879518072,-1.566265060240964,-3.843373493975904,-1.496014714898835,-8.753525444512569,-3.4874310239117103,2.0,1.7003663003663008,588.1085738905643,0.1827399335703039,0.04533535341763217,0.21140959151564567,2231.5018315018315,-1.0,57.59550035153504,1.696759027402511,
2023-08-17 13:05:30.598000,-8.879518072289157,-1.566265060240964,-3.855421686746988,-1.5352544451256898,-8.721643163703249,-3.502145922746781,2.0,1.7003663003663008,588.1085738905643,0.1982401957927864,0.2421770293106468,0.13029543732882684,2214.6520146520147,-1.0,57.59550035153504,1.6967982183432886,
2023-08-17 13:05:30.605000,-8.903614457831326,-1.5783132530120483,-3.843373493975904,-1.5499693439607602,-8.755977927651747,-3.514408338442673,2.0,1.7003663003663008,588.1085738905643,0.244507895810267,0.45335353417633034,0.06759512848901576,2179.487179487179,-1.0,57.59550035153504,1.69683718518426,
2023-08-17 13:05:30.613000,-8.903614457831326,-1.5783132530120483,-3.8674698795180724,-1.4886572654812997,-8.802575107296137,-3.4898835070508887,2.0,1.7003663003663008,588.1085738905643,-0.10838529223238792,0.6496124934444374,0.40312336110949265,2131.8681318681315,-1.0,57.59550035153504,1.6968759318687936,
2023-08-17 13:05:30.621000,-8.903614457831326,-1.566265060240964,-3.8192771084337354,-1.5009196811771919,-8.760882893930104,-3.484978540772532,2.0,1.6989010989010989,588.6157826649418,0.07575316123768949,0.20290192879202854,0.4007924946098716,2073.9926739926736,-1.0,57.59550035153504,1.6969144622222048,
2023-08-17 13:05:30.628000,-8.879518072289157,-1.5903614457831325,-3.855421686746988,-1.513182096873084,-8.775597792765174,-3.484978540772532,2.0,1.6989010989010989,588.6157826649418,0.22842491696288034,0.10978381213215971,0.2443913524852866,2008.7912087912086,-1.0,57.59550035153504,1.6969527794402752,
2023-08-17 13:05:30.636000,-8.843373493975903,-1.5903614457831325,-3.855421686746988,-1.5744941753525443,-8.75107296137339,-3.4898835070508887,2.0,1.7003663003663008,588.1085738905643,-0.03321484761960261,-0.010605442573276946,0.1963755025930887,1937.7289377289376,-1.0,57.59550035153504,1.6969908855420146,
2023-08-17 13:05:30.644000,-8.831325301204819,-1.602409638554217,-3.855421686746988,-1.471489883507051,-8.692213366033108,-3.4800735744941753,2.0,1.6989010989010989,588.6157826649418,0.06025289901520874,0.34135539886952954,0.11899073480566401,1863.7362637362637,-1.0,57.59550035153504,1.6970287828242603,
2023-08-17 13:05:30.651000,-8.855421686746988,-1.602409638554217,-3.843373493975904,-1.5769466584917229,-8.729000613120784,-3.4996934396076025,2.0,1.6989010989010989,588.6157826649418,0.04556844006759558,-0.07202377483829579,0.2693316240312338,1791.9413919413919,-1.0,57.59550035153504,1.6970664733844603,
2023-08-17 13:05:30.659000,-8.855421686746988,-1.5903614457831325,-3.8313253012048194,-1.4763948497854076,-8.817290006131207,-3.497240956468424,2.0,1.7003663003663008,588.1085738905643,0.15407027562496434,0.3882058155119161,0.09882873958394024,1724.5421245421244,-1.0,57.59550035153504,1.6971039586104415,
2023-08-17 13:05:30.667000,-8.855421686746988,-1.5903614457831325,-3.8313253012048194,-1.5328019619865112,-8.763335377069282,-3.494788473329246,2.0,1.6989010989010989,588.6157826649418,-0.18134141367053214,0.6588194161179425,0.2511508653341877,1664.4688644688645,-1.0,57.59550035153504,1.697141240077788,
2023-08-17 13:05:30.674000,-8.891566265060241,-1.602409638554217,-3.855421686746988,-1.4739423666462292,-8.714285714285714,-3.4996934396076025,2.0,1.6989010989010989,588.6157826649418,0.4629100868247763,0.4244507895810274,0.23308664996212333,1612.4542124542124,-1.0,57.59550035153504,1.6971783191472378,
2023-08-17 13:05:30.682000,-8.879518072289157,-1.5903614457831325,-3.843373493975904,-1.5524218270999386,-8.795217657878602,-3.4874310239117103,2.0,1.7003663003663008,588.1085738905643,0.04813239321717919,0.3745702464891322,0.09323465998484924,1572.8937728937728,-1.0,57.59550035153504,1.697215196390055,
2023-08-17 13:05:30.690000,-8.879518072289157,-1.5783132530120483,-3.843373493975904,-1.491109748620478,-8.731453096259962,-3.465358675659105,2.0,1.6974358974358976,589.1238670694863,0.21572169453994486,0.0037293863993937094,0.18460462677000164,1542.1245421245421,-1.0,57.59550035153504,1.6972518721022463,
2023-08-17 13:05:30.697000,-8.879518072289157,-1.5783132530120483,-3.8674698795180724,-1.5303494788473329,-8.775597792765174,-3.507050889025138,2.0,1.6989010989010989,588.6157826649418,0.06025289901520874,0.14055124992716128,0.2911252258026923,1520.14652014652,-1.0,57.59550035153504,1.6972883463279473,
2023-08-17 13:05:30.705000,-8.879518072289157,-1.5783132530120483,-3.843373493975904,-1.461679950950337,-8.741263028816677,-3.502145922746781,2.0,1.6989010989010989,588.6157826649418,-0.07668550783753793,0.10955072548219803,0.02925237457024636,1504.0293040293038,-1.0,57.59550035153504,1.69732461867598,
2023-08-17 13:05:30.713000,-8.855421686746988,-1.5903614457831325,-3.8674698795180724,-1.537706928264868,-8.697118332311465,-3.536480686695279,2.0,1.6989010989010989,588.6157826649418,-0.012703222422935475,-0.2132742847153421,0.3034788182506848,1490.10989010989,-1.0,57.59550035153504,1.6973606883462355,
2023-08-17 13:05:30.720000,-8.831325301204819,-1.5903614457831325,-3.891566265060241,-1.5524218270999386,-8.726548129981605,-3.5340282035561,2.0,1.7003663003663008,588.1085738905643,0.2635044577821798,0.17003671114736846,0.1499912592506264,1478.3882783882782,-1.0,57.59550035153504,1.6973965537341273,
2023-08-17 13:05:30.728000,-8.831325301204819,-1.5783132530120483,-3.8674698795180724,-1.4935622317596566,-8.660331085223788,-3.556100551808706,2.0,1.6989010989010989,588.6157826649418,0.03507954081929947,0.10873492220733044,0.19509352601829733,1466.6666666666665,-1.0,57.59550035153504,1.6974322134078392,
2023-08-17 13:05:30.736000,-8.831325301204819,-1.5783132530120483,-3.891566265060241,-1.5229920294297976,-8.650521152667075,-3.5977927651747392,2.0,1.6989010989010989,588.6157826649418,0.46489132334945577,0.04789930656721578,0.1177087582308722,1455.6776556776556,-1.0,57.59550035153504,1.697467665681501,
2023-08-17 13:05:30.743000,-8.855421686746988,-1.5783132530120483,-3.91566265060241,-1.4763948497854076,-8.760882893930104,-3.536480686695279,2.0,1.6989010989010989,588.6157826649418,0.3559233144921619,0.2778392867548505,0.14975817260066385,1446.8864468864467,-1.0,57.59550035153504,1.6975029080860724,
2023-08-17 13:05:30.751000,-8.867469879518072,-1.566265060240964,-3.879518072289157,-1.513182096873084,-8.760882893930104,-3.5536480686695278,2.0,1.6989010989010989,588.6157826649418,0.567915622632713,0.5964687372530735,-0.17318338092185753,1439.5604395604394,-1.0,57.59550035153504,1.697537937824892,
2023-08-17 13:05:30.759000,-8.879518072289157,-1.5783132530120483,-3.855421686746988,-1.4248927038626609,-8.807480073574494,-3.531575720416922,2.0,1.6989010989010989,588.6157826649418,0.441815745003205,0.3784161762135067,0.0870578637608532,1435.164835164835,-1.0,57.59550035153504,1.6975727517729715,
2023-08-17 13:05:30.766000,-8.903614457831326,-1.566265060240964,-3.843373493975904,-1.4763948497854076,-8.753525444512569,-3.5340282035561,2.0,1.6989010989010989,588.6157826649418,0.6675601654915209,0.5296894120389258,0.024707184895984627,1433.6996336996335,-1.0,57.59550035153504,1.6976073464778467,
2023-08-17 13:05:30.774000,-8.903614457831326,-1.5180722891566265,-3.843373493975904,-1.496014714898835,-8.800122624156959,-3.5095033721643163,2.0,1.6989010989010989,588.6157826649418,0.37188975001456775,0.511858283316823,0.14614532952625098,1435.8974358974358,-1.0,57.59550035153504,1.6976417181619399,
2023-08-17 13:05:30.781000,-8.927710843373495,-1.5421686746987953,-3.8313253012048194,-1.5475168608215817,-8.802575107296137,-3.524218270999387,2.0,1.6989010989010989,588.6157826649418,0.06351611211467911,0.12400209777984952,-0.22189849076394133,1440.2930402930401,-1.0,57.59550035153504,1.6976758627263477,
2023-08-17 13:05:30.789000,-8.927710843373495,-1.530120481927711,-3.843373493975904,-1.4445125689760883,-8.809932556713672,-3.5217657878602084,2.0,1.6989010989010989,588.6157826649418,0.061418332265018846,-0.13658877687780416,-0.3434531787191885,1444.6886446886447,-1.0,57.59550035153504,1.6977097757559994,
2023-08-17 13:05:30.797000,-8.891566265060241,-1.5542168674698795,-3.8674698795180724,-1.4788473329245861,-8.770692826486817,-3.531575720416922,2.0,1.6989010989010989,588.6157826649418,-0.12213740458015267,-0.5464716508361974,-0.2963696754268399,1446.153846153846,-1.0,57.59550035153504,1.6977434525261057,
2023-08-17 13:05:30.804000,-8.855421686746988,-1.5421686746987953,-3.879518072289157,-1.5107296137339055,-8.702023298589822,-3.526670754138565,2.0,1.6989010989010989,588.6157826649418,-0.30639240137521095,-0.07085834158848568,-0.32597167997202964,1449.8168498168498,-1.0,57.59550035153504,1.6977768880098232,
2023-08-17 13:05:30.812000,-8.855421686746988,-1.5421686746987953,-3.855421686746988,-1.5205395462906193,-8.716738197424892,-3.548743102391171,2.0,1.6989010989010989,588.6157826649418,-0.36489715051570365,-0.3913524852864056,-0.2776062001048888,1453.4798534798533,-1.0,57.59550035153504,1.6978100768870494,
2023-08-17 13:05:30.820000,-8.831325301204819,-1.5421686746987953,-3.8674698795180724,-1.4322501532801961,-8.76578786020846,-3.4996934396076025,2.0,1.6989010989010989,588.6157826649418,-0.47060194627352714,-0.20546588194161217,-0.46267700017481506,1457.142857142857,-1.0,57.59550035153504,1.6978430135542695,
2023-08-17 13:05:30.827000,-8.831325301204819,-1.5542168674698795,-3.91566265060241,-1.513182096873084,-8.743715511955855,-3.5511955855303494,2.0,1.6989010989010989,588.6157826649418,-0.359885787541519,0.05722277256570179,-0.32072723034788203,1461.5384615384614,-1.0,57.59550035153504,1.6978756921353768,
2023-08-17 13:05:30.835000,-8.843373493975903,-1.5783132530120483,-3.879518072289157,-1.4862047823421214,-8.724095646842427,-3.6051502145922747,2.0,1.6989010989010989,588.6157826649418,-0.35906998426665143,0.05512499271604152,-0.31991142707301445,1462.2710622710622,-1.0,57.59550035153504,1.6979081064933705,
2023-08-17 13:05:30.843000,-8.819277108433736,-1.566265060240964,-3.91566265060241,-1.5278969957081545,-8.687308399754752,-3.5830778663396687,2.0,1.6974358974358976,589.1238670694863,-0.15873200862420647,-0.15943126857409323,-0.24089505273585457,1460.8058608058607,-1.0,57.59550035153504,1.697940250242858,
2023-08-17 13:05:30.850000,-8.807228915662652,-1.5783132530120483,-3.891566265060241,-1.4984671980380133,-8.726548129981605,-3.5511955855303494,2.0,1.6989010989010989,588.6157826649418,0.04207214031816354,0.3612843074412908,-0.14579569955130847,1457.142857142857,-1.0,57.59550035153504,1.6979721162706014,
2023-08-17 13:05:30.858000,-8.831325301204819,-1.566265060240964,-3.891566265060241,-1.525444512568976,-8.699570815450643,-3.548743102391171,2.0,1.6989010989010989,588.6157826649418,0.19719130586795713,0.31303537089913247,-0.16013052852397913,1452.7472527472526,-1.0,57.59550035153504,1.6980036971698462,
2023-08-17 13:05:30.866000,-8.819277108433736,-1.566265060240964,-3.879518072289157,-1.4837522992029428,-8.706928264868179,-3.5168608215818513,2.0,1.6989010989010989,588.6157826649418,0.08892255696055006,0.3556902278422002,-0.03671114736903465,1446.153846153846,-1.0,57.59550035153504,1.6980349857792165,
2023-08-17 13:05:30.873000,-8.831325301204819,-1.5542168674698795,-3.891566265060241,-1.5009196811771919,-8.76578786020846,-3.484978540772532,2.0,1.6989010989010989,588.6157826649418,0.07517044461278531,0.3224753802225976,-0.09708058970922423,1436.6300366300366,-1.0,57.59550035153504,1.6980659747391063,
2023-08-17 13:05:30.881000,-8.867469879518072,-1.5903614457831325,-3.855421686746988,-1.5622317596566522,-8.711833231146535,-3.536480686695279,2.0,1.6989010989010989,588.6157826649418,0.22807528698793783,0.09113688013518942,-0.2177029310646234,1424.9084249084249,-1.0,57.59550035153504,1.6980966565063709,
2023-08-17 13:05:30.889000,-8.867469879518072,-1.566265060240964,-3.855421686746988,-1.4518700183936235,-8.729000613120784,-3.497240956468424,2.0,1.6989010989010989,588.6157826649418,0.2590758114328993,0.2918244857525786,0.1517394091253424,1411.7216117216117,-1.0,57.59550035153504,1.6981270233693673,
2023-08-17 13:05:30.896000,-8.879518072289157,-1.5783132530120483,-3.855421686746988,-1.5793991416309012,-8.829552421827099,-3.5389331698344573,2.0,1.6989010989010989,588.6157826649418,0.04451955014276631,0.013402482372822228,0.02703805139560613,1397.069597069597,-1.0,57.59550035153504,1.6981570674632995,
2023-08-17 13:05:30.904000,-8.867469879518072,-1.5783132530120483,-3.855421686746988,-1.5205395462906193,-8.684855916615573,-3.524218270999387,2.0,1.6989010989010989,588.6157826649418,0.031117067769944086,0.10127614940854301,-0.0644484587145271,1382.4175824175823,-1.0,57.59550035153504,1.6981867803279138,
2023-08-17 13:05:30.912000,-8.867469879518072,-1.5783132530120483,-3.8674698795180724,-1.542611894543225,-8.743715511955855,-3.4825260576333537,2.0,1.6989010989010989,588.6157826649418,0.39799545481032544,0.053143756191363835,-0.2008041489423696,1367.032967032967,-1.0,57.59550035153504,1.6982161529905087,
2023-08-17 13:05:30.919000,-8.855421686746988,-1.566265060240964,-3.843373493975904,-1.5082771305947271,-8.778050275904352,-3.526670754138565,2.0,1.6989010989010989,588.6157826649418,-0.04580152671755725,0.17539770409649733,-0.12038925470543665,1353.8461538461538,-1.0,57.59550035153504,1.698245176470182,
2023-08-17 13:05:30.927000,-8.855421686746988,-1.566265060240964,-3.879518072289157,-1.5328019619865112,-8.755977927651747,-3.5389331698344573,2.0,1.6989010989010989,588.6157826649418,-0.12038925470543665,-0.08577588718606226,-0.3038284482256282,1341.3919413919414,-1.0,57.59550035153504,1.6982738417901544,
2023-08-17 13:05:30.935000,-8.843373493975903,-1.5783132530120483,-3.891566265060241,-1.471489883507051,-8.731453096259962,-3.5413856529736356,2.0,1.6989010989010989,588.6157826649418,-0.11805838820581471,-0.1165433249810621,-0.28623040615348716,1328.937728937729,-1.0,57.59550035153504,1.698302139990759,
2023-08-17 13:05:30.942000,-8.867469879518072,-1.5783132530120483,-3.91566265060241,-1.4690374003678723,-8.802575107296137,-3.5340282035561,2.0,1.6989010989010989,588.6157826649418,-0.11642678165608127,-0.19509352601829688,0.20208612551716096,1315.018315018315,-1.0,57.59550035153504,1.6983300621430804,
2023-08-17 13:05:30.950000,-8.891566265060241,-1.602409638554217,-3.879518072289157,-1.5475168608215817,-8.778050275904352,-3.5168608215818513,2.0,1.6989010989010989,588.6157826649418,-0.44869180117708823,0.36827690694015486,-0.19975525901753988,1299.6336996336995,-1.0,57.59550035153504,1.6983575993631854,
2023-08-17 13:05:30.958000,-8.879518072289157,-1.602409638554217,-3.891566265060241,-1.5058246474555486,-8.822194972409564,-3.5511955855303494,2.0,1.6989010989010989,588.6157826649418,-0.38319445253773143,0.5773556319561799,0.19789056581784303,1286.4468864468863,-1.0,57.59550035153504,1.6983847428268752,
2023-08-17 13:05:30.965000,-8.91566265060241,-1.5903614457831325,-3.855421686746988,-1.567136725935009,-8.84671980380135,-3.524218270999387,2.0,1.6989010989010989,588.6157826649418,-0.516636559641046,0.69156809043762,0.5477536274109901,1273.9926739926739,-1.0,57.59550035153504,1.6984114837849285,
2023-08-17 13:05:30.973000,-8.951807228915664,-1.602409638554217,-3.879518072289157,-1.4837522992029428,-8.871244635193133,-3.504598405885959,2.0,1.6989010989010989,588.6157826649418,-0.376434939688829,0.6388905075461796,0.19148068294388446,1263.003663003663,-1.0,57.59550035153504,1.6984378135787668,
2023-08-17 13:05:30.981000,-8.93975903614458,-1.5903614457831325,-3.855421686746988,-1.5818516247700796,-8.86143470263642,-3.543838136112814,2.0,1.6989010989010989,588.6157826649418,-0.35930307091661307,0.6949478468620712,0.2777227434298701,1250.5494505494505,-1.0,57.59550035153504,1.6984637236564795,
2023-08-17 13:05:30.988000,-8.927710843373495,-1.5903614457831325,-3.8674698795180724,-1.496014714898835,-8.738810545677499,-3.5683629675045982,2.0,1.6989010989010989,588.6157826649418,-0.7690694015500256,0.22865800361284375,0.5026513606433188,1241.7582417582416,-1.0,57.59550035153504,1.6984892055891603,
2023-08-17 13:05:30.996000,-8.903614457831326,-1.6144578313253013,-3.91566265060241,-1.5892090741876148,-8.724095646842427,-3.607602697731453,2.0,1.6974358974358976,589.1238670694863,-1.2510925936716972,0.20709748849134735,0.17726239729619506,1234.4322344322343,-1.0,57.59550035153504,1.6985142510874764,
2023-08-17 13:05:31.004000,-8.891566265060241,-1.602409638554217,-3.891566265060241,-1.5646842427958307,-8.82709993868792,-3.5585530349478844,2.0,1.6974358974358976,589.1238670694863,-1.2409533243983453,-0.11782530155585304,0.3422877454693784,1231.5018315018315,-1.0,57.59550035153504,1.6985388519836302,
2023-08-17 13:05:31.011000,-8.855421686746988,-1.602409638554217,-3.891566265060241,-1.5303494788473329,-8.733905579399142,-3.5585530349478844,2.0,1.6989010989010989,588.6157826649418,-1.4599382320377605,0.21537206456500235,0.06433191538954583,1231.5018315018315,-1.0,57.59550035153504,1.6985629996509124,
2023-08-17 13:05:31.019000,-8.819277108433736,-1.6265060240963856,-3.879518072289157,-1.5597792765174738,-8.65787860208461,-3.573267933782955,2.0,1.6989010989010989,588.6157826649418,-1.5703047607948262,0.10325738593322072,0.13961890332731197,1230.7692307692307,-1.0,57.59550035153504,1.6985866855444747,
2023-08-17 13:05:31.027000,-8.783132530120483,-1.63855421686747,-3.9036144578313254,-1.567136725935009,-8.662783568362967,-3.5193133047210297,2.0,1.6989010989010989,588.6157826649418,-1.4363964803915847,-0.18845055649437706,0.21455626129013475,1227.106227106227,-1.0,57.59550035153504,1.6986099017762726,
2023-08-17 13:05:31.034000,-8.771084337349398,-1.63855421686747,-3.9036144578313254,-1.5843041079092581,-8.623543838136113,-3.5217657878602084,2.0,1.6989010989010989,588.6157826649418,-1.6848668492512089,-0.1579162053493389,0.07318920808810676,1221.9780219780218,-1.0,57.59550035153504,1.6986326402143157,
2023-08-17 13:05:31.042000,-8.759036144578314,-1.602409638554217,-3.891566265060241,-1.5818516247700796,-8.586756591048436,-3.4898835070508887,2.0,1.6989010989010989,588.6157826649418,-1.5648272245207147,0.10372355923314405,-0.22084960083911206,1217.5824175824175,-1.0,57.59550035153504,1.6986548925648552,
2023-08-17 13:05:31.050000,-8.759036144578314,-1.6265060240963856,-3.9036144578313254,-1.5622317596566522,-8.61128142244022,-3.5634580012262416,2.0,1.6989010989010989,588.6157826649418,-2.2390303595361574,0.22248120738884725,0.008740749373579658,1212.4542124542124,-1.0,57.59550035153504,1.6986766508755924,
2023-08-17 13:05:31.057000,-8.771084337349398,-1.63855421686747,-3.879518072289157,-1.5622317596566522,-8.684855916615573,-3.5585530349478844,2.0,1.6989010989010989,588.6157826649418,-1.6855661092010956,-0.11619369500611786,0.006293339548977319,1208.058608058608,-1.0,57.59550035153504,1.6986979080045936,
2023-08-17 13:05:31.065000,-8.795180722891567,-1.63855421686747,-3.891566265060241,-1.6112814224402205,-8.618638871857755,-3.5806253832004904,2.0,1.6989010989010989,588.6157826649418,-1.5813763766680264,0.0018646931996968547,-0.5918070042538314,1205.8608058608058,-1.0,57.59550035153504,1.6987186571066815,
2023-08-17 13:05:31.073000,-8.795180722891567,-1.6265060240963856,-3.879518072289157,-1.6284488044144696,-8.733905579399142,-3.494788473329246,2.0,1.6989010989010989,588.6157826649418,-1.7373113454926876,-0.028902744595302985,-0.5887768778043235,1205.8608058608058,-1.0,57.59550035153504,1.6987388912242445,
2023-08-17 13:05:31.080000,-8.831325301204819,-1.63855421686747,-3.879518072289157,-1.6039239730226853,-8.746167995095034,-3.5340282035561,2.0,1.6989010989010989,588.6157826649418,-1.7230930598449978,0.9014626187285126,-0.3877396422119923,1208.058608058608,-1.0,57.59550035153504,1.6987586037915545,
2023-08-17 13:05:31.088000,-8.831325301204819,-1.63855421686747,-3.855421686746988,-1.5475168608215817,-8.79767014101778,-3.475168608215818,2.0,1.6989010989010989,588.6157826649418,-1.5255521240020982,0.616747275799779,-0.38785618553697354,1214.6520146520145,-1.0,57.59550035153504,1.6987777886467237,
2023-08-17 13:05:31.096000,-8.903614457831326,-1.6265060240963856,-3.843373493975904,-1.537706928264868,-8.748620478234212,-3.504598405885959,2.0,1.6989010989010989,588.6157826649418,-1.5571353650719657,1.0056523512615818,-0.35615640114212443,1223.4432234432234,-1.0,57.59550035153504,1.6987964400439117,
2023-08-17 13:05:31.103000,-8.903614457831326,-1.6144578313253013,-3.843373493975904,-1.5450643776824033,-8.871244635193133,-3.494788473329246,2.0,1.6989010989010989,588.6157826649418,-1.4837130703338963,0.4477594545772398,-0.1877512965444903,1233.6996336996335,-1.0,57.59550035153504,1.6988145526657188,
2023-08-17 13:05:31.111000,-8.951807228915664,-1.6144578313253013,-3.843373493975904,-1.5107296137339055,-8.883507050889024,-3.514408338442673,2.0,1.6989010989010989,588.6157826649418,-1.470427131286055,0.44286463492803424,-0.18565351669483135,1242.4908424908424,-1.0,57.59550035153504,1.6988321216356894,
2023-08-17 13:05:31.119000,-8.951807228915664,-1.5783132530120483,-3.855421686746988,-1.5597792765174738,-8.878602084610668,-3.5462906192519923,2.0,1.6989010989010989,588.6157826649418,-1.1662490530854852,0.576772915331274,-0.38529223238738997,1249.8168498168498,-1.0,57.59550035153504,1.6988491425308643,
2023-08-17 13:05:31.126000,-8.951807228915664,-1.5783132530120483,-3.8674698795180724,-1.5303494788473329,-8.836909871244634,-3.5757204169221333,2.0,1.6974358974358976,589.1238670694863,-1.3531845463551078,0.17633005069634577,-0.27387681370549505,1255.6776556776556,-1.0,57.59550035153504,1.6988656113942926,
2023-08-17 13:05:31.134000,-8.91566265060241,-1.566265060240964,-3.855421686746988,-1.525444512568976,-8.795217657878602,-3.56591048436542,2.0,1.6989010989010989,588.6157826649418,-1.3904784103490466,0.17364955422178133,-0.059670182390303694,1257.8754578754579,-1.0,57.59550035153504,1.6988815242547524,
2023-08-17 13:05:31.142000,-8.903614457831326,-1.5421686746987953,-3.855421686746988,-1.4592274678111588,-8.729000613120784,-3.5340282035561,2.0,1.6989010989010989,588.6157826649418,-1.5305634869762845,-0.18075869704562622,-0.06176796223996266,1257.142857142857,-1.0,57.59550035153504,1.6988968775594218,
2023-08-17 13:05:31.149000,-8.867469879518072,-1.5421686746987953,-3.879518072289157,-1.407725321888412,-8.741263028816677,-3.5413856529736356,2.0,1.6974358974358976,589.1238670694863,-1.224637258900997,-0.07190723151331495,-0.1545364489248877,1254.212454212454,-1.0,57.59550035153504,1.6989116687102643,
2023-08-17 13:05:31.157000,-8.867469879518072,-1.5180722891566265,-3.91566265060241,-1.471489883507051,-8.760882893930104,-3.5806253832004904,2.0,1.6974358974358976,589.1238670694863,-1.6260124701357719,-0.19357846279354426,0.19404463609346762,1252.7472527472526,-1.0,57.59550035153504,1.698925895582265,
2023-08-17 13:05:31.164000,-8.879518072289157,-1.530120481927711,-3.879518072289157,-1.4886572654812997,-8.741263028816677,-3.5389331698344573,2.0,1.6989010989010989,588.6157826649418,-1.704679214497991,-0.20791329176621492,0.06876056173882629,1251.2820512820513,-1.0,57.59550035153504,1.6989395563944383,
2023-08-17 13:05:31.172000,-8.855421686746988,-1.5421686746987953,-3.879518072289157,-1.4396076026977314,-8.770692826486817,-3.5193133047210297,2.0,1.6989010989010989,588.6157826649418,-1.4620360118874192,-0.03834275391876983,-0.08542625721111802,1250.5494505494505,-1.0,57.59550035153504,1.6989526497184761,
2023-08-17 13:05:31.180000,-8.867469879518072,-1.530120481927711,-3.891566265060241,-1.4469650521152666,-8.729000613120784,-3.5536480686695278,2.0,1.6989010989010989,588.6157826649418,-1.466348114911717,0.4512557543266701,-0.07074179826350442,1248.3516483516482,-1.0,57.59550035153504,1.6989651746249532,
2023-08-17 13:05:31.187000,-8.855421686746988,-1.5421686746987953,-3.91566265060241,-1.4886572654812997,-8.763335377069282,-3.556100551808706,2.0,1.6989010989010989,588.6157826649418,-1.1649670765106943,0.2631548278072373,0.21828564768952846,1246.153846153846,-1.0,57.59550035153504,1.6989771307242338,
2023-08-17 13:05:31.195000,-8.855421686746988,-1.5421686746987953,-3.8674698795180724,-1.5573267933782955,-8.773145309625995,-3.5413856529736356,2.0,1.6989010989010989,588.6157826649418,-1.260649146320145,0.5045160538430165,0.35231047141774946,1243.956043956044,-1.0,57.59550035153504,1.6989885181718574,
2023-08-17 13:05:31.203000,-8.891566265060241,-1.5421686746987953,-3.843373493975904,-1.5156345800122624,-8.790312691600246,-3.4874310239117103,2.0,1.6989010989010989,588.6157826649418,-1.3412971272070382,0.3453178719188867,0.24031233611094907,1241.0256410256409,-1.0,57.59550035153504,1.6989993376731625,
2023-08-17 13:05:31.210000,-8.891566265060241,-1.5783132530120483,-3.8674698795180724,-1.5499693439607602,-8.805027590435316,-3.5340282035561,2.0,1.6989010989010989,588.6157826649418,-1.4668142882116422,0.3258551366470488,0.43505623215430345,1239.5604395604396,-1.0,57.59550035153504,1.6990095904870819,
2023-08-17 13:05:31.218000,-8.891566265060241,-1.566265060240964,-3.91566265060241,-1.5622317596566522,-8.785407725321887,-3.467811158798283,2.0,1.6974358974358976,589.1238670694863,-1.360293689178951,0.2305226968125406,0.5675659926577705,1237.3626373626373,-1.0,57.59550035153504,1.6990192784290632,
2023-08-17 13:05:31.226000,-8.843373493975903,-1.566265060240964,-3.9036144578313254,-1.6039239730226853,-8.775597792765174,-3.573267933782955,2.0,1.6989010989010989,588.6157826649418,-1.6838179593263778,-0.19789056581784217,0.4252665928558941,1235.164835164835,-1.0,57.59550035153504,1.6990284033803946,
2023-08-17 13:05:31.233000,-8.879518072289157,-1.6144578313253013,-3.927710843373494,-1.6039239730226853,-8.743715511955855,-3.573267933782955,2.0,1.6989010989010989,588.6157826649418,-1.5798613134432722,-0.37876580618845096,0.38972087873667044,1232.967032967033,-1.0,57.59550035153504,1.6990369677097044,
2023-08-17 13:05:31.241000,-8.831325301204819,-1.5903614457831325,-3.91566265060241,-1.5843041079092581,-8.675045984058858,-3.602697731453096,2.0,1.6989010989010989,588.6157826649418,-1.4752054076102796,-0.2510343220092077,0.5060311170677699,1230.03663003663,-1.0,57.59550035153504,1.6990449747974627,
2023-08-17 13:05:31.249000,-8.843373493975903,-1.602409638554217,-3.9397590361445785,-1.5303494788473329,-8.677498467198038,-3.5585530349478844,2.0,1.6974358974358976,589.1238670694863,-1.6910436454752071,0.12038925470543665,0.408251267408659,1227.106227106227,-1.0,57.59550035153504,1.699052428576438,
2023-08-17 13:05:31.256000,-8.843373493975903,-1.5903614457831325,-3.879518072289157,-1.5352544451256898,-8.716738197424892,-3.637032495401594,2.0,1.6974358974358976,589.1238670694863,-1.7218110832702052,0.2714294038808923,0.6163976458248356,1223.4432234432234,-1.0,57.59550035153504,1.6990593330362953,
2023-08-17 13:05:31.264000,-8.855421686746988,-1.602409638554217,-3.927710843373494,-1.554874310239117,-8.71919068056407,-3.578172900061312,2.0,1.6974358974358976,589.1238670694863,-2.194277722743429,-0.050113629741856874,0.5905250276790396,1219.7802197802198,-1.0,57.59550035153504,1.6990656921475737,
2023-08-17 13:05:31.272000,-8.831325301204819,-1.5783132530120483,-3.91566265060241,-1.567136725935009,-8.738810545677499,-3.607602697731453,2.0,1.6989010989010989,588.6157826649418,-1.989278014101742,0.1792436338208736,0.4153604102325039,1216.117216117216,-1.0,57.59550035153504,1.6990715103090377,
2023-08-17 13:05:31.279000,-8.867469879518072,-1.5903614457831325,-3.927710843373494,-1.5622317596566522,-8.758430410790925,-3.6002452483139176,2.0,1.6989010989010989,588.6157826649418,-2.3685099935901164,0.05384301614125059,0.02948546122020847,1211.7216117216117,-1.0,57.59550035153504,1.699076792370212,
2023-08-17 13:05:31.287000,-8.879518072289157,-1.602409638554217,-3.9397590361445785,-1.5033721643163702,-8.75107296137339,-3.6051502145922747,2.0,1.6974358974358976,589.1238670694863,-2.7449449332789473,-0.2685158207563662,0.28821164267816574,1208.058608058608,-1.0,57.59550035153504,1.6990815442146945,
2023-08-17 13:05:31.295000,-8.879518072289157,-1.5783132530120483,-3.9397590361445785,-1.4837522992029428,-8.775597792765174,-3.637032495401594,2.0,1.6989010989010989,588.6157826649418,-2.7977390594953686,-0.542625721111823,0.28541460287862,1207.3260073260074,-1.0,57.59550035153504,1.6990857722206028,
2023-08-17 13:05:31.302000,-8.831325301204819,-1.602409638554217,-3.9759036144578315,-1.5107296137339055,-8.704475781729,-3.5977927651747392,2.0,1.6974358974358976,589.1238670694863,-3.274517801992889,-0.80344968241944,-0.0679447584639587,1208.7912087912086,-1.0,57.59550035153504,1.6990894827199687,
2023-08-17 13:05:31.310000,-8.819277108433736,-1.602409638554217,-3.9759036144578315,-1.554874310239117,-8.670141017780502,-3.6296750459840585,2.0,1.6974358974358976,589.1238670694863,-3.837188975001459,-0.5025348173183388,-0.5577763533593612,1210.2564102564102,-1.0,57.59550035153504,1.6990926825441097,
2023-08-17 13:05:31.318000,-8.783132530120483,-1.6144578313253013,-3.951807228915663,-1.6063764561618639,-8.68976088289393,-3.6100551808706314,2.0,1.6974358974358976,589.1238670694863,-3.9382320377600384,-0.0051279062991672186,-0.18518734339490714,1214.6520146520145,-1.0,57.59550035153504,1.6990953789014778,
2023-08-17 13:05:31.325000,-8.867469879518072,-1.6265060240963856,-3.9397590361445785,-1.5990190067443286,-8.704475781729,-3.6051502145922747,2.0,1.6974358974358976,589.1238670694863,-4.265252607656896,0.25627877163335405,-0.15640114212458497,1217.5824175824175,-1.0,57.59550035153504,1.6990975793237748,
2023-08-17 13:05:31.333000,-8.879518072289157,-1.6144578313253013,-3.91566265060241,-1.5597792765174738,-8.741263028816677,-3.5291232372777435,2.0,1.6974358974358976,589.1238670694863,-4.0358953440941665,0.0973136763591859,-0.1530213857001342,1222.7106227106226,-1.0,57.59550035153504,1.6990992916453111,
2023-08-17 13:05:31.341000,-8.831325301204819,-1.5903614457831325,-3.9397590361445785,-1.5597792765174738,-8.760882893930104,-3.5340282035561,2.0,1.6974358974358976,589.1238670694863,-4.349396888293223,-0.2292407202377479,-0.4419322883281858,1227.8388278388277,-1.0,57.59550035153504,1.6991005235230168,
2023-08-17 13:05:31.348000,-8.843373493975903,-1.6265060240963856,-3.8674698795180724,-1.542611894543225,-8.724095646842427,-3.543838136112814,2.0,1.6974358974358976,589.1238670694863,-4.629333954897733,-0.33168230289610107,0.12784802750422494,1235.164835164835,-1.0,57.59550035153504,1.6991012829380334,
2023-08-17 13:05:31.356000,-8.831325301204819,-1.602409638554217,-3.8674698795180724,-1.554874310239117,-8.726548129981605,-3.5511955855303494,2.0,1.6974358974358976,589.1238670694863,-5.567158091020338,-0.2600081580327495,-0.2252782471883921,1242.4908424908424,-1.0,57.59550035153504,1.699101578134111,
2023-08-17 13:05:31.364000,-8.843373493975903,-1.6506024096385543,-3.891566265060241,-1.6112814224402205,-8.738810545677499,-3.561005518087063,2.0,1.6974358974358976,589.1238670694863,-5.903035953615758,0.5033506205932047,-0.05733931589068219,1251.2820512820513,-1.0,57.59550035153504,1.6991014171667547,
2023-08-17 13:05:31.371000,-8.879518072289157,-1.6626506024096386,-3.843373493975904,-1.5941140404659717,-8.795217657878602,-3.531575720416922,2.0,1.6974358974358976,589.1238670694863,-5.597692442165377,0.4728162694481665,-0.01153778917312494,1257.8754578754579,1110.687255859375,54.020607226267344,1.699100808365029,
2023-08-17 13:05:31.379000,-8.903614457831326,-1.6506024096385543,-3.8674698795180724,-1.64316370324954,-8.809932556713672,-3.504598405885959,2.0,1.6974358974358976,589.1238670694863,-5.521356564302781,-4.661732999250815E-4,-0.17947672047083485,1265.2014652014652,-1.0,54.020607226267344,1.699099760300337,
2023-08-17 13:05:31.387000,-8.891566265060241,-1.6506024096385543,-3.8313253012048194,-1.6284488044144696,-8.78050275904353,-3.4874310239117103,2.0,1.6974358974358976,589.1238670694863,-5.521356564302781,-4.661732999250815E-4,-0.17947672047083485,1268.8644688644688,-1.0,54.020607226267344,1.699098281754944,
2023-08-17 13:05:31.394000,-8.831325301204819,-1.6265060240963856,-3.8192771084337354,-1.5450643776824033,-8.684855916615573,-3.5291232372777435,2.0,1.6974358974358976,589.1238670694863,-5.551890915447819,-0.18367228017015408,-0.3016141250509875,1271.062271062271,-1.0,54.020607226267344,1.6990963816903613,
2023-08-17 13:05:31.402000,-8.783132530120483,-1.6265060240963856,-3.8313253012048194,-1.6284488044144696,-8.71919068056407,-3.4996934396076025,2.0,1.6974358974358976,589.1238670694863,-5.796165724608125,0.014801002272594002,-0.210011071615873,1273.260073260073,-1.0,54.020607226267344,1.6990940692157257,
2023-08-17 13:05:31.410000,-8.903614457831326,-1.674698795180723,-3.8313253012048194,-1.6088289393010422,-8.829552421827099,-3.4702636419374615,2.0,1.6974358974358976,589.1238670694863,-6.315249694073773,1.2819765747916778,-0.3474156517685448,1277.6556776556777,-1.0,54.020607226267344,1.6990913535562855,
2023-08-17 13:05:31.417000,-8.951807228915664,-1.6626506024096386,-3.807228915662651,-1.613733905579399,-8.802575107296137,-3.421213979153893,2.0,1.6974358974358976,589.1238670694863,-6.361051220791331,1.2819765747916778,0.37014160013985214,1282.7838827838827,-1.0,54.020607226267344,1.6990882440221078,
2023-08-17 13:05:31.425000,-8.879518072289157,-1.602409638554217,-3.7831325301204823,-1.5082771305947271,-8.839362354383812,-3.514408338442673,2.0,1.6974358974358976,589.1238670694863,-5.796165724608125,0.3659460404405329,-0.2252782471883921,1290.10989010989,-1.0,54.020607226267344,1.6990847499771369,
2023-08-17 13:05:31.433000,-8.759036144578314,-1.5903614457831325,-3.8313253012048194,-1.5082771305947271,-8.599019006744328,-3.5536480686695278,2.0,1.6989010989010989,588.6157826649418,-6.742730610104307,-0.48901579162053577,-0.39321717848610205,1298.168498168498,-1.0,54.020607226267344,1.6990808808087225,
2023-08-17 13:05:31.440000,-8.771084337349398,-1.674698795180723,-3.879518072289157,-1.648068669527897,-8.743715511955855,-3.531575720416922,2.0,1.6974358974358976,589.1238670694863,-7.765631373463086,0.7781597808985482,-0.5000874074937356,1308.4249084249084,-1.0,54.020607226267344,1.6990766463903906,
2023-08-17 13:05:31.448000,-8.855421686746988,-1.7590361445783134,-3.891566265060241,-1.7706928264868178,-8.692213366033108,-3.526670754138565,2.0,1.6974358974358976,589.1238670694863,-8.132043587203544,1.7399918419672504,-0.11840801818075852,1316.4835164835165,-1.0,54.020607226267344,1.6990720566321755,
2023-08-17 13:05:31.456000,-8.867469879518072,-1.7349397590361446,-3.855421686746988,-1.702023298589822,-8.711833231146535,-3.504598405885959,2.0,1.6959706959706962,589.63282937365,-7.490822213157743,1.4041139793718307,-0.3016141250509875,1326.007326007326,-1.0,54.020607226267344,1.6990671209277386,
2023-08-17 13:05:31.463000,-8.831325301204819,-1.6867469879518073,-3.8674698795180724,-1.5646842427958307,-8.665236051502145,-3.5193133047210297,2.0,1.6974358974358976,589.1238670694863,-7.139677174989804,1.098770467921449,-0.6527591632189265,1339.194139194139,-1.0,54.020607226267344,1.6990618485505862,
2023-08-17 13:05:31.471000,-8.831325301204819,-1.6144578313253013,-3.879518072289157,-1.5916615573267934,-8.697118332311465,-3.5879828326180254,2.0,1.6974358974358976,589.1238670694863,-8.757997785676826,1.1903735213565634,-0.8817667968067127,1362.6373626373625,-1.0,54.020607226267344,1.6990562485235696,
2023-08-17 13:05:31.479000,-8.807228915662652,-1.63855421686747,-3.879518072289157,-1.6382587369711832,-8.687308399754752,-3.5291232372777435,2.0,1.6974358974358976,589.1238670694863,-9.2160130528524,0.8850300099061817,-1.2329118349746515,1400.0,-1.0,54.020607226267344,1.6990503296974833,
2023-08-17 13:05:31.486000,-8.771084337349398,-1.6626506024096386,-3.855421686746988,-1.5843041079092581,-8.709380748007357,-3.507050889025138,2.0,1.6974358974358976,589.1238670694863,-9.658761144455452,1.0835032923489298,-1.507720995279995,1455.6776556776556,-1.0,54.020607226267344,1.699044100761014,
2023-08-17 13:05:31.494000,-8.783132530120483,-1.6144578313253013,-3.843373493975904,-1.6063764561618639,-8.640711220110362,-3.467811158798283,2.0,1.6974358974358976,589.1238670694863,-9.887768778043238,0.7018239030359528,-1.8130645067303768,1531.8681318681317,-1.0,54.020607226267344,1.6990375702171856,
2023-08-17 13:05:31.502000,-8.74698795180723,-1.5903614457831325,-3.879518072289157,-1.5009196811771919,-8.630901287553648,-3.556100551808706,2.0,1.6974358974358976,589.1238670694863,-10.651127556669193,-0.5653516694831312,-2.8970339723792318,1627.8388278388277,-1.0,54.020607226267344,1.6990307463611956,
2023-08-17 13:05:31.509000,-8.66265060240964,-1.5783132530120483,-3.9036144578313254,-1.525444512568976,-8.446965052115265,-3.5904353157572038,2.0,1.6974358974358976,589.1238670694863,-10.620593205524155,-1.801992890857177,-3.522988170852514,1742.8571428571427,-1.0,54.020607226267344,1.6990236372597325,
2023-08-17 13:05:31.517000,-8.614457831325302,-1.5903614457831325,-3.963855421686747,-1.5156345800122624,-8.434702636419374,-3.6811771919068055,2.0,1.6974358974358976,589.1238670694863,-11.933570304760796,-1.847794417574734,-4.118408018180759,1870.3296703296703,-1.0,54.020607226267344,1.699016250731845,
2023-08-17 13:05:31.524000,-8.578313253012048,-1.6265060240963856,-4.0120481927710845,-1.5941140404659717,-8.427345187001839,-3.6419374616799507,2.0,1.6974358974358976,589.1238670694863,-12.574791678806598,-1.7561913641396196,-4.469553056348698,2004.3956043956043,-1.0,54.020607226267344,1.699008594331461,
2023-08-17 13:05:31.532000,-8.614457831325302,-1.674698795180723,-4.0120481927710845,-1.630901287553648,-8.481299816063764,-3.67381974248927,2.0,1.6974358974358976,589.1238670694863,-12.52899015208904,-0.9470310587961083,-4.622224812073888,2138.461538461538,-1.0,54.020607226267344,1.6990006753316016,
2023-08-17 13:05:31.540000,-8.674698795180724,-1.674698795180723,-3.9759036144578315,-1.5597792765174738,-8.608828939301041,-3.5977927651747392,2.0,1.6974358974358976,589.1238670694863,-12.37631839636385,0.42701474273060924,-5.202377483829614,2266.6666666666665,-1.0,54.020607226267344,1.6989925007103601,
2023-08-17 13:05:31.547000,-8.795180722891567,-1.63855421686747,-3.9397590361445785,-1.5622317596566522,-8.67259350091968,-3.5830778663396687,2.0,1.6959706959706962,589.63282937365,-12.742730610104308,0.7934269564710672,-5.049705728104423,2384.6153846153843,-1.0,54.020607226267344,1.698984077138699,
2023-08-17 13:05:31.555000,-8.891566265060241,-1.6144578313253013,-3.91566265060241,-1.5622317596566522,-8.87614960147149,-3.543838136112814,2.0,1.6974358974358976,589.1238670694863,-12.941203892547055,1.0682361167764107,-5.446652292989919,2487.912087912088,-1.0,54.020607226267344,1.6989754104774475,
2023-08-17 13:05:31.563000,-8.987951807228916,-1.6144578313253013,-3.8313253012048194,-1.5818516247700796,-8.89086450030656,-3.5340282035561,2.0,1.6974358974358976,589.1238670694863,-13.567158091020337,0.9766330633412963,-5.202377483829614,2571.428571428571,-1.0,54.020607226267344,1.698966506189323,
2023-08-17 13:05:31.570000,-9.0,-1.6265060240963856,-3.879518072289157,-1.625996321275291,-8.930104230533415,-3.4996934396076025,2.0,1.6974358974358976,589.1238670694863,-14.269448167356217,-0.19893945574267316,-5.416117941844881,2632.967032967033,-1.0,54.020607226267344,1.6989573698569203,
2023-08-17 13:05:31.578000,-9.012048192771084,-1.6144578313253013,-3.855421686746988,-1.5156345800122624,-8.898221949724094,-3.561005518087063,2.0,1.6974358974358976,589.1238670694863,-14.971738243692094,-1.5271837305518334,-5.538255346425034,2669.5970695970695,-1.0,54.020607226267344,1.6989480067196423,
2023-08-17 13:05:31.586000,-9.0,-1.6144578313253013,-3.879518072289157,-1.5524218270999386,-8.898221949724094,-3.5095033721643163,2.0,1.6974358974358976,589.1238670694863,-15.109142823844765,-2.4432142649029784,-5.889400384592973,2679.8534798534797,-1.0,54.020607226267344,1.6989384216704948,
2023-08-17 13:05:31.593000,-8.951807228915664,-1.6265060240963856,-3.855421686746988,-1.554874310239117,-8.824647455548742,-3.548743102391171,2.0,1.6974358974358976,589.1238670694863,-15.567158091020337,-2.931763883223589,-5.76726298001282,2668.8644688644686,-1.0,54.020607226267344,1.698928619254867,
2023-08-17 13:05:31.601000,-8.891566265060241,-1.63855421686747,-3.927710843373494,-1.6407112201103617,-8.748620478234212,-3.585530349478847,2.0,1.6974358974358976,589.1238670694863,-15.994639007050871,-3.5729852572693908,-6.072606491463201,2639.5604395604396,-1.0,54.020607226267344,1.6989186036712969,
2023-08-17 13:05:31.609000,-8.855421686746988,-1.6265060240963856,-3.9397590361445785,-1.5818516247700796,-8.645616186388718,-3.5757204169221333,2.0,1.6959706959706962,589.63282937365,-16.65112755666919,-3.3592447992541232,-5.904667560165492,2591.208791208791,-1.0,54.020607226267344,1.6989083783163361,
2023-08-17 13:05:31.616000,-8.807228915662652,-1.6265060240963856,-3.927710843373494,-1.554874310239117,-8.618638871857755,-3.543838136112814,2.0,1.6974358974358976,589.1238670694863,-16.987005419264612,-4.137870753452597,-6.515354583066255,2530.4029304029305,-1.0,54.020607226267344,1.6988979462795681,
2023-08-17 13:05:31.624000,-8.759036144578314,-1.63855421686747,-3.951807228915663,-1.5303494788473329,-8.623543838136113,-3.5977927651747392,2.0,1.6959706959706962,589.63282937365,-17.20074587727988,-4.122603577880078,-6.500087407493735,2459.3406593406594,-1.0,54.020607226267344,1.6988873106667004,
2023-08-17 13:05:31.632000,-8.710843373493976,-1.6265060240963856,-3.9759036144578315,-1.5892090741876148,-8.61128142244022,-3.6174126302881664,2.0,1.6974358974358976,589.1238670694863,-17.65876114445545,-4.07680205116252,-6.500087407493735,2383.8827838827838,-1.0,54.020607226267344,1.6988764737267446,
2023-08-17 13:05:31.639000,-8.686746987951807,-1.6265060240963856,-3.91566265060241,-1.6161863887185774,-8.569589209074188,-3.644389944819129,2.0,1.6974358974358976,589.1238670694863,-18.223646640638655,-3.7103898374220625,-6.668026338791446,2306.9597069597066,-1.0,54.020607226267344,1.698865436859133,
2023-08-17 13:05:31.647000,-8.710843373493976,-1.63855421686747,-3.951807228915663,-1.5622317596566522,-8.557326793378294,-3.6125076640098097,2.0,1.6974358974358976,589.1238670694863,-18.422119923081404,-3.313443272536566,-7.171843132684575,2232.234432234432,-1.0,54.020607226267344,1.6988542016748596,
2023-08-17 13:05:31.655000,-8.72289156626506,-1.6506024096385543,-3.91566265060241,-1.542611894543225,-8.584304107909258,-3.56591048436542,2.0,1.6974358974358976,589.1238670694863,-18.590058854379116,-3.0386341122312226,-7.4771866441349575,2162.6373626373625,-1.0,54.020607226267344,1.6988427695145052,
2023-08-17 13:05:31.662000,-8.771084337349398,-1.63855421686747,-3.891566265060241,-1.5843041079092581,-8.572041692213366,-3.526670754138565,2.0,1.6974358974358976,589.1238670694863,-18.590058854379116,-3.0386341122312226,-7.4771866441349575,2102.5641025641025,-1.0,54.020607226267344,1.6988311410378307,
2023-08-17 13:05:31.670000,-8.819277108433736,-1.63855421686747,-3.855421686746988,-1.5082771305947271,-8.697118332311465,-3.5389331698344573,2.0,1.6974358974358976,589.1238670694863,-19.35341763300507,-3.0386341122312226,-8.087873667035721,2053.4798534798533,-1.0,54.020607226267344,1.698819316728785,
2023-08-17 13:05:31.678000,-8.843373493975903,-1.6265060240963856,-3.855421686746988,-1.601471489883507,-8.73635806253832,-3.4923359901900675,2.0,1.6959706959706962,589.63282937365,-19.47555503758522,-3.435580677116719,-8.27107977390595,2015.3846153846152,-1.0,54.020607226267344,1.6988072969100594,
2023-08-17 13:05:31.685000,-8.855421686746988,-1.602409638554217,-3.855421686746988,-1.5622317596566522,-8.778050275904352,-3.548743102391171,2.0,1.6959706959706962,589.63282937365,-20.238913816211177,-3.8477944175747343,-8.194743896043354,1983.150183150183,-1.0,54.020607226267344,1.698795081267084,
2023-08-17 13:05:31.693000,-8.855421686746988,-1.602409638554217,-3.879518072289157,-1.542611894543225,-8.724095646842427,-3.5291232372777435,2.0,1.6974358974358976,589.1238670694863,-20.803799312394382,-4.137870753452597,-8.94283549909679,1953.8461538461538,-1.0,54.020607226267344,1.6987826687945138,
2023-08-17 13:05:31.701000,-8.867469879518072,-1.5783132530120483,-3.891566265060241,-1.5082771305947271,-8.782955242182709,-3.548743102391171,2.0,1.6959706959706962,589.63282937365,-20.97173824369209,-4.626420371773207,-8.94283549909679,1925.2747252747251,-1.0,54.020607226267344,1.6987700587617653,
2023-08-17 13:05:31.708000,-8.843373493975903,-1.566265060240964,-3.891566265060241,-1.5622317596566522,-8.662783568362967,-3.5830778663396687,2.0,1.6959706959706962,589.63282937365,-21.5366237398753,-4.870695180933513,-9.09550725482198,1899.6336996336995,-1.0,54.020607226267344,1.6987572503086874,
2023-08-17 13:05:31.716000,-8.855421686746988,-1.5421686746987953,-3.9397590361445785,-1.513182096873084,-8.714285714285714,-3.5536480686695278,2.0,1.6959706959706962,589.63282937365,-22.361051220791328,-5.099702814521299,-9.431385117417399,1874.7252747252746,-1.0,54.020607226267344,1.698744241938246,
2023-08-17 13:05:31.724000,-8.831325301204819,-1.5542168674698795,-3.9397590361445785,-1.525444512568976,-8.652973635806253,-3.619865113427345,2.0,1.6959706959706962,589.63282937365,-22.8190664879669,-5.298176096964047,-9.965736262455568,1848.3516483516482,-1.0,54.020607226267344,1.6987310319931146,
2023-08-17 13:05:31.731000,-8.831325301204819,-1.566265060240964,-3.987951807228916,-1.5205395462906193,-8.684855916615573,-3.6689147762109133,2.0,1.6959706959706962,589.63282937365,-23.597692442165375,-5.099702814521299,-10.179476720470834,1821.9780219780218,-1.0,54.020607226267344,1.6987176186751458,
2023-08-17 13:05:31.739000,-8.819277108433736,-1.566265060240964,-3.9759036144578315,-1.4347026364193745,-8.675045984058858,-3.614960147148988,2.0,1.6959706959706962,589.63282937365,-24.19311228949362,-5.618786783986947,-9.93520191131053,1794.8717948717947,-1.0,54.020607226267344,1.6987040000654918,
2023-08-17 13:05:31.747000,-8.807228915662652,-1.5542168674698795,-3.987951807228916,-1.4886572654812997,-8.645616186388718,-3.6174126302881664,2.0,1.6959706959706962,589.63282937365,-24.590058854379116,-5.008099761086185,-10.759629392226561,1765.5677655677655,-1.0,54.020607226267344,1.6986901741452216,
