Shimmer_F5D4_Timestamp_FormattedUnix_CAL,Shimmer_F5D4_Accel_LN_X_CAL,Shimmer_F5D4_Accel_LN_Y_CAL,Shimmer_F5D4_Accel_LN_Z_CAL,Shimmer_F5D4_Accel_WR_X_CAL,Shimmer_F5D4_Accel_WR_Y_CAL,Shimmer_F5D4_Accel_WR_Z_CAL,Shimmer_F5D4_GSR_Range_CAL,Shimmer_F5D4_GSR_Skin_Conductance_CAL,Shimmer_F5D4_GSR_Skin_Resistance_CAL,Shimmer_F5D4_Gyro_X_CAL,Shimmer_F5D4_Gyro_Y_CAL,Shimmer_F5D4_Gyro_Z_CAL,Shimmer_F5D4_PPG_A13_CAL,Shimmer_F5D4_PPG_IBI_CAL,Shimmer_F5D4_PPGtoHR_CAL,Shimmer_F5D4_GSR_Skin_Conductance_LPF_CAL,
yyyy/mm/dd hh:mm:ss.000,m/(s^2),m/(s^2),m/(s^2),m/(s^2),m/(s^2),m/(s^2),no_units,uS,kOhms,deg/s,deg/s,deg/s,mV,ms,BPM,uS,
2023-08-10 18:39:19.216000,-6.963855421686747,-0.855421686746988,-6.927710843373494,-0.7946045370938074,-6.72041692213366,-6.680564071122011,2.0,1.9787545787545786,505.36838208071083,0.04032399044344752,0.16805547462269074,-0.0012819765747918046,1246.153846153846,-1.0,51.53281610400503,1.9814233122508413,
2023-08-10 18:39:19.224000,-6.9397590361445785,-0.8313253012048193,-6.903614457831326,-0.7676272225628449,-6.73513182096873,-6.673206621704475,2.0,1.9758241758241757,506.1179087875417,-0.26583532428180173,-0.0027970397995452823,-0.16782238797272864,1248.3516483516482,-1.0,51.53281610400503,1.981390209157534,
2023-08-10 18:39:19.232000,-6.975903614457832,-0.8433734939759037,-6.975903614457832,-0.8412017167381973,-6.757204169221336,-6.638871857755977,2.0,1.9772893772893774,505.74286772878844,0.23972961948604404,-0.03309830429462177,-0.11817493153079642,1249.8168498168498,-1.0,51.53281610400503,1.9813571544233977,
2023-08-10 18:39:19.239000,-6.975903614457832,-0.855421686746988,-6.9397590361445785,-0.8142244022072348,-6.695892090741876,-6.658491722869405,2.0,1.9772893772893774,505.74286772878844,-0.03671114736903465,-0.2143231746401731,0.006176796223996482,1252.7472527472526,-1.0,51.53281610400503,1.9813241462434228,
2023-08-10 18:39:19.247000,-6.975903614457832,-0.855421686746988,-6.9397590361445785,-0.8338442673206621,-6.754751686082158,-6.638871857755977,2.0,1.9787545787545786,505.36838208071083,-0.14334828972670657,-0.013752112347764738,0.190548336344036,1258.6080586080586,-1.0,51.53281610400503,1.9812911830686695,
2023-08-10 18:39:19.255000,-6.951807228915663,-0.855421686746988,-6.9397590361445785,-0.7553648068669527,-6.757204169221336,-6.643776824034334,2.0,1.9772893772893774,505.74286772878844,0.055008449391060685,0.003496299749432037,-0.06980945166365599,1263.003663003663,-1.0,51.53281610400503,1.9812582636422422,
2023-08-10 18:39:19.262000,-6.963855421686747,-0.8433734939759037,-6.975903614457832,-0.8191293684855916,-6.708154506437768,-6.670754138565297,2.0,1.9772893772893774,505.74286772878844,0.09906182623390192,0.1553522521997553,0.204416992016782,1265.9340659340658,-1.0,51.53281610400503,1.98122538658032,
2023-08-10 18:39:19.270000,-6.963855421686747,-0.8433734939759037,-6.963855421686747,-0.8142244022072348,-6.749846719803801,-6.636419374616799,2.0,1.9772893772893774,505.74286772878844,0.12784802750422405,0.06468154536448921,0.1555853388497174,1267.3992673992673,-1.0,51.53281610400503,1.981192549849572,
2023-08-10 18:39:19.278000,-6.987951807228916,-0.8674698795180723,-6.951807228915663,-0.7676272225628449,-6.686082158185162,-6.658491722869405,2.0,1.9772893772893774,505.74286772878844,-0.2259775071382793,-0.10384010255812663,-0.07388846803799308,1268.131868131868,-1.0,51.53281610400503,1.981159751228002,
2023-08-10 18:39:19.285000,-6.963855421686747,-0.855421686746988,-6.951807228915663,-0.7529123237277743,-6.661557326793378,-6.66584917228694,2.0,1.9772893772893774,505.74286772878844,0.004778276324222974,0.03577880076918622,-0.16467571819823998,1269.5970695970695,-1.0,51.53281610400503,1.9811269883084317,
2023-08-10 18:39:19.293000,-6.963855421686747,-0.8674698795180723,-6.951807228915663,-0.7749846719803801,-6.762109135499693,-6.685469037400368,2.0,1.9772893772893774,505.74286772878844,-0.14847619602587203,0.020628168521647974,0.11106578870695194,1270.3296703296703,-1.0,51.53281610400503,1.9810942585025488,
2023-08-10 18:39:19.301000,-6.987951807228916,-0.8674698795180723,-6.951807228915663,-0.8534641324340895,-6.703249540159411,-6.6781115879828326,2.0,1.9787545787545786,505.36838208071083,-0.02587261814579603,0.15616805547462287,-0.13285939047841044,1271.7948717948716,-1.0,51.53281610400503,1.981061559045565,
2023-08-10 18:39:19.308000,-6.987951807228916,-0.855421686746988,-6.963855421686747,-0.82158185162477,-6.727774371551195,-6.599632127529123,2.0,1.9787545787545786,505.36838208071083,0.20127032224229335,-0.1048889924829559,0.03566225744420495,1271.7948717948716,-1.0,51.53281610400503,1.9810288874942217,
2023-08-10 18:39:19.316000,-6.987951807228916,-0.855421686746988,-6.9397590361445785,-0.7847946045370937,-6.72041692213366,-6.670754138565297,2.0,1.9772893772893774,505.74286772878844,0.10966726880717886,0.049880543091895206,0.005943709574033941,1271.062271062271,-1.0,51.53281610400503,1.9809962418050437,
2023-08-10 18:39:19.324000,-6.975903614457832,-0.855421686746988,-6.951807228915663,-0.7798896382587369,-6.681177191906805,-6.668301655426118,2.0,1.9772893772893774,505.74286772878844,0.09288503000990543,0.09626478643435664,-0.20651477186644143,1271.7948717948716,-1.0,51.53281610400503,1.9809636189383213,
2023-08-10 18:39:19.331000,-6.963855421686747,-0.855421686746988,-6.951807228915663,-0.8117719190680563,-6.666462293071735,-6.646229307173513,2.0,1.9772893772893774,505.74286772878844,-0.1074529456325395,0.09486626653458487,-0.23576714643668778,1276.1904761904761,-1.0,51.53281610400503,1.9809310153248658,
2023-08-10 18:39:19.339000,-6.9397590361445785,-0.855421686746988,-6.927710843373494,-0.7725321888412017,-6.757204169221336,-6.65113427345187,2.0,1.9772893772893774,505.74286772878844,-0.2914748557776361,-0.013519025697803066,-0.0652642619893947,1281.3186813186812,-1.0,51.53281610400503,1.9808984282125734,
2023-08-10 18:39:19.347000,-6.951807228915663,-0.855421686746988,-6.975903614457832,-0.7896995708154506,-6.757204169221336,-6.660944206008583,2.0,1.9772893772893774,505.74286772878844,-0.2749257036303243,-0.030068177845113085,-0.03286521764465924,1283.5164835164835,-1.0,51.53281610400503,1.9808658546597877,
2023-08-10 18:39:19.354000,-6.987951807228916,-0.8433734939759037,-6.975903614457832,-0.851011649294911,-6.742489270386265,-6.680564071122011,2.0,1.9772893772893774,505.74286772878844,-0.015150632247538248,0.09381737660975387,-0.031233611094924486,1286.4468864468863,-1.0,51.53281610400503,1.98083329112616,
2023-08-10 18:39:19.362000,-6.951807228915663,-0.855421686746988,-6.9397590361445785,-0.8191293684855916,-6.703249540159411,-6.656039239730227,2.0,1.9772893772893774,505.74286772878844,0.19987180234252158,-0.014218285647689819,0.06001981236524664,1289.3772893772893,-1.0,51.53281610400503,1.9808007339774896,
2023-08-10 18:39:19.370000,-6.951807228915663,-0.855421686746988,-6.9397590361445785,-0.8191293684855916,-6.72041692213366,-6.675659104843654,2.0,1.9772893772893774,505.74286772878844,0.0621175922149056,-0.07563661791270866,0.05897092244041737,1290.8424908424909,-1.0,51.53281610400503,1.9807681794987202,
2023-08-10 18:39:19.377000,-6.987951807228916,-0.855421686746988,-6.963855421686747,-0.8142244022072348,-6.798896382587369,-6.6781115879828326,2.0,1.9758241758241757,506.1179087875417,0.26047433133267284,0.19742439251791882,0.09008799021036058,1289.3772893772893,-1.0,51.53281610400503,1.9807356239077591,
2023-08-10 18:39:19.385000,-6.975903614457832,-0.8433734939759037,-6.987951807228916,-0.8362967504598405,-6.678724708767627,-6.631514408338442,2.0,1.9772893772893774,505.74286772878844,-0.04685041664238651,-0.26187285123244636,0.014218285647689385,1288.6446886446886,-1.0,51.53281610400503,1.9807030633353064,
2023-08-10 18:39:19.393000,-6.987951807228916,-0.8433734939759037,-6.987951807228916,-0.7553648068669527,-6.75229920294298,-6.683016554261189,2.0,1.9772893772893774,505.74286772878844,0.09067070683526607,0.030068177845113085,1.1654332498127038E-4,1291.5750915750914,-1.0,51.53281610400503,1.9806704941935127,
2023-08-10 18:39:19.400000,-6.975903614457832,-0.8433734939759037,-6.963855421686747,-0.8019619865113427,-6.703249540159411,-6.648681790312692,2.0,1.9772893772893774,505.74286772878844,0.0916030534351145,4.661732999250815E-4,0.24415826583532407,1293.7728937728937,-1.0,51.53281610400503,1.9806379127704186,
2023-08-10 18:39:19.408000,-6.975903614457832,-0.8433734939759037,-6.927710843373494,-0.7431023911710607,-6.713059472716124,-6.663396689147762,2.0,1.9772893772893774,505.74286772878844,0.07505390128780448,-0.10628751238272767,-0.20103723559233125,1295.970695970696,-1.0,51.53281610400503,1.9806053148593108,
2023-08-10 18:39:19.416000,-6.987951807228916,-0.855421686746988,-6.927710843373494,-0.7970570202329859,-6.754751686082158,-6.648681790312692,2.0,1.9772893772893774,505.74286772878844,0.04451955014276631,-0.05967018239030283,-0.1065205990326902,1295.2380952380952,-1.0,51.53281610400503,1.9805726962671701,
2023-08-10 18:39:19.423000,-6.987951807228916,-0.8674698795180723,-6.9397590361445785,-0.7995095033721643,-6.73513182096873,-6.629061925199264,2.0,1.9772893772893774,505.74286772878844,0.04498572344268966,0.24660567565992728,-0.028669657945341313,1295.2380952380952,-1.0,51.53281610400503,1.9805400528311496,
2023-08-10 18:39:19.431000,-7.0,-0.855421686746988,-6.9397590361445785,-0.7995095033721643,-6.781729000613121,-6.638871857755977,2.0,1.9772893772893774,505.74286772878844,-0.04696695996736735,0.10966726880717886,0.0788998310121786,1294.5054945054944,-1.0,51.53281610400503,1.980507380435758,
2023-08-10 18:39:19.439000,-6.951807228915663,-0.8433734939759037,-6.9397590361445785,-0.8044144696505211,-6.698344573881054,-6.668301655426118,2.0,1.9772893772893774,505.74286772878844,0.3037119049006465,0.07855020103723478,0.1086183788823496,1293.7728937728937,-1.0,51.53281610400503,1.9804746750306934,
2023-08-10 18:39:19.446000,-6.987951807228916,-0.8674698795180723,-6.9397590361445785,-0.8289393010423053,-6.67381974248927,-6.673206621704475,2.0,1.9772893772893774,505.74286772878844,-0.12551716100460386,-0.2885612726531082,-0.01480100227259487,1294.5054945054944,-1.0,51.53281610400503,1.9804419326492952,
2023-08-10 18:39:19.454000,-6.987951807228916,-0.8433734939759037,-6.9397590361445785,-0.8142244022072348,-6.737584304107909,-6.675659104843654,2.0,1.9772893772893774,505.74286772878844,0.015616805547461593,-0.3306334129712718,-0.0015150632247539115,1295.970695970696,-1.0,51.53281610400503,1.9804091494275806,
2023-08-10 18:39:19.461000,-6.975903614457832,-0.855421686746988,-6.951807228915663,-0.8068669527896996,-6.742489270386265,-6.638871857755977,2.0,1.9772893772893774,505.74286772878844,-0.10593788240778515,-0.17388264087174474,-0.10791911893246328,1295.2380952380952,-1.0,51.53281610400503,1.9803763220816724,
2023-08-10 18:39:19.469000,-6.975903614457832,-0.855421686746988,-6.951807228915663,-0.8436541998773758,-6.757204169221336,-6.668301655426118,2.0,1.9772893772893774,505.74286772878844,-0.10768603228250118,-0.17178486102208446,-0.10617096905774727,1295.2380952380952,-1.0,51.53281610400503,1.9803434478605686,
2023-08-10 18:39:19.477000,-6.963855421686747,-0.855421686746988,-6.951807228915663,-0.7651747394236664,-6.727774371551195,-6.658491722869405,2.0,1.9772893772893774,505.74286772878844,-0.16700658469786148,-0.01829730202202604,-0.13484062700308858,1296.7032967032967,-1.0,51.53281610400503,1.9803105236203176,
2023-08-10 18:39:19.484000,-6.951807228915663,-0.8674698795180723,-6.951807228915663,-0.8019619865113427,-6.725321888412017,-6.646229307173513,2.0,1.9772893772893774,505.74286772878844,0.0170153254472351,-0.17003671114736846,0.12609987762950892,1295.970695970696,-1.0,51.53281610400503,1.9802775459156796,
2023-08-10 18:39:19.492000,-6.975903614457832,-0.855421686746988,-6.951807228915663,-0.7774371551195585,-6.656652360515021,-6.673206621704475,2.0,1.9772893772893774,505.74286772878844,-0.17994289377075864,0.05955363906532199,-0.0710914282384478,1294.5054945054944,1164.306640625,51.53281610400503,1.9802445119703882,
2023-08-10 18:39:19.500000,-6.987951807228916,-0.8674698795180723,-6.963855421686747,-0.8362967504598405,-6.700797057020233,-6.668301655426118,2.0,1.9772893772893774,505.74286772878844,0.1712021443971803,0.1214381446302659,0.03636151739409127,1293.040293040293,-1.0,51.53281610400503,1.9802114196298095,
2023-08-10 18:39:19.507000,-6.987951807228916,-0.855421686746988,-6.963855421686747,-0.7896995708154506,-6.717964438994482,-6.66584917228694,2.0,1.9772893772893774,505.74286772878844,-0.10512207913291756,0.3518442981178257,0.3265543965969347,1292.3076923076922,-1.0,51.53281610400503,1.9801782668926031,
2023-08-10 18:39:19.515000,-7.0,-0.855421686746988,-6.951807228915663,-0.8313917841814837,-6.671367259350092,-6.638871857755977,2.0,1.9772893772893774,505.74286772878844,0.22982343686265383,0.25802692150807005,-0.05768894586562557,1288.6446886446886,-1.0,51.53281610400503,1.9801450519344335,
2023-08-10 18:39:19.523000,-6.975903614457832,-0.8433734939759037,-6.975903614457832,-0.7749846719803801,-6.75229920294298,-6.606989576946658,2.0,1.9772893772893774,505.74286772878844,-0.09102033681020859,0.15197249577530408,-0.14824310937591037,1284.9816849816848,-1.0,51.53281610400503,1.980111773131011,
2023-08-10 18:39:19.530000,-6.963855421686747,-0.855421686746988,-6.975903614457832,-0.7700797057020232,-6.737584304107909,-6.675659104843654,2.0,1.9758241758241757,506.1179087875417,-0.18192413029543805,0.1196899947555499,-0.01165433249810621,1280.5860805860805,-1.0,51.53281610400503,1.980078429080373,
2023-08-10 18:39:19.538000,-6.975903614457832,-0.8433734939759037,-6.963855421686747,-0.8608215818516247,-6.708154506437768,-6.641324340895156,2.0,1.9758241758241757,506.1179087875417,0.033447934269564286,-0.32562204999708716,-0.10162577938348596,1282.051282051282,-1.0,51.53281610400503,1.9800450185895277,
2023-08-10 18:39:19.546000,-6.975903614457832,-0.855421686746988,-6.951807228915663,-0.8853464132434089,-6.725321888412017,-6.643776824034334,2.0,1.9772893772893774,505.74286772878844,0.0643319153895467,0.1499912592506264,-0.025872618145795594,1287.179487179487,-1.0,51.53281610400503,1.980011540555568,
2023-08-10 18:39:19.553000,-6.963855421686747,-0.855421686746988,-6.951807228915663,-0.8191293684855916,-6.715511955855303,-6.670754138565297,2.0,1.9772893772893774,505.74286772878844,-0.1637433715983911,-0.2501019754093576,-0.1504574325505506,1293.7728937728937,-1.0,51.53281610400503,1.9799779939839814,
2023-08-10 18:39:19.561000,-6.963855421686747,-0.8313253012048193,-6.963855421686747,-0.7553648068669527,-6.762109135499693,-6.690374003678724,2.0,1.9772893772893774,505.74286772878844,0.12691568090437563,-0.06468154536448921,-0.16444263154827787,1301.8315018315018,-1.0,51.53281610400503,1.9799443781441268,
2023-08-10 18:39:19.569000,-6.963855421686747,-0.8433734939759037,-6.91566265060241,-0.7970570202329859,-6.781729000613121,-6.65113427345187,2.0,1.9772893772893774,505.74286772878844,-0.08682477711089152,0.13530680030301323,-0.10314084260823944,1310.6227106227104,-1.0,51.53281610400503,1.979910692619038,
2023-08-10 18:39:19.576000,-6.963855421686747,-0.855421686746988,-6.9397590361445785,-0.762722256284488,-6.754751686082158,-6.653586756591048,2.0,1.9772893772893774,505.74286772878844,0.05279412621642132,0.16665695472291897,0.1562845987996037,1317.216117216117,-1.0,51.53281610400503,1.9798769373193748,
2023-08-10 18:39:19.584000,-6.975903614457832,-0.8313253012048193,-6.951807228915663,-0.8166768853464133,-6.688534641324341,-6.629061925199264,2.0,1.9772893772893774,505.74286772878844,-0.037876580618844746,-0.19835673911776724,-0.012003962473049154,1321.6117216117216,-1.0,51.53281610400503,1.9798431124963098,
2023-08-10 18:39:19.592000,-6.975903614457832,-0.8313253012048193,-6.951807228915663,-0.8142244022072348,-6.671367259350092,-6.668301655426118,2.0,1.9772893772893774,505.74286772878844,-0.21886836431443438,0.2813355865042825,-0.04300448691801197,1321.6117216117216,-1.0,51.53281610400503,1.9798092187533403,
2023-08-10 18:39:19.599000,-6.987951807228916,-0.8433734939759037,-6.975903614457832,-0.7700797057020232,-6.73513182096873,-6.631514408338442,2.0,1.9772893772893774,505.74286772878844,0.21082687489074106,-0.14905891265077795,0.15511916554979316,1318.6813186813185,-1.0,51.53281610400503,1.9797752570570086,
2023-08-10 18:39:19.607000,-6.975903614457832,-0.8433734939759037,-6.951807228915663,-0.7357449417535254,-6.676272225628448,-6.653586756591048,2.0,1.9772893772893774,505.74286772878844,-0.0981294796340535,-0.012586679097954637,0.09230231338500082,1315.7509157509157,-1.0,51.53281610400503,1.9797412287465261,
2023-08-10 18:39:19.615000,-6.975903614457832,-0.8433734939759037,-6.91566265060241,-0.7970570202329859,-6.771919068056406,-6.663396689147762,2.0,1.9758241758241757,506.1179087875417,0.17633005069634577,-0.3652467804906479,0.09276848668492503,1314.2857142857142,-1.0,51.53281610400503,1.9797071355423137,
2023-08-10 18:39:19.622000,-6.975903614457832,-0.8674698795180723,-6.9397590361445785,-0.8289393010423053,-6.749846719803801,-6.599632127529123,2.0,1.9772893772893774,505.74286772878844,0.20534933861663132,-0.3319153895460645,0.0599032690402658,1317.216117216117,-1.0,51.53281610400503,1.9796729790607646,
2023-08-10 18:39:19.630000,-6.963855421686747,-0.8433734939759037,-6.951807228915663,-0.86817903126916,-6.717964438994482,-6.690374003678724,2.0,1.9772893772893774,505.74286772878844,0.0813472408367818,-0.3576714643668779,-0.26047433133267284,1319.4139194139193,-1.0,51.53281610400503,1.979638761241078,
2023-08-10 18:39:19.638000,-6.963855421686747,-0.8674698795180723,-6.951807228915663,-0.8338442673206621,-6.722869405272839,-6.643776824034334,2.0,1.9758241758241757,506.1179087875417,-0.07412155468795606,-0.17026979779733184,0.06130178894003844,1320.8791208791208,-1.0,51.53281610400503,1.9796044848750158,
2023-08-10 18:39:19.645000,-6.975903614457832,-0.855421686746988,-6.951807228915663,-0.8166768853464133,-6.722869405272839,-6.719803801348865,2.0,1.9758241758241757,506.1179087875417,0.12272012120505858,4.661732999250815E-4,-0.01631606549734878,1321.6117216117216,-1.0,51.53281610400503,1.9795701526599512,
2023-08-10 18:39:19.653000,-6.975903614457832,-0.8674698795180723,-6.963855421686747,-0.7749846719803801,-6.740036787247087,-6.656039239730227,2.0,1.9758241758241757,506.1179087875417,-0.4281801759804211,-0.1381038401025585,-0.06165141891498182,1321.6117216117216,-1.0,51.53281610400503,1.9795357671292253,
2023-08-10 18:39:19.661000,-6.975903614457832,-0.8674698795180723,-6.975903614457832,-0.8093194359288779,-6.747394236664623,-6.695278969957081,2.0,1.9758241758241757,506.1179087875417,-0.1968416758930129,-0.1960258726181453,0.07575316123768994,1324.5421245421244,-1.0,51.53281610400503,1.979501331563875,
2023-08-10 18:39:19.668000,-6.951807228915663,-0.8313253012048193,-6.975903614457832,-0.7651747394236664,-6.683629675045983,-6.658491722869405,2.0,1.9758241758241757,506.1179087875417,0.26501952100693416,-0.008973836023541765,0.107802575607482,1326.007326007326,-1.0,51.53281610400503,1.9794668494618828,
2023-08-10 18:39:19.676000,-6.975903614457832,-0.855421686746988,-6.963855421686747,-0.7847946045370937,-6.762109135499693,-6.719803801348865,2.0,1.9772893772893774,505.74286772878844,0.11024998543208478,-0.11537789173125026,0.21339082804032378,1328.937728937729,-1.0,51.53281610400503,1.9794323241098968,
2023-08-10 18:39:19.684000,-6.951807228915663,-0.855421686746988,-6.9397590361445785,-0.8191293684855916,-6.700797057020233,-6.616799509503371,2.0,1.9743589743589745,506.49350649350646,0.2773731134549271,-0.2365829497115545,0.135772973602937,1329.6703296703297,-1.0,51.53281610400503,1.9793977595592736,
2023-08-10 18:39:19.691000,-6.975903614457832,-0.8674698795180723,-6.927710843373494,-0.8412017167381973,-6.708154506437768,-6.629061925199264,2.0,1.9758241758241757,506.1179087875417,0.12493444437969795,0.009440009323466846,0.21082687489074062,1333.3333333333333,-1.0,51.53281610400503,1.9793631601601134,
2023-08-10 18:39:19.699000,-6.951807228915663,-0.855421686746988,-6.975903614457832,-0.8117719190680563,-6.764561618638871,-6.702636419374617,2.0,1.9758241758241757,506.1179087875417,0.0027970397995452823,0.44985723442689834,0.4696695996736787,1339.194139194139,-1.0,51.53281610400503,1.9793285303779697,
2023-08-10 18:39:19.707000,-6.987951807228916,-0.8795180722891567,-6.963855421686747,-0.8019619865113427,-6.695892090741876,-6.656039239730227,2.0,1.9758241758241757,506.1179087875417,-0.07505390128780448,0.11188159198181996,0.16234485169861892,1342.8571428571427,-1.0,51.53281610400503,1.9792938748173363,
2023-08-10 18:39:19.714000,-6.975903614457832,-0.8674698795180723,-6.951807228915663,-0.7896995708154506,-6.75229920294298,-6.643776824034334,2.0,1.9758241758241757,506.1179087875417,-0.13577297360293658,0.23238739001223746,0.08379465066138327,1346.5201465201465,-1.0,51.53281610400503,1.979259197820268,
2023-08-10 18:39:19.722000,-6.987951807228916,-0.855421686746988,-6.951807228915663,-0.8608215818516247,-6.722869405272839,-6.7148988350705086,2.0,1.9758241758241757,506.1179087875417,-0.28751238272827895,0.049064739817027615,0.3422877454693784,1350.9157509157508,-1.0,51.53281610400503,1.9792245039423215,
2023-08-10 18:39:19.730000,-7.0120481927710845,-0.855421686746988,-6.9397590361445785,-0.7651747394236664,-6.754751686082158,-6.656039239730227,2.0,1.9758241758241757,506.1179087875417,-0.19404463609346762,-0.008857292698560929,0.006176796223996482,1353.113553113553,-1.0,51.53281610400503,1.9791897979349118,
2023-08-10 18:39:19.737000,-6.975903614457832,-0.855421686746988,-6.927710843373494,-0.7774371551195585,-6.764561618638871,-6.648681790312692,2.0,1.9758241758241757,506.1179087875417,0.03671114736903465,-0.12773148417924324,0.038226210593788126,1352.3809523809523,-1.0,51.53281610400503,1.9791550847268988,
2023-08-10 18:39:19.745000,-6.975903614457832,-0.855421686746988,-6.91566265060241,-0.7406499080318822,-6.693439607602698,-6.633966891477621,2.0,1.9758241758241757,506.1179087875417,0.036244974069109565,-0.12295320785502026,0.03845929724375023,1349.4505494505493,-1.0,51.53281610400503,1.979120369405525,
2023-08-10 18:39:19.753000,-6.963855421686747,-0.8433734939759037,-6.903614457831326,-0.7946045370938074,-6.713059472716124,-6.636419374616799,2.0,1.9758241758241757,506.1179087875417,-0.025989161470776866,-0.2720121205057982,0.01153778917312494,1345.054945054945,-1.0,51.53281610400503,1.979085657196836,
2023-08-10 18:39:19.760000,-6.963855421686747,-0.8433734939759037,-6.903614457831326,-0.838749233599019,-6.700797057020233,-6.648681790312692,2.0,1.9758241758241757,506.1179087875417,0.003496299749432037,-0.34566750189382917,0.1339082804032397,1342.1245421245421,-1.0,51.53281610400503,1.9790509534457454,
2023-08-10 18:39:19.768000,-6.951807228915663,-0.855421686746988,-6.9397590361445785,-0.7431023911710607,-6.713059472716124,-6.66584917228694,2.0,1.9758241758241757,506.1179087875417,-0.1501078025756072,0.11269739525668582,-0.06736204183905366,1339.194139194139,-1.0,51.53281610400503,1.9790162635958521,
2023-08-10 18:39:19.776000,-6.975903614457832,-0.8674698795180723,-6.963855421686747,-0.7578172900061312,-6.747394236664623,-6.709993868792152,2.0,1.9758241758241757,506.1179087875417,0.15721694539945213,0.30930598449973706,-0.10011071615873206,1336.263736263736,-1.0,51.53281610400503,1.9789815936270463,
2023-08-10 18:39:19.783000,-6.975903614457832,-0.8674698795180723,-6.975903614457832,-0.8436541998773758,-6.73513182096873,-6.7443286327406495,2.0,1.9758241758241757,506.1179087875417,0.2160713245148891,0.1523221257502483,0.14381446302663034,1337.7289377289376,-1.0,51.53281610400503,1.9789469495101497,
2023-08-10 18:39:19.791000,-6.963855421686747,-0.8433734939759037,-6.987951807228916,-0.7847946045370937,-6.686082158185162,-6.690374003678724,2.0,1.9758241758241757,506.1179087875417,0.16922090787250085,0.5357496649379414,0.14253248645183852,1339.194139194139,-1.0,51.53281610400503,1.9789123367657495,
2023-08-10 18:39:19.799000,-6.963855421686747,-0.8433734939759037,-7.024096385542169,-0.7995095033721643,-6.668914776210913,-6.754138565297363,2.0,1.9758241758241757,506.1179087875417,-0.01619952217236751,-0.15616805547462287,-0.24019579278596825,1339.194139194139,-1.0,51.53281610400503,1.978877761394343,
2023-08-10 18:39:19.806000,-6.951807228915663,-0.819277108433735,-7.0120481927710845,-0.7529123237277743,-6.690987124463519,-6.700183936235438,2.0,1.9758241758241757,506.1179087875417,-0.13903618670240694,0.014917545597576574,-0.011421245848144104,1338.4615384615383,-1.0,51.53281610400503,1.9788432297891336,
2023-08-10 18:39:19.814000,-6.9397590361445785,-0.8433734939759037,-6.975903614457832,-0.8289393010423053,-6.72041692213366,-6.732066217044758,2.0,1.9758241758241757,506.1179087875417,-0.10838529223238792,-0.33401316939572295,-0.0692267350387505,1341.3919413919414,-1.0,51.53281610400503,1.9788087477704104,
2023-08-10 18:39:19.821000,-6.951807228915663,-0.855421686746988,-6.951807228915663,-0.7847946045370937,-6.708154506437768,-6.663396689147762,2.0,1.9758241758241757,506.1179087875417,-0.35289318804265496,-0.050812889691743635,-0.19043179301905475,1351.6483516483515,-1.0,51.53281610400503,1.9787743210956317,
2023-08-10 18:39:19.829000,-6.927710843373494,-0.8795180722891567,-6.963855421686747,-0.8019619865113427,-6.690987124463519,-6.656039239730227,2.0,1.9758241758241757,506.1179087875417,-0.30406153487559073,-0.10535516578287923,-0.11386282850649722,1374.3589743589744,-1.0,51.53281610400503,1.9787399558656857,
2023-08-10 18:39:19.837000,-6.9397590361445785,-0.855421686746988,-6.91566265060241,-0.7651747394236664,-6.747394236664623,-6.594727161250766,2.0,1.9743589743589745,506.49350649350646,-0.029019287920283823,0.3868072956121443,0.009556552648447248,1415.3846153846152,-1.0,51.53281610400503,1.9787056575604294,
2023-08-10 18:39:19.844000,-6.951807228915663,-0.8674698795180723,-6.9397590361445785,-0.8436541998773758,-6.744941753525445,-6.621704475781729,2.0,1.9743589743589745,506.49350649350646,-0.3041780782005716,0.2180525610395668,0.010022725948371463,1481.3186813186812,-1.0,51.53281610400503,1.9786714315155027,
2023-08-10 18:39:19.852000,-6.987951807228916,-0.8674698795180723,-6.91566265060241,-0.7872470876762722,-6.686082158185162,-6.646229307173513,2.0,1.9758241758241757,506.1179087875417,-0.22807528698793783,0.2773731134549271,0.34823145504341235,1572.161172161172,-1.0,51.53281610400503,1.9786372827331649,
2023-08-10 18:39:19.860000,-6.987951807228916,-0.855421686746988,-6.927710843373494,-0.762722256284488,-6.749846719803801,-6.658491722869405,2.0,1.9758241758241757,506.1179087875417,0.07936600431210238,0.4875007283957814,0.053143756191364265,1688.6446886446886,-1.0,51.53281610400503,1.978603215901787,
2023-08-10 18:39:19.867000,-7.024096385542169,-0.8433734939759037,-6.903614457831326,-0.7847946045370937,-6.759656652360515,-6.660944206008583,2.0,1.9758241758241757,506.1179087875417,-0.07621933453761458,0.13250976050346794,-0.07027562496358021,1823.4432234432234,-1.0,51.53281610400503,1.9785692359429383,
2023-08-10 18:39:19.875000,-6.987951807228916,-0.8433734939759037,-6.903614457831326,-0.8755364806866952,-6.75229920294298,-6.619251992642551,2.0,1.9758241758241757,506.1179087875417,-0.19695821921799375,0.20569896859157383,-0.20802983509119533,1967.032967032967,-1.0,51.53281610400503,1.9785353475415868,
2023-08-10 18:39:19.883000,-6.987951807228916,-0.8433734939759037,-6.9397590361445785,-0.8142244022072348,-6.688534641324341,-6.619251992642551,2.0,1.9758241758241757,506.1179087875417,0.0791329176621407,0.0037293863993937094,-0.14393100635161118,2108.424908424908,-1.0,51.53281610400503,1.9785015551351781,
2023-08-10 18:39:19.890000,-6.975903614457832,-0.8313253012048193,-6.963855421686747,-0.8559166155732679,-6.725321888412017,-6.656039239730227,2.0,1.9758241758241757,506.1179087875417,-0.13239321717848537,-0.2098945282908926,-0.4643086067245498,2237.362637362637,-1.0,51.53281610400503,1.9784678629038528,
2023-08-10 18:39:19.898000,-6.951807228915663,-0.8433734939759037,-6.951807228915663,-0.8044144696505211,-6.740036787247087,-6.683016554261189,2.0,1.9758241758241757,506.1179087875417,0.2673503875065561,0.050812889691743635,-0.09370083328477347,2347.9853479853477,-1.0,51.53281610400503,1.9784342747618853,
2023-08-10 18:39:19.906000,-6.951807228915663,-0.8674698795180723,-6.963855421686747,-0.7946045370938074,-6.698344573881054,-6.636419374616799,2.0,1.9758241758241757,506.1179087875417,0.02051162519666714,0.01876347532195112,-0.22877454693782415,2431.5018315018315,-1.0,51.53281610400503,1.9784007943504607,
2023-08-10 18:39:19.913000,-6.951807228915663,-0.855421686746988,-6.975903614457832,-0.7995095033721643,-6.700797057020233,-6.65113427345187,2.0,1.9772893772893774,505.74286772878844,0.006060252899015646,0.37072431676475764,-0.13519025697803153,2487.179487179487,-1.0,51.53281610400503,1.978367425031873,
2023-08-10 18:39:19.921000,-6.951807228915663,-0.8674698795180723,-6.975903614457832,-0.8362967504598405,-6.713059472716124,-6.705088902513795,2.0,1.9758241758241757,506.1179087875417,-0.09987762950876951,0.29252374570246537,0.2172367577646992,2512.8205128205127,-1.0,51.53281610400503,1.978334170377893,
2023-08-10 18:39:19.929000,-6.975903614457832,-0.855421686746988,-6.951807228915663,-0.8313917841814837,-6.791538933169834,-6.648681790312692,2.0,1.9772893772893774,505.74286772878844,0.00827457607365501,0.41384534700775044,0.2905425091777868,2509.157509157509,-1.0,51.53281610400503,1.9783010337465676,
2023-08-10 18:39:19.936000,-6.987951807228916,-0.8795180722891567,-6.9397590361445785,-0.8044144696505211,-6.789086450030656,-6.626609442060086,2.0,1.9772893772893774,505.74286772878844,0.1611794184488075,0.3497465182681654,-0.0010488899248296977,2479.120879120879,-1.0,51.53281610400503,1.978268018249311,
2023-08-10 18:39:19.944000,-7.0120481927710845,-0.855421686746988,-6.9397590361445785,-0.8461066830165542,-6.791538933169834,-6.624156958920907,2.0,1.9772893772893774,505.74286772878844,-0.23495134316182106,0.1333255637783338,0.4589476137754209,2425.6410256410254,-1.0,51.53281610400503,1.9782351272821908,
2023-08-10 18:39:19.952000,-7.024096385542169,-0.8674698795180723,-6.927710843373494,-0.8362967504598405,-6.820968730839975,-6.638871857755977,2.0,1.9758241758241757,506.1179087875417,0.07307266476312506,0.17901054717091022,-0.030534351145038167,2353.846153846154,-1.0,51.53281610400503,1.9782023640765432,
2023-08-10 18:39:19.959000,-6.987951807228916,-0.8674698795180723,-6.927710843373494,-0.8657265481299815,-6.769466584917228,-6.648681790312692,2.0,1.9758241758241757,506.1179087875417,0.05908746576539864,-0.021210885146553893,-0.09067070683526607,2267.399267399267,-1.0,51.53281610400503,1.9781697312171356,
2023-08-10 18:39:19.967000,-6.987951807228916,-0.8795180722891567,-6.9397590361445785,-0.8117719190680563,-6.715511955855303,-6.702636419374617,2.0,1.9758241758241757,506.1179087875417,0.13484062700308813,-0.06864401841384458,-0.013868655672746442,2170.6959706959706,-1.0,51.53281610400503,1.9781372305831293,
2023-08-10 18:39:19.975000,-6.951807228915663,-0.8674698795180723,-6.951807228915663,-0.8019619865113427,-6.72041692213366,-6.670754138565297,2.0,1.9758241758241757,506.1179087875417,-0.17388264087174474,-0.1903152496940739,-0.2584930948079947,2069.5970695970695,-1.0,51.53281610400503,1.9781048638158159,
2023-08-10 18:39:19.982000,-6.951807228915663,-0.8674698795180723,-6.975903614457832,-0.8068669527896996,-6.749846719803801,-6.653586756591048,2.0,1.9772893772893774,505.74286772878844,-0.06304993881475403,0.06608006526426272,0.19975525901753988,1969.230769230769,-1.0,51.53281610400503,1.9780726323301032,
2023-08-10 18:39:19.990000,-6.927710843373494,-0.8433734939759037,-6.963855421686747,-0.8264868179031268,-6.651747394236664,-6.709993868792152,2.0,1.9743589743589745,506.49350649350646,-0.24520715576015376,0.09253540003496293,-0.03146669774488659,1867.3992673992673,-1.0,51.53281610400503,1.978040537820247,
2023-08-10 18:39:19.998000,-6.91566265060241,-0.8313253012048193,-6.987951807228916,-0.7872470876762722,-6.730226854690374,-6.722256284488044,2.0,1.9758241758241757,506.1179087875417,0.06363265543965994,0.17854437387098687,-0.2153720645650019,1771.4285714285713,-1.0,51.53281610400503,1.9780085818191486,
2023-08-10 18:39:20.005000,-6.927710843373494,-0.8313253012048193,-6.963855421686747,-0.7185775597792765,-6.690987124463519,-6.717351318209687,2.0,1.9758241758241757,506.1179087875417,0.030650894470019004,0.34322009206922643,0.07423809801293646,1684.249084249084,-1.0,51.53281610400503,1.9779767655431155,
2023-08-10 18:39:20.013000,-6.927710843373494,-0.819277108433735,-6.951807228915663,-0.7529123237277743,-6.664009809932557,-6.690374003678724,2.0,1.9758241758241757,506.1179087875417,0.2724782938057216,0.477244915797447,0.2420604859856651,1609.5238095238094,-1.0,51.53281610400503,1.9779450904038616,
2023-08-10 18:39:20.021000,-6.963855421686747,-0.8313253012048193,-6.975903614457832,-0.7896995708154506,-6.715511955855303,-6.7443286327406495,2.0,1.9743589743589745,506.49350649350646,0.27154594720587316,0.4729328127731491,0.23949653283608194,1546.5201465201465,-1.0,51.53281610400503,1.9779135571150588,
2023-08-10 18:39:20.028000,-6.963855421686747,-0.855421686746988,-6.951807228915663,-0.7529123237277743,-6.693439607602698,-6.626609442060086,2.0,1.9758241758241757,506.1179087875417,0.13216013052852368,0.4526542742264436,-0.0375269506439018,1494.5054945054944,-1.0,51.53281610400503,1.9778821652897434,
2023-08-10 18:39:20.036000,-7.0,-0.819277108433735,-6.975903614457832,-0.762722256284488,-6.688534641324341,-6.724708767627222,2.0,1.9743589743589745,506.49350649350646,-0.11409591515645932,0.3560398578171427,-0.06806130178893997,1455.6776556776556,-1.0,51.53281610400503,1.977850914372429,
2023-08-10 18:39:20.044000,-6.987951807228916,-0.855421686746988,-6.975903614457832,-0.762722256284488,-6.708154506437768,-6.656039239730227,2.0,1.9758241758241757,506.1179087875417,0.25394790513373383,0.45696637725074324,-0.12878037410407336,1426.3736263736262,-1.0,51.53281610400503,1.9778198036908736,
2023-08-10 18:39:20.051000,-6.987951807228916,-0.8433734939759037,-6.963855421686747,-0.7480073574494175,-6.786633966891477,-6.648681790312692,2.0,1.9758241758241757,506.1179087875417,-0.09894528290892109,-0.41652584348231486,-0.08181341413670515,1405.8608058608058,-1.0,51.53281610400503,1.9777888324389028,
2023-08-10 18:39:20.059000,-7.0,-0.8433734939759037,-6.963855421686747,-0.7431023911710607,-6.700797057020233,-6.629061925199264,2.0,1.9758241758241757,506.1179087875417,-0.022026688421421484,-0.4434473515529402,-0.14218285647689516,1390.4761904761904,-1.0,51.53281610400503,1.9777580002219215,
2023-08-10 18:39:20.067000,-6.975903614457832,-0.8433734939759037,-6.963855421686747,-0.82158185162477,-6.798896382587369,-6.656039239730227,2.0,1.9758241758241757,506.1179087875417,-0.17434881417166806,-0.27073014393100553,-0.20092069226735043,1379.4871794871794,-1.0,51.53281610400503,1.9777273066201406,
2023-08-10 18:39:20.074000,-6.951807228915663,-0.855421686746988,-6.927710843373494,-0.7700797057020232,-6.690987124463519,-6.660944206008583,2.0,1.9758241758241757,506.1179087875417,-0.0079249460987125,-0.2660684109317634,0.05978672571528453,1372.161172161172,-1.0,51.53281610400503,1.9776967516681498,
2023-08-10 18:39:20.082000,-6.951807228915663,-0.8674698795180723,-6.951807228915663,-0.7946045370938074,-6.681177191906805,-6.638871857755977,2.0,1.9758241758241757,506.1179087875417,-0.17458190082162975,-0.3391410756948902,-0.27702348347998373,1367.032967032967,-1.0,51.53281610400503,1.9776663353519892,
2023-08-10 18:39:20.090000,-6.963855421686747,-0.855421686746988,-6.91566265060241,-0.851011649294911,-6.762109135499693,-6.683016554261189,2.0,1.9743589743589745,506.49350649350646,-0.08204650078666682,-0.17143523104714195,-0.04568498339257598,1361.904761904762,-1.0,51.53281610400503,1.9776360572105902,
2023-08-10 18:39:20.097000,-6.951807228915663,-0.8433734939759037,-6.927710843373494,-0.8264868179031268,-6.747394236664623,-6.638871857755977,2.0,1.9743589743589745,506.49350649350646,0.009440009323466846,-0.12586679097954637,-0.10535516578287968,1353.113553113553,-1.0,51.53281610400503,1.977605916357932,
2023-08-10 18:39:20.105000,-6.951807228915663,-0.8674698795180723,-6.9397590361445785,-0.7921520539546291,-6.740036787247087,-6.631514408338442,2.0,1.9743589743589745,506.49350649350646,0.11794184488083388,-0.018880018646931958,0.2765573101800595,1341.3919413919414,-1.0,51.53281610400503,1.9775759114331264,
2023-08-10 18:39:20.113000,-6.951807228915663,-0.855421686746988,-6.963855421686747,-0.8559166155732679,-6.740036787247087,-6.732066217044758,2.0,1.9743589743589745,506.49350649350646,0.2706136006060247,-0.035429170794241974,-0.07726822446244384,1326.007326007326,-1.0,51.53281610400503,1.9775460415328623,
2023-08-10 18:39:20.120000,-6.963855421686747,-0.855421686746988,-6.963855421686747,-0.7946045370938074,-6.73513182096873,-6.629061925199264,2.0,1.9743589743589745,506.49350649350646,0.13041198065380769,0.3290018064215366,0.18355573684517237,1306.9597069597069,-1.0,51.53281610400503,1.9775163061601106,
2023-08-10 18:39:20.128000,-6.975903614457832,-0.8674698795180723,-6.975903614457832,-0.82158185162477,-6.678724708767627,-6.66584917228694,2.0,1.9743589743589745,506.49350649350646,0.10022725948371375,0.14253248645183897,0.13588951692791784,1287.9120879120878,-1.0,51.53281610400503,1.977486704750857,
2023-08-10 18:39:20.136000,-6.975903614457832,-0.8674698795180723,-6.975903614457832,-0.8019619865113427,-6.730226854690374,-6.66584917228694,2.0,1.9758241758241757,506.1179087875417,-0.23833109958627052,0.30767437795000363,-0.04754967659227327,1268.8644688644688,-1.0,51.53281610400503,1.977457236691918,
2023-08-10 18:39:20.143000,-6.963855421686747,-0.855421686746988,-6.975903614457832,-0.851011649294911,-6.713059472716124,-6.646229307173513,2.0,1.9728937728937728,506.86966208689194,0.08461045393625043,-0.24567332906007885,-0.07866674436221649,1249.084249084249,-1.0,51.53281610400503,1.977427901829743,
2023-08-10 18:39:20.151000,-6.975903614457832,-0.855421686746988,-6.951807228915663,-0.8191293684855916,-6.693439607602698,-6.658491722869405,2.0,1.9743589743589745,506.49350649350646,0.40545422760911287,0.1517394091253424,-0.07575316123768994,1234.4322344322343,-1.0,51.53281610400503,1.9773987000295419,
2023-08-10 18:39:20.159000,-7.0,-0.8433734939759037,-6.951807228915663,-0.8191293684855916,-6.781729000613121,-6.732066217044758,2.0,1.9743589743589745,506.49350649350646,-0.13204358720354287,-0.03321484761960261,0.06211759221490603,1224.1758241758241,-1.0,51.53281610400503,1.9773696305587238,
2023-08-10 18:39:20.166000,-6.975903614457832,-0.8674698795180723,-6.951807228915663,-0.8264868179031268,-6.757204169221336,-6.7148988350705086,2.0,1.9743589743589745,506.49350649350646,0.0067595128489024,-0.4451955014276562,-0.2291241769127675,1217.5824175824175,-1.0,51.53281610400503,1.9773406926595045,
2023-08-10 18:39:20.174000,-7.0,-0.8313253012048193,-6.927710843373494,-0.8117719190680563,-6.779276517473942,-6.729613733905579,2.0,1.9743589743589745,506.49350649350646,-0.08496008391119467,-0.10721985898257609,0.0476662199172541,1216.8498168498168,-1.0,51.53281610400503,1.9773118855919003,
2023-08-10 18:39:20.182000,-6.975903614457832,-0.8433734939759037,-6.975903614457832,-0.8093194359288779,-6.703249540159411,-6.705088902513795,2.0,1.9743589743589745,506.49350649350646,-0.0071091428238449095,-0.22982343686265383,0.183206106870229,1219.7802197802198,-1.0,51.53281610400503,1.977283208640047,
2023-08-10 18:39:20.189000,-6.987951807228916,-0.8433734939759037,-6.963855421686747,-0.7823421213979154,-6.742489270386265,-6.7075413856529735,2.0,1.9743589743589745,506.49350649350646,0.05291066954140216,-0.106054425732766,-0.06200104888992476,1227.8388278388277,-1.0,51.53281610400503,1.9772546611166497,
2023-08-10 18:39:20.197000,-6.975903614457832,-0.8674698795180723,-6.963855421686747,-0.8044144696505211,-6.686082158185162,-6.695278969957081,2.0,1.9743589743589745,506.49350649350646,-0.1307616106287519,0.12516753102965963,0.043587203542917015,1238.095238095238,-1.0,51.53281610400503,1.9772262423655989,
2023-08-10 18:39:20.204000,-6.975903614457832,-0.855421686746988,-6.975903614457832,-0.8289393010423053,-6.754751686082158,-6.717351318209687,2.0,1.9743589743589745,506.49350649350646,0.08391119398636367,-0.16444263154827787,-0.14171668317697095,1252.7472527472526,-1.0,51.53281610400503,1.977197951762789,
2023-08-10 18:39:20.212000,-6.963855421686747,-0.855421686746988,-6.951807228915663,-0.8362967504598405,-6.688534641324341,-6.680564071122011,2.0,1.9743589743589745,506.49350649350646,-0.02167705844647724,-0.041372880368276785,-0.10966726880717886,1265.2014652014652,-1.0,51.53281610400503,1.9771697887152124,
2023-08-10 18:39:20.220000,-6.951807228915663,-0.8795180722891567,-6.951807228915663,-0.8289393010423053,-6.678724708767627,-6.702636419374617,2.0,1.9743589743589745,506.49350649350646,0.10139269273352386,0.15581842549968036,0.07353883806305013,1278.3882783882782,-1.0,51.53281610400503,1.9771417522005166,
2023-08-10 18:39:20.227000,-6.951807228915663,-0.8795180722891567,-6.951807228915663,-0.838749233599019,-6.740036787247087,-6.663396689147762,2.0,1.9743589743589745,506.49350649350646,-0.09754676300914931,-0.07307266476312506,-0.24753802225977525,1290.8424908424909,-1.0,51.53281610400503,1.977113840830127,
2023-08-10 18:39:20.235000,-6.963855421686747,-0.855421686746988,-6.975903614457832,-0.8608215818516247,-6.73513182096873,-6.638871857755977,2.0,1.9743589743589745,506.49350649350646,-0.17516461744653566,0.09544898315948905,-0.002563953149583175,1301.098901098901,-1.0,51.53281610400503,1.9770860537898955,
2023-08-10 18:39:20.243000,-6.951807228915663,-0.8433734939759037,-6.9397590361445785,-0.8068669527896996,-6.705702023298589,-6.663396689147762,2.0,1.9743589743589745,506.49350649350646,-0.12621642095449062,-0.22609405046326014,0.24089505273585457,1312.087912087912,-1.0,51.53281610400503,1.9770583907622472,
2023-08-10 18:39:20.250000,-6.975903614457832,-0.8433734939759037,-6.927710843373494,-0.9074187614960146,-6.722869405272839,-6.670754138565297,2.0,1.9743589743589745,506.49350649350646,-0.033914107569489364,-0.1496416292756839,-0.2799370666045103,1320.8791208791208,-1.0,51.53281610400503,1.9770308509687575,
2023-08-10 18:39:20.258000,-6.951807228915663,-0.8433734939759037,-6.951807228915663,-0.8485591661557327,-6.744941753525445,-6.702636419374617,2.0,1.9743589743589745,506.49350649350646,0.05687314259075754,-0.2554629683584865,0.2427597459355514,1328.2051282051282,-1.0,51.53281610400503,1.97700343368729,
2023-08-10 18:39:20.266000,-6.963855421686747,-0.8674698795180723,-6.963855421686747,-0.7406499080318822,-6.744941753525445,-6.670754138565297,2.0,1.9743589743589745,506.49350649350646,0.33168230289610107,-0.2534817318338088,-0.21758638773964215,1331.8681318681317,-1.0,51.53281610400503,1.976976138664157,
2023-08-10 18:39:20.273000,-6.951807228915663,-0.855421686746988,-6.963855421686747,-0.8142244022072348,-6.703249540159411,-6.611894543225015,2.0,1.9743589743589745,506.49350649350646,0.20779674844123236,-0.1434648330516874,0.21315774139036167,1333.3333333333333,-1.0,51.53281610400503,1.9769489656122992,
2023-08-10 18:39:20.281000,-6.963855421686747,-0.855421686746988,-6.963855421686747,-0.7553648068669527,-6.668914776210913,-6.673206621704475,2.0,1.9743589743589745,506.49350649350646,0.11561097838121367,-0.29450498222714305,0.10593788240778515,1331.8681318681317,-1.0,51.53281610400503,1.9769219142014367,
2023-08-10 18:39:20.289000,-6.951807228915663,-0.855421686746988,-6.9397590361445785,-0.8804414469650521,-6.742489270386265,-6.636419374616799,2.0,1.9743589743589745,506.49350649350646,0.0825126740865919,-0.04871510984208337,-0.04801584989219748,1326.7399267399267,-1.0,51.53281610400503,1.9768949840476735,
2023-08-10 18:39:20.296000,-6.975903614457832,-0.8433734939759037,-6.9397590361445785,-0.8485591661557327,-6.759656652360515,-6.609442060085836,2.0,1.9728937728937728,506.86966208689194,0.08192995746168598,-0.048015849892196615,-0.04883165316706464,1320.8791208791208,-1.0,51.53281610400503,1.9768681747026848,
2023-08-10 18:39:20.304000,-6.987951807228916,-0.855421686746988,-6.951807228915663,-0.7774371551195585,-6.717964438994482,-6.658491722869405,2.0,1.9728937728937728,506.86966208689194,0.01911310529689363,0.028902744595302985,0.10512207913291756,1312.8205128205127,-1.0,51.53281610400503,1.9768414851499976,
2023-08-10 18:39:20.312000,-7.0,-0.8313253012048193,-6.9397590361445785,-0.851011649294911,-6.759656652360515,-6.631514408338442,2.0,1.9743589743589745,506.49350649350646,-0.07283957811316338,-0.015849892197425,0.08810675368568247,1304.0293040293038,-1.0,51.53281610400503,1.9768149137216398,
2023-08-10 18:39:20.319000,-6.987951807228916,-0.855421686746988,-6.9397590361445785,-0.7774371551195585,-6.740036787247087,-6.658491722869405,2.0,1.9743589743589745,506.49350649350646,0.29567041547695316,-0.016432608822329185,-0.11071615873200856,1295.2380952380952,-1.0,51.53281610400503,1.9767884590320135,
2023-08-10 18:39:20.327000,-6.963855421686747,-0.8313253012048193,-6.9397590361445785,-0.7602697731453096,-6.678724708767627,-6.65113427345187,2.0,1.9743589743589745,506.49350649350646,0.24847036885962412,-0.16852164792261584,0.3329642794708933,1286.4468864468863,-1.0,51.53281610400503,1.9767621200330356,
2023-08-10 18:39:20.335000,-6.975903614457832,-0.8433734939759037,-6.951807228915663,-0.7553648068669527,-6.757204169221336,-6.66584917228694,2.0,1.9743589743589745,506.49350649350646,0.4305110424800413,-0.05955363906532199,-0.02225977507138272,1281.3186813186812,-1.0,51.53281610400503,1.976735895544553,
2023-08-10 18:39:20.342000,-6.975903614457832,-0.8674698795180723,-6.975903614457832,-0.745554874310239,-6.776824034334764,-6.6781115879828326,2.0,1.9743589743589745,506.49350649350646,-0.03158324106986743,0.0027970397995452823,0.03717732066895886,1276.923076923077,-1.0,51.53281610400503,1.976709784243248,
2023-08-10 18:39:20.350000,-6.9397590361445785,-0.8674698795180723,-6.963855421686747,-0.8264868179031268,-6.754751686082158,-6.594727161250766,2.0,1.9743589743589745,506.49350649350646,0.10384010255812663,-0.16514189149816463,0.08216304411164853,1273.260073260073,-1.0,51.53281610400503,1.9766837846522822,
2023-08-10 18:39:20.358000,-6.963855421686747,-0.8795180722891567,-6.9397590361445785,-0.8289393010423053,-6.732679337829552,-6.658491722869405,2.0,1.9743589743589745,506.49350649350646,-0.09754676300914931,-0.40825126740865986,0.20336810209195277,1267.3992673992673,-1.0,51.53281610400503,1.9766578951318718,
2023-08-10 18:39:20.365000,-6.9397590361445785,-0.8795180722891567,-6.963855421686747,-0.7700797057020232,-6.757204169221336,-6.641324340895156,2.0,1.9743589743589745,506.49350649350646,0.07097488491346653,0.23693257968649875,0.04883165316706464,1261.5384615384614,-1.0,51.53281610400503,1.9766321138709309,
2023-08-10 18:39:20.373000,-6.9397590361445785,-0.8795180722891567,-6.975903614457832,-0.7480073574494175,-6.771919068056406,-6.6781115879828326,2.0,1.9743589743589745,506.49350649350646,0.041372880368276785,-0.054891906066079854,-0.027504224695530776,1254.9450549450548,-1.0,51.53281610400503,1.9766064388799316,
2023-08-10 18:39:20.381000,-6.963855421686747,-0.8674698795180723,-6.975903614457832,-0.8044144696505211,-6.730226854690374,-6.65113427345187,2.0,1.9743589743589745,506.49350649350646,-0.08064798088689504,0.05197832294155373,-0.01165433249810621,1250.5494505494505,-1.0,51.53281610400503,1.9765808679851367,
2023-08-10 18:39:20.388000,-6.963855421686747,-0.8674698795180723,-6.963855421686747,-0.82158185162477,-6.744941753525445,-6.65113427345187,2.0,1.9728937728937728,506.86966208689194,-0.04754967659227327,-0.068877105063808,0.12644950760445187,1246.153846153846,-1.0,51.53281610400503,1.9765553988243085,
2023-08-10 18:39:20.396000,-6.951807228915663,-0.855421686746988,-6.951807228915663,-0.7504598405885959,-6.727774371551195,-6.658491722869405,2.0,1.9743589743589745,506.49350649350646,-0.0017481498747160184,0.0825126740865919,0.0033797564244507665,1242.4908424908424,-1.0,51.53281610400503,1.9765300283513612,
2023-08-10 18:39:20.404000,-6.987951807228916,-0.855421686746988,-6.9397590361445785,-0.8240343347639485,-6.742489270386265,-6.656039239730227,2.0,1.9743589743589745,506.49350649350646,-0.0010488899248292638,-0.16199522172367511,0.033797564244508096,1241.7582417582416,-1.0,51.53281610400503,1.9765047537137512,
2023-08-10 18:39:20.411000,-6.975903614457832,-0.855421686746988,-6.9397590361445785,-0.8313917841814837,-6.693439607602698,-6.633966891477621,2.0,1.9728937728937728,506.86966208689194,0.09125342346017198,0.12947963405395924,0.050579803041780655,1242.4908424908424,-1.0,51.53281610400503,1.9764795722526889,
2023-08-10 18:39:20.419000,-6.963855421686747,-0.855421686746988,-6.9397590361445785,-0.8828939301042305,-6.703249540159411,-6.673206621704475,2.0,1.9743589743589745,506.49350649350646,-0.18367228017015408,0.0057106229240714,-0.24147776936076004,1245.4212454212454,-1.0,51.53281610400503,1.9764544801336006,
2023-08-10 18:39:20.427000,-6.963855421686747,-0.8674698795180723,-6.9397590361445785,-0.7529123237277743,-6.769466584917228,-6.65113427345187,2.0,1.9743589743589745,506.49350649350646,-0.2429928325855144,-0.040440533768428356,-0.19474389604335393,1247.6190476190475,-1.0,51.53281610400503,1.9764294737206118,
2023-08-10 18:39:20.434000,-6.9397590361445785,-0.855421686746988,-6.975903614457832,-0.8877988963825874,-6.764561618638871,-6.629061925199264,2.0,1.9743589743589745,506.49350649350646,0.01876347532195112,-0.06864401841384458,-0.23937998951110065,1248.3516483516482,-1.0,51.53281610400503,1.9764045495814229,
2023-08-10 18:39:20.442000,-6.951807228915663,-0.8674698795180723,-6.963855421686747,-0.8264868179031268,-6.708154506437768,-6.683016554261189,2.0,1.9743589743589745,506.49350649350646,-0.16490880484820297,-0.15873200862420647,-0.02330866499621242,1250.5494505494505,-1.0,51.53281610400503,1.976379703615311,
2023-08-10 18:39:20.450000,-6.951807228915663,-0.855421686746988,-6.9397590361445785,-0.7774371551195585,-6.727774371551195,-6.6781115879828326,2.0,1.9728937728937728,506.86966208689194,-0.054425732766156504,-0.30942252782471963,0.19136413961890317,1252.7472527472526,-1.0,51.53281610400503,1.976354931554307,
2023-08-10 18:39:20.457000,-6.9397590361445785,-0.8313253012048193,-6.963855421686747,-0.7553648068669527,-6.686082158185162,-6.668301655426118,2.0,1.9728937728937728,506.86966208689194,-0.1006934327836371,0.011537789173125373,-0.10034380280869416,1255.6776556776556,-1.0,51.53281610400503,1.9763302289390967,
2023-08-10 18:39:20.465000,-6.963855421686747,-0.855421686746988,-6.951807228915663,-0.7946045370938074,-6.762109135499693,-6.690374003678724,2.0,1.9728937728937728,506.86966208689194,0.0071091428238449095,0.07015908163859894,0.037760037293863916,1254.212454212454,-1.0,51.53281610400503,1.9763055909924847,
2023-08-10 18:39:20.473000,-6.963855421686747,-0.855421686746988,-6.9397590361445785,-0.8412017167381973,-6.690987124463519,-6.687921520539546,2.0,1.9728937728937728,506.86966208689194,0.14369791970164908,0.1905483363440356,0.05186177961657246,1253.4798534798533,-1.0,51.53281610400503,1.9762810125984291,
2023-08-10 18:39:20.480000,-6.987951807228916,-0.855421686746988,-6.9397590361445785,-0.7798896382587369,-6.727774371551195,-6.65113427345187,2.0,1.9728937728937728,506.86966208689194,-0.026105704795757703,0.2184021910145093,-0.056290425965852924,1253.4798534798533,-1.0,51.53281610400503,1.976256488316798,
2023-08-10 18:39:20.488000,-6.975903614457832,-0.855421686746988,-6.963855421686747,-0.8117719190680563,-6.708154506437768,-6.729613733905579,2.0,1.9743589743589745,506.49350649350646,-0.1798263504457778,-0.1497581726006647,-0.22492861721344917,1254.212454212454,-1.0,51.53281610400503,1.9762320123990451,
2023-08-10 18:39:20.496000,-6.951807228915663,-0.855421686746988,-6.951807228915663,-0.7995095033721643,-6.744941753525445,-6.65113427345187,2.0,1.9743589743589745,506.49350649350646,-0.19357846279354426,-0.4704854029485463,-0.20709748849134646,1252.7472527472526,-1.0,51.53281610400503,1.9762075792974618,
2023-08-10 18:39:20.503000,-6.975903614457832,-0.8313253012048193,-6.951807228915663,-0.8583690987124463,-6.717964438994482,-6.658491722869405,2.0,1.9728937728937728,506.86966208689194,-0.07132451488840903,-0.054192646116193094,-0.05349338616630721,1249.8168498168498,-1.0,51.53281610400503,1.9761831837548451,
2023-08-10 18:39:20.511000,-6.975903614457832,-0.855421686746988,-6.975903614457832,-0.7578172900061312,-6.749846719803801,-6.697731453096259,2.0,1.9743589743589745,506.49350649350646,0.02214323174640232,0.2983509119515176,0.0844939106112696,1246.8864468864467,-1.0,51.53281610400503,1.976158819877876,
2023-08-10 18:39:20.519000,-6.975903614457832,-0.8674698795180723,-6.951807228915663,-0.7725321888412017,-6.737584304107909,-6.656039239730227,2.0,1.9728937728937728,506.86966208689194,0.021210885146553893,-0.20499970864168707,0.055707709340947445,1246.8864468864467,-1.0,51.53281610400503,1.9761344815829924,
2023-08-10 18:39:20.526000,-6.951807228915663,-0.855421686746988,-6.975903614457832,-0.8289393010423053,-6.75229920294298,-6.660944206008583,2.0,1.9728937728937728,506.86966208689194,-0.2977681953266134,-0.2013868655672742,-0.14369791970164908,1250.5494505494505,-1.0,51.53281610400503,1.9761101626550164,
2023-08-10 18:39:20.534000,-6.987951807228916,-0.8433734939759037,-6.9397590361445785,-0.8264868179031268,-6.676272225628448,-6.663396689147762,2.0,1.9728937728937728,506.86966208689194,0.009206922673503438,-0.3207272303478816,-0.2506846920342639,1253.4798534798533,-1.0,51.53281610400503,1.9760858562446353,
2023-08-10 18:39:20.542000,-6.963855421686747,-0.8313253012048193,-6.963855421686747,-0.8044144696505211,-6.75229920294298,-6.663396689147762,2.0,1.9728937728937728,506.86966208689194,-0.20593205524153552,0.15605151214964202,0.22434590058854367,1256.4102564102564,-1.0,51.53281610400503,1.976061555349552,
2023-08-10 18:39:20.549000,-6.975903614457832,-0.8433734939759037,-6.963855421686747,-0.8534641324340895,-6.732679337829552,-6.629061925199264,2.0,1.9743589743589745,506.49350649350646,-0.20406736204183865,-0.18332265019520982,-0.09882873958394024,1257.8754578754579,-1.0,51.53281610400503,1.9760372528383856,
2023-08-10 18:39:20.557000,-6.987951807228916,-0.855421686746988,-6.9397590361445785,-0.838749233599019,-6.698344573881054,-6.695278969957081,2.0,1.9743589743589745,506.49350649350646,-0.29357263562729463,0.07889983101217903,0.08484354058621296,1261.5384615384614,-1.0,51.53281610400503,1.9760129419677874,
2023-08-10 18:39:20.565000,-6.963855421686747,-0.8433734939759037,-6.9397590361445785,-0.8289393010423053,-6.764561618638871,-6.633966891477621,2.0,1.9728937728937728,506.86966208689194,0.37923197948837434,-0.12190431793019099,0.12878037410407336,1268.131868131868,-1.0,51.53281610400503,1.9759886160217073,
2023-08-10 18:39:20.572000,-6.963855421686747,-0.855421686746988,-6.963855421686747,-0.8068669527896996,-6.727774371551195,-6.638871857755977,2.0,1.9728937728937728,506.86966208689194,0.37736728628867744,-0.12132160130528508,0.12644950760445187,1275.4578754578754,-1.0,51.53281610400503,1.9759642679169147,
2023-08-10 18:39:20.580000,-6.975903614457832,-0.8674698795180723,-6.951807228915663,-0.8044144696505211,-6.747394236664623,-6.663396689147762,2.0,1.9728937728937728,506.86966208689194,-0.08414428063632708,-0.11922382145562654,-0.16549152147310758,1283.5164835164835,-1.0,51.53281610400503,1.975939890583843,
2023-08-10 18:39:20.587000,-6.963855421686747,-0.855421686746988,-6.951807228915663,-0.7725321888412017,-6.791538933169834,-6.636419374616799,2.0,1.9728937728937728,506.86966208689194,0.1611794184488075,0.1426490297768198,-0.02575607482081476,1289.3772893772893,-1.0,51.53281610400503,1.9759154769596565,
2023-08-10 18:39:20.595000,-6.963855421686747,-0.855421686746988,-6.91566265060241,-0.7872470876762722,-6.722869405272839,-6.653586756591048,2.0,1.9743589743589745,506.49350649350646,0.174931530796574,0.1554687955247361,-0.13262630382844834,1294.5054945054944,-1.0,51.53281610400503,1.9758910200162572,
2023-08-10 18:39:20.603000,-6.963855421686747,-0.855421686746988,-6.927710843373494,-0.8191293684855916,-6.710606989576946,-6.687921520539546,2.0,1.9714285714285715,507.2463768115942,0.12609987762950806,-0.11829147485577812,-0.10150923605850469,1295.970695970696,-1.0,51.53281610400503,1.975866513281015,
2023-08-10 18:39:20.610000,-6.963855421686747,-0.855421686746988,-6.975903614457832,-0.8117719190680563,-6.678724708767627,-6.660944206008583,2.0,1.9728937728937728,506.86966208689194,0.26408717440708573,0.0037293863993937094,-0.038575840568731506,1298.9010989010987,-1.0,51.53281610400503,1.9758419499516313,
2023-08-10 18:39:20.618000,-6.975903614457832,-0.855421686746988,-6.975903614457832,-0.8044144696505211,-6.713059472716124,-6.641324340895156,2.0,1.9728937728937728,506.86966208689194,-0.0745877279878794,0.1105996154070273,0.2524328419089795,1300.3663003663003,-1.0,51.53281610400503,1.9758173232778682,
2023-08-10 18:39:20.626000,-6.975903614457832,-0.8433734939759037,-6.951807228915663,-0.7970570202329859,-6.695892090741876,-6.653586756591048,2.0,1.9728937728937728,506.86966208689194,0.21735330108968004,-0.01503408892255741,-0.008391119398636281,1303.2967032967033,-1.0,51.53281610400503,1.975792627047014,
2023-08-10 18:39:20.633000,-6.963855421686747,-0.8433734939759037,-6.951807228915663,-0.8093194359288779,-6.683629675045983,-6.648681790312692,2.0,1.9728937728937728,506.86966208689194,0.18670240661966103,0.013169395722860555,-0.1605967018239029,1303.2967032967033,-1.0,51.53281610400503,1.9757678547321391,
2023-08-10 18:39:20.641000,-6.951807228915663,-0.855421686746988,-6.963855421686747,-0.7749846719803801,-6.725321888412017,-6.658491722869405,2.0,1.9728937728937728,506.86966208689194,0.12481790105471711,-0.43237573567973814,0.08286230406153484,1301.098901098901,-1.0,51.53281610400503,1.9757430000109018,
2023-08-10 18:39:20.649000,-6.951807228915663,-0.855421686746988,-6.963855421686747,-0.82158185162477,-6.72041692213366,-6.697731453096259,2.0,1.9728937728937728,506.86966208689194,0.0927684866849246,-0.14031816327719787,0.311636850999359,1297.4358974358975,-1.0,51.53281610400503,1.9757180567911554,
2023-08-10 18:39:20.656000,-6.951807228915663,-0.8674698795180723,-6.9397590361445785,-0.8117719190680563,-6.693439607602698,-6.660944206008583,2.0,1.9728937728937728,506.86966208689194,0.07773439776236893,-0.03239904434473502,-0.07260649146320128,1293.7728937728937,-1.0,51.53281610400503,1.975693019235906,
2023-08-10 18:39:20.664000,-6.951807228915663,-0.8674698795180723,-6.951807228915663,-0.8068669527896996,-6.732679337829552,-6.6781115879828326,2.0,1.9728937728937728,506.86966208689194,0.44030068177845066,-0.10955072548219803,-0.1336751937532776,1289.3772893772893,-1.0,51.53281610400503,1.9756678817875533,
2023-08-10 18:39:20.672000,-6.963855421686747,-0.855421686746988,-6.951807228915663,-0.8117719190680563,-6.725321888412017,-6.631514408338442,2.0,1.9728937728937728,506.86966208689194,0.06899364838878884,-0.15605151214964202,0.14264902977681937,1284.9816849816848,-1.0,51.53281610400503,1.975642639191331,
2023-08-10 18:39:20.679000,-7.0,-0.8674698795180723,-6.963855421686747,-0.8362967504598405,-6.8038013488657265,-6.687921520539546,2.0,1.9728937728937728,506.86966208689194,0.16199522172367511,-0.032865217644660105,0.34077268224462454,1282.051282051282,-1.0,51.53281610400503,1.9756172865178585,
2023-08-10 18:39:20.687000,-6.963855421686747,-0.8674698795180723,-6.927710843373494,-0.7725321888412017,-6.722869405272839,-6.646229307173513,2.0,1.9728937728937728,506.86966208689194,-0.036944234018996325,-0.3236408134724077,-0.04195559699318227,1282.7838827838827,-1.0,51.53281610400503,1.9755918191847268,
2023-08-10 18:39:20.695000,-6.975903614457832,-0.855421686746988,-6.951807228915663,-0.8191293684855916,-6.705702023298589,-6.692826486817903,2.0,1.9728937728937728,506.86966208689194,0.05698968591573838,0.07388846803799265,0.12726531087931944,1284.2490842490843,-1.0,51.53281610400503,1.9755662329770523,
2023-08-10 18:39:20.702000,-6.963855421686747,-0.8674698795180723,-6.951807228915663,-0.7798896382587369,-6.664009809932557,-6.66584917228694,2.0,1.9728937728937728,506.86966208689194,0.1185245615057398,0.1343744537031648,-0.0553580793660045,1288.6446886446886,1164.306640625,51.53281610400503,1.9755405240669168,
2023-08-10 18:39:20.710000,-6.963855421686747,-0.8433734939759037,-6.951807228915663,-0.8412017167381973,-6.695892090741876,-6.621704475781729,2.0,1.9728937728937728,506.86966208689194,-0.0045451896742613,-0.12283666453003943,0.04020744711846625,1291.5750915750914,-1.0,51.53281610400503,1.9755146890316417,
2023-08-10 18:39:20.718000,-6.963855421686747,-0.8915662650602411,-6.951807228915663,-0.8240343347639485,-6.715511955855303,-6.658491722869405,2.0,1.9728937728937728,506.86966208689194,0.1475438494260236,-0.10582133908280432,0.17854437387098643,1293.7728937728937,-1.0,51.53281610400503,1.9754887253286892,
2023-08-10 18:39:20.725000,-6.963855421686747,-0.8674698795180723,-6.963855421686747,-0.86817903126916,-6.769466584917228,-6.683016554261189,2.0,1.9728937728937728,506.86966208689194,0.3743371598391705,0.20208612551716096,-0.09696404638424339,1296.7032967032967,-1.0,51.53281610400503,1.975462630786275,
2023-08-10 18:39:20.733000,-6.963855421686747,-0.8795180722891567,-6.951807228915663,-0.8412017167381973,-6.664009809932557,-6.685469037400368,2.0,1.9728937728937728,506.86966208689194,0.1554687955247361,0.002447409824602773,-0.09358428995979262,1302.5641025641025,-1.0,51.53281610400503,1.9754364036545131,
2023-08-10 18:39:20.741000,-6.951807228915663,-0.8795180722891567,-6.951807228915663,-0.8559166155732679,-6.759656652360515,-6.65113427345187,2.0,1.9728937728937728,506.86966208689194,-0.0916030534351145,0.06339956878969827,0.0599032690402658,1306.227106227106,-1.0,51.53281610400503,1.9754100425853023,
2023-08-10 18:39:20.748000,-6.951807228915663,-0.855421686746988,-6.975903614457832,-0.7798896382587369,-6.754751686082158,-6.71244635193133,2.0,1.9728937728937728,506.86966208689194,-0.12132160130528508,0.016082978847386676,0.22772565701299444,1310.6227106227104,-1.0,51.53281610400503,1.9753835462221156,
2023-08-10 18:39:20.756000,-6.975903614457832,-0.8674698795180723,-6.951807228915663,-0.8362967504598405,-6.713059472716124,-6.685469037400368,2.0,1.9714285714285715,507.2463768115942,0.06293339548977318,-0.07668550783753793,-0.27748965677990794,1313.5531135531135,-1.0,51.53281610400503,1.975356913701471,
2023-08-10 18:39:20.764000,-6.975903614457832,-0.855421686746988,-6.963855421686747,-0.8412017167381973,-6.754751686082158,-6.673206621704475,2.0,1.9714285714285715,507.2463768115942,-0.014218285647689819,-0.10885146553231127,0.09113688013519029,1313.5531135531135,-1.0,51.53281610400503,1.9753301450833156,
2023-08-10 18:39:20.771000,-6.975903614457832,-0.855421686746988,-6.9397590361445785,-0.7921520539546291,-6.708154506437768,-6.670754138565297,2.0,1.9714285714285715,507.2463768115942,-0.10582133908280432,-0.0802983509119508,0.015150632247537814,1312.8205128205127,-1.0,51.53281610400503,1.9753032406922757,
2023-08-10 18:39:20.779000,-6.987951807228916,-0.8674698795180723,-6.927710843373494,-0.8264868179031268,-6.737584304107909,-6.619251992642551,2.0,1.9728937728937728,506.86966208689194,0.04638424334246317,0.18052561039566456,0.04510226676767093,1312.087912087912,-1.0,51.53281610400503,1.9752762006647766,
2023-08-10 18:39:20.787000,-6.963855421686747,-0.8674698795180723,-6.963855421686747,-0.7921520539546291,-6.754751686082158,-6.663396689147762,2.0,1.9728937728937728,506.86966208689194,-0.27352718373055257,-0.09346774663481136,-0.0170153254472351,1311.3553113553112,-1.0,51.53281610400503,1.9752490254761361,
2023-08-10 18:39:20.794000,-6.963855421686747,-0.8433734939759037,-6.9397590361445785,-0.8412017167381973,-6.732679337829552,-6.643776824034334,2.0,1.9728937728937728,506.86966208689194,0.1117650486568374,-0.01538371889749992,-0.22947380688771046,1309.1575091575091,-1.0,51.53281610400503,1.9752217165347892,
2023-08-10 18:39:20.802000,-6.963855421686747,-0.8313253012048193,-6.963855421686747,-0.8166768853464133,-6.676272225628448,-6.680564071122011,2.0,1.9728937728937728,506.86966208689194,0.1579162053493389,-0.45405279412621713,-0.08915564361051216,1305.4945054945053,-1.0,51.53281610400503,1.9751942761453494,
2023-08-10 18:39:20.810000,-6.951807228915663,-0.855421686746988,-6.927710843373494,-0.7529123237277743,-6.747394236664623,-6.6781115879828326,2.0,1.9728937728937728,506.86966208689194,-0.07248994813822088,-0.1922964862187516,0.04720004661732989,1303.2967032967033,-1.0,51.53281610400503,1.9751667070144436,
2023-08-10 18:39:20.817000,-6.975903614457832,-0.855421686746988,-6.927710843373494,-0.7921520539546291,-6.732679337829552,-6.71244635193133,2.0,1.9728937728937728,506.86966208689194,-0.16467571819823956,0.007691859448750828,-0.09055416351028481,1303.2967032967033,-1.0,51.53281610400503,1.9751390122473176,
2023-08-10 18:39:20.825000,-6.963855421686747,-0.855421686746988,-6.927710843373494,-0.8068669527896996,-6.759656652360515,-6.638871857755977,2.0,1.9714285714285715,507.2463768115942,-0.01165433249810621,-0.34613367519375254,-0.25826000815803263,1304.0293040293038,-1.0,51.53281610400503,1.9751111953426175,
2023-08-10 18:39:20.833000,-6.963855421686747,-0.855421686746988,-6.9397590361445785,-0.8068669527896996,-6.688534641324341,-6.619251992642551,2.0,1.9728937728937728,506.86966208689194,0.07726822446244384,0.08344502068644033,-0.2424101159606085,1304.7619047619046,-1.0,51.53281610400503,1.9750832596927832,
2023-08-10 18:39:20.840000,-6.951807228915663,-0.8674698795180723,-6.963855421686747,-0.8412017167381973,-6.705702023298589,-6.660944206008583,2.0,1.9728937728937728,506.86966208689194,0.18110832702057048,0.09708058970922423,-0.01235359244799253,1307.6923076923076,-1.0,51.53281610400503,1.9750552085380562,
2023-08-10 18:39:20.848000,-6.951807228915663,-0.855421686746988,-6.951807228915663,-0.7921520539546291,-6.732679337829552,-6.638871857755977,2.0,1.9728937728937728,506.86966208689194,0.17936017714585445,0.09906182623390192,-0.012120505798030423,1309.1575091575091,-1.0,51.53281610400503,1.9750270455481158,
2023-08-10 18:39:20.856000,-6.975903614457832,-0.8433734939759037,-6.963855421686747,-0.8093194359288779,-6.695892090741876,-6.673206621704475,2.0,1.9728937728937728,506.86966208689194,0.12971272070392093,-0.14451372297651666,-0.0271545947205874,1309.1575091575091,-1.0,51.53281610400503,1.9749987752983034,
2023-08-10 18:39:20.863000,-6.963855421686747,-0.855421686746988,-6.9397590361445785,-0.8828939301042305,-6.769466584917228,-6.675659104843654,2.0,1.9728937728937728,506.86966208689194,-0.392284831886254,-0.0651477186644143,-0.20744711846628985,1307.6923076923076,-1.0,51.53281610400503,1.9749704031852977,
2023-08-10 18:39:20.871000,-6.963855421686747,-0.855421686746988,-6.9397590361445785,-0.745554874310239,-6.779276517473942,-6.660944206008583,2.0,1.9728937728937728,506.86966208689194,-0.037760037293863916,0.030534351145038167,-0.4496241477769362,1308.4249084249084,-1.0,51.53281610400503,1.9749419349211839,
2023-08-10 18:39:20.879000,-6.963855421686747,-0.855421686746988,-6.963855421686747,-0.7970570202329859,-6.747394236664623,-6.697731453096259,2.0,1.9728937728937728,506.86966208689194,0.08391119398636367,-0.16723967134782317,0.011421245848144104,1310.6227106227104,-1.0,51.53281610400503,1.9749133765191629,
2023-08-10 18:39:20.886000,-6.963855421686747,-0.8674698795180723,-6.951807228915663,-0.8240343347639485,-6.700797057020233,-6.646229307173513,2.0,1.9714285714285715,507.2463768115942,0.18845055649437706,-0.04230522696812521,-0.0816968708117243,1314.2857142857142,-1.0,51.53281610400503,1.9748847342783802,
2023-08-10 18:39:20.894000,-6.963855421686747,-0.8795180722891567,-6.963855421686747,-0.86817903126916,-6.737584304107909,-6.65113427345187,2.0,1.9714285714285715,507.2463768115942,0.2637375444321432,-0.37783345958860254,-0.09731367635918634,1318.6813186813185,-1.0,51.53281610400503,1.9748560142753147,
2023-08-10 18:39:20.902000,-6.951807228915663,-0.8795180722891567,-6.951807228915663,-0.8264868179031268,-6.727774371551195,-6.692826486817903,2.0,1.9728937728937728,506.86966208689194,0.12306975118000109,-0.42235300973136713,-0.11526134840626986,1323.8095238095236,-1.0,51.53281610400503,1.9748272222750167,
2023-08-10 18:39:20.909000,-6.963855421686747,-0.8795180722891567,-6.951807228915663,-0.7995095033721643,-6.722869405272839,-6.65113427345187,2.0,1.9714285714285715,507.2463768115942,0.13915273002738776,-0.43400734222947335,0.1903152496940739,1326.7399267399267,-1.0,51.53281610400503,1.9747983646590102,
2023-08-10 18:39:20.917000,-6.963855421686747,-0.8915662650602411,-6.975903614457832,-0.8608215818516247,-6.759656652360515,-6.663396689147762,2.0,1.9714285714285715,507.2463768115942,0.13798729677757768,0.11910727813064571,0.2635044577821807,1330.4029304029302,-1.0,51.53281610400503,1.9747694484390625,
2023-08-10 18:39:20.925000,-6.975903614457832,-0.8674698795180723,-6.9397590361445785,-0.8461066830165542,-6.727774371551195,-6.687921520539546,2.0,1.9714285714285715,507.2463768115942,0.09090379348522774,0.10582133908280432,0.13833692675252018,1334.065934065934,-1.0,51.53281610400503,1.9747404801831252,
2023-08-10 18:39:20.932000,-6.963855421686747,-0.8795180722891567,-6.927710843373494,-0.8191293684855916,-6.713059472716124,-6.626609442060086,2.0,1.9714285714285715,507.2463768115942,0.18075869704562622,-0.198007109142823,0.36792727696521194,1338.4615384615383,-1.0,51.53281610400503,1.9747114660276008,
2023-08-10 18:39:20.940000,-6.975903614457832,-0.8674698795180723,-6.963855421686747,-0.8534641324340895,-6.759656652360515,-6.663396689147762,2.0,1.9714285714285715,507.2463768115942,0.24019579278596737,-0.30009906182623364,-0.04486918011770882,1340.6593406593406,-1.0,51.53281610400503,1.974682412144361,
2023-08-10 18:39:20.948000,-6.975903614457832,-0.855421686746988,-6.91566265060241,-0.8338442673206621,-6.67381974248927,-6.624156958920907,2.0,1.9714285714285715,507.2463768115942,0.11712604160596629,-0.20336810209195189,-0.15138977915039903,1342.8571428571427,-1.0,51.53281610400503,1.974653324714756,
2023-08-10 18:39:20.955000,-6.975903614457832,-0.855421686746988,-6.91566265060241,-0.7676272225628449,-6.715511955855303,-6.636419374616799,2.0,1.9714285714285715,507.2463768115942,-0.038575840568731506,-0.2158382378649257,0.03647806071907211,1345.054945054945,-1.0,51.53281610400503,1.974624209903455,
2023-08-10 18:39:20.963000,-7.0120481927710845,-0.8433734939759037,-6.927710843373494,-0.8338442673206621,-6.688534641324341,-6.692826486817903,2.0,1.9714285714285715,507.2463768115942,-0.02284249169628734,0.23017306683759636,-0.28459879960375284,1347.2527472527472,-1.0,51.53281610400503,1.9745950738323004,
2023-08-10 18:39:20.970000,-6.975903614457832,-0.855421686746988,-6.927710843373494,-0.86817903126916,-6.742489270386265,-6.621704475781729,2.0,1.9714285714285715,507.2463768115942,0.023192121671231584,0.15220558242526575,-0.03880892721869361,1349.4505494505493,-1.0,51.53281610400503,1.974565922554341,
2023-08-10 18:39:20.978000,-6.987951807228916,-0.8795180722891567,-6.951807228915663,-0.8044144696505211,-6.798896382587369,-6.621704475781729,2.0,1.9714285714285715,507.2463768115942,0.19159722626886486,0.3034788182506848,0.053027212866383,1346.5201465201465,-1.0,51.53281610400503,1.9745367620282444,
2023-08-10 18:39:20.986000,-6.963855421686747,-0.855421686746988,-6.963855421686747,-0.7602697731453096,-6.776824034334764,-6.658491722869405,2.0,1.9714285714285715,507.2463768115942,0.4327253656546824,0.1778451139211001,-0.33098304294621517,1339.9267399267399,-1.0,51.53281610400503,1.9745075980932354,
2023-08-10 18:39:20.993000,-6.975903614457832,-0.855421686746988,-6.975903614457832,-0.7995095033721643,-6.771919068056406,-6.683016554261189,2.0,1.9714285714285715,507.2463768115942,0.1537206456500201,0.08565934386107969,-0.15896509527416816,1331.8681318681317,-1.0,51.53281610400503,1.9744784364447596,
2023-08-10 18:39:21.001000,-6.963855421686747,-0.8433734939759037,-7.0,-0.7798896382587369,-6.700797057020233,-6.690374003678724,2.0,1.9714285714285715,507.2463768115942,0.07388846803799265,-0.09719713303420506,-0.05104597634170487,1324.5421245421244,-1.0,51.53281610400503,1.9744492826110138,
2023-08-10 18:39:21.009000,-6.927710843373494,-0.8433734939759037,-7.0120481927710845,-0.762722256284488,-6.698344573881054,-6.7664009809932555,2.0,1.9714285714285715,507.2463768115942,0.012237049123012128,-0.26268865450731393,-0.20488316531670667,1319.4139194139193,-1.0,51.53281610400503,1.9744201419305292,
2023-08-10 18:39:21.016000,-6.9397590361445785,-0.8433734939759037,-6.987951807228916,-0.8142244022072348,-6.710606989576946,-6.71244635193133,2.0,1.9714285714285715,507.2463768115942,-0.23238739001223746,-0.517219276265952,-0.11106578870695194,1316.4835164835165,-1.0,51.53281610400503,1.9743910195309342,
2023-08-10 18:39:21.024000,-6.951807228915663,-0.8795180722891567,-7.0,-0.8583690987124463,-6.715511955855303,-6.685469037400368,2.0,1.9714285714285715,507.2463768115942,0.0,0.040440533768428356,-0.4136122603577879,1323.076923076923,-1.0,51.53281610400503,1.974361920309076,
2023-08-10 18:39:21.032000,-6.91566265060241,-0.8674698795180723,-6.975903614457832,-0.7823421213979154,-6.722869405272839,-6.638871857755977,2.0,1.9714285714285715,507.2463768115942,0.1848377134199642,0.10535516578287923,-0.27107977390594934,1343.5897435897434,-1.0,51.53281610400503,1.9743328489126135,
2023-08-10 18:39:21.039000,-6.927710843373494,-0.855421686746988,-6.951807228915663,-0.7749846719803801,-6.698344573881054,-6.663396689147762,2.0,1.9714285714285715,507.2463768115942,0.12295320785502026,0.2154886078899832,-0.36070159081638614,1382.4175824175823,-1.0,51.53281610400503,1.9743038097232228,
2023-08-10 18:39:21.047000,-6.927710843373494,-0.819277108433735,-6.951807228915663,-0.7823421213979154,-6.710606989576946,-6.668301655426118,2.0,1.9714285714285715,507.2463768115942,-0.1846046267700025,0.6599848493677526,-0.5414602878620128,1443.2234432234432,-1.0,51.53281610400503,1.9742748068415403,
2023-08-10 18:39:21.055000,-6.927710843373494,-0.819277108433735,-6.9397590361445785,-0.7749846719803801,-6.67381974248927,-6.653586756591048,2.0,1.9714285714285715,507.2463768115942,-0.22749257036303192,0.07901637433715986,-0.6144164093001575,1528.2051282051282,-1.0,51.53281610400503,1.974245844073931,
2023-08-10 18:39:21.062000,-6.9397590361445785,-0.819277108433735,-6.951807228915663,-0.7921520539546291,-6.73513182096873,-6.656039239730227,2.0,1.9699633699633703,507.6236519152101,-0.08950527358545597,0.19812365246780558,-1.190256978031583,1638.095238095238,-1.0,51.53281610400503,1.9742169249212107,
2023-08-10 18:39:21.070000,-6.927710843373494,-0.8433734939759037,-6.9397590361445785,-0.762722256284488,-6.700797057020233,-6.633966891477621,2.0,1.9714285714285715,507.2463768115942,-0.15045743255055147,0.22446244391352496,-0.8613717149350273,1767.7655677655675,-1.0,51.53281610400503,1.9741880525345776,
2023-08-10 18:39:21.078000,-6.927710843373494,-0.8674698795180723,-6.951807228915663,-0.7798896382587369,-6.722869405272839,-6.658491722869405,2.0,1.9714285714285715,507.2463768115942,0.06270030883981152,-0.2825010197540943,-1.0086824777110892,1910.6227106227104,-1.0,51.53281610400503,1.9741592300616655,
2023-08-10 18:39:21.085000,-6.9397590361445785,-0.8795180722891567,-6.951807228915663,-0.7970570202329859,-6.690987124463519,-6.614347026364193,2.0,1.9714285714285715,507.2463768115942,0.12283666453003943,0.00827457607365501,-0.8933045859798376,2054.212454212454,-1.0,51.53281610400503,1.9741304602197653,
2023-08-10 18:39:21.093000,-6.9397590361445785,-0.855421686746988,-6.951807228915663,-0.7970570202329859,-6.686082158185162,-6.658491722869405,2.0,1.9714285714285715,507.2463768115942,0.3491638016432612,0.20465007866674456,-0.8118408018180758,2188.2783882783883,-1.0,51.53281610400503,1.9741017449054115,
2023-08-10 18:39:21.101000,-6.987951807228916,-0.855421686746988,-6.987951807228916,-0.8044144696505211,-6.705702023298589,-6.656039239730227,2.0,1.9728937728937728,506.86966208689194,0.25383136180875304,0.5229298991900234,-0.6376085309713886,2305.494505494505,-1.0,51.53281610400503,1.9740730856845619,
2023-08-10 18:39:21.108000,-6.951807228915663,-0.855421686746988,-6.975903614457832,-0.7161250766400981,-6.779276517473942,-6.670754138565297,2.0,1.9728937728937728,506.86966208689194,0.28203484645416926,0.7933104131460864,-0.6330633412971274,2397.069597069597,-1.0,51.53281610400503,1.9740444842850806,
2023-08-10 18:39:21.116000,-7.0,-0.855421686746988,-6.963855421686747,-0.7749846719803801,-6.705702023298589,-6.658491722869405,2.0,1.9728937728937728,506.86966208689194,0.08181341413670515,0.787599790222015,-0.7477419730784921,2461.5384615384614,-1.0,51.53281610400503,1.9740159426710384,
2023-08-10 18:39:21.124000,-7.024096385542169,-0.8433734939759037,-6.963855421686747,-0.8044144696505211,-6.7743715511955855,-6.653586756591048,2.0,1.9714285714285715,507.2463768115942,0.08274576073655357,0.7817726239729628,-0.7420313501544203,2495.238095238095,-1.0,51.53281610400503,1.973987462594856,
2023-08-10 18:39:21.131000,-7.0361445783132535,-0.855421686746988,-6.9397590361445785,-0.8313917841814837,-6.793991416309012,-6.638871857755977,2.0,1.9714285714285715,507.2463768115942,-0.10057688945865627,0.3207272303478816,-0.6274692616980359,2497.4358974358975,-1.0,51.53281610400503,1.9739590451175675,
2023-08-10 18:39:21.139000,-7.024096385542169,-0.9036144578313253,-6.9397590361445785,-0.8117719190680563,-6.784181483752299,-6.616799509503371,2.0,1.9714285714285715,507.2463768115942,-0.32853563312161327,-0.22982343686265383,-0.7430802400792491,2472.5274725274726,-1.0,51.53281610400503,1.9739306905524427,
2023-08-10 18:39:21.147000,-6.987951807228916,-0.8795180722891567,-6.9397590361445785,-0.8608215818516247,-6.754751686082158,-6.624156958920907,2.0,1.9728937728937728,506.86966208689194,-0.587844531204476,-0.3626828273410643,-0.5843482314550431,2421.978021978022,-1.0,51.53281610400503,1.9739023989359088,
2023-08-10 18:39:21.154000,-6.927710843373494,-0.9036144578313253,-6.9397590361445785,-0.8877988963825874,-6.668914776210913,-6.729613733905579,2.0,1.9714285714285715,507.2463768115942,-0.2320377600372932,-0.48342171202144346,-1.052968941203892,2348.7179487179487,-1.0,51.53281610400503,1.9738741709932375,
2023-08-10 18:39:21.162000,-6.903614457831326,-0.9156626506024097,-6.987951807228916,-0.8755364806866952,-6.664009809932557,-6.641324340895156,2.0,1.9714285714285715,507.2463768115942,-0.3192121671231272,-0.14218285647689471,-1.6248470368859627,2260.07326007326,-1.0,51.53281610400503,1.97384600721011,
2023-08-10 18:39:21.170000,-6.903614457831326,-0.9518072289156627,-6.963855421686747,-0.9098712446351931,-6.659104843654199,-6.7075413856529735,2.0,1.9714285714285715,507.2463768115942,-0.699842666511275,-0.5071965503175809,-1.5500262222481207,2161.904761904762,-1.0,51.53281610400503,1.973817906906067,
2023-08-10 18:39:21.177000,-6.91566265060241,-0.963855421686747,-6.951807228915663,-0.9343960760269773,-6.661557326793378,-6.653586756591048,2.0,1.9714285714285715,507.2463768115942,-0.6642969523920522,-0.5366820115377898,-1.050404988054309,2060.07326007326,-1.0,51.53281610400503,1.9737898696637637,
2023-08-10 18:39:21.185000,-6.91566265060241,-0.9518072289156627,-6.951807228915663,-0.944206008583691,-6.661557326793378,-6.646229307173513,2.0,1.9714285714285715,507.2463768115942,-0.415943126857409,0.047316589942311596,-1.0104306275858048,1953.8461538461538,-1.0,51.53281610400503,1.973761895284204,
2023-08-10 18:39:21.193000,-6.963855421686747,-0.9156626506024097,-6.963855421686747,-0.86817903126916,-6.708154506437768,-6.709993868792152,2.0,1.9714285714285715,507.2463768115942,-0.24520715576015376,0.38167938931297707,-0.7864343569722041,1849.084249084249,-1.0,51.53281610400503,1.973733983322359,
2023-08-10 18:39:21.200000,-6.927710843373494,-0.9156626506024097,-7.0,-0.8927038626609441,-6.666462293071735,-6.690374003678724,2.0,1.9714285714285715,507.2463768115942,-0.4875007283957814,0.638074704271312,-1.2224229357263563,1747.985347985348,-1.0,51.53281610400503,1.9737061331161792,
2023-08-10 18:39:21.208000,-6.951807228915663,-0.9036144578313253,-6.963855421686747,-0.8534641324340895,-6.710606989576946,-6.60453709380748,2.0,1.9714285714285715,507.2463768115942,-0.5919235475788123,0.2530155585338854,-1.1045976341705028,1655.6776556776556,-1.0,51.53281610400503,1.9736783438161511,
2023-08-10 18:39:21.216000,-6.975903614457832,-0.8795180722891567,-6.951807228915663,-0.8779889638258737,-6.747394236664623,-6.614347026364193,2.0,1.9714285714285715,507.2463768115942,-0.6328302546471657,0.47934269564710724,-1.3095973428121903,1571.4285714285713,-1.0,51.53281610400503,1.9736506139574013,
2023-08-10 18:39:21.223000,-6.975903614457832,-0.8795180722891567,-6.951807228915663,-0.8044144696505211,-6.727774371551195,-6.670754138565297,2.0,1.9714285714285715,507.2463768115942,-0.8574092418856715,0.2010372355923317,-1.3142590758114334,1499.6336996336995,-1.0,51.53281610400503,1.9736229424729015,
2023-08-10 18:39:21.231000,-6.987951807228916,-0.8915662650602411,-6.9397590361445785,-0.8362967504598405,-6.754751686082158,-6.614347026364193,2.0,1.9714285714285715,507.2463768115942,-0.6365596410465594,-0.21105996154070272,-1.1647339898607298,1438.095238095238,-1.0,51.53281610400503,1.9735953286197752,
2023-08-10 18:39:21.239000,-7.0,-0.8795180722891567,-6.951807228915663,-0.8068669527896996,-6.76701410177805,-6.633966891477621,2.0,1.9714285714285715,507.2463768115942,-1.0448109084552175,0.034729910844356955,-1.5683235242701472,1390.4761904761904,-1.0,51.53281610400503,1.973567771096392,
2023-08-10 18:39:21.246000,-6.975903614457832,-0.8915662650602411,-6.927710843373494,-0.8951563458001226,-6.764561618638871,-6.690374003678724,2.0,1.9714285714285715,507.2463768115942,-0.6871394440883396,-0.19334537614358085,-1.0508711613542332,1354.5787545787546,-1.0,51.53281610400503,1.9735402685650512,
2023-08-10 18:39:21.254000,-7.0,-0.8795180722891567,-6.951807228915663,-0.838749233599019,-6.754751686082158,-6.629061925199264,2.0,1.9714285714285715,507.2463768115942,-0.6371423576714635,-0.009906182623390191,-1.2071557601538376,1331.135531135531,-1.0,51.53281610400503,1.9735128196816263,
2023-08-10 18:39:21.262000,-7.0,-0.8915662650602411,-6.91566265060241,-0.8264868179031268,-6.798896382587369,-6.616799509503371,2.0,1.9714285714285715,507.2463768115942,-0.8310704504399503,0.03531262746926114,-1.0913116951226616,1317.216117216117,-1.0,51.53281610400503,1.9734854231246792,
2023-08-10 18:39:21.269000,-7.0,-0.9156626506024097,-6.927710843373494,-0.8706315144083384,-6.762109135499693,-6.631514408338442,2.0,1.9714285714285715,507.2463768115942,-0.47316589942311077,0.033564477594545124,-0.48377134199638683,1312.087912087912,-1.0,51.53281610400503,1.9734580776239128,
2023-08-10 18:39:21.277000,-7.0120481927710845,-0.8915662650602411,-6.903614457831326,-0.8461066830165542,-6.786633966891477,-6.648681790312692,2.0,1.9714285714285715,507.2463768115942,-0.7570654390769769,0.4287628926053253,-0.6476312569197601,1311.3553113553112,-1.0,51.53281610400503,1.973430781987822,
2023-08-10 18:39:21.285000,-7.0120481927710845,-0.855421686746988,-6.91566265060241,-0.7823421213979154,-6.776824034334764,-6.65113427345187,2.0,1.9714285714285715,507.2463768115942,-0.44426315482780776,0.28739583940329816,-0.7306101043062766,1312.087912087912,-1.0,51.53281610400503,1.9734035351304136,
2023-08-10 18:39:21.292000,-6.987951807228916,-0.8674698795180723,-6.963855421686747,-0.8534641324340895,-6.759656652360515,-6.683016554261189,2.0,1.9714285714285715,507.2463768115942,-0.6535749664937944,0.19171376959384567,-1.02744595303304,1314.2857142857142,-1.0,51.53281610400503,1.97337633609687,
2023-08-10 18:39:21.300000,-6.987951807228916,-0.8795180722891567,-6.963855421686747,-0.8240343347639485,-6.784181483752299,-6.670754138565297,2.0,1.9714285714285715,507.2463768115942,-0.7851523803974122,-0.42048831653167024,-1.2467804906473985,1315.018315018315,-1.0,51.53281610400503,1.9733491840880355,
2023-08-10 18:39:21.308000,-6.975903614457832,-0.9036144578313253,-6.9397590361445785,-0.8853464132434089,-6.72041692213366,-6.629061925199264,2.0,1.9714285714285715,507.2463768115942,-0.7782763242235308,-0.4631431734747397,-0.5025348173183375,1314.2857142857142,-1.0,51.53281610400503,1.973322078483635,
2023-08-10 18:39:21.315000,-6.963855421686747,-0.8795180722891567,-6.963855421686747,-0.8461066830165542,-6.717964438994482,-6.614347026364193,2.0,1.9714285714285715,507.2463768115942,-0.6344618611968991,-0.7033389662607071,-0.8619544315599319,1309.89010989011,-1.0,51.53281610400503,1.9732950188640916,
2023-08-10 18:39:21.323000,-6.951807228915663,-0.8915662650602411,-6.975903614457832,-0.851011649294911,-6.75229920294298,-6.656039239730227,2.0,1.9714285714285715,507.2463768115942,-0.4160596701823898,-0.590874657653983,-0.7912126332964279,1301.8315018315018,-1.0,51.53281610400503,1.973268005030887,
2023-08-10 18:39:21.330000,-6.9397590361445785,-0.9277108433734941,-6.951807228915663,-0.851011649294911,-6.62722256284488,-6.668301655426118,2.0,1.9714285714285715,507.2463768115942,-0.47130120622341387,-0.3723559233144928,-0.8903910028553107,1290.10989010989,-1.0,51.53281610400503,1.9732410370253541,
2023-08-10 18:39:21.338000,-6.963855421686747,-0.9156626506024097,-6.963855421686747,-0.86817903126916,-6.725321888412017,-6.6781115879828326,2.0,1.9714285714285715,507.2463768115942,-0.34322009206922643,0.026571878095682785,-0.7410990035545719,1274.7252747252746,-1.0,51.53281610400503,1.973214115145842,
2023-08-10 18:39:21.346000,-6.975903614457832,-0.9156626506024097,-6.9397590361445785,-0.9074187614960146,-6.717964438994482,-6.6781115879828326,2.0,1.9714285714285715,507.2463768115942,-0.2146728046151156,-0.049997086416876044,-0.9161470776761254,1263.003663003663,-1.0,51.53281610400503,1.9731872399631876,
2023-08-10 18:39:21.353000,-6.987951807228916,-0.9036144578313253,-6.975903614457832,-0.8853464132434089,-6.722869405272839,-6.653586756591048,2.0,1.9714285714285715,507.2463768115942,-0.5485694306858577,-0.21712021443971838,-0.6923838937124877,1252.7472527472526,-1.0,51.53281610400503,1.973160412334438,
2023-08-10 18:39:21.361000,-6.975903614457832,-0.9156626506024097,-6.9397590361445785,-0.8289393010423053,-6.764561618638871,-6.641324340895156,2.0,1.9714285714285715,507.2463768115942,-0.5429753510867672,-0.24683876230988894,-0.6989103199114266,1244.6886446886447,-1.0,51.53281610400503,1.9731336334147784,
2023-08-10 18:39:21.369000,-7.0,-0.9036144578313253,-6.927710843373494,-0.8142244022072348,-6.764561618638871,-6.663396689147762,2.0,1.9699633699633703,507.6236519152101,-0.5236291591399101,-0.21712021443971838,-1.040265718780957,1238.8278388278388,-1.0,51.53281610400503,1.973106904667636,
2023-08-10 18:39:21.376000,-7.024096385542169,-0.9036144578313253,-6.927710843373494,-0.8461066830165542,-6.713059472716124,-6.687921520539546,2.0,1.9699633699633703,507.6236519152101,-0.7931938698211056,-0.4575490938756474,-0.9373579628226797,1234.4322344322343,-1.0,51.53281610400503,1.9730802278381383,
2023-08-10 18:39:21.384000,-6.975903614457832,-0.9036144578313253,-6.927710843373494,-0.8951563458001226,-6.744941753525445,-6.685469037400368,2.0,1.9699633699633703,507.6236519152101,-1.1219625895926806,-0.7441291300040797,-1.034205465881941,1232.967032967033,-1.0,51.53281610400503,1.9730536048200535,
2023-08-10 18:39:21.392000,-6.951807228915663,-0.9036144578313253,-6.951807228915663,-0.9245861434702636,-6.76701410177805,-6.658491722869405,2.0,1.9714285714285715,507.2463768115942,-0.9605500844939113,-0.55439659693491,-0.8553114620360112,1235.8974358974358,-1.0,51.53281610400503,1.9730270371663794,
2023-08-10 18:39:21.399000,-6.951807228915663,-0.9277108433734941,-6.951807228915663,-0.8755364806866952,-6.73513182096873,-6.66584917228694,2.0,1.9714285714285715,507.2463768115942,-0.9527416817201797,-0.5502010372355929,-0.8445894761377534,1242.4908424908424,-1.0,51.53281610400503,1.9730005266493857,
2023-08-10 18:39:21.407000,-6.951807228915663,-0.9397590361445783,-6.951807228915663,-0.9294911097486205,-6.646842427958307,-6.624156958920907,2.0,1.9699633699633703,507.6236519152101,-1.0972554046966962,-0.7127789755841739,-0.7431967834042312,1252.7472527472526,-1.0,51.53281610400503,1.9729740758182404,
2023-08-10 18:39:21.415000,-6.9397590361445785,-0.9277108433734941,-6.9397590361445785,-0.8583690987124463,-6.713059472716124,-6.643776824034334,2.0,1.9714285714285715,507.2463768115942,-0.8894586562554622,-0.21945108093933857,-0.8102091952683411,1264.4688644688645,-1.0,51.53281610400503,1.9729476870444498,
2023-08-10 18:39:21.422000,-6.975903614457832,-0.9036144578313253,-6.9397590361445785,-0.9245861434702636,-6.754751686082158,-6.633966891477621,2.0,1.9714285714285715,507.2463768115942,-1.2168288561272653,-0.1551191655497936,-1.0139269273352376,1276.1904761904761,-1.0,51.53281610400503,1.9729213629366698,
2023-08-10 18:39:21.430000,-6.975903614457832,-0.9156626506024097,-6.951807228915663,-0.8951563458001226,-6.722869405272839,-6.60453709380748,2.0,1.9714285714285715,507.2463768115942,-0.8872443330808228,-0.2906590525027685,-0.9128838645766564,1286.4468864468863,-1.0,51.53281610400503,1.9728951068579752,
2023-08-10 18:39:21.438000,-6.975903614457832,-0.9156626506024097,-6.9397590361445785,-0.8583690987124463,-6.764561618638871,-6.624156958920907,2.0,1.9714285714285715,507.2463768115942,-1.1254588893421125,-0.21175922149058948,-0.7663889050754615,1296.7032967032967,-1.0,51.53281610400503,1.9728689224586722,
2023-08-10 18:39:21.445000,-7.0,-0.9156626506024097,-6.91566265060241,-0.8559166155732679,-6.72041692213366,-6.599632127529123,2.0,1.9714285714285715,507.2463768115942,-1.3140259891614705,-0.3474156517685452,-1.2472466639473223,1306.227106227106,-1.0,51.53281610400503,1.972842813665625,
2023-08-10 18:39:21.453000,-7.024096385542169,-0.9277108433734941,-6.9397590361445785,-0.851011649294911,-6.73513182096873,-6.683016554261189,2.0,1.9699633699633703,507.6236519152101,-1.2429345609230231,-0.406386574208963,-1.2189266359769249,1314.2857142857142,-1.0,51.53281610400503,1.9728167842124809,
2023-08-10 18:39:21.461000,-7.0120481927710845,-0.9156626506024097,-6.903614457831326,-0.8853464132434089,-6.705702023298589,-6.611894543225015,2.0,1.9714285714285715,507.2463768115942,-1.4005011362974178,-0.5576598100343804,-1.250160247071848,1320.8791208791208,-1.0,51.53281610400503,1.9727908376590666,
2023-08-10 18:39:21.468000,-7.0361445783132535,-0.9397590361445783,-6.91566265060241,-0.8853464132434089,-6.742489270386265,-6.609442060085836,2.0,1.9699633699633703,507.6236519152101,-1.2823262047666222,-0.8579919585105756,-1.2527242002214325,1328.937728937729,-1.0,51.53281610400503,1.972764977761081,
2023-08-10 18:39:21.476000,-6.987951807228916,-0.9277108433734941,-6.91566265060241,-0.8608215818516247,-6.744941753525445,-6.633966891477621,2.0,1.9714285714285715,507.2463768115942,-1.4542276091136892,-0.49903851756890677,-1.1014509643960142,1336.9963369963368,-1.0,51.53281610400503,1.972739208062192,
2023-08-10 18:39:21.484000,-6.975903614457832,-0.9397590361445783,-6.9397590361445785,-0.8853464132434089,-6.725321888412017,-6.680564071122011,2.0,1.9714285714285715,507.2463768115942,-1.6084144280636326,-0.645650020395082,-1.3633238156284597,1342.8571428571427,-1.0,51.53281610400503,1.9727135323293585,
2023-08-10 18:39:21.491000,-6.975903614457832,-0.9518072289156627,-6.9397590361445785,-0.8828939301042305,-6.713059472716124,-6.60453709380748,2.0,1.9714285714285715,507.2463768115942,-1.6557310180059426,-0.5160538430161419,-1.3033040032632126,1347.2527472527472,-1.0,51.53281610400503,1.9726879555152528,
2023-08-10 18:39:21.499000,-6.963855421686747,-0.9397590361445783,-6.91566265060241,-0.9074187614960146,-6.781729000613121,-6.616799509503371,2.0,1.9714285714285715,507.2463768115942,-1.7953499213332553,-0.4512557543266701,-1.2143814463026634,1345.7875457875457,-1.0,51.53281610400503,1.9726624832127542,
2023-08-10 18:39:21.507000,-6.975903614457832,-0.9156626506024097,-6.891566265060241,-0.8583690987124463,-6.681177191906805,-6.619251992642551,2.0,1.9714285714285715,507.2463768115942,-1.689645125575432,-0.2825010197540943,-1.2785968183672276,1342.8571428571427,-1.0,51.53281610400503,1.9726371211464953,
2023-08-10 18:39:21.514000,-7.0120481927710845,-0.9518072289156627,-6.9397590361445785,-0.8485591661557327,-6.710606989576946,-6.668301655426118,2.0,1.9714285714285715,507.2463768115942,-1.8737835790455093,-0.20348464541693448,-1.264728162694482,1339.9267399267399,-1.0,51.53281610400503,1.9726118751568336,
2023-08-10 18:39:21.522000,-7.0,-0.9397590361445783,-6.903614457831326,-0.8657265481299815,-6.722869405272839,-6.653586756591048,2.0,1.9699633699633703,507.6236519152101,-1.9030359536157566,-0.29030942252782427,-1.2040090903793481,1333.3333333333333,-1.0,51.53281610400503,1.9725867507258492,
2023-08-10 18:39:21.530000,-7.0,-0.9518072289156627,-6.951807228915663,-0.8927038626609441,-6.713059472716124,-6.636419374616799,2.0,1.9699633699633703,507.6236519152101,-2.222015034088922,-0.2581434648330509,-1.1744070858341598,1326.7399267399267,-1.0,51.53281610400503,1.9725617534515216,
2023-08-10 18:39:21.537000,-6.987951807228916,-0.963855421686747,-6.927710843373494,-0.9221336603310851,-6.76701410177805,-6.695278969957081,2.0,1.9714285714285715,507.2463768115942,-1.9607248994813817,-0.3178136472233555,-0.9937649321135135,1320.14652014652,-1.0,51.53281610400503,1.9725368888554848,
2023-08-10 18:39:21.545000,-6.987951807228916,-0.963855421686747,-6.951807228915663,-0.9319435928877988,-6.740036787247087,-6.60453709380748,2.0,1.9699633699633703,507.6236519152101,-2.202785385467046,-0.22527824718839254,-1.4564419322883277,1313.5531135531135,-1.0,51.53281610400503,1.9725121623989865,
2023-08-10 18:39:21.553000,-7.0,-0.963855421686747,-6.9397590361445785,-0.8951563458001226,-6.749846719803801,-6.633966891477621,2.0,1.9714285714285715,507.2463768115942,-2.749839752928153,-0.31303537089913247,-1.4386108035662268,1305.4945054945053,-1.0,51.53281610400503,1.972487579533337,
2023-08-10 18:39:21.560000,-7.0120481927710845,-0.9518072289156627,-6.927710843373494,-0.9147762109135499,-6.742489270386265,-6.636419374616799,2.0,1.9714285714285715,507.2463768115942,-2.437620185303886,-0.4484587145271248,-1.6217003671114745,1298.168498168498,-1.0,51.53281610400503,1.972463146103998,
2023-08-10 18:39:21.568000,-6.987951807228916,-0.9518072289156627,-6.9397590361445785,-0.86817903126916,-6.75229920294298,-6.648681790312692,2.0,1.9699633699633703,507.6236519152101,-2.7237340481323935,-0.5655847561330929,-1.6644717673795226,1291.5750915750914,-1.0,51.53281610400503,1.972438868334093,
2023-08-10 18:39:21.576000,-6.987951807228916,-0.9397590361445783,-6.927710843373494,-0.8877988963825874,-6.73513182096873,-6.636419374616799,2.0,1.9699633699633703,507.6236519152101,-2.22376318396364,-0.25581259833343073,-1.8743662956704144,1286.4468864468863,-1.0,51.53281610400503,1.97241475189477,
2023-08-10 18:39:21.583000,-6.987951807228916,-0.9518072289156627,-6.903614457831326,-0.8927038626609441,-6.727774371551195,-6.626609442060086,2.0,1.9714285714285715,507.2463768115942,-2.9945807353883813,-0.8338674902394974,-1.77716916263621,1282.051282051282,-1.0,51.53281610400503,1.9723908017848102,
2023-08-10 18:39:21.591000,-6.975903614457832,-0.9397590361445783,-6.9397590361445785,-0.8019619865113427,-6.7743715511955855,-6.619251992642551,2.0,1.9699633699633703,507.6236519152101,-2.7093992191597245,-0.5677990793077322,-1.7438377716916271,1278.3882783882782,-1.0,51.53281610400503,1.9723670228395633,
2023-08-10 18:39:21.599000,-6.987951807228916,-0.9397590361445783,-6.903614457831326,-0.8461066830165542,-6.73513182096873,-6.616799509503371,2.0,1.9714285714285715,507.2463768115942,-2.36326554396597,-0.4696695996736787,-1.8011770875823094,1273.260073260073,-1.0,51.53281610400503,1.9723434197823215,
2023-08-10 18:39:21.606000,-7.0120481927710845,-0.9156626506024097,-6.91566265060241,-0.8853464132434089,-6.683629675045983,-6.648681790312692,2.0,1.9714285714285715,507.2463768115942,-2.920226094050464,-0.31105413437445306,-2.118291474855777,1268.8644688644688,-1.0,51.53281610400503,1.972319997172105,
2023-08-10 18:39:21.614000,-6.975903614457832,-0.9036144578313253,-6.927710843373494,-0.9196811771919068,-6.664009809932557,-6.643776824034334,2.0,1.9699633699633703,507.6236519152101,-2.526542742264436,-0.384709515762484,-1.8982576772915345,1265.2014652014652,-1.0,51.53281610400503,1.9722967599144872,
2023-08-10 18:39:21.622000,-6.987951807228916,-0.9036144578313253,-6.927710843373494,-0.851011649294911,-6.742489270386265,-6.648681790312692,2.0,1.9714285714285715,507.2463768115942,-2.836897616689006,-0.3041780782005716,-2.106753685682652,1261.5384615384614,-1.0,51.53281610400503,1.9722737122980225,
2023-08-10 18:39:21.629000,-6.987951807228916,-0.9036144578313253,-6.9397590361445785,-0.8166768853464133,-6.715511955855303,-6.643776824034334,2.0,1.9714285714285715,507.2463768115942,-3.101450964396015,-0.33028378299632927,-2.173882640871745,1259.3406593406592,-1.0,51.53281610400503,1.9722508588609013,
2023-08-10 18:39:21.637000,-6.963855421686747,-0.8915662650602411,-6.927710843373494,-0.8559166155732679,-6.690987124463519,-6.606989576946658,2.0,1.9714285714285715,507.2463768115942,-2.9646291008682457,-0.6776994347648745,-2.2575607482081472,1257.8754578754579,-1.0,51.53281610400503,1.9722282048379116,
2023-08-10 18:39:21.645000,-6.963855421686747,-0.9156626506024097,-6.951807228915663,-0.9319435928877988,-6.779276517473942,-6.619251992642551,2.0,1.9714285714285715,507.2463768115942,-3.0120622341355383,-0.7168579919585102,-2.1736495542217806,1254.212454212454,-1.0,51.53281610400503,1.972205755204775,
2023-08-10 18:39:21.652000,-6.975903614457832,-0.9036144578313253,-6.91566265060241,-0.86817903126916,-6.713059472716124,-6.624156958920907,2.0,1.9714285714285715,507.2463768115942,-2.9830429462152526,-0.8659169046092882,-2.424217702931065,1252.014652014652,-1.0,51.53281610400503,1.972183514673923,
2023-08-10 18:39:21.660000,-6.963855421686747,-0.9277108433734941,-6.91566265060241,-0.8927038626609441,-6.708154506437768,-6.631514408338442,2.0,1.9699633699633703,507.6236519152101,-3.3054017831128713,-0.7215197249577523,-2.686207097488491,1252.014652014652,-1.0,51.53281610400503,1.9721614876912101,
2023-08-10 18:39:21.668000,-6.951807228915663,-0.9277108433734941,-6.879518072289157,-0.9147762109135499,-6.710606989576946,-6.575107296137339,2.0,1.9714285714285715,507.2463768115942,-2.892372239379988,-0.4857525785210654,-2.597750713827864,1255.6776556776556,-1.0,51.53281610400503,1.972139677940946,
2023-08-10 18:39:21.675000,-6.975903614457832,-0.9277108433734941,-6.91566265060241,-0.8730839975475169,-6.737584304107909,-6.638871857755977,2.0,1.9699633699633703,507.6236519152101,-2.8611386282850653,-0.48132393217178493,-2.5712953790571627,1257.142857142857,-1.0,51.53281610400503,1.9721180883072063,
2023-08-10 18:39:21.683000,-6.987951807228916,-0.9277108433734941,-6.91566265060241,-0.8412017167381973,-6.786633966891477,-6.555487431023911,2.0,1.9699633699633703,507.6236519152101,-2.9243051104248,-0.5077792669424851,-2.4511392110016907,1260.8058608058607,-1.0,51.53281610400503,1.9720967218884151,
2023-08-10 18:39:21.691000,-7.0120481927710845,-0.9156626506024097,-6.927710843373494,-0.9491109748620478,-6.762109135499693,-6.641324340895156,2.0,1.9699633699633703,507.6236519152101,-2.9097371948021657,0.01654915214731002,-2.2996328885263106,1266.6666666666665,-1.0,51.53281610400503,1.9720755813634807,
2023-08-10 18:39:21.698000,-7.0361445783132535,-0.9156626506024097,-6.9397590361445785,-0.8877988963825874,-6.776824034334764,-6.646229307173513,2.0,1.9714285714285715,507.2463768115942,-3.064506730377017,-0.2591923547578819,-2.594720587378359,1273.260073260073,-1.0,51.53281610400503,1.9720546685322666,
2023-08-10 18:39:21.706000,-7.048192771084338,-0.9156626506024097,-6.9397590361445785,-0.86817903126916,-6.8038013488657265,-6.626609442060086,2.0,1.9714285714285715,507.2463768115942,-3.0950410815220533,-0.7740807645242119,-2.550201037235594,1282.7838827838827,-1.0,51.53281610400503,1.9720339852971978,
2023-08-10 18:39:21.713000,-7.0361445783132535,-0.9277108433734941,-6.9397590361445785,-0.8166768853464133,-6.76701410177805,-6.663396689147762,2.0,1.9714285714285715,507.2463768115942,-3.4299865975176247,-0.4295786958801929,-2.8888759396305583,1293.040293040293,-1.0,51.53281610400503,1.9720135337322453,
2023-08-10 18:39:21.721000,-7.024096385542169,-0.9277108433734941,-6.9397590361445785,-0.8902513795217657,-6.801348865726548,-6.641324340895156,2.0,1.9699633699633703,507.6236519152101,-3.5340597867257166,-0.4560340306508948,-2.888176679680669,1304.0293040293038,-1.0,51.53281610400503,1.9719933156280216,
2023-08-10 18:39:21.729000,-6.975903614457832,-0.9397590361445783,-6.9397590361445785,-0.8485591661557327,-6.769466584917228,-6.614347026364193,2.0,1.9699633699633703,507.6236519152101,-3.7885904084843527,-0.756948895751996,-3.0388671988811824,1312.8205128205127,-1.0,51.53281610400503,1.9719733320033022,
2023-08-10 18:39:21.736000,-6.963855421686747,-0.9277108433734941,-6.927710843373494,-0.9589209074187615,-6.742489270386265,-6.626609442060086,2.0,1.9699633699633703,507.6236519152101,-4.039158557193634,-0.9157974477011833,-2.976516520016314,1318.6813186813185,-1.0,51.53281610400503,1.9719535830382773,
2023-08-10 18:39:21.744000,-6.963855421686747,-0.9518072289156627,-6.91566265060241,-0.8804414469650521,-6.730226854690374,-6.606989576946658,2.0,1.9699633699633703,507.6236519152101,-3.7700600198123633,-0.6779325214148362,-2.7464599965037007,1324.5421245421244,-1.0,51.53281610400503,1.9719340685335478,
2023-08-10 18:39:21.752000,-6.951807228915663,-0.9277108433734941,-6.927710843373494,-0.9123237277743715,-6.740036787247087,-6.636419374616799,2.0,1.9714285714285715,507.2463768115942,-3.886253714818485,-0.7924946098712188,-3.051104248004197,1329.6703296703297,-1.0,51.53281610400503,1.9719147879118857,
2023-08-10 18:39:21.759000,-6.975903614457832,-0.9518072289156627,-6.891566265060241,-0.8804414469650521,-6.703249540159411,-6.66584917228694,2.0,1.9699633699633703,507.6236519152101,-3.764116310238332,-0.41081522055824177,-2.8984324922790066,1334.065934065934,-1.0,51.53281610400503,1.9718957407133113,
2023-08-10 18:39:21.767000,-6.987951807228916,-0.9397590361445783,-6.903614457831326,-0.8902513795217657,-6.784181483752299,-6.626609442060086,2.0,1.9699633699633703,507.6236519152101,-3.8099178369558895,-0.33447934269564633,-3.0816385991492354,1339.194139194139,-1.0,51.53281610400503,1.9718769261776914,
2023-08-10 18:39:21.775000,-6.987951807228916,-0.9397590361445783,-6.91566265060241,-0.9294911097486205,-6.835683629675046,-6.631514408338442,2.0,1.9714285714285715,507.2463768115942,-4.084726997261233,-0.22760911368801273,-3.2343103548744265,1342.1245421245421,-1.0,51.53281610400503,1.9718583427240024,
2023-08-10 18:39:21.782000,-7.0120481927710845,-0.9277108433734941,-6.91566265060241,-0.8608215818516247,-6.76701410177805,-6.673206621704475,2.0,1.9699633699633703,507.6236519152101,-4.054192646116195,0.13880310005244526,-3.50911951517977,1345.054945054945,-1.0,51.53281610400503,1.9718399889059364,
2023-08-10 18:39:21.790000,-7.024096385542169,-0.9277108433734941,-6.879518072289157,-0.9294911097486205,-6.754751686082158,-6.60453709380748,2.0,1.9714285714285715,507.2463768115942,-4.008391119398637,-0.48715109842083715,-3.2648447060194643,1346.5201465201465,-1.0,51.53281610400503,1.9718218629971604,
2023-08-10 18:39:21.798000,-7.0120481927710845,-0.9156626506024097,-6.91566265060241,-0.8853464132434089,-6.749846719803801,-6.580012262415695,2.0,1.9699633699633703,507.6236519152101,-4.46640638657421,-0.456616747275799,-3.478585164034732,1345.054945054945,-1.0,51.53281610400503,1.9718039629659185,
2023-08-10 18:39:21.805000,-6.987951807228916,-0.963855421686747,-6.927710843373494,-0.9515634580012262,-6.757204169221336,-6.577559779276517,2.0,1.9699633699633703,507.6236519152101,-4.542742264436805,-0.44134957170327993,-3.8297302022026707,1342.1245421245421,-1.0,51.53281610400503,1.9717862865201343,
2023-08-10 18:39:21.813000,-6.987951807228916,-0.9518072289156627,-6.903614457831326,-0.8755364806866952,-6.769466584917228,-6.663396689147762,2.0,1.9699633699633703,507.6236519152101,-4.176330050696348,-0.6550900297185471,-4.1198065380805335,1337.7289377289376,-1.0,51.53281610400503,1.9717688305912922,
2023-08-10 18:39:21.821000,-6.987951807228916,-0.9277108433734941,-6.91566265060241,-0.7946045370938074,-6.732679337829552,-6.624156958920907,2.0,1.9714285714285715,507.2463768115942,-4.4206048598566525,-0.6245556785735089,-3.9671347823553424,1334.065934065934,-1.0,51.53281610400503,1.9717515918019328,
2023-08-10 18:39:21.828000,-6.987951807228916,-0.9156626506024097,-6.91566265060241,-0.8804414469650521,-6.686082158185162,-6.675659104843654,2.0,1.9684981684981684,508.00148864905094,-4.6496124934444385,-0.48715109842083715,-4.104539362508014,1333.3333333333333,-1.0,51.53281610400503,1.9717345669685518,
2023-08-10 18:39:21.836000,-7.0120481927710845,-0.9397590361445783,-6.903614457831326,-0.8877988963825874,-6.72041692213366,-6.641324340895156,2.0,1.9699633699633703,507.6236519152101,-4.619078142299401,-0.3497465182681654,-4.028203484645418,1334.7985347985348,-1.0,51.53281610400503,1.9717177526571497,
2023-08-10 18:39:21.844000,-7.0120481927710845,-0.9036144578313253,-6.9397590361445785,-0.9393010423053341,-6.717964438994482,-6.65113427345187,2.0,1.9699633699633703,507.6236519152101,-4.939688829322302,-0.090204533535341,-4.409882873958396,1339.194139194139,-1.0,51.53281610400503,1.9717011450233437,
2023-08-10 18:39:21.851000,-7.0,-0.9277108433734941,-6.927710843373494,-0.8877988963825874,-6.75229920294298,-6.663396689147762,2.0,1.9699633699633703,507.6236519152101,-5.107627760620011,-0.3192121671231272,-4.196142415943129,1344.3223443223442,-1.0,51.53281610400503,1.9716847398610302,
2023-08-10 18:39:21.859000,-7.0,-0.9397590361445783,-6.903614457831326,-0.8877988963825874,-6.710606989576946,-6.621704475781729,2.0,1.9699633699633703,507.6236519152101,-4.725948371307035,-0.5482198007109135,-4.2419439426606855,1348.7179487179487,-1.0,51.53281610400503,1.971668532227823,
2023-08-10 18:39:21.867000,-6.987951807228916,-0.9397590361445783,-6.891566265060241,-0.8902513795217657,-6.742489270386265,-6.695278969957081,2.0,1.9699633699633703,507.6236519152101,-5.626711730085661,-0.6550900297185471,-4.440417225103434,1348.7179487179487,-1.0,51.53281610400503,1.971652516949337,
2023-08-10 18:39:21.874000,-7.0,-0.9397590361445783,-6.951807228915663,-0.9147762109135499,-6.742489270386265,-6.619251992642551,2.0,1.9699633699633703,507.6236519152101,-5.611444554513141,-0.6092885030009898,-4.806829438843892,1345.054945054945,-1.0,51.53281610400503,1.9716366886312706,
2023-08-10 18:39:21.882000,-7.0,-0.9156626506024097,-6.927710843373494,-0.8289393010423053,-6.830778663396689,-6.641324340895156,2.0,1.9699633699633703,507.6236519152101,-5.351902569780317,-0.6245556785735089,-4.745760736553816,1339.9267399267399,-1.0,51.53281610400503,1.9716210416719482,
2023-08-10 18:39:21.890000,-7.0120481927710845,-0.9518072289156627,-6.903614457831326,-0.8608215818516247,-6.754751686082158,-6.683016554261189,2.0,1.9699633699633703,507.6236519152101,-5.504574325505508,-0.5940213274284707,-4.638890507546182,1336.263736263736,-1.0,51.53281610400503,1.9716055702753112,
2023-08-10 18:39:21.897000,-7.024096385542169,-0.9397590361445783,-6.91566265060241,-0.9025137952176578,-6.730226854690374,-6.626609442060086,2.0,1.9699633699633703,507.6236519152101,-5.764116310238332,-0.30394499155060817,-4.83736378998893,1332.6007326007325,-1.0,51.53281610400503,1.9715902684643474,
2023-08-10 18:39:21.905000,-6.975903614457832,-0.9518072289156627,-6.91566265060241,-0.8853464132434089,-6.75229920294298,-6.602084610668301,2.0,1.9699633699633703,507.6236519152101,-5.916788065963523,-0.639822854146028,-5.280111881591983,1328.937728937729,1210.26611328125,49.575873720308635,1.9715751300949227,
2023-08-10 18:39:21.913000,-6.987951807228916,-0.9397590361445783,-6.91566265060241,-0.8338442673206621,-6.717964438994482,-6.584917228694052,2.0,1.9699633699633703,507.6236519152101,-6.237398752986423,-0.33447934269564633,-5.203776003729388,1323.076923076923,-1.0,49.575873720308635,1.9715601488700254,
2023-08-10 18:39:21.920000,-7.0,-0.9397590361445783,-6.903614457831326,-0.8730839975475169,-6.75229920294298,-6.653586756591048,2.0,1.9699633699633703,507.6236519152101,-5.993123943826118,-0.13600606025289824,-5.188508828156869,1318.6813186813185,-1.0,49.575873720308635,1.9715453183543814,
2023-08-10 18:39:21.928000,-6.975903614457832,-0.9518072289156627,-6.903614457831326,-0.8534641324340895,-6.713059472716124,-6.58982219497241,2.0,1.9699633699633703,507.6236519152101,-5.993123943826118,-0.639822854146028,-5.448050812889694,1316.4835164835165,-1.0,49.575873720308635,1.9715306324472934,
2023-08-10 18:39:21.936000,-7.0,-0.963855421686747,-6.903614457831326,-0.8093194359288779,-6.744941753525445,-6.60453709380748,2.0,1.9699633699633703,507.6236519152101,-6.451139211001691,-0.44134957170327993,-5.554921041897327,1315.7509157509157,-1.0,49.575873720308635,1.9715160848728304,
2023-08-10 18:39:21.943000,-6.987951807228916,-0.9397590361445783,-6.891566265060241,-0.8068669527896996,-6.732679337829552,-6.60453709380748,2.0,1.9699633699633703,507.6236519152101,-6.5274750888642865,-0.639822854146028,-5.2343103548744265,1315.018315018315,-1.0,49.575873720308635,1.9715016687743037,
2023-08-10 18:39:21.951000,-6.987951807228916,-0.9277108433734941,-6.927710843373494,-0.8853464132434089,-6.801348865726548,-6.611894543225015,2.0,1.9699633699633703,507.6236519152101,-6.5274750888642865,-0.639822854146028,-5.2343103548744265,1315.018315018315,-1.0,49.575873720308635,1.9714873776800657,
2023-08-10 18:39:21.959000,-6.987951807228916,-0.9156626506024097,-6.891566265060241,-0.8706315144083384,-6.8038013488657265,-6.619251992642551,2.0,1.9699633699633703,507.6236519152101,-6.63434531787192,-0.5176854495658754,-5.554921041897327,1315.7509157509157,-1.0,49.575873720308635,1.9714732049938706,
2023-08-10 18:39:21.966000,-7.0,-0.9156626506024097,-6.91566265060241,-0.8730839975475169,-6.732679337829552,-6.616799509503371,2.0,1.9699633699633703,507.6236519152101,-6.573276615581843,-0.3650136938406845,-5.936600431210304,1317.216117216117,-1.0,49.575873720308635,1.9714591435894828,
2023-08-10 18:39:21.974000,-7.024096385542169,-0.8915662650602411,-6.927710843373494,-0.8191293684855916,-6.737584304107909,-6.597179644389945,2.0,1.9699633699633703,507.6236519152101,-6.78701707359711,-0.5024182739933563,-5.432783637317175,1319.4139194139193,-1.0,49.575873720308635,1.971445186318631,
2023-08-10 18:39:21.982000,-7.0,-0.9156626506024097,-6.891566265060241,-0.8730839975475169,-6.757204169221336,-6.575107296137339,2.0,1.9684981684981684,508.00148864905094,-6.741215546879554,-0.48715109842083715,-5.814463026630151,1322.3443223443223,-1.0,49.575873720308635,1.9714313260264726,
2023-08-10 18:39:21.989000,-7.0,-0.9156626506024097,-6.927710843373494,-0.8461066830165542,-6.715511955855303,-6.636419374616799,2.0,1.9699633699633703,507.6236519152101,-6.80228424916963,-0.5634869762834326,-6.0129363090728996,1327.4725274725274,-1.0,49.575873720308635,1.9714175555324298,
2023-08-10 18:39:21.997000,-6.987951807228916,-0.9036144578313253,-6.9397590361445785,-0.8755364806866952,-6.717964438994482,-6.653586756591048,2.0,1.9699633699633703,507.6236519152101,-6.909154478177263,-0.5940213274284707,-6.257211118233204,1334.065934065934,-1.0,49.575873720308635,1.9714038679991852,
2023-08-10 18:39:22.005000,-7.0,-0.8915662650602411,-6.927710843373494,-0.8657265481299815,-6.72041692213366,-6.631514408338442,2.0,1.9699633699633703,507.6236519152101,-7.107627760620011,-0.7314259075811425,-6.135073713653052,1337.7289377289376,-1.0,49.575873720308635,1.9713902569846866,
2023-08-10 18:39:22.012000,-6.987951807228916,-0.9036144578313253,-6.927710843373494,-0.851011649294911,-6.715511955855303,-6.65113427345187,2.0,1.9699633699633703,507.6236519152101,-7.12289493619253,-0.27341064040557,-6.2419439426606855,1337.7289377289376,-1.0,49.575873720308635,1.9713767160032853,
2023-08-10 18:39:22.020000,-6.987951807228916,-0.9156626506024097,-6.9397590361445785,-0.8706315144083384,-6.7743715511955855,-6.670754138565297,2.0,1.9699633699633703,507.6236519152101,-7.214497989627645,-0.6245556785735089,-6.272478293805724,1334.7985347985348,-1.0,49.575873720308635,1.9713632385441842,
2023-08-10 18:39:22.028000,-6.987951807228916,-0.9036144578313253,-6.91566265060241,-0.8485591661557327,-6.730226854690374,-6.611894543225015,2.0,1.9699633699633703,507.6236519152101,-7.260299516345202,-0.7314259075811425,-6.425150049530915,1331.8681318681317,-1.0,49.575873720308635,1.9713498176314437,
2023-08-10 18:39:22.035000,-6.987951807228916,-0.8795180722891567,-6.927710843373494,-0.8240343347639485,-6.730226854690374,-6.66584917228694,2.0,1.9699633699633703,507.6236519152101,-7.107627760620011,-0.5634869762834326,-6.8068294388438915,1326.7399267399267,-1.0,49.575873720308635,1.9713364459085299,
2023-08-10 18:39:22.043000,-6.987951807228916,-0.8674698795180723,-6.9397590361445785,-0.838749233599019,-6.740036787247087,-6.648681790312692,2.0,1.9699633699633703,507.6236519152101,-7.626711730085661,-0.3497465182681654,-6.66942485869122,1323.8095238095236,-1.0,49.575873720308635,1.971323116601274,
2023-08-10 18:39:22.051000,-6.987951807228916,-0.9036144578313253,-6.951807228915663,-0.8657265481299815,-6.727774371551195,-6.60453709380748,2.0,1.9699633699633703,507.6236519152101,-7.5351086766505455,-0.3650136938406845,-6.593088980828624,1323.8095238095236,-1.0,49.575873720308635,1.97130982300523,
2023-08-10 18:39:22.058000,-6.987951807228916,-0.8915662650602411,-6.9397590361445785,-0.8755364806866952,-6.690987124463519,-6.687921520539546,2.0,1.9699633699633703,507.6236519152101,-7.550375852223064,-0.38028086941320355,-6.3488141716683195,1325.2747252747251,-1.0,49.575873720308635,1.9712965585349806,
2023-08-10 18:39:22.066000,-6.987951807228916,-0.8915662650602411,-6.975903614457832,-0.8289393010423053,-6.715511955855303,-6.670754138565297,2.0,1.9699633699633703,507.6236519152101,-7.825185012528408,-0.3650136938406845,-6.852630965561449,1328.2051282051282,-1.0,49.575873720308635,1.9712833171615218,
2023-08-10 18:39:22.074000,-6.987951807228916,-0.9156626506024097,-6.9397590361445785,-0.8313917841814837,-6.742489270386265,-6.690374003678724,2.0,1.9699633699633703,507.6236519152101,-7.916788065963523,-0.39554804498572266,-6.761027912126335,1331.135531135531,-1.0,49.575873720308635,1.9712700929359346,
2023-08-10 18:39:22.081000,-7.0,-0.9156626506024097,-6.9397590361445785,-0.8461066830165542,-6.713059472716124,-6.631514408338442,2.0,1.9699633699633703,507.6236519152101,-7.947322417108561,-0.7161587320086235,-6.745760736553816,1334.065934065934,-1.0,49.575873720308635,1.9712568800051382,
2023-08-10 18:39:22.089000,-6.987951807228916,-0.8915662650602411,-6.927710843373494,-0.8412017167381973,-6.727774371551195,-6.626609442060086,2.0,1.9699633699633703,507.6236519152101,-8.115261348406271,-0.5329526251383944,-6.898432492279007,1335.5311355311355,-1.0,49.575873720308635,1.9712436721691893,
2023-08-10 18:39:22.096000,-6.987951807228916,-0.8915662650602411,-6.927710843373494,-0.7995095033721643,-6.727774371551195,-6.611894543225015,2.0,1.9699633699633703,507.6236519152101,-8.099994172833751,-0.7161587320086235,-7.219043179301907,1335.5311355311355,-1.0,49.575873720308635,1.971230462963121,
2023-08-10 18:39:22.104000,-7.0,-0.8915662650602411,-6.91566265060241,-0.8583690987124463,-6.759656652360515,-6.609442060085836,2.0,1.9699633699633703,507.6236519152101,-8.31373463084902,-0.5482198007109135,-6.944234018996563,1334.7985347985348,-1.0,49.575873720308635,1.9712172466172087,
2023-08-10 18:39:22.112000,-7.0,-0.855421686746988,-6.891566265060241,-0.8117719190680563,-6.749846719803801,-6.594727161250766,2.0,1.9699633699633703,507.6236519152101,-7.96258959268108,-0.6550900297185471,-7.096905774721755,1333.3333333333333,-1.0,49.575873720308635,1.971204017999513,
2023-08-10 18:39:22.119000,-7.0,-0.8674698795180723,-6.91566265060241,-0.8534641324340895,-6.710606989576946,-6.597179644389945,2.0,1.9699633699633703,507.6236519152101,-8.099994172833751,-0.8382961365887761,-6.974768370141602,1333.3333333333333,-1.0,49.575873720308635,1.971190772137395,
2023-08-10 18:39:22.127000,-7.0,-0.8674698795180723,-6.927710843373494,-0.8412017167381973,-6.798896382587369,-6.643776824034334,2.0,1.9699633699633703,507.6236519152101,-8.2984674552765,-0.27341064040557,-7.203776003729388,1336.263736263736,-1.0,49.575873720308635,1.9711775042311328,
2023-08-10 18:39:22.135000,-7.0,-0.8915662650602411,-6.903614457831326,-0.8338442673206621,-6.771919068056406,-6.675659104843654,2.0,1.9684981684981684,508.00148864905094,-7.993123943826118,-0.2428762892605318,-7.249577530446945,1340.6593406593406,-1.0,49.575873720308635,1.9711642092091088,
2023-08-10 18:39:22.142000,-6.987951807228916,-0.8674698795180723,-6.91566265060241,-0.8657265481299815,-6.737584304107909,-6.643776824034334,2.0,1.9684981684981684,508.00148864905094,-7.947322417108561,-0.04440300681778374,-7.17324165258435,1345.054945054945,-1.0,49.575873720308635,1.9711508822306345,
2023-08-10 18:39:22.150000,-6.987951807228916,-0.8674698795180723,-6.963855421686747,-0.8485591661557327,-6.769466584917228,-6.641324340895156,2.0,1.9684981684981684,508.00148864905094,-8.252665928558942,-0.44134957170327993,-7.34118058388206,1348.7179487179487,-1.0,49.575873720308635,1.9711375185216935,
2023-08-10 18:39:22.158000,-6.987951807228916,-0.8674698795180723,-6.951807228915663,-0.8583690987124463,-6.771919068056406,-6.646229307173513,2.0,1.9699633699633703,507.6236519152101,-8.46640638657421,-0.5634869762834326,-7.4633179884622125,1350.9157509157508,-1.0,49.575873720308635,1.9711241129254833,
2023-08-10 18:39:22.165000,-6.975903614457832,-0.8674698795180723,-6.951807228915663,-0.8264868179031268,-6.722869405272839,-6.619251992642551,2.0,1.9699633699633703,507.6236519152101,-8.46640638657421,-0.48715109842083715,-7.524386690752289,1350.9157509157508,-1.0,49.575873720308635,1.9711106608923976,
2023-08-10 18:39:22.173000,-6.963855421686747,-0.8674698795180723,-6.963855421686747,-0.8657265481299815,-6.683629675045983,-6.705088902513795,2.0,1.9699633699633703,507.6236519152101,-8.741215546879554,-0.6092885030009898,-7.768661499912594,1352.3809523809523,-1.0,49.575873720308635,1.9710971585557262,
2023-08-10 18:39:22.181000,-6.975903614457832,-0.8674698795180723,-6.975903614457832,-0.8730839975475169,-6.737584304107909,-6.629061925199264,2.0,1.9699633699633703,507.6236519152101,-8.390070508711615,-0.4260823961307608,-7.448050812889694,1356.7765567765566,-1.0,49.575873720308635,1.9710836022817653,
2023-08-10 18:39:22.188000,-6.963855421686747,-0.855421686746988,-6.927710843373494,-0.8240343347639485,-6.705702023298589,-6.660944206008583,2.0,1.9699633699633703,507.6236519152101,-8.359536157566577,-0.48715109842083715,-7.646524095332442,1367.7655677655678,-1.0,49.575873720308635,1.9710699886773613,
2023-08-10 18:39:22.196000,-6.9397590361445785,-0.855421686746988,-6.963855421686747,-0.8485591661557327,-6.754751686082158,-6.668301655426118,2.0,1.9699633699633703,507.6236519152101,-8.924421653749782,-0.4260823961307608,-7.325913408309541,1391.9413919413919,-1.0,49.575873720308635,1.971056314597053,
2023-08-10 18:39:22.204000,-6.963855421686747,-0.8795180722891567,-6.963855421686747,-0.8559166155732679,-6.710606989576946,-6.619251992642551,2.0,1.9699633699633703,507.6236519152101,-8.329001806421537,-0.013868655672745575,-7.554921041897327,1435.8974358974358,-1.0,49.575873720308635,1.9710425771498188,
