Shimmer_F5D4_Timestamp_FormattedUnix_CAL,Shimmer_F5D4_Accel_LN_X_CAL,Shimmer_F5D4_Accel_LN_Y_CAL,Shimmer_F5D4_Accel_LN_Z_CAL,Shimmer_F5D4_Accel_WR_X_CAL,Shimmer_F5D4_Accel_WR_Y_CAL,Shimmer_F5D4_Accel_WR_Z_CAL,Shimmer_F5D4_GSR_Range_CAL,Shimmer_F5D4_GSR_Skin_Conductance_CAL,Shimmer_F5D4_GSR_Skin_Resistance_CAL,Shimmer_F5D4_Gyro_X_CAL,Shimmer_F5D4_Gyro_Y_CAL,Shimmer_F5D4_Gyro_Z_CAL,Shimmer_F5D4_PPG_A13_CAL,Shimmer_F5D4_PPG_IBI_CAL,Shimmer_F5D4_PPGtoHR_CAL,Shimmer_F5D4_GSR_Skin_Conductance_LPF_CAL,
yyyy/mm/dd hh:mm:ss.000,m/(s^2),m/(s^2),m/(s^2),m/(s^2),m/(s^2),m/(s^2),no_units,uS,kOhms,deg/s,deg/s,deg/s,mV,ms,BPM,uS,
2023-08-15 18:11:24.666000,-8.771084337349398,3.421686746987952,2.0120481927710845,3.7694665849172284,-8.76578786020846,2.5113427345187,2.0,1.660805860805861,602.1173356859285,-2.422469553056348,0.18145795699551298,0.2688654507313098,1421.245421245421,-1.0,83.32966008307197,1.664479987843687,
2023-08-15 18:11:24.673000,-8.74698795180723,3.397590361445783,2.024096385542169,3.637032495401594,-8.819742489270386,2.5113427345187,2.0,1.660805860805861,602.1173356859285,-2.9049589184779445,0.5378474447875999,0.21735330108967982,1528.937728937729,-1.0,83.32966008307197,1.6644470222046994,
2023-08-15 18:11:24.681000,-8.795180722891567,3.385542168674699,1.9879518072289157,3.585530349478847,-8.760882893930104,2.5481299816063765,2.0,1.660805860805861,602.1173356859285,-3.0336227492570362,0.6294504982227145,0.7133616922090787,1646.8864468864467,-1.0,83.32966008307197,1.6644140321826337,
2023-08-15 18:11:24.689000,-8.819277108433736,3.385542168674699,2.024096385542169,3.6419374616799507,-8.787860208461066,2.55793991416309,2.0,1.660805860805861,602.1173356859285,-3.08327020569897,1.300740050113629,0.9339782063982285,1773.6263736263736,-1.0,83.32966008307197,1.6643810167429696,
2023-08-15 18:11:24.696000,-8.819277108433736,3.385542168674699,2.060240963855422,3.5977927651747392,-8.866339668914776,2.5113427345187,2.0,1.660805860805861,602.1173356859285,-3.347707010080998,1.7509469145154717,0.9682419439426608,1904.7619047619046,-1.0,83.32966008307197,1.6643479745372294,
2023-08-15 18:11:24.704000,-8.831325301204819,3.325301204819277,2.0481927710843375,3.666462293071735,-8.84671980380135,2.533415082771306,2.0,1.6622710622710624,601.5866020273248,-3.472291824485752,1.5968766388905073,1.0622924072023772,2032.234432234432,-1.0,83.32966008307197,1.6643149039346936,
2023-08-15 18:11:24.712000,-8.819277108433736,3.3373493975903616,2.0481927710843375,3.5634580012262416,-8.817290006131207,2.4868179031269158,2.0,1.6622710622710624,601.5866020273248,-3.8258842724782935,1.3501544199055993,0.9389895693724143,2148.7179487179487,-1.0,83.32966008307197,1.6642818035477187,
2023-08-15 18:11:24.719000,-8.831325301204819,3.325301204819277,2.0481927710843375,3.5634580012262416,-8.878602084610668,2.6192519926425506,2.0,1.660805860805861,602.1173356859285,-3.9158557193636727,0.9255870869995927,1.444204883165317,2249.8168498168498,-1.0,83.32966008307197,1.66424867233733,
2023-08-15 18:11:24.727000,-8.831325301204819,3.325301204819277,2.0843373493975905,3.585530349478847,-8.82709993868792,2.5432250153280194,2.0,1.6622710622710624,601.5866020273248,-4.06596352193928,0.7026397063108204,1.3195035254355802,2329.6703296703295,-1.0,83.32966008307197,1.664215508702245,
2023-08-15 18:11:24.735000,-8.831325301204819,3.325301204819277,2.060240963855422,3.56591048436542,-8.836909871244634,2.570202329858982,2.0,1.660805860805861,602.1173356859285,-4.811374628518152,1.0287279296078309,1.4865101101334426,2387.5457875457873,-1.0,83.32966008307197,1.6641823109399236,
2023-08-15 18:11:24.742000,-8.819277108433736,3.289156626506024,2.0481927710843375,3.56591048436542,-8.836909871244634,2.5677498467198037,2.0,1.6622710622710624,601.5866020273248,-4.786317813647222,1.0783753860497645,1.4835965270089155,2423.4432234432234,-1.0,83.32966008307197,1.6641490777776635,
2023-08-15 18:11:24.750000,-8.795180722891567,3.3012048192771086,2.0,3.5928877988963825,-8.805027590435316,2.550582464745555,2.0,1.660805860805861,602.1173356859285,-5.385933220674786,0.506613833692675,1.0378183089563549,2434.432234432234,-1.0,83.32966008307197,1.6641158078514655,
2023-08-15 18:11:24.758000,-8.698795180722891,3.3012048192771086,1.9879518072289157,3.5879828326180254,-8.679950950337217,2.494175352544451,2.0,1.6622710622710624,601.5866020273248,-5.749781481265662,0.7769943476487381,0.6867898141133962,2423.4432234432234,-1.0,83.32966008307197,1.6640824993585308,
2023-08-15 18:11:24.765000,-8.674698795180724,3.3012048192771086,1.9397590361445785,3.5389331698344573,-8.655426118945432,2.4328632740649905,2.0,1.6622710622710624,601.5866020273248,-5.715284657071266,1.0009906182623396,0.6652292989919006,2391.941391941392,-1.0,83.32966008307197,1.6640491505532926,
2023-08-15 18:11:24.773000,-8.626506024096386,3.3012048192771086,1.9156626506024097,3.5830778663396687,-8.61128142244022,2.41814837522992,2.0,1.6622710622710624,601.5866020273248,-6.051162519666686,1.9475555037585228,0.8331682302896106,2338.461538461538,-1.0,83.32966008307197,1.6640157603126668,
2023-08-15 18:11:24.781000,-8.590361445783133,3.3012048192771086,1.9156626506024097,3.524218270999387,-8.613733905579398,2.4328632740649905,2.0,1.660805860805861,602.1173356859285,-6.3717732066895865,3.046792144979897,0.8484354058621297,2265.934065934066,-1.0,83.32966008307197,1.6639823277181667,
2023-08-15 18:11:24.788000,-8.626506024096386,3.325301204819277,1.9397590361445785,3.531575720416922,-8.625996321275291,2.494175352544451,2.0,1.660805860805861,602.1173356859285,-6.158032748674319,4.084960083911194,0.9705728104422824,2179.487179487179,-1.0,83.32966008307197,1.6639488516028451,
2023-08-15 18:11:24.796000,-8.674698795180724,3.3373493975903616,2.0120481927710845,3.6811771919068055,-8.702023298589822,2.494175352544451,2.0,1.660805860805861,602.1173356859285,-6.203834275391877,5.062059320552416,1.7491987646407556,2084.981684981685,-1.0,83.32966008307197,1.6639153309760586,
2023-08-15 18:11:24.804000,-8.759036144578314,3.3734939759036147,2.0481927710843375,3.6517473942366645,-8.819742489270386,2.5260576333537705,2.0,1.660805860805861,602.1173356859285,-6.158032748674319,5.260532602995164,1.5201911310529694,1985.3479853479853,-1.0,83.32966008307197,1.6638817654468396,
2023-08-15 18:11:24.811000,-8.891566265060241,3.433734939759036,2.072289156626506,3.7498467198038012,-8.927651747394236,2.575107296137339,2.0,1.660805860805861,602.1173356859285,-6.509177786842258,4.833051686964629,2.1308781539537325,1884.9816849816848,-1.0,83.32966008307197,1.663848154308868,
2023-08-15 18:11:24.819000,-8.963855421686748,3.5060240963855422,2.072289156626506,3.737584304107909,-8.944819129368485,2.5481299816063765,2.0,1.660805860805861,602.1173356859285,-6.509177786842258,4.833051686964629,2.1308781539537325,1788.278388278388,-1.0,83.32966008307197,1.6638144966408757,
2023-08-15 18:11:24.827000,-9.012048192771084,3.5060240963855422,2.108433734939759,3.847946045370938,-9.006131207847945,2.609442060085837,2.0,1.660805860805861,602.1173356859285,-6.783986947147602,5.642211992308141,1.6575957112056412,1694.5054945054944,-1.0,83.32966008307197,1.6637807918256722,
2023-08-15 18:11:24.834000,-9.012048192771084,3.530120481927711,2.144578313253012,3.806253832004905,-8.981606376456162,2.6609442060085837,2.0,1.660805860805861,602.1173356859285,-6.616048015849892,6.115494435056233,1.291183497465183,1606.5934065934066,-1.0,83.32966008307197,1.6637470395745209,
2023-08-15 18:11:24.842000,-8.975903614457831,3.530120481927711,2.144578313253012,3.8038013488657265,-9.01594114040466,2.6388718577559778,2.0,1.660805860805861,602.1173356859285,-6.722918244857525,6.497173824369209,1.1385117417399924,1523.0769230769229,-1.0,83.32966008307197,1.6637132399494343,
2023-08-15 18:11:24.850000,-8.951807228915664,3.5180722891566267,2.180722891566265,3.8013488657265477,-8.912936848559166,2.6854690374003676,2.0,1.660805860805861,602.1173356859285,-6.890857176155236,5.260532602995164,0.9247712837247251,1445.4212454212454,-1.0,83.32966008307197,1.6636793933832787,
2023-08-15 18:11:24.857000,-8.879518072289157,3.4819277108433737,2.204819277108434,3.7424892703862658,-8.89086450030656,2.680564071122011,2.0,1.660805860805861,602.1173356859285,-7.745819008216304,3.306334129712721,0.5736262455567862,1373.6263736263736,-1.0,83.32966008307197,1.6636455006976203,
2023-08-15 18:11:24.865000,-8.843373493975903,3.433734939759036,2.253012048192771,3.6811771919068055,-8.935009196811771,2.7590435315757205,2.0,1.660805860805861,602.1173356859285,-8.234368626536915,1.8559524503234084,1.0469086883048777,1306.9597069597069,-1.0,83.32966008307197,1.6636115631182358,
2023-08-15 18:11:24.872000,-8.891566265060241,3.397590361445783,2.253012048192771,3.6468424279583074,-8.893316983445738,2.7467811158798283,2.0,1.660805860805861,602.1173356859285,-8.753452596002564,0.4971738243692099,1.8713361692209083,1244.6886446886447,-1.0,83.32966008307197,1.663577582288237,
2023-08-15 18:11:24.880000,-8.879518072289157,3.385542168674699,2.2650602409638556,3.6223175965665235,-8.888412017167381,2.705088902513795,2.0,1.6593406593406592,602.6490066225166,-9.104597634170503,-0.15931472524911067,2.772099527999534,1192.6739926739926,704.7119140625,85.14117443270396,1.6635435602787703,
2023-08-15 18:11:24.888000,-8.855421686746988,3.3734939759036147,2.2289156626506026,3.614960147148988,-8.807480073574494,2.705088902513795,2.0,1.6593406593406592,602.6490066225166,-9.63894877920867,-0.4799254122720114,2.7568323524270153,1145.054945054945,-1.0,85.14117443270396,1.6635094991045951,
2023-08-15 18:11:24.895000,-8.771084337349398,3.3373493975903616,2.1204819277108435,3.614960147148988,-8.817290006131207,2.6069895769466584,2.0,1.660805860805861,602.1173356859285,-10.188567099819357,-0.4951925878445305,2.3293514363964807,1104.029304029304,-1.0,85.14117443270396,1.6634754006576773,
2023-08-15 18:11:24.903000,-8.72289156626506,3.289156626506024,2.096385542168675,3.497240956468424,-8.78050275904353,2.60453709380748,2.0,1.660805860805861,602.1173356859285,-9.974826641804091,-0.11351319853155341,2.4514888409766336,1069.5970695970695,-1.0,85.14117443270396,1.6634412676554913,
2023-08-15 18:11:24.911000,-8.710843373493976,3.253012048192771,2.072289156626506,3.5168608215818513,-8.753525444512569,2.65113427345187,2.0,1.6593406593406592,602.6490066225166,-9.63894877920867,0.6193112289493626,2.2530155585338854,1043.2234432234432,-1.0,85.14117443270396,1.6634071037079148,
2023-08-15 18:11:24.918000,-8.674698795180724,3.253012048192771,2.132530120481928,3.548743102391171,-8.665236051502145,2.6192519926425506,2.0,1.660805860805861,602.1173356859285,-8.47864343569722,1.260532602995164,2.7110308257094577,1026.3736263736264,-1.0,85.14117443270396,1.6633729123639727,
2023-08-15 18:11:24.926000,-8.698795180722891,3.2650602409638556,2.168674698795181,3.5462906192519923,-8.687308399754752,2.6879215205395464,2.0,1.660805860805861,602.1173356859285,-8.402307557834625,2.191830312918828,2.2682827341064042,1019.7802197802197,-1.0,85.14117443270396,1.6633386975272995,
2023-08-15 18:11:24.934000,-8.710843373493976,3.2650602409638556,2.216867469879518,3.5928877988963825,-8.731453096259962,2.692826486817903,2.0,1.660805860805861,602.1173356859285,-8.47864343569722,3.1994639007050876,2.390420138686557,1019.0476190476189,-1.0,85.14117443270396,1.6633044639733943,
2023-08-15 18:11:24.941000,-8.734939759036145,3.313253012048193,2.240963855421687,3.5806253832004904,-8.758430410790925,2.702636419374617,2.0,1.6593406593406592,602.6490066225166,-8.234368626536915,3.092593671697454,2.4972903676941907,1027.8388278388277,-1.0,85.14117443270396,1.6632702168817555,
2023-08-15 18:11:24.949000,-8.783132530120483,3.27710843373494,2.240963855421687,3.4874310239117103,-8.824647455548742,2.732066217044758,2.0,1.6593406593406592,602.6490066225166,-8.17329992424684,2.8177845113921105,3.16904609288503,1036.6300366300366,-1.0,85.14117443270396,1.6632359613311951,
2023-08-15 18:11:24.957000,-8.783132530120483,3.253012048192771,2.27710843373494,3.5413856529736356,-8.775597792765174,2.810545677498467,2.0,1.6593406593406592,602.6490066225166,-8.356506031117068,1.9475555037585228,3.107977390594954,1050.5494505494505,-1.0,85.14117443270396,1.6632017022137424,
2023-08-15 18:11:24.964000,-8.843373493975903,3.2650602409638556,2.253012048192771,3.5193133047210297,-8.895769466584916,2.773758430410791,2.0,1.6593406593406592,602.6490066225166,-7.8068877105063805,1.6880135190256984,3.3217178486102212,1069.5970695970695,-1.0,85.14117443270396,1.6631674446712494,
2023-08-15 18:11:24.972000,-8.855421686746988,3.313253012048193,2.240963855421687,3.5462906192519923,-8.873697118332311,2.768853464132434,2.0,1.660805860805861,602.1173356859285,-7.2572693898956935,1.3826700075753167,3.5507254821980077,1092.3076923076922,-1.0,85.14117443270396,1.6631331940718834,
2023-08-15 18:11:24.980000,-8.879518072289157,3.325301204819277,2.27710843373494,3.5634580012262416,-8.86143470263642,2.7565910484365417,2.0,1.6593406593406592,602.6490066225166,-6.845055649437678,0.28343336635394273,3.5659926577705265,1118.6813186813185,-1.0,85.14117443270396,1.6630989564771912,
2023-08-15 18:11:24.987000,-8.867469879518072,3.325301204819277,2.27710843373494,3.5585530349478844,-8.834457388105456,2.8007357449417536,2.0,1.6593406593406592,602.6490066225166,-6.493910611269739,0.22236466406386643,3.856068993648389,1147.2527472527472,-1.0,85.14117443270396,1.663064738194132,
2023-08-15 18:11:24.995000,-8.831325301204819,3.3373493975903616,2.253012048192771,3.607602697731453,-8.84426732066217,2.844880441446965,2.0,1.660805860805861,602.1173356859285,-6.081696870811724,0.8177845113921107,2.9705728104422824,1176.5567765567764,-1.0,85.14117443270396,1.663030545221377,
2023-08-15 18:11:25.003000,-8.843373493975903,3.349397590361446,2.2650602409638556,3.62722256284488,-8.800122624156959,2.773758430410791,2.0,1.6593406593406592,602.6490066225166,-5.593147252491113,0.512440999941729,3.1843132684575495,1203.6630036630036,-1.0,85.14117443270396,1.6629963841697806,
2023-08-15 18:11:25.010000,-8.795180722891567,3.349397590361446,2.27710843373494,3.6174126302881664,-8.78050275904353,2.768853464132434,2.0,1.660805860805861,602.1173356859285,-5.303070916613251,-0.17458190082162975,2.8484354058621295,1231.5018315018315,-1.0,85.14117443270396,1.6629622618105242,
2023-08-15 18:11:25.018000,-8.72289156626506,3.36144578313253,2.2650602409638556,3.624770079705702,-8.721643163703249,2.803188228080932,2.0,1.6593406593406592,602.6490066225166,-4.1427655731018005,0.6193112289493626,2.5888934211293053,1253.4798534798533,-1.0,85.14117443270396,1.662928185010836,
2023-08-15 18:11:25.026000,-8.674698795180724,3.349397590361446,2.2650602409638556,3.614960147148988,-8.679950950337217,2.7541385652973633,2.0,1.6593406593406592,602.6490066225166,-3.8374220616514187,0.7567158091020343,2.405687314259076,1274.7252747252746,-1.0,85.14117443270396,1.6628941607386978,
2023-08-15 18:11:25.033000,-8.66265060240964,3.36144578313253,2.2289156626506026,3.6223175965665235,-8.687308399754752,2.7762109135499693,2.0,1.6593406593406592,602.6490066225166,-3.303070916613251,0.8177845113921107,2.924771283724725,1293.7728937728937,-1.0,85.14117443270396,1.6628601955050188,
2023-08-15 18:11:25.041000,-8.650602409638555,3.3734939759036147,2.253012048192771,3.6100551808706314,-8.645616186388718,2.734518700183936,2.0,1.660805860805861,602.1173356859285,-2.845055649437678,0.7261814579569962,2.787366703572053,1309.1575091575091,-1.0,85.14117443270396,1.6628262957883821,
2023-08-15 18:11:25.049000,-8.674698795180724,3.397590361445783,2.240963855421687,3.654199877375843,-8.640711220110362,2.705088902513795,2.0,1.6593406593406592,602.6490066225166,-2.402307557834625,0.878853213682187,3.306450673037702,1318.6813186813185,-1.0,85.14117443270396,1.6627924684943887,
2023-08-15 18:11:25.056000,-8.66265060240964,3.3734939759036147,2.2289156626506026,3.6517473942366645,-8.660331085223788,2.810545677498467,2.0,1.6593406593406592,602.6490066225166,-2.3565060311170676,1.0009906182623396,3.092710215022435,1324.5421245421244,-1.0,85.14117443270396,1.6627587205018866,
2023-08-15 18:11:25.064000,-8.63855421686747,3.397590361445783,2.253012048192771,3.6174126302881664,-8.670141017780502,2.761496014714899,2.0,1.6593406593406592,602.6490066225166,-1.8221548860788999,0.6040440533768435,2.4362216654041142,1326.7399267399267,-1.0,85.14117443270396,1.6627250581054474,
2023-08-15 18:11:25.072000,-8.650602409638555,3.4457831325301207,2.216867469879518,3.7302268546903736,-8.645616186388718,2.732066217044758,2.0,1.6593406593406592,602.6490066225166,-1.455742672338442,0.8177845113921107,2.1156109783812136,1323.8095238095236,-1.0,85.14117443270396,1.6626914874413183,
2023-08-15 18:11:25.079000,-8.650602409638555,3.4819277108433737,2.240963855421687,3.744941753525444,-8.667688534641323,2.7173513182096873,2.0,1.6593406593406592,602.6490066225166,-1.135131985315541,-0.02191014509643891,2.146145329526252,1321.6117216117216,-1.0,85.14117443270396,1.662658014456193,
2023-08-15 18:11:25.087000,-8.63855421686747,3.4698795180722892,2.253012048192771,3.796443899448191,-8.64316370324954,2.7369711833231145,2.0,1.660805860805861,602.1173356859285,-1.4099411456208846,-0.18984907639414883,1.1995804440300686,1317.9487179487178,-1.0,85.14117443270396,1.6626246448768927,
2023-08-15 18:11:25.095000,-8.63855421686747,3.493975903614458,2.253012048192771,3.796443899448191,-8.623543838136113,2.771305947271612,2.0,1.657875457875458,603.1816173221388,-1.4099411456208846,-0.18984907639414883,1.1995804440300686,1310.6227106227104,-1.0,85.14117443270396,1.662591384673845,
2023-08-15 18:11:25.102000,-8.63855421686747,3.5060240963855422,2.2650602409638556,3.7596566523605146,-8.706928264868179,2.734518700183936,2.0,1.6593406593406592,602.6490066225166,-0.8603228250101975,-0.06771167181399616,0.726298001281977,1304.0293040293038,-1.0,85.14117443270396,1.6625582395779437,
2023-08-15 18:11:25.110000,-8.686746987951807,3.530120481927711,2.253012048192771,3.8920907418761495,-8.675045984058858,2.7762109135499693,2.0,1.6593406593406592,602.6490066225166,-1.0282617563079075,-0.11351319853155341,0.8026338791445724,1295.970695970696,-1.0,85.14117443270396,1.6625252148829386,
2023-08-15 18:11:25.118000,-8.698795180722891,3.530120481927711,2.240963855421687,3.7621091354996934,-8.630901287553648,2.751686082158185,2.0,1.6593406593406592,602.6490066225166,-1.1656663364605793,-0.17458190082162975,0.4667560165491526,1286.4468864468863,-1.0,85.14117443270396,1.6624923159154135,
2023-08-15 18:11:25.125000,-8.698795180722891,3.5060240963855422,2.180722891566265,3.708154506437768,-8.699570815450643,2.709993868792152,2.0,1.6593406593406592,602.6490066225166,-1.135131985315541,0.10022725948371375,0.2530155585338854,1273.260073260073,-1.0,85.14117443270396,1.6624595475577755,
2023-08-15 18:11:25.133000,-8.698795180722891,3.493975903614458,2.2289156626506026,3.7302268546903736,-8.679950950337217,2.7590435315757205,2.0,1.6593406593406592,602.6490066225166,-1.3794067944758464,-0.34252083211933965,0.06980945166365643,1261.5384615384614,-1.0,85.14117443270396,1.6624269137726648,
2023-08-15 18:11:25.141000,-8.686746987951807,3.493975903614458,2.216867469879518,3.7302268546903736,-8.733905579399142,2.741876149601471,2.0,1.657875457875458,603.1816173221388,-0.7381854204300449,-0.09824602295903433,0.5278247188392289,1248.3516483516482,-1.0,85.14117443270396,1.662394417654024,
2023-08-15 18:11:25.148000,-8.710843373493976,3.4819277108433737,2.1927710843373496,3.744941753525444,-8.753525444512569,2.7271612507664007,2.0,1.6593406593406592,602.6490066225166,-0.8297884738651594,-0.4799254122720114,0.2682827341064045,1237.3626373626373,-1.0,85.14117443270396,1.662362061866229,
2023-08-15 18:11:25.156000,-8.734939759036145,3.4819277108433737,2.216867469879518,3.7621091354996934,-8.748620478234212,2.680564071122011,2.0,1.6593406593406592,602.6490066225166,-0.6007808402773731,-1.1669483130353702,0.49729036769419077,1226.3736263736264,-1.0,85.14117443270396,1.662329848981066,
2023-08-15 18:11:25.164000,-8.710843373493976,3.457831325301205,2.240963855421687,3.717964438994482,-8.733905579399142,2.729613733905579,2.0,1.6593406593406592,602.6490066225166,-0.753452596002564,-1.8387040382262099,0.6499621234193816,1215.3846153846152,-1.0,85.14117443270396,1.6622977815002642,
2023-08-15 18:11:25.171000,-8.72289156626506,3.4457831325301207,2.168674698795181,3.7400367872470874,-8.71919068056407,2.74432863274065,2.0,1.6593406593406592,602.6490066225166,-0.49391061126973956,-2.1745819008216296,0.5125575432667099,1206.5934065934066,-1.0,85.14117443270396,1.662265860931958,
2023-08-15 18:11:25.179000,-8.686746987951807,3.4698795180722892,2.180722891566265,3.708154506437768,-8.603923973022685,2.732066217044758,2.0,1.6593406593406592,602.6490066225166,-0.23436862653691515,-2.7394673970048355,0.024007924946099175,1202.9304029304028,-1.0,85.14117443270396,1.6622340883102757,
2023-08-15 18:11:25.187000,-8.626506024096386,3.457831325301205,2.1927710843373496,3.7204169221336603,-8.564684242795831,2.6952789699570814,2.0,1.6593406593406592,602.6490066225166,-0.5397121379872968,-2.6936658702872784,-0.4034729910844352,1200.7326007326008,-1.0,85.14117443270396,1.6622024646132774,
2023-08-15 18:11:25.194000,-8.602409638554217,3.4698795180722892,2.204819277108434,3.7400367872470874,-8.606376456161863,2.6535867565910483,2.0,1.6593406593406592,602.6490066225166,-0.23436862653691515,-2.83107045043995,-0.7546180292523741,1200.0,-1.0,85.14117443270396,1.6621709902701909,
2023-08-15 18:11:25.202000,-8.590361445783133,3.457831325301205,2.168674698795181,3.7988963825873694,-8.532801961986511,2.71244635193133,2.0,1.6593406593406592,602.6490066225166,-0.005360992949128891,-2.3883223588368967,-0.5866790979546641,1202.197802197802,-1.0,85.14117443270396,1.6621396651638276,
2023-08-15 18:11:25.210000,-8.602409638554217,3.4457831325301207,2.144578313253012,3.67381974248927,-8.601471489883506,2.6462293071735132,2.0,1.6593406593406592,602.6490066225166,0.26944816735621463,-1.7318338092185763,-0.9530913116951222,1203.6630036630036,-1.0,85.14117443270396,1.6621084881776933,
2023-08-15 18:11:25.217000,-8.63855421686747,3.4096385542168677,2.144578313253012,3.666462293071735,-8.586756591048436,2.663396689147762,2.0,1.6593406593406592,602.6490066225166,0.696929083386749,-1.2585513664704846,-1.2584348231455038,1203.6630036630036,-1.0,85.14117443270396,1.6620774577287067,
2023-08-15 18:11:25.225000,-8.66265060240964,3.397590361445783,2.180722891566265,3.6394849785407724,-8.655426118945432,2.729613733905579,2.0,1.6593406593406592,602.6490066225166,1.1244099994172834,-0.7852689237223931,-1.5943126857409236,1204.3956043956043,-1.0,85.14117443270396,1.6620465721985398,
2023-08-15 18:11:25.233000,-8.698795180722891,3.4096385542168677,2.180722891566265,3.6713672593500917,-8.682403433476395,2.6560392397302266,2.0,1.6593406593406592,602.6490066225166,1.6434939688829322,-0.15931472524911067,-1.82332031932871,1205.128205128205,-1.0,85.14117443270396,1.662015829454468,
2023-08-15 18:11:25.240000,-8.698795180722891,3.4096385542168677,2.2289156626506026,3.632127529123237,-8.706928264868179,2.7198038013488657,2.0,1.6593406593406592,602.6490066225166,2.1778451139211,-0.44939106112697325,-1.9301905483363435,1205.8608058608058,-1.0,85.14117443270396,1.6619852268655189,
2023-08-15 18:11:25.248000,-8.734939759036145,3.385542168674699,2.27710843373494,3.6811771919068055,-8.755977927651747,2.793378295524218,2.0,1.657875457875458,603.1816173221388,2.315249694073772,-0.23565060311170608,-2.037060777343977,1204.3956043956043,-1.0,85.14117443270396,1.6619547613212247,
2023-08-15 18:11:25.255000,-8.759036144578314,3.4096385542168677,2.2289156626506026,3.6615573267933783,-8.770692826486817,2.7565910484365417,2.0,1.657875457875458,603.1816173221388,2.6053260299516343,0.3445020686440191,-2.1439310063516106,1205.128205128205,-1.0,85.14117443270396,1.6619244287602863,
2023-08-15 18:11:25.263000,-8.795180722891567,3.397590361445783,2.27710843373494,3.6468424279583074,-8.790312691600246,2.7590435315757205,2.0,1.6593406593406592,602.6490066225166,2.6511275566691914,-0.586795641279645,-2.1439310063516106,1205.8608058608058,-1.0,85.14117443270396,1.6618942241222054,
2023-08-15 18:11:25.271000,-8.819277108433736,3.4096385542168677,2.289156626506024,3.614960147148988,-8.817290006131207,2.793378295524218,2.0,1.6593406593406592,602.6490066225166,2.3915855719363672,-0.6936658702872786,-1.7622516170386335,1210.2564102564102,-1.0,85.14117443270396,1.6618641423185296,
2023-08-15 18:11:25.278000,-8.819277108433736,3.397590361445783,2.253012048192771,3.6591048436541995,-8.839362354383812,2.729613733905579,2.0,1.6593406593406592,602.6490066225166,2.2236466406386572,-1.0448109084552175,-1.9912592506264197,1221.9780219780218,-1.0,85.14117443270396,1.6618341783274828,
2023-08-15 18:11:25.286000,-8.843373493975903,3.385542168674699,2.2289156626506026,3.6909871244635193,-8.792765174739424,2.7884733292458614,2.0,1.6593406593406592,602.6490066225166,2.4679214497989626,-1.518093351203309,-1.9607248994813817,1245.4212454212454,-1.0,85.14117443270396,1.6618043267657514,
2023-08-15 18:11:25.294000,-8.807228915662652,3.4096385542168677,2.216867469879518,3.6640098099325566,-8.832004904966277,2.74432863274065,2.0,1.657875457875458,603.1816173221388,2.4221199230814054,-1.1211467863178128,-1.670648563603519,1279.120879120879,-1.0,85.14117443270396,1.661774581920358,
2023-08-15 18:11:25.301000,-8.795180722891567,3.3734939759036147,2.2289156626506026,3.6615573267933783,-8.807480073574494,2.7247087676272224,2.0,1.6593406593406592,602.6490066225166,2.2083794650661384,-0.9226735038750649,-1.456908105588252,1329.6703296703297,-1.0,85.14117443270396,1.6617449372899338,
2023-08-15 18:11:25.309000,-8.831325301204819,3.3734939759036147,2.204819277108434,3.6394849785407724,-8.832004904966277,2.741876149601471,2.0,1.6593406593406592,602.6490066225166,1.8877687780432375,-0.9684750305926221,-1.3195035254355802,1400.0,-1.0,85.14117443270396,1.6617153860410943,
2023-08-15 18:11:25.317000,-8.819277108433736,3.385542168674699,2.2289156626506026,3.6615573267933783,-8.782955242182709,2.741876149601471,2.0,1.6593406593406592,602.6490066225166,1.9183031291882757,-0.46465823669949236,-1.0599615407027558,1490.8424908424906,-1.0,85.14117443270396,1.6616859215706397,
2023-08-15 18:11:25.324000,-8.819277108433736,3.36144578313253,2.2289156626506026,3.6811771919068055,-8.824647455548742,2.7247087676272224,2.0,1.657875457875458,603.1816173221388,1.658761144455451,-0.5104597634170496,-0.6935493269622978,1598.5347985347985,-1.0,85.14117443270396,1.661656537086438,
2023-08-15 18:11:25.332000,-8.819277108433736,3.36144578313253,2.204819277108434,3.6419374616799507,-8.858982219497241,2.65113427345187,2.0,1.6593406593406592,602.6490066225166,1.7045626711730084,-0.5562612901346068,-0.47980886894703056,1723.8095238095236,-1.0,85.14117443270396,1.6616272251550304,
2023-08-15 18:11:25.340000,-8.867469879518072,3.36144578313253,2.168674698795181,3.6296750459840585,-8.822194972409564,2.705088902513795,2.0,1.6593406593406592,602.6490066225166,1.246547403997436,-0.8616048015849885,-0.22026688421420615,1860.8058608058607,-1.0,85.14117443270396,1.6615979781637402,
2023-08-15 18:11:25.347000,-8.855421686746988,3.36144578313253,2.168674698795181,3.6811771919068055,-8.873697118332311,2.7148988350705086,2.0,1.6593406593406592,602.6490066225166,1.1854787017073596,-1.0295437328826984,0.13087815395373276,2003.6630036630036,-1.0,85.14117443270396,1.6615687888879709,
2023-08-15 18:11:25.355000,-8.843373493975903,3.385542168674699,2.1566265060240966,3.6640098099325566,-8.888412017167381,2.658491722869405,2.0,1.6593406593406592,602.6490066225166,0.528990152089039,-1.2127498397529275,0.23774838296136636,2142.8571428571427,-1.0,85.14117443270396,1.6615396505343933,
2023-08-15 18:11:25.363000,-8.855421686746988,3.397590361445783,2.108433734939759,3.5977927651747392,-8.832004904966277,2.592274678111588,2.0,1.6593406593406592,602.6490066225166,0.51372297651652,-1.3501544199055993,0.6957636501369389,2273.9926739926736,-1.0,85.14117443270396,1.661510556259828,
2023-08-15 18:11:25.370000,-8.819277108433736,3.385542168674699,2.108433734939759,3.654199877375843,-8.863887185775598,2.562844880441447,2.0,1.6593406593406592,602.6490066225166,0.51372297651652,-1.3501544199055993,0.6957636501369389,2394.139194139194,-1.0,85.14117443270396,1.6614814992526192,
2023-08-15 18:11:25.378000,-8.807228915662652,3.385542168674699,2.096385542168675,3.7057020232985898,-8.829552421827099,2.582464745554874,2.0,1.6593406593406592,602.6490066225166,0.34578404521881,-0.770001748149874,1.1232445661674733,2494.5054945054944,-1.0,85.14117443270396,1.6614524727446014,
2023-08-15 18:11:25.386000,-8.831325301204819,3.397590361445783,2.0843373493975905,3.62722256284488,-8.832004904966277,2.5015328019619862,2.0,1.6593406593406592,602.6490066225166,0.16257793834858103,-0.11351319853155341,1.2301147951751068,2569.230769230769,-1.0,85.14117443270396,1.6614234696345942,
2023-08-15 18:11:25.393000,-8.855421686746988,3.4096385542168677,2.060240963855422,3.637032495401594,-8.871244635193133,2.611894543225015,2.0,1.6593406593406592,602.6490066225166,-0.1580327486743197,-0.34252083211933965,1.3980537264728168,2614.6520146520143,-1.0,85.14117443270396,1.6613944830250744,
2023-08-15 18:11:25.401000,-8.843373493975903,3.385542168674699,2.096385542168675,3.561005518087063,-8.86143470263642,2.592274678111588,2.0,1.657875457875458,603.1816173221388,-0.20383427539187698,0.29870054192646184,1.84080181807587,2627.8388278388275,-1.0,85.14117443270396,1.6613655067238566,
2023-08-15 18:11:25.409000,-8.879518072289157,3.4096385542168677,2.0843373493975905,3.6394849785407724,-8.925199264255058,2.5849172286940525,2.0,1.6593406593406592,602.6490066225166,-0.0816968708117243,0.03915855719363742,2.222481207388847,2616.8498168498168,-1.0,85.14117443270396,1.6613365342697148,
2023-08-15 18:11:25.416000,-8.93975903614458,3.433734939759036,2.132530120481928,3.6811771919068055,-8.935009196811771,2.629061925199264,2.0,1.6593406593406592,602.6490066225166,-0.11223122195676248,-0.06771167181399616,2.7110308257094577,2581.6849816849817,-1.0,85.14117443270396,1.6613075594324427,
2023-08-15 18:11:25.424000,-8.891566265060241,3.457831325301205,2.1204819277108435,3.7302268546903736,-8.834457388105456,2.587369711833231,2.0,1.6593406593406592,602.6490066225166,-0.2954373288269915,-1.3501544199055993,2.741565176854496,2525.274725274725,-1.0,85.14117443270396,1.6612785772041485,
2023-08-15 18:11:25.432000,-8.855421686746988,3.457831325301205,2.1204819277108435,3.676272225628449,-8.871244635193133,2.6486817903126916,2.0,1.6593406593406592,602.6490066225166,-1.3336052677582892,-2.5562612901346067,3.092710215022435,2451.2820512820513,-1.0,85.14117443270396,1.6612495824349105,
2023-08-15 18:11:25.439000,-8.831325301204819,3.4457831325301207,2.1566265060240966,3.717964438994482,-8.805027590435316,2.616799509503372,2.0,1.6593406593406592,602.6490066225166,-1.4710098479109608,-2.9074063283025455,3.3980537264728166,2363.369963369963,-1.0,85.14117443270396,1.6612205704001755,
2023-08-15 18:11:25.447000,-8.783132530120483,3.493975903614458,2.144578313253012,3.7057020232985898,-8.81238503985285,2.611894543225015,2.0,1.6593406593406592,602.6490066225166,-2.1274983975292816,-2.3883223588368967,3.7033972379231983,2266.6666666666665,-1.0,85.14117443270396,1.6611915372621515,
2023-08-15 18:11:25.455000,-8.795180722891567,3.5060240963855422,2.1927710843373496,3.7866339668914772,-8.851624770079706,2.6658491722869404,2.0,1.6593406593406592,602.6490066225166,-2.15803274867432,-2.4951925878445302,3.7491987646407554,2158.974358974359,-1.0,85.14117443270396,1.6611624796159137,
2023-08-15 18:11:25.462000,-8.831325301204819,3.5060240963855422,2.180722891566265,3.8111587982832615,-8.898221949724094,2.71244635193133,2.0,1.6593406593406592,602.6490066225166,-2.020628168521648,-3.716566633646057,4.726298001281977,2046.8864468864467,-1.0,85.14117443270396,1.6611333945258533,
2023-08-15 18:11:25.470000,-8.891566265060241,3.5180722891566267,2.313253012048193,3.7572041692213363,-9.008583690987123,2.7786633966891476,2.0,1.6593406593406592,602.6490066225166,-2.3107045043995105,-6.205116251966667,6.222481207388847,1933.3333333333333,-1.0,85.14117443270396,1.6611042795596536,
2023-08-15 18:11:25.478000,-9.0,3.530120481927711,2.4096385542168677,3.796443899448191,-9.094420600858369,2.903740036787247,2.0,1.6593406593406592,602.6490066225166,-2.1274983975292816,-8.327253656546821,7.779733115785794,1824.9084249084249,-1.0,85.14117443270396,1.6610751328196616,
2023-08-15 18:11:25.485000,-9.036144578313253,3.5783132530120483,2.5060240963855422,3.8920907418761495,-9.040465971796444,2.9576946658491723,2.0,1.657875457875458,603.1816173221388,-2.8297884738651593,-11.31962006876056,9.016374337159839,1722.3443223443223,-1.0,85.14117443270396,1.661045952971514,
2023-08-15 18:11:25.493000,-9.072289156626507,3.5903614457831328,2.4216867469879517,3.796443899448191,-9.074800735744942,2.8890251379521765,2.0,1.657875457875458,603.1816173221388,-5.104597634170503,-12.785268923722393,7.642328535633122,1624.9084249084249,-1.0,85.14117443270396,1.6610167387772492,
2023-08-15 18:11:25.501000,-9.084337349397591,3.4819277108433737,2.3012048192771086,3.737584304107909,-9.128755364806867,2.8424279583077863,2.0,1.6593406593406592,602.6490066225166,-7.135131985315541,-15.441757473340713,6.100343802808695,1525.2747252747251,-1.0,85.14117443270396,1.6609874890459517,
2023-08-15 18:11:25.508000,-9.048192771084338,3.5060240963855422,2.3373493975903616,3.8111587982832615,-9.028203556100552,2.803188228080932,2.0,1.657875457875458,603.1816173221388,-6.768719771575083,-17.82343686265369,6.940038459297244,1419.047619047619,-1.0,85.14117443270396,1.6609582035985397,
2023-08-15 18:11:25.516000,-8.843373493975903,3.5180722891566267,2.397590361445783,3.7694665849172284,-8.817290006131207,2.891477621091355,2.0,1.657875457875458,603.1816173221388,-6.1427655731018005,-20.617329992424683,5.9018705203659465,1306.9597069597069,-1.0,85.14117443270396,1.6609288828578188,
2023-08-15 18:11:25.524000,-8.686746987951807,3.4096385542168677,2.4096385542168677,3.67381974248927,-8.709380748007357,2.869405272838749,2.0,1.657875457875458,603.1816173221388,-7.623681603636151,-21.82343686265369,4.878969757007168,1183.8827838827838,-1.0,85.14117443270396,1.6608995273308147,
2023-08-15 18:11:25.531000,-8.771084337349398,3.4096385542168677,2.4457831325301207,3.779276517473942,-8.741263028816677,2.9871244635193133,2.0,1.656410256410256,603.7151702786379,-6.616048015849892,-22.907406328302546,7.2453819707476255,1047.6190476190475,681.732177734375,88.01110166077264,1.6608701380703477,
2023-08-15 18:11:25.539000,-8.759036144578314,3.6024096385542173,2.4939759036144578,3.914163090128755,-8.775597792765174,3.0067443286327404,2.0,1.6549450549450548,604.2496679946879,-6.249635802109434,-26.739467397004834,7.550725482198008,895.9706959706959,-1.0,88.01110166077264,1.6608407161823657,
2023-08-15 18:11:25.547000,-8.72289156626506,3.6385542168674703,2.5060240963855422,3.8283261802575104,-8.702023298589822,3.0239117106069893,2.0,1.6549450549450548,604.2496679946879,-7.944292290659052,-27.731833809218575,8.314084260823961,734.7985347985348,-1.0,88.01110166077264,1.6608112622573936,
2023-08-15 18:11:25.554000,-8.614457831325302,3.530120481927711,2.5060240963855422,3.806253832004905,-8.714285714285714,3.021459227467811,2.0,1.652014652014652,605.3215077605322,-7.074063283025464,-26.907406328302546,9.84080181807587,570.6959706959707,-1.0,88.01110166077264,1.6607817762854797,
2023-08-15 18:11:25.562000,-8.55421686746988,3.5783132530120483,2.5180722891566267,3.8822808093194356,-8.41017780502759,2.9895769466584916,2.0,1.6505494505494507,605.8588548601864,-5.65421595478119,-26.724200221432316,11.016374337159839,401.46520146520146,-1.0,88.01110166077264,1.6607522576312959,
2023-08-15 18:11:25.570000,-8.373493975903616,3.6024096385542173,2.4939759036144578,3.8920907418761495,-8.147762109135499,2.9601471489883506,2.0,1.6505494505494507,605.8588548601864,-6.768719771575083,-25.65549793135598,8.588893421129304,230.03663003663002,-1.0,88.01110166077264,1.6607227047910464,
2023-08-15 18:11:25.577000,-8.180722891566266,3.6024096385542173,2.4457831325301207,3.835683629675046,-8.147762109135499,2.9699570815450644,2.0,1.649084249084249,606.3971568191915,-6.417574733407144,-21.64023075578346,5.856068993648389,55.67765567765567,-1.0,88.01110166077264,1.6606931157013076,
2023-08-15 18:11:25.585000,-8.19277108433735,3.5542168674698797,2.4578313253012047,3.7939914163090127,-8.206621704475781,3.0312691600245247,2.0,1.649084249084249,606.3971568191915,-5.837422061651418,-19.228017015325445,6.405687314259076,0.0,-1.0,88.01110166077264,1.6606634876512336,
2023-08-15 18:11:25.593000,-8.337349397590362,3.5903614457831328,2.5903614457831328,3.872470876762722,-8.390557939914162,3.0950337216431634,2.0,1.6476190476190475,606.9364161849711,-4.722918244857525,-19.13641396189033,8.100343802808695,0.0,-1.0,88.01110166077264,1.6606338166938142,
2023-08-15 18:11:25.600000,-8.421686746987952,3.6024096385542173,2.674698795180723,3.8528510116492947,-8.417535254445125,3.2716125076640097,2.0,1.646153846153846,607.4766355140188,-4.005360992949129,-18.99900938173766,7.9018705203659465,0.0,-1.0,88.01110166077264,1.6606040976088223,
2023-08-15 18:11:25.608000,-8.397590361445783,3.626506024096386,2.7590361445783134,3.894543225015328,-8.312078479460453,3.3108522378908645,2.0,1.646153846153846,607.4766355140188,-3.7916205349338616,-17.731833809218575,6.817901054717091,0.0,-1.0,88.01110166077264,1.660574323751373,
2023-08-15 18:11:25.616000,-8.337349397590362,3.6024096385542173,2.819277108433735,3.884733292458614,-8.309625996321275,3.4064990803188224,2.0,1.6446886446886446,608.0178173719377,-3.5931472524911134,-15.624963580210942,5.443855253190374,0.0,-1.0,88.01110166077264,1.6605444873485422,
2023-08-15 18:11:25.623000,-8.228915662650603,3.6144578313253013,2.9036144578313254,3.872470876762722,-8.177191906805641,3.413856529736358,2.0,1.6432234432234432,608.559964333482,-3.4099411456208846,-14.983742206165141,3.978206398228542,0.0,-1.0,88.01110166077264,1.6605145793656662,
2023-08-15 18:11:25.631000,-8.168674698795181,3.6385542168674703,2.891566265060241,3.889638258736971,-8.06928264868179,3.443286327406499,2.0,1.6417582417582417,609.103078982597,-3.15039916088806,-14.235650603111706,2.7568323524270153,0.0,-1.0,88.01110166077264,1.6604845888383415,
2023-08-15 18:11:25.638000,-8.132530120481928,3.6385542168674703,2.927710843373494,3.872470876762722,-8.064377682403434,3.5217657878602084,2.0,1.6417582417582417,609.103078982597,-2.539712137987297,-12.189849076394148,1.7033972379231983,0.0,-1.0,88.01110166077264,1.6604545026532407,
2023-08-15 18:11:25.646000,-8.156626506024097,3.6506024096385543,2.9397590361445785,3.877375843041079,-8.137952176578786,3.475168608215818,2.0,1.6417582417582417,609.103078982597,-2.539712137987297,-12.189849076394148,1.7033972379231983,0.0,-1.0,88.01110166077264,1.6604243062705921,
2023-08-15 18:11:25.654000,-8.19277108433735,3.626506024096386,3.0,3.9019006744328633,-8.221336603310851,3.548743102391171,2.0,1.64029304029304,609.647163912461,-2.2801701532544723,-10.464658236699492,1.1995804440300686,0.0,-1.0,88.01110166077264,1.660393983985086,
2023-08-15 18:11:25.661000,-8.25301204819277,3.626506024096386,3.024096385542169,3.8822808093194356,-8.351318209687308,3.56591048436542,2.0,1.64029304029304,609.647163912461,-2.234368626536915,-10.021910145096438,0.9858399860148014,0.0,-1.0,88.01110166077264,1.6603635178123939,
2023-08-15 18:11:25.669000,-8.349397590361447,3.5903614457831328,3.0,3.8234212139791537,-8.370938074800735,3.4580012262415694,2.0,1.64029304029304,609.647163912461,-1.3794067944758464,-8.556261290134607,1.3827865509002977,0.0,-1.0,88.01110166077264,1.660332887286465,
2023-08-15 18:11:25.677000,-8.397590361445783,3.5783132530120483,3.0,3.81361128142244,-8.33169834457388,3.4825260576333537,2.0,1.64029304029304,609.647163912461,-1.303070916613251,-8.311986480974301,2.024007924946099,0.0,-1.0,88.01110166077264,1.660302069780043,
2023-08-15 18:11:25.684000,-8.349397590361447,3.6024096385542173,3.0481927710843375,3.9043531575720416,-8.312078479460453,3.5879828326180254,2.0,1.64029304029304,609.647163912461,-1.5320785502010372,-7.869238389371247,1.1843132684575495,0.0,-1.0,88.01110166077264,1.6602710403665346,
2023-08-15 18:11:25.692000,-8.265060240963855,3.5903614457831328,3.0,3.8822808093194356,-8.22378908645003,3.5291232372777435,2.0,1.64029304029304,609.647163912461,-0.8908571761552357,-7.090612435172774,-0.22026688421420615,0.0,-1.0,88.01110166077264,1.660239771682306,
2023-08-15 18:11:25.700000,-8.27710843373494,3.5903614457831328,2.951807228915663,3.8503985285101163,-8.248313917841815,3.524218270999387,2.0,1.64029304029304,609.647163912461,-0.936658702872793,-5.976108618378881,-1.8538546704737482,0.0,-1.0,88.01110166077264,1.6602082337906674,
2023-08-15 18:11:25.707000,-8.289156626506024,3.5542168674698797,3.0120481927710845,3.867565910484365,-8.312078479460453,3.5217657878602084,2.0,1.6373626373626373,610.738255033557,-0.570246489132335,-4.51045976341705,-1.1668317697103894,246.15384615384613,-1.0,88.01110166077264,1.6601763940488208,
2023-08-15 18:11:25.715000,-8.337349397590362,3.530120481927711,3.024096385542169,3.816063764561618,-8.385652973635805,3.573267933782955,2.0,1.6388278388278386,610.1922217255253,0.696929083386749,-3.1974826641804084,-0.4950760445195497,666.6666666666666,-1.0,88.01110166077264,1.6601442164516127,
2023-08-15 18:11:25.723000,-8.3855421686747,3.5783132530120483,3.0120481927710845,3.816063764561618,-8.42489270386266,3.5708154506437766,2.0,1.6388278388278386,610.1922217255253,1.9641046559058328,-2.4799254122720114,0.22248120738884725,1124.5421245421244,-1.0,88.01110166077264,1.6601116613315359,
2023-08-15 18:11:25.730000,-8.457831325301205,3.5421686746987953,3.0,3.81361128142244,-8.52053954629062,3.507050889025138,2.0,1.6388278388278386,610.1922217255253,2.2694481673562144,-2.1287803741040725,-0.0981294796340535,1544.3223443223442,-1.0,88.01110166077264,1.6600786862560666,
2023-08-15 18:11:25.738000,-8.481927710843374,3.530120481927711,3.0120481927710845,3.8798283261802573,-8.562231759656651,3.524218270999387,2.0,1.6388278388278386,610.1922217255253,2.2999825185012526,-2.8768719771575073,-0.1744653574966489,1884.9816849816848,-1.0,88.01110166077264,1.660045245421993,
2023-08-15 18:11:25.746000,-8.506024096385543,3.5421686746987953,2.987951807228916,3.8283261802575104,-8.589209074187615,3.5095033721643163,2.0,1.64029304029304,609.647163912461,2.7732649612493443,-2.5104597634170496,0.05454227609113734,2140.6593406593406,-1.0,88.01110166077264,1.6600112891280407,
2023-08-15 18:11:25.753000,-8.493975903614459,3.5421686746987953,2.9397590361445785,3.796443899448191,-8.572041692213366,3.445738810545677,2.0,1.64029304029304,609.647163912461,3.0328069459821685,-2.403589534409416,0.024007924946099175,2310.6227106227107,-1.0,88.01110166077264,1.6599767651216364,
2023-08-15 18:11:25.761000,-8.457831325301205,3.5421686746987953,2.927710843373494,3.838136112814224,-8.429797670141017,3.475168608215818,2.0,1.64029304029304,609.647163912461,3.078608472699726,-1.701299458073538,-0.9836256628401603,2402.197802197802,-1.0,88.01110166077264,1.6599416185192244,
2023-08-15 18:11:25.769000,-8.397590361445783,3.5421686746987953,2.879518072289157,3.7719190680564068,-8.419987737584304,3.4015941140404657,2.0,1.64029304029304,609.647163912461,3.3381504574325502,-0.8768719771575075,-1.2584348231455038,2430.03663003663,-1.0,88.01110166077264,1.6599057907941086,
2023-08-15 18:11:25.776000,-8.361445783132531,3.5662650602409642,2.855421686746988,3.830778663396689,-8.368485591661557,3.3648068669527893,2.0,1.64029304029304,609.647163912461,3.3228832818600313,-0.09824602295903433,-1.2126332964279465,2406.5934065934066,-1.0,88.01110166077264,1.6598692197292106,
2023-08-15 18:11:25.784000,-8.3855421686747,3.5542168674698797,2.855421686746988,3.8405885959534025,-8.407725321888412,3.3648068669527893,2.0,1.64029304029304,609.647163912461,3.246547403997436,-0.11351319853155341,-1.0141600139851985,2345.7875457875457,-1.0,88.01110166077264,1.659831839385442,
2023-08-15 18:11:25.792000,-8.46987951807229,3.5421686746987953,2.891566265060241,3.8503985285101163,-8.552421827099938,3.4187614960147146,2.0,1.64029304029304,609.647163912461,3.7198298467455273,0.008624206048599255,-0.021793601771458074,2256.4102564102564,-1.0,88.01110166077264,1.6597935800868153,
2023-08-15 18:11:25.799000,-8.566265060240964,3.5903614457831328,2.9397590361445785,3.8283261802575104,-8.594114040465971,3.445738810545677,2.0,1.64029304029304,609.647163912461,3.84196725132568,-0.8768719771575075,0.9705728104422824,2147.9853479853477,-1.0,88.01110166077264,1.6597543679655022,
2023-08-15 18:11:25.807000,-8.578313253012048,3.5903614457831328,2.927710843373494,3.8528510116492947,-8.584304107909258,3.475168608215818,2.0,1.64029304029304,609.647163912461,3.5518909154478173,-1.5638948779208663,1.1843132684575495,2028.5714285714284,-1.0,88.01110166077264,1.659714125508724,
2023-08-15 18:11:25.815000,-8.566265060240964,3.626506024096386,2.927710843373494,3.8577559779276513,-8.510729613733906,3.4604537093807477,2.0,1.64029304029304,609.647163912461,3.078608472699726,-1.50282617563079,0.711030825709458,1903.296703296703,-1.0,88.01110166077264,1.6596727720213642,
2023-08-15 18:11:25.822000,-8.518072289156628,3.6024096385542173,2.8674698795180724,3.8332311465358675,-8.459227467811159,3.3304721030042916,2.0,1.64029304029304,609.647163912461,2.4984558009440008,-1.136413961890332,-0.3576714643668779,1781.6849816849815,-1.0,88.01110166077264,1.659630223195999,
2023-08-15 18:11:25.830000,-8.44578313253012,3.6024096385542173,2.8313253012048194,3.936235438381361,-8.422440220723482,3.342734518700184,2.0,1.64029304029304,609.647163912461,1.780898549035604,-1.7318338092185763,-1.0599615407027558,1665.9340659340658,-1.0,88.01110166077264,1.6595863911968574,
2023-08-15 18:11:25.838000,-8.409638554216867,3.6024096385542173,2.807228915662651,3.889638258736971,-8.446965052115265,3.3795217657878602,2.0,1.64029304029304,609.647163912461,1.5213565643027795,-1.2890857176155228,-0.6630149758172595,1561.1721611721612,-1.0,88.01110166077264,1.6595411847656407,
2023-08-15 18:11:25.845000,-8.409638554216867,3.6144578313253013,2.855421686746988,3.8994481912936845,-8.407725321888412,3.3599019006744326,2.0,1.64029304029304,609.647163912461,1.6434939688829322,-1.1211467863178128,-0.6172134490997023,1472.5274725274724,-1.0,88.01110166077264,1.6594945093496707,
2023-08-15 18:11:25.853000,-8.409638554216867,3.6506024096385543,2.8674698795180724,3.9215205395462904,-8.375843041079092,3.408951563458001,2.0,1.64029304029304,609.647163912461,1.3381504574325505,-0.6173299924246831,-0.23553405978672523,1400.7326007326005,-1.0,88.01110166077264,1.6594462672527284,
2023-08-15 18:11:25.861000,-8.433734939759036,3.662650602409639,2.9036144578313254,3.9386879215205393,-8.373390557939913,3.3304721030042916,2.0,1.6388278388278386,610.1922217255253,0.7732649612493444,-0.8005360992949122,0.11561097838121367,1339.9267399267399,-1.0,88.01110166077264,1.6593963578087976,
2023-08-15 18:11:25.868000,-8.44578313253012,3.698795180722892,2.891566265060241,4.039239730226854,-8.464132434089516,3.408951563458001,2.0,1.6388278388278386,610.1922217255253,0.8954023658294971,-0.8921391527300266,0.4056873142590763,1292.3076923076922,-1.0,88.01110166077264,1.659344677544011,
2023-08-15 18:11:25.876000,-8.457831325301205,3.698795180722892,2.9036144578313254,3.9926425505824645,-8.481299816063764,3.3795217657878602,2.0,1.64029304029304,609.647163912461,0.26944816735621463,-1.0295437328826984,-0.037060777343977155,1254.212454212454,-1.0,88.01110166077264,1.6592911197990272,
2023-08-15 18:11:25.884000,-8.457831325301205,3.662650602409639,2.855421686746988,4.002452483139178,-8.37829552421827,3.313304721030043,2.0,1.6388278388278386,610.1922217255253,-0.570246489132335,-2.067711671813996,-0.15919818192412982,1224.9084249084249,-1.0,88.01110166077264,1.659235575495336,
2023-08-15 18:11:25.891000,-8.457831325301205,3.6746987951807233,2.819277108433735,3.987737584304108,-8.505824647455547,3.3770692826486814,2.0,1.64029304029304,609.647163912461,-0.5091777868422587,-3.2890857176155226,-0.22026688421420615,1205.128205128205,-1.0,88.01110166077264,1.6591779334655066,
2023-08-15 18:11:25.899000,-8.433734939759036,3.6746987951807233,2.843373493975904,3.9337829552421826,-8.488657265481299,3.4187614960147146,2.0,1.64029304029304,609.647163912461,-0.3107045043995106,-4.159314725249111,0.23774838296136636,1190.4761904761904,-1.0,88.01110166077264,1.6591180807008044,
2023-08-15 18:11:25.907000,-8.457831325301205,3.6867469879518073,2.879518072289157,3.9435928877988964,-8.469037400367872,3.3819742489270386,2.0,1.64029304029304,609.647163912461,-0.3565060311170678,-4.540994114562087,0.6041605967018243,1181.6849816849815,-1.0,88.01110166077264,1.6590559027242355,
2023-08-15 18:11:25.914000,-8.46987951807229,3.6867469879518073,2.891566265060241,3.9166155732679337,-8.498467198038012,3.374616799509503,2.0,1.64029304029304,609.647163912461,-0.05116251966668614,-4.724200221432317,0.9400384592972442,1174.3589743589744,-1.0,88.01110166077264,1.658991283984295,
2023-08-15 18:11:25.922000,-8.421686746987952,3.662650602409639,2.9036144578313254,3.948497854077253,-8.356223175965665,3.4187614960147146,2.0,1.6388278388278386,610.1922217255253,-0.5091777868422587,-3.9761086183788814,0.726298001281977,1171.4285714285713,-1.0,88.01110166077264,1.6589241086224111,
2023-08-15 18:11:25.930000,-8.397590361445783,3.6867469879518073,2.891566265060241,4.0,-8.427345187001839,3.374616799509503,2.0,1.64029304029304,609.647163912461,-0.5091777868422587,-3.9761086183788814,0.726298001281977,1172.161172161172,-1.0,88.01110166077264,1.6588542593955193,
2023-08-15 18:11:25.937000,-8.3855421686747,3.6867469879518073,2.879518072289157,3.9435928877988964,-8.42489270386266,3.4898835070508887,2.0,1.64029304029304,609.647163912461,-0.17329992424683882,-3.487559000058271,0.8484354058621297,1179.4871794871794,-1.0,88.01110166077264,1.6587816190051197,
2023-08-15 18:11:25.945000,-8.493975903614459,3.6746987951807233,2.9036144578313254,3.9681177191906802,-8.547516860821581,3.47271612507664,2.0,1.64029304029304,609.647163912461,0.40685274750888634,-2.968475030592622,1.1232445661674733,1195.6043956043954,-1.0,88.01110166077264,1.658706071442715,
2023-08-15 18:11:25.953000,-8.518072289156628,3.662650602409639,2.9759036144578315,3.9166155732679337,-8.586756591048436,3.4923359901900675,2.0,1.64029304029304,609.647163912461,0.1931122894936192,-3.319620068760561,0.6804964745644198,1226.3736263736264,-1.0,88.01110166077264,1.658627501454092,
2023-08-15 18:11:25.960000,-8.46987951807229,3.6746987951807233,2.987951807228916,3.884733292458614,-8.446965052115265,3.455548743102391,2.0,1.64029304029304,609.647163912461,0.26944816735621463,-3.5486277023483472,0.6194277722743434,1273.9926739926739,-1.0,88.01110166077264,1.658545794967581,
2023-08-15 18:11:25.968000,-8.44578313253012,3.6385542168674703,2.9759036144578315,3.9828326180257507,-8.469037400367872,3.47271612507664,2.0,1.64029304029304,609.647163912461,0.696929083386749,-3.395955946623156,0.2835499096789236,1338.4615384615383,-1.0,88.01110166077264,1.658460839534097,
2023-08-15 18:11:25.976000,-8.397590361445783,3.626506024096386,2.987951807228916,3.8822808093194356,-8.39546290619252,3.548743102391171,2.0,1.64029304029304,609.647163912461,0.31524969407377185,-3.16694831303537,0.2682827341064045,1421.245421245421,-1.0,88.01110166077264,1.6583725247772207,
2023-08-15 18:11:25.983000,-8.349397590361447,3.6144578313253013,2.987951807228916,3.889638258736971,-8.375843041079092,3.5168608215818513,2.0,1.64029304029304,609.647163912461,0.4984558009440009,-3.0753452596002555,0.08507662723617551,1525.2747252747251,-1.0,88.01110166077264,1.6582807428514186,
2023-08-15 18:11:25.991000,-8.349397590361447,3.6024096385542173,3.0120481927710845,3.8454935622317596,-8.346413243408952,3.4874310239117103,2.0,1.64029304029304,609.647163912461,0.6053260299516344,-2.235650603111706,0.5583590699842671,1647.6190476190475,-1.0,88.01110166077264,1.6581853889064846,
2023-08-15 18:11:25.998000,-8.349397590361447,3.6024096385542173,2.987951807228916,3.894543225015328,-8.309625996321275,3.5708154506437766,2.0,1.64029304029304,609.647163912461,0.7121962589592681,-2.1745819008216296,0.726298001281977,1784.6153846153845,-1.0,88.01110166077264,1.6580863615561443,
2023-08-15 18:11:26.006000,-8.313253012048193,3.5783132530120483,2.963855421686747,3.8749233599019006,-8.218884120171673,3.4923359901900675,2.0,1.6417582417582417,609.103078982597,0.6816619078142299,-1.1669483130353702,0.6499621234193816,1927.4725274725274,-1.0,88.01110166077264,1.657983563348724,
2023-08-15 18:11:26.014000,-8.265060240963855,3.5783132530120483,2.9759036144578315,3.847946045370938,-8.25567136725935,3.4506437768240343,2.0,1.64029304029304,609.647163912461,0.6816619078142299,-0.26618495425674427,0.14614532952625184,2068.8644688644686,-1.0,88.01110166077264,1.6578769017303943,
2023-08-15 18:11:26.021000,-8.228915662650603,3.5783132530120483,2.9759036144578315,3.8700183936235435,-8.248313917841815,3.5511955855303494,2.0,1.64029304029304,609.647163912461,0.6358603810966726,0.9246547403997443,-0.14393100635161074,2202.197802197802,-1.0,88.01110166077264,1.6577662895508236,
2023-08-15 18:11:26.029000,-8.228915662650603,3.6024096385542173,2.987951807228916,3.8700183936235435,-8.184549356223176,3.497240956468424,2.0,1.6417582417582417,609.103078982597,0.7732649612493444,1.4590058854379122,-0.12866383077909166,2323.076923076923,-1.0,88.01110166077264,1.6576516449351237,
2023-08-15 18:11:26.037000,-8.228915662650603,3.6024096385542173,2.987951807228916,3.8503985285101163,-8.282648681790313,3.5389331698344573,2.0,1.6417582417582417,609.103078982597,1.0480741215546878,2.023891381621118,-0.22026688421420615,2424.908424908425,-1.0,88.01110166077264,1.6575328922034782,
2023-08-15 18:11:26.044000,-8.27710843373494,3.626506024096386,3.024096385542169,3.9460453709380747,-8.329245861434702,3.5977927651747392,2.0,1.6417582417582417,609.103078982597,1.3076161062875122,2.16129596177379,0.05454227609113734,2506.227106227106,-1.0,88.01110166077264,1.657409961937404,
2023-08-15 18:11:26.052000,-8.337349397590362,3.662650602409639,3.024096385542169,3.926425505824647,-8.343960760269773,3.556100551808706,2.0,1.6417582417582417,609.103078982597,1.6740283200279702,1.8712196258959275,0.4056873142590763,2561.904761904762,-1.0,88.01110166077264,1.6572827910345467,
2023-08-15 18:11:26.060000,-8.373493975903616,3.6385542168674703,3.036144578313253,3.997547516860821,-8.415082771305947,3.6051502145922747,2.0,1.6417582417582417,609.103078982597,1.4908222131577413,1.7185478701707366,-0.12866383077909166,2592.6739926739924,-1.0,88.01110166077264,1.6571513236286988,
2023-08-15 18:11:26.067000,-8.3855421686747,3.626506024096386,3.024096385542169,3.9215205395462904,-8.454322501532802,3.5634580012262416,2.0,1.6417582417582417,609.103078982597,2.544257327661558,0.9093875648272252,-0.037060777343977155,2592.6739926739924,-1.0,88.01110166077264,1.657015511501771,
2023-08-15 18:11:26.075000,-8.397590361445783,3.6867469879518073,3.024096385542169,3.9926425505824645,-8.39301042305334,3.5757204169221333,2.0,1.6432234432234432,608.559964333482,2.376318396363848,-0.06771167181399616,-0.22026688421420615,2564.8351648351645,-1.0,88.01110166077264,1.6568753144781403,
2023-08-15 18:11:26.083000,-8.325301204819278,3.698795180722892,3.0,4.009809932556713,-8.422440220723482,3.524218270999387,2.0,1.6432234432234432,608.559964333482,2.101509236058505,0.08496008391119467,-1.3500378765806182,2511.355311355311,-1.0,88.01110166077264,1.656730701291873,
2023-08-15 18:11:26.090000,-8.361445783132531,3.698795180722892,2.987951807228916,3.9730226854690374,-8.326793378295523,3.5217657878602084,2.0,1.6417582417582417,609.103078982597,2.528990152089039,-0.23565060311170608,-0.7240836781073359,2440.29304029304,-1.0,88.01110166077264,1.6565816504694038,
2023-08-15 18:11:26.098000,-8.409638554216867,3.6506024096385543,2.9759036144578315,3.914163090128755,-8.385652973635805,3.5806253832004904,2.0,1.6432234432234432,608.559964333482,2.8343336635394207,-0.03717732066895799,-0.021793601771458074,2353.846153846154,-1.0,88.01110166077264,1.6564281496459334,
2023-08-15 18:11:26.106000,-8.433734939759036,3.662650602409639,3.024096385542169,3.9288779889638255,-8.388105456774984,3.5511955855303494,2.0,1.6417582417582417,609.103078982597,3.1702115261348403,0.28343336635394273,-0.3424042887943588,2253.4798534798533,-1.0,88.01110166077264,1.6562701953484822,
2023-08-15 18:11:26.113000,-8.46987951807229,3.6867469879518073,2.987951807228916,3.990190067443286,-8.43960760269773,3.502145922746781,2.0,1.6432234432234432,608.559964333482,3.1091428238447643,0.9857234426898206,-0.11339665520657258,2148.7179487179487,-1.0,88.01110166077264,1.656107793838034,
2023-08-15 18:11:26.121000,-8.44578313253012,3.6867469879518073,2.951807228915663,3.8994481912936845,-8.469037400367872,3.4776210913549965,2.0,1.6432234432234432,608.559964333482,2.6511275566691914,1.443738709865393,-0.7088165025348169,2041.7582417582416,-1.0,88.01110166077264,1.6559409612902207,
2023-08-15 18:11:26.129000,-8.493975903614459,3.662650602409639,2.951807228915663,3.9435928877988964,-8.442060085836909,3.433476394849785,2.0,1.6417582417582417,609.103078982597,2.9412038925470543,2.0086242060485993,-0.8614882582600076,1936.263736263736,-1.0,88.01110166077264,1.6557697245763368,
2023-08-15 18:11:26.136000,-8.46987951807229,3.6385542168674703,2.9397590361445785,3.926425505824647,-8.412630288166769,3.455548743102391,2.0,1.6432234432234432,608.559964333482,3.1702115261348403,2.7719829846745534,-1.105763067420313,1833.6996336996335,-1.0,88.01110166077264,1.6555941209243872,
2023-08-15 18:11:26.144000,-8.421686746987952,3.6385542168674703,2.9397590361445785,3.896995708154506,-8.373390557939913,3.4285714285714284,2.0,1.6432234432234432,608.559964333482,3.2312802284249167,3.306334129712721,-1.1362974185653512,1737.7289377289376,-1.0,88.01110166077264,1.6554141980036194,
2023-08-15 18:11:26.152000,-8.3855421686747,3.6506024096385543,2.951807228915663,3.936235438381361,-8.397915389331699,3.5683629675045982,2.0,1.6432234432234432,608.559964333482,3.460287862012703,3.459005885437912,-1.4263737544432138,1652.7472527472526,-1.0,88.01110166077264,1.6552300145700514,
2023-08-15 18:11:26.159000,-8.361445783132531,3.6867469879518073,2.987951807228916,3.9288779889638255,-8.39546290619252,3.4776210913549965,2.0,1.6432234432234432,608.559964333482,2.9412038925470543,3.2910669541402022,-0.8462210826874885,1576.5567765567764,-1.0,88.01110166077264,1.6550416400922203,
2023-08-15 18:11:26.167000,-8.349397590361447,3.6746987951807233,3.0,3.9313304721030042,-8.358675659104843,3.5168608215818513,2.0,1.6417582417582417,609.103078982597,2.361051220791329,3.3216013052852404,-0.7240836781073359,1506.227106227106,-1.0,88.01110166077264,1.6548491543391441,
2023-08-15 18:11:26.175000,-8.3855421686747,3.662650602409639,3.0,3.9926425505824645,-8.419987737584304,3.5340282035561,2.0,1.6417582417582417,609.103078982597,2.2541809917836955,3.1078608472699734,-0.6172134490997023,1445.4212454212454,-1.0,88.01110166077264,1.654652647420071,
2023-08-15 18:11:26.182000,-8.3855421686747,3.662650602409639,2.963855421686747,3.9239730226854688,-8.3635806253832,3.484978540772532,2.0,1.6417582417582417,609.103078982597,1.7503641978905657,2.6803799312394387,-0.8004195559699313,1393.4065934065934,651.092529296875,92.15280056245606,1.6544522201014935,
2023-08-15 18:11:26.190000,-8.361445783132531,3.662650602409639,2.9759036144578315,3.960760269773145,-8.356223175965665,3.467811158798283,2.0,1.6417582417582417,609.103078982597,1.9183031291882757,2.191830312918828,-0.8920226094050459,1346.5201465201465,-1.0,92.15280056245606,1.6542479836959103,
2023-08-15 18:11:26.198000,-8.3855421686747,3.6746987951807233,2.963855421686747,3.985285101164929,-8.427345187001839,3.5095033721643163,2.0,1.6417582417582417,609.103078982597,1.979371831478352,1.5658761144455458,-0.6324806246722214,1306.227106227106,-1.0,92.15280056245606,1.654040059944851,
2023-08-15 18:11:26.205000,-8.409638554216867,3.7108433734939763,2.963855421686747,3.9411404046597176,-8.397915389331699,3.4874310239117103,2.0,1.6417582417582417,609.103078982597,1.979371831478352,1.5658761144455458,-0.6324806246722214,1269.5970695970695,-1.0,92.15280056245606,1.6538285808613653,
2023-08-15 18:11:26.213000,-8.397590361445783,3.7108433734939763,2.91566265060241,3.9509503372164314,-8.390557939914162,3.455548743102391,2.0,1.6417582417582417,609.103078982597,1.7656313734630849,1.260532602995164,-0.22026688421420615,1238.095238095238,-1.0,92.15280056245606,1.6536136885320996,
2023-08-15 18:11:26.221000,-8.397590361445783,3.6867469879518073,2.927710843373494,3.9803801348865724,-8.370938074800735,3.4898835070508887,2.0,1.6432234432234432,608.559964333482,1.277081755142474,0.8177845113921107,-0.4645416933745115,1214.6520146520145,-1.0,92.15280056245606,1.6533955348792906,
2023-08-15 18:11:26.228000,-8.397590361445783,3.7108433734939763,2.9397590361445785,3.9828326180257507,-8.400367872470877,3.4580012262415694,2.0,1.6432234432234432,608.559964333482,1.3076161062875122,0.4819066487966908,-0.6630149758172595,1197.069597069597,-1.0,92.15280056245606,1.6531742818759139,
2023-08-15 18:11:26.236000,-8.397590361445783,3.698795180722892,2.91566265060241,4.009809932556713,-8.405272838749234,3.514408338442673,2.0,1.6432234432234432,608.559964333482,1.4755550375852222,0.9399219159722634,-0.4492745178019924,1183.150183150183,-1.0,92.15280056245606,1.652950101301544,
2023-08-15 18:11:26.244000,-8.409638554216867,3.7108433734939763,2.91566265060241,3.965665236051502,-8.383200490496627,3.445738810545677,2.0,1.6417582417582417,609.103078982597,1.460287862012703,1.7032806945982175,-0.43400734222947335,1171.4285714285713,-1.0,92.15280056245606,1.652723173477985,
2023-08-15 18:11:26.251000,-8.3855421686747,3.6867469879518073,2.951807228915663,3.9386879215205393,-8.397915389331699,3.4310239117106067,2.0,1.6417582417582417,609.103078982597,1.6740283200279702,1.794883748033332,-1.105763067420313,1158.2417582417581,-1.0,92.15280056245606,1.6524936864590798,
2023-08-15 18:11:26.259000,-8.409638554216867,3.6746987951807233,2.963855421686747,3.9215205395462904,-8.361128142244022,3.421213979153893,2.0,1.6432234432234432,608.559964333482,1.3992191597226267,2.313967717498981,-0.9530913116951222,1150.18315018315,-1.0,92.15280056245606,1.6522618364851411,
2023-08-15 18:11:26.267000,-8.433734939759036,3.626506024096386,2.927710843373494,3.9092581238503983,-8.473942366646229,3.4187614960147146,2.0,1.6417582417582417,609.103078982597,1.3839519841501078,2.756715809102034,-0.739350853679855,1148.7179487179487,-1.0,92.15280056245606,1.652027827946081,
2023-08-15 18:11:26.274000,-8.44578313253012,3.6385542168674703,2.91566265060241,3.9019006744328633,-8.545064377682403,3.502145922746781,2.0,1.6432234432234432,608.559964333482,1.231280228424917,2.66511275566692,-0.8004195559699313,1153.8461538461538,-1.0,92.15280056245606,1.6517918725036445,
2023-08-15 18:11:26.282000,-8.481927710843374,3.6385542168674703,2.927710843373494,3.884733292458614,-8.481299816063764,3.475168608215818,2.0,1.6417582417582417,609.103078982597,1.0938756482722451,2.0544257327661564,-0.3424042887943588,1164.102564102564,-1.0,92.15280056245606,1.65155418850244,
2023-08-15 18:11:26.290000,-8.493975903614459,3.626506024096386,2.9397590361445785,3.9705702023298586,-8.50091968117719,3.497240956468424,2.0,1.6432234432234432,608.559964333482,1.3992191597226267,1.6727463434531793,-0.2813355865042825,1180.952380952381,-1.0,92.15280056245606,1.6513150004919745,
2023-08-15 18:11:26.297000,-8.481927710843374,3.5903614457831328,2.951807228915663,3.889638258736971,-8.48620478234212,3.4702636419374615,2.0,1.6417582417582417,609.103078982597,1.277081755142474,1.8712196258959275,-0.08286230406153441,1202.197802197802,-1.0,92.15280056245606,1.6510745385836119,
2023-08-15 18:11:26.305000,-8.493975903614459,3.5903614457831328,2.951807228915663,3.8749233599019006,-8.545064377682403,3.413856529736358,2.0,1.6417582417582417,609.103078982597,1.0938756482722451,1.978089854903561,-0.20499970864168707,1225.6410256410256,-1.0,92.15280056245606,1.65083303746494,
2023-08-15 18:11:26.313000,-8.481927710843374,3.5662650602409642,2.91566265060241,3.855303494788473,-8.510729613733906,3.445738810545677,2.0,1.6432234432234432,608.559964333482,0.9259367169745352,2.023891381621118,-0.037060777343977155,1249.8168498168498,-1.0,92.15280056245606,1.6505907357439231,
2023-08-15 18:11:26.320000,-8.481927710843374,3.6024096385542173,2.9036144578313254,3.8454935622317596,-8.527896995708154,3.3819742489270386,2.0,1.6417582417582417,609.103078982597,0.9412038925470543,2.6345784045218816,-0.14393100635161074,1272.5274725274724,-1.0,92.15280056245606,1.6503478767148747,
2023-08-15 18:11:26.328000,-8.46987951807229,3.5783132530120483,2.843373493975904,3.872470876762722,-8.427345187001839,3.303494788473329,2.0,1.6417582417582417,609.103078982597,0.2847153429287337,2.710914282384477,-0.6630149758172595,1293.7728937728937,-1.0,92.15280056245606,1.650104707211798,
2023-08-15 18:11:26.336000,-8.433734939759036,3.5783132530120483,2.819277108433735,3.8626609442060085,-8.397915389331699,3.3402820355610054,2.0,1.6417582417582417,609.103078982597,0.31524969407377185,2.542975351086767,-1.0904958918477938,1316.4835164835165,-1.0,92.15280056245606,1.6498614759226902,
2023-08-15 18:11:26.343000,-8.409638554216867,3.5903614457831328,2.819277108433735,3.865113427345187,-8.419987737584304,3.3402820355610054,2.0,1.6432234432234432,608.559964333482,0.22364664063865736,2.3292348930715,-1.0904958918477938,1335.5311355311355,-1.0,92.15280056245606,1.6496184331676556,
2023-08-15 18:11:26.351000,-8.397590361445783,3.6144578313253013,2.819277108433735,3.86020846106683,-8.412630288166769,3.303494788473329,2.0,1.6417582417582417,609.103078982597,0.696929083386749,2.405570770934095,-0.22026688421420615,1353.8461538461538,-1.0,92.15280056245606,1.6493758307026973,
2023-08-15 18:11:26.359000,-8.421686746987952,3.6144578313253013,2.855421686746988,3.855303494788473,-8.459227467811159,3.435928877988964,2.0,1.6432234432234432,608.559964333482,1.0175397704096496,2.5887768778043245,0.48202319212167166,1367.032967032967,-1.0,92.15280056245606,1.6491339206040367,
2023-08-15 18:11:26.366000,-8.46987951807229,3.626506024096386,2.879518072289157,3.985285101164929,-8.473942366646229,3.4114040465971796,2.0,1.6432234432234432,608.559964333482,1.1702115261348405,2.7872501602470723,0.7720995279995343,1375.8241758241757,-1.0,92.15280056245606,1.6488929545375932,
2023-08-15 18:11:26.374000,-8.493975903614459,3.6867469879518073,2.891566265060241,3.958307786633967,-8.469037400367872,3.445738810545677,2.0,1.6432234432234432,608.559964333482,0.8190664879669016,2.924654740399744,0.726298001281977,1380.2197802197802,-1.0,92.15280056245606,1.6486531835903286,
2023-08-15 18:11:26.381000,-8.481927710843374,3.734939759036145,2.855421686746988,4.041692213366033,-8.488657265481299,3.4408338442673205,2.0,1.6432234432234432,608.559964333482,0.3610512207913291,2.2987005419264617,0.14614532952625184,1378.021978021978,-1.0,92.15280056245606,1.6484148571214194,
2023-08-15 18:11:26.389000,-8.457831325301205,3.7469879518072293,2.8313253012048194,3.919068056407112,-8.464132434089516,3.4114040465971796,2.0,1.6432234432234432,608.559964333482,0.7427306101043062,1.5048074121554693,-0.37293863993939697,1371.4285714285713,-1.0,92.15280056245606,1.6481782220769678,
2023-08-15 18:11:26.397000,-8.44578313253012,3.7108433734939763,2.807228915662651,3.997547516860821,-8.564684242795831,3.3868792152053953,2.0,1.6432234432234432,608.559964333482,0.42211992308140545,1.3216013052852404,-0.31186993764932064,1362.6373626373625,-1.0,92.15280056245606,1.6479435223131709,
2023-08-15 18:11:26.404000,-8.46987951807229,3.698795180722892,2.8313253012048194,3.9730226854690374,-8.562231759656651,3.3697118332311464,2.0,1.6432234432234432,608.559964333482,1.3686848085775887,0.29870054192646184,0.1003438028086946,1347.985347985348,-1.0,92.15280056245606,1.6477109979307107,
2023-08-15 18:11:26.412000,-8.518072289156628,3.7228915662650603,2.8313253012048194,3.995095033721643,-8.537706928264868,3.367259350091968,2.0,1.6417582417582417,609.103078982597,1.658761144455451,-0.29671930540178243,0.6499621234193816,1333.3333333333333,-1.0,92.15280056245606,1.6474808846230629,
2023-08-15 18:11:26.420000,-8.493975903614459,3.7469879518072293,2.855421686746988,3.987737584304108,-8.478847332924586,3.3721643163703248,2.0,1.6432234432234432,608.559964333482,2.025173358195909,-0.6936658702872786,0.42095448983159534,1315.7509157509157,-1.0,92.15280056245606,1.647253413006583,
2023-08-15 18:11:26.427000,-8.44578313253012,3.7590361445783134,2.855421686746988,4.039239730226854,-8.41017780502759,3.4064990803188224,2.0,1.6432234432234432,608.559964333482,1.7503641978905657,-1.6249635802109426,-0.0981294796340535,1302.5641025641025,-1.0,92.15280056245606,1.6470288083577052,
2023-08-15 18:11:26.435000,-8.3855421686747,3.7951807228915664,2.891566265060241,4.029429797670141,-8.356223175965665,3.3868792152053953,2.0,1.6417582417582417,609.103078982597,1.7656313734630849,-1.9761086183788816,-0.31186993764932064,1285.7142857142856,-1.0,92.15280056245606,1.646807289596733,
2023-08-15 18:11:26.443000,-8.361445783132531,3.734939759036145,2.8674698795180724,4.019619865113427,-8.307173513182097,3.3697118332311464,2.0,1.6432234432234432,608.559964333482,1.628226793310413,-2.052444496241477,-0.20499970864168707,1268.131868131868,-1.0,92.15280056245606,1.6465890678370352,
2023-08-15 18:11:26.450000,-8.349397590361447,3.6867469879518073,2.8313253012048194,4.009809932556713,-8.34886572654813,3.3795217657878602,2.0,1.6432234432234432,608.559964333482,1.811432900180642,-1.8081696870811717,-0.32713711322183975,1248.3516483516482,-1.0,92.15280056245606,1.6463743472097783,
2023-08-15 18:11:26.458000,-8.361445783132531,3.7108433734939763,2.8674698795180724,3.977927651747394,-8.334150827713058,3.3353770692826483,2.0,1.6432234432234432,608.559964333482,1.3992191597226267,-1.7318338092185763,-0.32713711322183975,1230.03663003663,-1.0,92.15280056245606,1.6461633243452762,
2023-08-15 18:11:26.466000,-8.337349397590362,3.6746987951807233,2.8313253012048194,3.9460453709380747,-8.33169834457388,3.345187001839362,2.0,1.6432234432234432,608.559964333482,1.8725016024707184,-1.1974826641804084,-0.6935493269622978,1211.7216117216117,-1.0,92.15280056245606,1.6459561870056398,
2023-08-15 18:11:26.473000,-8.361445783132531,3.6867469879518073,2.819277108433735,3.995095033721643,-8.42489270386266,3.3770692826486814,2.0,1.6417582417582417,609.103078982597,1.826700075753161,-1.3501544199055993,-0.7698852048248932,1195.6043956043954,-1.0,92.15280056245606,1.6457531141205333,
2023-08-15 18:11:26.481000,-8.373493975903616,3.7108433734939763,2.8313253012048194,4.034334763948498,-8.390557939914162,3.3353770692826483,2.0,1.6417582417582417,609.103078982597,1.826700075753161,-1.3501544199055993,-0.7698852048248932,1181.6849816849815,-1.0,92.15280056245606,1.6455542753292705,
2023-08-15 18:11:26.489000,-8.397590361445783,3.7228915662650603,2.843373493975904,3.9828326180257507,-8.341508277130595,3.4015941140404657,2.0,1.6417582417582417,609.103078982597,2.1320435872035426,-2.037177320668958,-0.9683584872676413,1175.0915750915751,-1.0,92.15280056245606,1.6453598304535588,
2023-08-15 18:11:26.496000,-8.397590361445783,3.6746987951807233,2.891566265060241,3.955855303494788,-8.459227467811159,3.4506437768240343,2.0,1.6432234432234432,608.559964333482,2.2999825185012526,-2.189849076394149,-1.1668317697103894,1170.6959706959706,-1.0,92.15280056245606,1.645169929110256,
2023-08-15 18:11:26.504000,-8.44578313253012,3.6867469879518073,2.891566265060241,4.002452483139178,-8.446965052115265,3.4408338442673205,2.0,1.6432234432234432,608.559964333482,2.528990152089039,-2.1593147252491107,-1.0904958918477938,1167.032967032967,-1.0,92.15280056245606,1.6449847108881355,
2023-08-15 18:11:26.512000,-8.481927710843374,3.698795180722892,2.9036144578313254,4.012262415695892,-8.518087063151441,3.4285714285714284,2.0,1.6432234432234432,608.559964333482,2.9412038925470543,-2.8921391527300266,-0.9988928384126794,1162.6373626373625,-1.0,92.15280056245606,1.6448043046838419,
2023-08-15 18:11:26.519000,-8.506024096385543,3.7590361445783134,2.91566265060241,4.044144696505211,-8.491109748620477,3.4506437768240343,2.0,1.6417582417582417,609.103078982597,3.261814579569955,-3.686032282501019,-1.0752287162752747,1154.5787545787546,-1.0,92.15280056245606,1.6446288285347255,
2023-08-15 18:11:26.527000,-8.530120481927712,3.7108433734939763,2.9397590361445785,3.9828326180257507,-8.552421827099938,3.433476394849785,2.0,1.6432234432234432,608.559964333482,2.9412038925470543,-3.945574267233843,-1.0752287162752747,1148.7179487179487,-1.0,92.15280056245606,1.6444583893525053,
2023-08-15 18:11:26.535000,-8.518072289156628,3.698795180722892,2.963855421686747,3.9215205395462904,-8.589209074187615,3.4580012262415694,2.0,1.6417582417582417,609.103078982597,3.0633412971272067,-4.495192587844531,-0.8767554338325267,1146.5201465201465,-1.0,92.15280056245606,1.644293082239146,
2023-08-15 18:11:26.542000,-8.506024096385543,3.6867469879518073,2.963855421686747,3.977927651747394,-8.493562231759656,3.514408338442673,2.0,1.6432234432234432,608.559964333482,3.5671580910203367,-4.99900938173766,-1.0599615407027558,1146.5201465201465,-1.0,92.15280056245606,1.6441329909300784,
2023-08-15 18:11:26.550000,-8.518072289156628,3.7228915662650603,3.060240963855422,4.004904966278357,-8.50091968117719,3.585530349478847,2.0,1.6432234432234432,608.559964333482,3.414486335295146,-5.563894877920866,-0.8462210826874885,1145.7875457875457,-1.0,92.15280056245606,1.6439781876460937,
2023-08-15 18:11:26.558000,-8.530120481927712,3.698795180722892,3.096385542168675,4.007357449417535,-8.586756591048436,3.56591048436542,2.0,1.6432234432234432,608.559964333482,3.429753510867665,-6.220383427539187,-1.1362974185653512,1145.054945054945,-1.0,92.15280056245606,1.6438287336172726,
2023-08-15 18:11:26.565000,-8.578313253012048,3.6867469879518073,3.108433734939759,4.039239730226854,-8.625996321275291,3.578172900061312,2.0,1.6432234432234432,608.559964333482,2.4221199230814054,-6.953207855020103,-1.472175281160771,1145.054945054945,-1.0,-1.0,1.6436846790525772,
2023-08-15 18:11:26.573000,-8.614457831325302,3.6385542168674703,3.132530120481928,3.919068056407112,-8.59656652360515,3.624770079705702,2.0,1.6432234432234432,608.559964333482,2.1320435872035426,-7.350154419905599,-2.021793601771458,1145.054945054945,-1.0,-1.0,1.6435460626936782,
2023-08-15 18:11:26.581000,-8.590361445783133,3.6506024096385543,3.108433734939759,3.9313304721030042,-8.530349478847333,3.6051502145922747,2.0,1.6432234432234432,608.559964333482,2.1320435872035426,-7.548627702348347,-3.3500378765806182,1143.5897435897434,-1.0,-1.0,1.6434129114424123,
2023-08-15 18:11:26.588000,-8.530120481927712,3.6867469879518073,3.144578313253012,3.987737584304108,-8.53525444512569,3.6983445738810543,2.0,1.6432234432234432,608.559964333482,2.2999825185012526,-7.869238389371247,-3.9301905483363435,1142.857142857143,-1.0,-1.0,1.6432852410092296,
2023-08-15 18:11:26.596000,-8.542168674698795,3.6506024096385543,3.168674698795181,3.889638258736971,-8.621091354996935,3.7106069895769465,2.0,1.6432234432234432,608.559964333482,2.8496008391119396,-7.3043528931880415,-3.2279004720004654,1144.3223443223442,-1.0,-1.0,1.6431630564945983,
2023-08-15 18:11:26.604000,-8.650602409638555,3.5783132530120483,3.2650602409638556,3.884733292458614,-8.704475781729,3.7596566523605146,2.0,1.6432234432234432,608.559964333482,2.8496008391119396,-8.449391061126972,-2.586679097954664,1147.985347985348,-1.0,-1.0,1.6430463520930525,
2023-08-15 18:11:26.611000,-8.759036144578314,3.530120481927711,3.289156626506024,3.7351318209687308,-8.795217657878602,3.8209687308399753,2.0,1.6432234432234432,608.559964333482,3.307616106287512,-10.403589534409416,-2.006526426198939,1160.4395604395604,-1.0,-1.0,1.642935111324376,
2023-08-15 18:11:26.619000,-8.771084337349398,3.5060240963855422,3.27710843373494,3.7915389331698344,-8.721643163703249,3.779276517473942,2.0,1.6432234432234432,608.559964333482,3.383951984150108,-13.930307091661325,-1.273701998718023,1183.150183150183,-1.0,-1.0,1.6428293072977447,
2023-08-15 18:11:26.627000,-8.650602409638555,3.530120481927711,3.216867469879518,3.744941753525444,-8.625996321275291,3.754751686082158,2.0,1.6417582417582417,609.103078982597,3.7808985490356037,-17.44175747334071,-2.052327952916496,1219.047619047619,-1.0,-1.0,1.6427289025493512,
2023-08-15 18:11:26.634000,-8.457831325301205,3.5180722891566267,3.1566265060240966,3.9166155732679337,-8.385652973635805,3.6811771919068055,2.0,1.6432234432234432,608.559964333482,3.50608938873026,-19.884505564943765,-2.4950760445195495,1271.062271062271,-1.0,-1.0,1.6426338498578443,
2023-08-15 18:11:26.642000,-8.27710843373494,3.6144578313253013,3.1204819277108435,3.889638258736971,-8.238503985285101,3.6394849785407724,2.0,1.6432234432234432,608.559964333482,4.269448167356215,-21.411223122195675,-3.105763067420313,1341.3919413919414,-1.0,-1.0,1.6425440929136523,
2023-08-15 18:11:26.650000,-8.144578313253012,3.6506024096385543,3.096385542168675,3.9117106069895766,-8.142857142857142,3.6517473942366645,2.0,1.6432234432234432,608.559964333482,5.18547870170736,-21.838704038226208,-2.8767554338325265,1430.03663003663,-1.0,-1.0,1.642459566308976,
2023-08-15 18:11:26.657000,-8.012048192771084,3.7228915662650603,3.168674698795181,4.036787247087676,-7.927038626609441,3.7277743715511953,2.0,1.6432234432234432,608.559964333482,5.811432900180642,-21.029543732882697,-3.273701998718023,1536.9963369963368,-1.0,-1.0,1.6423801959743376,
2023-08-15 18:11:26.665000,-7.795180722891566,3.7951807228915664,3.27710843373494,4.06131207847946,-7.789699570815451,3.926425505824647,2.0,1.6432234432234432,608.559964333482,6.84960083911194,-19.121146786317812,-5.029427189557717,1660.8058608058607,-1.0,-1.0,1.6423058996019482,
2023-08-15 18:11:26.673000,-7.783132530120482,3.891566265060241,3.433734939759036,4.179031269160024,-7.772532188841201,4.0,2.0,1.6432234432234432,608.559964333482,8.055707709340947,-16.281452129829262,-5.380572227725656,1799.2673992673992,-1.0,-1.0,1.6422365870884827,
2023-08-15 18:11:26.680000,-7.819277108433735,3.963855421686747,3.5662650602409642,4.2697731453096255,-7.770079705702023,4.161863887185775,2.0,1.6432234432234432,608.559964333482,8.666394732241711,-12.724200221432316,-5.4416409300157325,1943.5897435897434,-1.0,-1.0,1.6421721614529068,
2023-08-15 18:11:26.688000,-7.903614457831326,4.048192771084338,3.698795180722892,4.382587369711833,-7.983445738810545,4.328632740649907,2.0,1.6432234432234432,608.559964333482,9.383951984150107,-10.220383427539186,-5.930190548336343,2088.6446886446884,-1.0,-1.0,1.642112518786159,
2023-08-15 18:11:26.696000,-8.084337349397591,4.072289156626506,3.7831325301204823,4.385039852851011,-8.164929491109747,4.318822808093194,2.0,1.6432234432234432,608.559964333482,9.35341763300507,-9.655497931355981,-5.533243983450848,2224.175824175824,-1.0,-1.0,1.6420575483173723,
2023-08-15 18:11:26.703000,-8.25301204819277,4.1084337349397595,3.843373493975904,4.426732066217045,-8.238503985285101,4.385039852851011,2.0,1.6432234432234432,608.559964333482,9.582425266592855,-11.472291824485751,-6.449274517801992,2343.5897435897436,-1.0,-1.0,1.6420071334034414,
2023-08-15 18:11:26.711000,-8.289156626506024,4.156626506024097,3.8192771084337354,4.399754751686082,-8.326793378295523,4.382587369711833,2.0,1.6432234432234432,608.559964333482,9.261814579569954,-15.014276557310179,-7.80805314375619,2447.6190476190473,-1.0,-1.0,1.641961152033756,
2023-08-15 18:11:26.719000,-8.216867469879519,4.156626506024097,3.7469879518072293,4.465971796443899,-8.22378908645003,4.230533415082771,2.0,1.6432234432234432,608.559964333482,8.68166190781423,-20.6325971679972,-8.47980886894703,2528.937728937729,-1.0,-1.0,1.641919477340454,
2023-08-15 18:11:26.726000,-8.096385542168676,4.0602409638554215,3.6144578313253013,4.291845493562231,-8.079092581238504,4.115266707541386,2.0,1.6432234432234432,608.559964333482,7.33815045743255,-26.999009381737658,-9.014160013985197,2589.010989010989,-1.0,-1.0,1.6418819781118685,
2023-08-15 18:11:26.734000,-7.975903614457832,3.951807228915663,3.530120481927711,4.198651134273452,-7.892703862660944,4.07602697731453,2.0,1.6432234432234432,608.559964333482,7.796165724608123,-31.197482664180406,-9.380572227725656,2619.78021978022,-1.0,-1.0,1.6418485193068866,
2023-08-15 18:11:26.742000,-7.807228915662651,3.855421686746988,3.5662650602409642,4.164316370324954,-7.789699570815451,4.07602697731453,2.0,1.6432234432234432,608.559964333482,8.315249694073772,-35.06007808402774,-8.49507604451955,2622.7106227106224,-1.0,-1.0,1.6418189625679864,
2023-08-15 18:11:26.749000,-7.698795180722892,3.7951807228915664,3.5662650602409642,4.044144696505211,-7.77498467198038,4.125076640098099,2.0,1.6432234432234432,608.559964333482,9.796165724608123,-34.449391061126974,-6.4340073422294735,2594.139194139194,-1.0,-1.0,1.6417931667307648,
2023-08-15 18:11:26.757000,-7.710843373493976,3.6867469879518073,3.6385542168674703,3.9411404046597176,-7.787247087676271,4.2403433476394845,2.0,1.6432234432234432,608.559964333482,9.796165724608123,-34.449391061126974,-6.4340073422294735,2538.461538461538,-1.0,-1.0,1.6417709883278373,
2023-08-15 18:11:26.764000,-7.746987951807229,3.5060240963855422,3.6867469879518073,3.644389944819129,-7.77498467198038,4.304107909258124,2.0,1.6432234432234432,608.559964333482,11.261814579569954,-31.13641396189033,-4.5561447468096254,2454.212454212454,-1.0,-1.0,1.641752282085077,
2023-08-15 18:11:26.772000,-7.759036144578314,3.2650602409638556,3.662650602409639,3.4236664622930717,-7.62047823421214,4.2403433476394845,2.0,1.6432234432234432,608.559964333482,13.628226793310413,-24.373055183264377,-3.82332031932871,2328.205128205128,-1.0,-1.0,1.6417369014082224,
2023-08-15 18:11:26.780000,-7.650602409638554,3.132530120481928,3.6024096385542173,3.362354383813611,-7.54199877375843,4.267320662170447,2.0,1.6417582417582417,609.103078982597,15.216013052852396,-15.30435289318804,-5.914923372763824,2139.9267399267396,-1.0,-1.0,1.6417246988580083,
2023-08-15 18:11:26.787000,-7.530120481927711,3.1566265060240966,3.6144578313253013,3.4310239117106067,-7.568976088289393,4.404659717964439,2.0,1.6417582417582417,609.103078982597,19.12440999941728,-2.800536099294912,-8.31186993764932,1898.9010989010987,-1.0,-1.0,1.6417155265772592,
2023-08-15 18:11:26.795000,-7.710843373493976,3.1566265060240966,3.7951807228915664,3.4310239117106067,-7.9368485591661555,4.583690987124463,2.0,1.6417582417582417,609.103078982597,24.361051220791328,11.245265427422645,-8.052327952916496,1654.212454212454,-1.0,-1.0,1.6417092365984476,
2023-08-15 18:11:26.803000,-8.132530120481928,3.1927710843373496,4.132530120481928,3.4702636419374615,-8.20907418761496,4.897608828939301,2.0,1.6417582417582417,609.103078982597,32.086242060485986,26.222364664063864,-6.5561447468096254,1457.142857142857,-1.0,-1.0,1.6417056807803503,
2023-08-15 18:11:26.810000,-8.530120481927712,3.180722891566265,4.46987951807229,3.4015941140404657,-8.662783568362967,5.191906805640711,2.0,1.6417582417582417,609.103078982597,36.971738243692094,36.45137229765165,-6.907289784977564,1326.7399267399267,-1.0,-1.0,1.6417047112855423,
2023-08-15 18:11:26.818000,-8.91566265060241,3.1566265060240966,4.710843373493976,3.438381361128142,-9.118945432250152,5.393010423053341,2.0,1.6417582417582417,609.103078982597,41.18547870170736,43.48954023658295,-7.945457723908862,1260.07326007326,-1.0,-1.0,1.6417061814587042,
2023-08-15 18:11:26.826000,-9.240963855421688,3.180722891566265,4.927710843373494,3.47271612507664,-9.44757817290006,5.697118332311465,2.0,1.64029304029304,609.647163912461,44.46792144979896,45.382670007575314,-8.021793601771458,1239.5604395604396,-1.0,-1.0,1.64170994619151,
2023-08-15 18:11:26.833000,-9.433734939759036,3.1927710843373496,5.072289156626506,3.467811158798283,-9.57265481299816,5.716738197424893,2.0,1.6417582417582417,609.103078982597,47.82670007575316,44.63457840452188,-6.907289784977564,1246.153846153846,-1.0,-1.0,1.6417158622310175,
2023-08-15 18:11:26.841000,-9.397590361445783,3.072289156626506,5.048192771084338,3.296137339055794,-9.44757817290006,5.672593500919681,2.0,1.6417582417582417,609.103078982597,51.18547870170736,42.83305168696463,-5.731717265893595,1268.131868131868,-1.0,-1.0,1.6417237883957243,
2023-08-15 18:11:26.849000,-9.27710843373494,2.879518072289157,4.9397590361445785,3.0901287553648067,-9.369098712446352,5.535254445125689,2.0,1.6417582417582417,609.103078982597,54.97173824369209,43.184196725132566,-5.31950352543558,1290.8424908424909,-1.0,-1.0,1.6417335859765043,
2023-08-15 18:11:26.856000,-9.120481927710843,2.746987951807229,4.662650602409639,2.9993868792152054,-8.981606376456162,5.123237277743716,2.0,1.6417582417582417,609.103078982597,59.58242526659286,48.52770817551425,-5.930190548336343,1304.0293040293038,-1.0,-1.0,1.6417451190440928,
2023-08-15 18:11:26.864000,-8.843373493975903,2.6867469879518073,4.240963855421687,2.9380748007357447,-8.618638871857755,4.848559166155733,2.0,1.6417582417582417,609.103078982597,65.704562671173,58.512440999941724,-8.098129479634053,1303.2967032967033,-1.0,-1.0,1.6417582551556928,
2023-08-15 18:11:26.872000,-8.530120481927712,2.662650602409639,3.9759036144578315,2.9012875536480687,-8.402820355610055,4.716125076640098,2.0,1.6417582417582417,609.103078982597,74.08624206048597,69.97808985490356,-10.617213449099703,1285.7142857142856,-1.0,-1.0,1.641772865054467,
2023-08-15 18:11:26.879000,-8.3855421686747,2.746987951807229,3.91566265060241,2.9993868792152054,-8.343960760269773,4.694052728387492,2.0,1.6417582417582417,609.103078982597,82.5137229765165,82.05442573276616,-11.197366120855428,1254.212454212454,-1.0,-1.0,1.6417888224488584,
2023-08-15 18:11:26.887000,-8.530120481927712,2.879518072289157,3.891566265060241,3.1416309012875536,-8.625996321275291,4.478234212139792,2.0,1.6417582417582417,609.103078982597,90.52899015208902,95.56587611444554,-11.090495891847793,1213.1868131868132,-1.0,-1.0,1.6418060046810017,
2023-08-15 18:11:26.895000,-8.795180722891567,2.927710843373494,3.8192771084337354,3.2176578786020844,-9.062538320049049,4.475781729000613,2.0,1.6432234432234432,608.559964333482,96.39158557193636,103.87121962589593,-9.16683176971039,1168.4981684981685,-1.0,-1.0,1.641824292878631,
2023-08-15 18:11:26.902000,-9.361445783132531,3.144578313253012,3.530120481927711,3.4163090128755362,-9.827713059472716,4.125076640098099,2.0,1.6432234432234432,608.559964333482,102.92593671697452,105.0467921449799,-2.7088165025348165,1130.4029304029302,-1.0,-1.0,1.6418435725762295,
2023-08-15 18:11:26.910000,-10.228915662650603,3.5180722891566267,3.168674698795181,3.8528510116492947,-10.742489270386265,3.7596566523605146,2.0,1.6446886446886446,608.0178173719377,109.6282267933104,97.99335703047608,7.199580444030069,1108.4249084249084,-1.0,-1.0,1.6418637338927609,
2023-08-15 18:11:26.918000,-11.048192771084338,3.7831325301204823,2.9397590361445785,4.090741876149601,-11.6817903126916,3.3402820355610054,2.0,1.6446886446886446,608.0178173719377,116.22364664063865,95.27579977856769,17.611794184488083,1104.029304029304,-1.0,-1.0,1.6418846716552775,
2023-08-15 18:11:26.925000,-11.602409638554217,3.9036144578313254,2.674698795180723,4.1961986511342735,-11.924586143470263,3.2397302268546904,2.0,1.6446886446886446,608.0178173719377,117.85723442689819,90.29870054192646,25.840801818075867,1114.2857142857142,-1.0,-1.0,1.6419062855389583,
2023-08-15 18:11:26.933000,-11.698795180722891,4.0,2.2650602409638556,4.272225628448804,-11.909871244635193,2.5481299816063765,2.0,1.6432234432234432,608.559964333482,120.04044053376842,83.96282267933104,30.60416059670182,1131.135531135531,-1.0,-1.0,1.6419284796625189,
2023-08-15 18:11:26.941000,-11.530120481927712,4.156626506024097,1.710843373493976,4.483139178418148,-11.561618638871858,1.9914163090128754,2.0,1.6432234432234432,608.559964333482,118.9870054192646,69.62694481673563,32.359885787541515,1158.974358974359,-1.0,-1.0,1.6419511625880854,
2023-08-15 18:11:26.948000,-11.048192771084338,4.506024096385542,1.2530120481927711,4.902513795217658,-11.017167381974248,1.5033721643163702,2.0,1.6432234432234432,608.559964333482,119.21601305285239,56.436105122079134,33.81026746693083,1194.8717948717947,-1.0,-1.0,1.6419742467408682,
2023-08-15 18:11:26.956000,-10.421686746987952,4.9879518072289155,0.7710843373493976,5.3218884120171674,-10.372164316370325,1.049662783568363,2.0,1.6432234432234432,608.559964333482,119.93357030476078,41.67274634345318,35.27591632189266,1229.3040293040292,-1.0,-1.0,1.6419976484407077,
2023-08-15 18:11:26.964000,-9.867469879518072,5.253012048192772,0.26506024096385544,5.542611894543224,-9.810545677498467,0.5567136725935009,2.0,1.6446886446886446,608.0178173719377,119.01753977040964,29.13839519841501,36.83316823028961,1252.014652014652,-1.0,-1.0,1.6420212883727203,
2023-08-15 18:11:26.971000,-9.3855421686747,5.566265060240964,-0.0963855421686747,5.917841814837523,-9.459840588595952,0.23053341508277128,2.0,1.6446886446886446,608.0178173719377,118.9870054192646,18.77198298467455,39.33698502418274,1266.6666666666665,-1.0,-1.0,1.6420450920429226,
2023-08-15 18:11:26.979000,-9.204819277108435,5.759036144578314,-0.5662650602409639,6.111587982832618,-9.1704475781729,-0.45861434702636417,2.0,1.646153846153846,607.4766355140188,118.13204358720353,16.222364664063864,43.42858807761785,1284.2490842490843,-1.0,-1.0,1.6420689897995875,
2023-08-15 18:11:26.987000,-9.27710843373494,5.253012048192772,-1.349397590361446,5.2409564684242795,-9.450030656039239,-1.449417535254445,2.0,1.6446886446886446,608.0178173719377,110.74273061010429,19.733815045743256,44.909504108152206,1315.018315018315,-1.0,-1.0,1.6420929168102065,
2023-08-15 18:11:26.994000,-9.397590361445783,5.433734939759036,-1.927710843373494,5.863887185775598,-9.44757817290006,-1.6578786020846106,2.0,1.646153846153846,607.4766355140188,106.68166190781422,17.092593671697454,47.81026746693083,1355.3113553113553,-1.0,-1.0,1.6421168125724994,
2023-08-15 18:11:27.002000,-9.361445783132531,5.265060240963856,-2.3855421686746987,5.446965052115266,-9.378908645003065,-2.410790925812385,2.0,1.646153846153846,607.4766355140188,101.61295961773789,17.855952450323407,50.1919468562438,1376.5567765567764,-1.0,-1.0,1.6421406208046454,
2023-08-15 18:11:27.010000,-9.228915662650603,4.9156626506024095,-2.8313253012048194,4.963825873697118,-9.12139791538933,-2.7271612507664007,2.0,1.646153846153846,607.4766355140188,94.72746343453177,21.749082221315774,52.680496474564414,1356.7765567765566,-1.0,-1.0,1.6421642898898376,
2023-08-15 18:11:27.017000,-8.93975903614458,5.204819277108434,-2.9397590361445785,5.375843041079093,-8.849172286940528,-2.822808093194359,2.0,1.646153846153846,607.4766355140188,91.61295961773789,26.726181457956994,53.15377891731251,1310.6227106227104,-1.0,-1.0,1.642187772331502,
2023-08-15 18:11:27.025000,-8.783132530120483,5.156626506024097,-3.036144578313253,5.147762109135499,-8.47148988350705,-2.7467811158798283,2.0,1.6446886446886446,608.0178173719377,84.40685274750888,30.100227259483713,57.169046092885026,1275.4578754578754,-1.0,-1.0,1.6422110251191224,
2023-08-15 18:11:27.033000,-8.46987951807229,5.518072289156627,-2.879518072289157,5.898221949724095,-8.405272838749234,-2.5039852851011646,2.0,1.6446886446886446,608.0178173719377,84.40685274750888,30.100227259483713,57.169046092885026,1279.120879120879,-1.0,-1.0,1.6422340090722736,
2023-08-15 18:11:27.040000,-8.25301204819277,5.698795180722892,-2.6506024096385543,6.03065603923973,-8.164929491109747,-2.3347639484978537,2.0,1.6446886446886446,608.0178173719377,79.97937183147835,34.191830312918825,59.19958044403006,1326.7399267399267,-1.0,-1.0,1.6422566877232667,
2023-08-15 18:11:27.048000,-8.036144578313253,6.0361445783132535,-2.313253012048193,6.356836296750459,-7.97608828939301,-2.0134886572654813,2.0,1.6446886446886446,608.0178173719377,73.90303595361574,43.01625779383486,62.77209952799953,1404.3956043956043,-1.0,-1.0,1.6422790281974793,
2023-08-15 18:11:27.056000,-8.060240963855422,5.590361445783133,-2.180722891566265,5.576946658491723,-8.157572041692212,-2.064990803188228,2.0,1.6446886446886446,608.0178173719377,67.46028786201269,48.5735097022318,66.69576365013694,1493.7728937728937,-1.0,-1.0,1.6423010015297281,
2023-08-15 18:11:27.063000,-8.289156626506024,5.409638554216868,-2.253012048192771,5.748620478234212,-8.351318209687308,-2.0674432863274066,2.0,1.6446886446886446,608.0178173719377,58.77326496124934,54.11549443505623,71.96293922265602,1573.6263736263736,-1.0,-1.0,1.6423225820664005,
2023-08-15 18:11:27.071000,-8.542168674698795,5.566265060240964,-2.4216867469879517,5.893316983445739,-8.552421827099938,-2.347026364193746,2.0,1.6446886446886446,608.0178173719377,51.84196725132568,58.436105122079134,76.37515296311403,1638.095238095238,-1.0,-1.0,1.6423437478179153,
2023-08-15 18:11:27.079000,-8.650602409638555,5.746987951807229,-2.734939759036145,6.104230533415082,-8.530349478847333,-2.587369711833231,2.0,1.6446886446886446,608.0178173719377,43.30761610628751,59.245265427422645,78.86370258143464,1678.3882783882782,-1.0,-1.0,1.642364480744594,
2023-08-15 18:11:27.086000,-8.66265060240964,5.903614457831326,-2.9759036144578315,6.1704475781729,-8.552421827099938,-2.793378295524218,2.0,1.6432234432234432,608.559964333482,34.05570770934094,55.97808985490356,78.72629800128198,1692.3076923076922,-1.0,-1.0,1.6423847660976931,
2023-08-15 18:11:27.094000,-8.63855421686747,5.795180722891566,-3.036144578313253,6.0257510729613735,-8.54996934396076,-2.832618025751073,2.0,1.6432234432234432,608.559964333482,25.551890915447817,49.44373870986539,78.94003845929724,1683.5164835164835,-1.0,-1.0,1.6424045922565362,
2023-08-15 18:11:27.102000,-8.530120481927712,5.674698795180723,-2.91566265060241,5.920294297976701,-8.442060085836909,-2.6143470263641935,2.0,1.6446886446886446,608.0178173719377,16.54425732766156,39.184196725132566,78.23774838296136,1655.6776556776556,-1.0,-1.0,1.642423950887868,
2023-08-15 18:11:27.109000,-8.397590361445783,5.542168674698796,-2.771084337349398,5.787860208461066,-8.243408951563458,-2.5162477007970567,2.0,1.6446886446886446,608.0178173719377,8.483188625371481,28.375036419789055,77.85606899364838,1611.7216117216117,-1.0,-1.0,1.642442836756995,
2023-08-15 18:11:27.117000,-8.204819277108435,5.506024096385542,-2.63855421686747,5.780502759043531,-8.032495401594113,-2.3838136112814223,2.0,1.6446886446886446,608.0178173719377,0.9564710681195734,19.978089854903562,77.27591632189267,1552.3809523809523,-1.0,-1.0,1.6424612476832503,
2023-08-15 18:11:27.125000,-8.0,5.542168674698796,-2.566265060240964,5.90557939914163,-7.772532188841201,-2.3053341508277128,2.0,1.6446886446886446,608.0178173719377,-4.768719771575083,16.6498455800944,77.2301147951751,1481.3186813186812,-1.0,-1.0,1.6424791839388873,
2023-08-15 18:11:27.132000,-7.759036144578314,5.662650602409639,-2.5301204819277108,6.015941140404659,-7.5738810545677495,-2.2023298589822193,2.0,1.6446886446886446,608.0178173719377,-10.96719305401783,14.16129596177379,76.81790105471708,1400.0,-1.0,-1.0,1.642496648143971,
2023-08-15 18:11:27.140000,-7.506024096385542,5.783132530120482,-2.4939759036144578,6.118945432250153,-7.380134886572654,-2.229307173513182,2.0,1.6432234432234432,608.559964333482,-17.196200687605618,12.039158557193637,77.91713769593846,1313.5531135531135,-1.0,-1.0,1.6425136455877658,
2023-08-15 18:11:27.147000,-7.265060240963856,5.83132530120482,-2.5301204819277108,6.10913549969344,-7.1814837522992025,-2.2734518700183934,2.0,1.6432234432234432,608.559964333482,-21.104597634170503,12.390303595361576,80.22248120738884,1227.8388278388277,-1.0,-1.0,1.6425301831125398,
2023-08-15 18:11:27.155000,-7.1084337349397595,5.867469879518072,-2.5301204819277108,6.141017780502759,-6.970570202329859,-2.199877375843041,2.0,1.6432234432234432,608.559964333482,-25.242002214323175,13.352135656430278,82.64996212341937,1147.985347985348,-1.0,-1.0,1.6425462689481896,
2023-08-15 18:11:27.163000,-6.951807228915663,5.879518072289157,-2.5783132530120483,6.096873083997547,-6.850398528510116,-2.241569589209074,2.0,1.6432234432234432,608.559964333482,-28.249635802109434,14.863586038109668,84.84843540586212,1073.9926739926739,-1.0,-1.0,1.6425619134972438,
2023-08-15 18:11:27.170000,-6.951807228915663,5.951807228915663,-2.63855421686747,6.312691600245248,-6.793991416309012,-2.3200490496627832,2.0,1.6432234432234432,608.559964333482,-31.028261756307906,15.107860847269972,85.52019113105297,1011.7216117216117,-1.0,-1.0,1.6425771291736047,
2023-08-15 18:11:27.178000,-7.0,6.265060240963856,-2.626506024096386,6.633966891477621,-6.845493562231759,-2.160637645616186,2.0,1.6432234432234432,608.559964333482,-33.211467863178136,17.168929549560048,84.344618611969,955.3113553113552,-1.0,-1.0,1.642591929787225,
2023-08-15 18:11:27.186000,-6.819277108433735,6.771084337349398,-2.4457831325301207,7.168608215818516,-6.617412630288166,-1.9055793991416308,2.0,1.6432234432234432,608.559964333482,-33.1045976341705,18.80251733581959,84.86370258143464,904.7619047619047,-1.0,-1.0,1.6426063299992921,
2023-08-15 18:11:27.193000,-6.46987951807229,7.048192771084338,-2.180722891566265,7.396689147762109,-6.256897608828939,-1.719190680564071,2.0,1.6432234432234432,608.559964333482,-32.23436862653691,20.451372297651652,85.82553464250334,858.6080586080585,-1.0,-1.0,1.6426203457263866,
2023-08-15 18:11:27.201000,-6.1325301204819285,7.0,-1.9397590361445785,7.251992642550582,-5.928264868179031,-1.572041692213366,2.0,1.6432234432234432,608.559964333482,-34.20383427539188,22.023891381621116,86.71103082570946,808.058608058608,-1.0,-1.0,1.6426339940180703,
2023-08-15 18:11:27.209000,-5.963855421686747,6.795180722891566,-1.7590361445783134,7.023911710606989,-5.793378295524218,-1.3243408951563458,2.0,1.6432234432234432,608.559964333482,-37.54734572577355,25.581143290018066,89.06217586387739,736.9963369963369,-1.0,-1.0,1.6426472925119835,
2023-08-15 18:11:27.216000,-5.91566265060241,6.698795180722892,-1.5421686746987953,7.004291845493562,-5.820355610055181,-1.032495401594114,2.0,1.6417582417582417,609.103078982597,-39.211467863178136,28.80251733581959,90.66522929899189,608.058608058608,-1.0,-1.0,1.6426602593797117,
2023-08-15 18:11:27.224000,-5.9397590361445785,6.710843373493976,-1.313253012048193,6.99202942979767,-5.788473329245861,-0.82158185162477,2.0,1.6417582417582417,609.103078982597,-39.80688771050638,30.420837946506612,92.17667968067128,400.7326007326007,-1.0,-1.0,1.6426729127782054,
2023-08-15 18:11:27.232000,-5.927710843373494,6.746987951807229,-1.1325301204819278,7.055793991416309,-5.771305947271612,-0.6744328632740649,2.0,1.6417582417582417,609.103078982597,-41.19620068760562,30.80251733581959,92.02400792494609,97.43589743589743,-1.0,-1.0,1.642685270719991,
2023-08-15 18:11:27.239000,-5.891566265060241,6.674698795180723,-1.036144578313253,6.938074800735745,-5.734518700183936,-0.5861434702636419,2.0,1.64029304029304,609.647163912461,-41.94429229065905,32.3292348930715,91.06217586387739,0.0,-1.0,-1.0,1.6426973514663454,
2023-08-15 18:11:27.247000,-5.903614457831326,6.566265060240964,-1.0120481927710845,6.7958307786633965,-5.614347026364193,-0.6082158185162476,2.0,1.64029304029304,609.647163912461,-44.11223122195676,34.98572344268982,87.90187052036595,0.0,-1.0,-1.0,1.642709173883636,
2023-08-15 18:11:27.255000,-5.819277108433735,6.55421686746988,-0.9879518072289157,6.93071735131821,-5.4990803188228075,-0.5567136725935009,2.0,1.64029304029304,609.647163912461,-46.64658236699493,35.81015092360585,82.80263387914457,0.0,-1.0,-1.0,1.642720756710175,
2023-08-15 18:11:27.262000,-5.674698795180723,6.63855421686747,-0.9277108433734941,6.886572654812998,-5.214592274678111,-0.3629675045984059,2.0,1.64029304029304,609.647163912461,-46.402307557834625,34.878853213682184,76.52782471883923,0.0,-1.0,-1.0,1.6427321180287904,
2023-08-15 18:11:27.270000,-5.421686746987952,6.650602409638554,-0.8674698795180723,6.950337216431636,-5.001226241569589,-0.30901287553648066,2.0,1.64029304029304,609.647163912461,-46.76871977157508,35.184196725132566,69.47438960433541,0.0,-1.0,-1.0,1.6427432756846057,
2023-08-15 18:11:27.278000,-5.144578313253012,6.55421686746988,-0.7951807228915663,6.7664009809932555,-4.675045984058859,-0.2795830778663397,2.0,1.64029304029304,609.647163912461,-47.13513198531554,36.497173824369206,62.31408426082396,0.0,-1.0,-1.0,1.642754247207694,
2023-08-15 18:11:27.285000,-4.819277108433735,6.433734939759036,-0.7228915662650602,6.658491722869405,-4.324340895156346,-0.24279583077866337,2.0,1.64029304029304,609.647163912461,-47.4252083211934,37.184196725132566,55.58125983334304,0.0,-1.0,-1.0,1.642765049275675,
2023-08-15 18:11:27.293000,-4.542168674698796,6.27710843373494,-0.746987951807229,6.599632127529123,-4.093807480073575,-0.3139178418148375,2.0,1.64029304029304,609.647163912461,-48.845055649437676,39.35213565643028,49.77973311578579,0.0,-1.0,-1.0,1.6427756976995722,
2023-08-15 18:11:27.301000,-4.228915662650603,6.289156626506024,-0.8313253012048193,6.555487431023911,-3.6793378295524217,-0.30656039239730226,2.0,1.64029304029304,609.647163912461,-49.76108618378882,41.27579977856768,42.0240079249461,0.0,-1.0,-1.0,1.642786207829279,
2023-08-15 18:11:27.308000,-3.927710843373494,6.144578313253012,-0.8915662650602411,6.354383813611281,-3.446351931330472,-0.4757817290006131,2.0,1.64029304029304,609.647163912461,-49.76108618378882,41.27579977856768,42.0240079249461,0.0,-1.0,-1.0,1.6427965944658396,
2023-08-15 18:11:27.316000,-3.6144578313253013,6.156626506024097,-0.963855421686747,6.4990803188228075,-3.0613120784794603,-0.5272838749233598,2.0,1.6388278388278386,610.1922217255253,-50.98246022959035,45.15366237398753,35.50492395548045,0.0,-1.0,-1.0,1.6428068717736293,
2023-08-15 18:11:27.324000,-3.313253012048193,5.975903614457832,-1.072289156626506,6.221949724095647,-2.8724708767627223,-0.6474555487431024,2.0,1.6388278388278386,610.1922217255253,-52.356506031117064,49.428471534292875,27.79500029135831,0.0,-1.0,-1.0,1.6428170527001502,
2023-08-15 18:11:27.331000,-3.1204819277108435,5.927710843373494,-1.1566265060240966,6.239117106069895,-2.5928877988963825,-0.7136725935009196,2.0,1.6388278388278386,610.1922217255253,-54.37177320668958,55.91702115261348,19.886603344793425,0.0,-1.0,-1.0,1.6428271488170167,
2023-08-15 18:11:27.339000,-2.891566265060241,5.867469879518072,-1.180722891566265,6.126302881667688,-2.3697118332311464,-0.762722256284488,2.0,1.6388278388278386,610.1922217255253,-55.95955946623157,62.542975351086774,11.291183497465182,0.0,-1.0,-1.0,1.6428371706865763,
2023-08-15 18:11:27.347000,-2.746987951807229,5.795180722891566,-1.180722891566265,6.079705702023298,-2.1122011036174126,-0.6597179644389944,2.0,1.6388278388278386,610.1922217255253,-56.49391061126974,71.00099061826235,1.5965270089155648,0.0,-1.0,-1.0,1.6428471277716188,
2023-08-15 18:11:27.354000,-2.63855421686747,5.662650602409639,-1.1686746987951808,5.912936848559166,-2.124463519313305,-0.7087676272225628,2.0,1.6388278388278386,610.1922217255253,-56.81452129829264,79.99335703047609,-8.159198181924129,0.0,-1.0,-1.0,1.6428570283465254,
2023-08-15 18:11:27.362000,-2.734939759036145,5.457831325301205,-1.2530120481927711,5.650521152667075,-2.2519926425505825,-0.8166768853464133,2.0,1.6388278388278386,610.1922217255253,-56.982460229590345,88.51244099994173,-17.288969174290543,191.94139194139194,-1.0,-1.0,1.6428668794103305,
2023-08-15 18:11:27.370000,-2.9036144578313254,5.349397590361446,-1.3373493975903614,5.557326793378295,-2.435928877988964,-0.8632740649908032,2.0,1.6388278388278386,610.1922217255253,-58.402307557834625,95.47427306101044,-24.84622108268749,504.7619047619047,-1.0,-1.0,1.6428766866022002,
2023-08-15 18:11:27.377000,-3.096385542168675,5.216867469879518,-1.4337349397590362,5.41017780502759,-2.676272225628449,-1.0226854690374003,2.0,1.6388278388278386,610.1922217255253,-59.70001748149875,96.4819066487967,-34.18973253306917,847.6190476190476,-1.0,-1.0,1.6428864541198147,
2023-08-15 18:11:27.385000,-3.325301204819277,4.975903614457832,-1.5903614457831325,5.130594727161251,-2.838136112814224,-1.2115266707541386,2.0,1.64029304029304,609.647163912461,-60.845055649437676,93.03152496940739,-45.13629741856535,1178.7545787545787,-1.0,-1.0,1.6428961846411465,
2023-08-15 18:11:27.393000,-3.5180722891566267,4.759036144578314,-1.6265060240963856,4.934396076026977,-3.066217044757817,-1.2360515021459226,2.0,1.6388278388278386,610.1922217255253,-63.24200221432318,86.74144863352952,-55.73171726589359,1462.2710622710622,-1.0,-1.0,1.6429058797428304,
2023-08-15 18:11:27.400000,-3.6024096385542173,4.734939759036145,-1.421686746987952,4.990803188228081,-3.137339055793991,-0.851011649294911,2.0,1.6388278388278386,610.1922217255253,-65.91375793951401,76.98572344268983,-64.76988520482489,1678.3882783882782,-1.0,-1.0,1.642915539867632,
2023-08-15 18:11:27.408000,-3.6024096385542173,4.783132530120482,-0.9759036144578314,4.97608828939301,-3.2918454935622314,-0.31882280809319435,2.0,1.6388278388278386,610.1922217255253,-66.82978847386516,65.65747916788067,-72.40347299108443,1817.5824175824175,-1.0,-1.0,1.6429251636676825,
2023-08-15 18:11:27.416000,-3.8192771084337354,4.9156626506024095,-0.42168674698795183,5.228694052728387,-3.6842427958307784,0.21091354996934394,2.0,1.6388278388278386,610.1922217255253,-67.80688771050639,53.03152496940738,-77.12103024299283,1876.1904761904761,-1.0,-1.0,1.6429347474570413,
2023-08-15 18:11:27.423000,-4.265060240963856,5.096385542168675,0.16867469879518074,5.45677498467198,-4.3660331085223785,0.8019619865113427,2.0,1.6373626373626373,610.738255033557,-70.26490297768196,36.66511275566692,-77.45690810558825,1848.3516483516482,-1.0,-1.0,1.642944285687216,
2023-08-15 18:11:27.431000,-4.855421686746988,5.0843373493975905,0.6265060240963856,5.3292458614347025,-4.871244635193133,1.1771919068056407,2.0,1.6373626373626373,610.738255033557,-72.8603228250102,24.573509702231803,-74.02179360177146,1745.7875457875457,-1.0,-1.0,1.642953770373726,
2023-08-15 18:11:27.439000,-5.493975903614458,4.9156626506024095,0.7951807228915663,5.164929491109748,-5.467198038013488,1.2507664009809931,2.0,1.6373626373626373,610.738255033557,-76.44810908455219,16.11549443505623,-73.62484703688597,1583.150183150183,-1.0,-1.0,1.6429631905611564,
2023-08-15 18:11:27.446000,-6.1325301204819285,4.855421686746988,0.674698795180723,5.079092581238504,-6.036174126302881,0.9908031882280809,2.0,1.635897435897436,611.2852664576802,-80.5397121379873,5.9322883281860035,-76.64774780024474,1384.6153846153845,-1.0,-1.0,1.6429725332329526,
2023-08-15 18:11:27.454000,-6.686746987951808,4.891566265060241,0.43373493975903615,5.128142244022072,-6.5144083384426725,0.8093194359288779,2.0,1.6373626373626373,610.738255033557,-85.7458190082163,-6.434123885554454,-80.92255696055008,1188.278388278388,-1.0,-1.0,1.6429817827848838,
2023-08-15 18:11:27.462000,-7.0120481927710845,5.0361445783132535,0.16867469879518074,5.233599019006744,-6.75229920294298,0.5346413243408952,2.0,1.6373626373626373,610.738255033557,-89.1045976341705,-19.838704038226208,-86.60194627352718,1032.967032967033,-1.0,-1.0,1.6429909218768108,
2023-08-15 18:11:27.469000,-7.120481927710844,5.072289156626506,-0.060240963855421686,5.334150827713059,-6.740036787247087,0.26486817903126914,2.0,1.635897435897436,611.2852664576802,-91.85268923722394,-33.579162053493384,-94.98362566284015,957.5091575091575,-1.0,-1.0,1.6429999314131487,
2023-08-15 18:11:27.477000,-7.072289156626506,4.9879518072289155,-0.20481927710843376,5.169834457388105,-6.820968730839975,0.22808093194359289,2.0,1.635897435897436,611.2852664576802,-95.501544199056,-46.43412388555445,-103.47217528116077,976.5567765567765,-1.0,-1.0,1.6430087891596994,
2023-08-15 18:11:27.485000,-7.0843373493975905,4.879518072289157,-0.1927710843373494,5.106069895769466,-6.911710606989576,0.35561005518087063,2.0,1.635897435897436,611.2852664576802,-97.99009381737662,-58.876871977157506,-108.83095390711496,1095.970695970696,-1.0,-1.0,1.6430174701603582,
2023-08-15 18:11:27.492000,-7.19277108433735,4.903614457831326,0.04819277108433735,5.137952176578786,-7.149601471489883,0.6474555487431024,2.0,1.635897435897436,611.2852664576802,-98.66184954256745,-70.92267350387506,-110.60194627352718,1301.8315018315018,-1.0,-1.0,1.6430259471943254,
2023-08-15 18:11:27.500000,-7.325301204819278,5.0602409638554215,0.46987951807228917,5.400367872470876,-7.473329245861434,1.1404046597179645,2.0,1.635897435897436,611.2852664576802,-99.51681137462852,-78.66313151914223,-107.59431268574092,1573.6263736263736,-1.0,-1.0,1.6430341907838006,
2023-08-15 18:11:27.508000,-7.542168674698796,5.168674698795181,0.9156626506024097,5.3439607602697725,-7.730839975475168,1.5328019619865112,2.0,1.635897435897436,611.2852664576802,-99.99009381737662,-85.25855136647047,-100.64774780024474,1890.8424908424906,-1.0,-1.0,1.643042169210272,
2023-08-15 18:11:27.515000,-7.759036144578314,5.168674698795181,1.2650602409638554,5.417535254445125,-8.000613120784795,1.8614347026364193,2.0,1.6373626373626373,610.738255033557,-100.87559000058272,-90.44939106112696,-91.35003787658061,2221.2454212454213,-1.0,-1.0,1.643049848539679,
2023-08-15 18:11:27.523000,-8.012048192771084,5.120481927710844,1.4698795180722892,5.290006131207847,-8.106069895769465,2.089515634580012,2.0,1.6373626373626373,610.738255033557,-100.69238389371249,-90.12878037410407,-82.87675543383253,2540.6593406593406,-1.0,-1.0,1.6430571931492735,
2023-08-15 18:11:27.530000,-8.204819277108435,5.072289156626506,1.5783132530120483,5.3439607602697725,-8.20907418761496,2.0748007357449416,2.0,1.6373626373626373,610.738255033557,-102.18856709981937,-90.05244449624146,-78.98362566284015,2805.128205128205,-1.0,-1.0,1.6430641658432368,
2023-08-15 18:11:27.538000,-8.289156626506024,5.0602409638554215,1.5542168674698795,5.31698344573881,-8.280196198651133,2.0208461066830163,2.0,1.6373626373626373,610.738255033557,-104.23436862653692,-94.35778800769185,-78.0523279529165,2806.5934065934066,-1.0,-1.0,1.643070727453131,
2023-08-15 18:11:27.546000,-8.25301204819277,5.144578313253012,1.5542168674698795,5.397915389331698,-8.22378908645003,2.0159411404046597,2.0,1.635897435897436,611.2852664576802,-106.00536099294914,-100.34252083211933,-78.86148825826001,2805.8608058608056,-1.0,-1.0,1.6430768364483943,
2023-08-15 18:11:27.553000,-8.204819277108435,5.265060240963856,1.5783132530120483,5.542611894543224,-8.22378908645003,2.190067443286327,2.0,1.6373626373626373,610.738255033557,-106.24963580210944,-107.64023075578345,-78.64774780024474,2805.128205128205,-1.0,-1.0,1.6430824490472182,
2023-08-15 18:11:27.561000,-8.19277108433735,5.397590361445784,1.746987951807229,5.635806253832005,-8.294911097486205,2.381361128142244,2.0,1.6373626373626373,610.738255033557,-106.06642969523921,-114.28145212982925,-75.04469436513024,2805.8608058608056,-1.0,-1.0,1.6430875201465882,
2023-08-15 18:11:27.569000,-8.168674698795181,5.385542168674699,2.072289156626506,5.630901287553648,-8.321888412017167,2.7664009809932555,2.0,1.6373626373626373,610.738255033557,-104.58551366470486,-116.49519258784451,-69.45690810558825,2805.128205128205,-1.0,-1.0,1.643092002995256,
2023-08-15 18:11:27.576000,-8.048192771084338,5.289156626506024,2.4819277108433737,5.569589209074187,-8.047210300429184,3.180870631514408,2.0,1.6373626373626373,610.738255033557,-103.37940679447586,-114.11351319853154,-64.90728978497756,2805.128205128205,-1.0,-1.0,1.6430958489113163,
2023-08-15 18:11:27.584000,-7.903614457831326,5.168674698795181,2.855421686746988,5.429797670141017,-7.946658491722869,3.475168608215818,2.0,1.6373626373626373,610.738255033557,-103.37940679447586,-114.11351319853154,-64.90728978497756,2805.128205128205,-1.0,-1.0,1.6430990078884071,
2023-08-15 18:11:27.592000,-7.903614457831326,5.132530120481928,3.204819277108434,5.341508277130594,-8.0226854690374,3.818516247700797,2.0,1.6373626373626373,610.738255033557,-102.98246022959036,-107.64023075578345,-62.44927451780199,2805.8608058608056,-1.0,-1.0,1.6431014287192578,
2023-08-15 18:11:27.599000,-8.036144578313253,5.1084337349397595,3.5542168674698797,5.417535254445125,-8.191906805640711,4.306560392397302,2.0,1.6373626373626373,610.738255033557,-102.1427655731018,-99.686032282501,-58.38820581551192,2763.369963369963,-1.0,-1.0,1.6431030591289681,
2023-08-15 18:11:27.607000,-8.289156626506024,4.9879518072289155,4.0,5.133047210300429,-8.41017780502759,4.667075413856529,2.0,1.6373626373626373,610.738255033557,-98.35650603111706,-87.27381854204299,-53.15156459413787,2641.7582417582416,-1.0,-1.0,1.643103845917658,
2023-08-15 18:11:27.615000,-8.578313253012048,4.819277108433735,4.289156626506024,5.103617412630288,-8.697118332311465,4.9147762109135495,2.0,1.6373626373626373,610.738255033557,-95.24200221432318,-79.45702464891322,-48.49507604451955,2482.7838827838827,-1.0,-1.0,1.6431037346541923,
2023-08-15 18:11:27.622000,-8.927710843373495,4.72289156626506,4.55421686746988,5.010423053341508,-9.15328019619865,5.258123850398528,2.0,1.6373626373626373,610.738255033557,-95.1809335120331,-77.09061243517276,-47.579045510168406,2307.6923076923076,-1.0,-1.0,1.6431026699035203,
2023-08-15 18:11:27.630000,-9.180722891566266,4.55421686746988,4.819277108433735,4.782342121397915,-9.342121397915388,5.459227467811158,2.0,1.6373626373626373,610.738255033557,-94.47864343569722,-77.686032282501,-45.28896917429054,2130.4029304029305,-1.0,-1.0,1.64310059634095,
2023-08-15 18:11:27.638000,-9.289156626506024,4.301204819277109,4.83132530120482,4.473329245861435,-9.381361128142244,5.439607602697731,2.0,1.6373626373626373,610.738255033557,-91.76108618378883,-76.26618495425673,-43.28896917429054,1958.2417582417581,-1.0,-1.0,1.6430974583987783,
2023-08-15 18:11:27.645000,-9.313253012048193,4.024096385542169,4.771084337349397,4.2182709993868786,-9.398528510116492,5.326793378295524,2.0,1.6373626373626373,610.738255033557,-87.53207855020104,-70.05244449624146,-41.85385467047375,1799.2673992673992,-1.0,-1.0,1.643093200482184,
2023-08-15 18:11:27.653000,-9.144578313253012,3.891566265060241,4.674698795180723,4.171673819742489,-9.18761496014715,5.3071735131820965,2.0,1.6373626373626373,610.738255033557,-85.88322358836898,-68.93794067944758,-41.19736612085543,1653.4798534798533,-1.0,-1.0,1.643087767121949,
2023-08-15 18:11:27.661000,-8.783132530120483,3.8313253012048194,4.626506024096386,4.083384426732066,-8.836909871244634,5.324340895156346,2.0,1.6373626373626373,610.738255033557,-84.1427655731018,-69.64023075578345,-42.00652642619894,1516.4835164835163,-1.0,-1.0,1.6430811027444685,
2023-08-15 18:11:27.668000,-8.409638554216867,3.734939759036145,4.83132530120482,3.9803801348865724,-8.297363580625383,5.518087063151441,2.0,1.6373626373626373,610.738255033557,-78.52444496241478,-65.10587961074529,-39.9759920750539,1389.7435897435896,-1.0,-1.0,1.6430731528179419,
2023-08-15 18:11:27.676000,-8.084337349397591,3.626506024096386,4.9879518072289155,3.8994481912936845,-8.034947884733292,5.75107296137339,2.0,1.6373626373626373,610.738255033557,-73.31833809218577,-58.2356506031117,-37.533243983450845,1273.9926739926739,-1.0,-1.0,1.6430638635272272,
2023-08-15 18:11:27.684000,-7.9397590361445785,3.5060240963855422,5.096385542168675,3.6983445738810543,-8.064377682403434,5.935009196811771,2.0,1.6373626373626373,610.738255033557,-69.15039916088807,-51.73183380921857,-36.266068410931766,1172.161172161172,-1.0,-1.0,1.6430531815561822,
2023-08-15 18:11:27.691000,-7.975903614457832,3.4819277108433737,5.156626506024097,3.7106069895769465,-7.97608828939301,5.920294297976701,2.0,1.6373626373626373,610.738255033557,-63.501544199056006,-45.41122312219567,-35.93019054833634,1089.3772893772893,-1.0,-1.0,1.643041054785704,
2023-08-15 18:11:27.699000,-8.036144578313253,3.698795180722892,5.433734939759036,4.019619865113427,-8.039852851011648,6.275904353157571,2.0,1.6373626373626373,610.738255033557,-56.32597167997203,-35.64023075578346,-36.2966027620768,1025.6410256410256,-1.0,-1.0,1.6430274325007552,
2023-08-15 18:11:27.707000,-8.0,4.0843373493975905,6.120481927710844,4.551808706315144,-8.103617412630287,7.0680564071122,2.0,1.6373626373626373,610.738255033557,-50.49391061126974,-28.082978847386514,-36.49507604451955,989.7435897435897,-1.0,-1.0,1.643012266055942,
2023-08-15 18:11:27.714000,-8.240963855421688,4.301204819277109,7.0120481927710845,4.6400980993255665,-8.446965052115265,7.992642550582464,2.0,1.6373626373626373,610.738255033557,-47.92902511508653,-25.33488724433308,-34.96835848726764,982.4175824175824,-1.0,-1.0,1.642995509015687,
2023-08-15 18:11:27.722000,-8.686746987951807,4.27710843373494,7.72289156626506,4.605763335377069,-8.84181483752299,8.456161863887186,2.0,1.6373626373626373,610.738255033557,-46.93665870287279,-23.762368160363614,-34.06759512848902,999.2673992673992,-1.0,-1.0,1.6429771168719893,
2023-08-15 18:11:27.730000,-9.060240963855422,4.265060240963856,8.036144578313253,4.62047823421214,-9.175352544451256,8.779889638258737,2.0,1.6373626373626373,610.738255033557,-46.02062816852165,-19.28908571761552,-36.20499970864169,1031.5018315018315,-1.0,-1.0,1.642957047251931,
2023-08-15 18:11:27.737000,-9.481927710843374,4.493975903614458,8.072289156626507,4.954015941140405,-9.736971183323114,8.909871244635193,2.0,1.6373626373626373,610.738255033557,-41.715284657071265,-16.189849076394147,-40.342404288794356,1073.260073260073,-1.0,-1.0,1.6429352601212304,
2023-08-15 18:11:27.745000,-9.819277108433736,4.951807228915663,8.204819277108435,5.427345187001839,-10.124463519313304,9.19435928877989,2.0,1.6373626373626373,610.738255033557,-32.82978847386516,-11.212749839752927,-42.12866383077909,1120.14652014652,-1.0,-1.0,1.6429117179828554,
2023-08-15 18:11:27.753000,-10.060240963855422,5.289156626506024,8.3855421686747,5.630901287553648,-10.34763948497854,9.321888412017167,2.0,1.6373626373626373,610.738255033557,-20.50917778684226,-4.403589534409416,-40.403472991084435,1166.3003663003662,-1.0,-1.0,1.6428863860696972,
2023-08-15 18:11:27.760000,-10.072289156626507,4.867469879518072,8.25301204819277,4.988350705088902,-10.234825260576333,8.897608828939301,2.0,1.6388278388278386,610.1922217255253,-10.432841908979663,3.0162577938348587,-39.38057222772566,1208.058608058608,-1.0,-1.0,1.642859232072465,
2023-08-15 18:11:27.768000,-9.879518072289157,4.0843373493975905,7.891566265060241,4.161863887185775,-10.065603923973022,8.500306560392398,2.0,1.6388278388278386,610.1922217255253,-5.730551832643785,12.558242526659285,-39.80805314375619,1242.4908424908424,-1.0,-1.0,1.6428302268775226,
2023-08-15 18:11:27.776000,-9.493975903614459,3.5903614457831328,7.060240963855422,3.818516247700797,-9.63396689147762,7.502145922746781,2.0,1.6388278388278386,610.1922217255253,-0.0816968708117243,15.504807412155468,-36.51034322009207,1264.4688644688645,-1.0,-1.0,1.6427993452965872,
2023-08-15 18:11:27.783000,-8.975903614457831,3.240963855421687,5.855421686746988,3.531575720416922,-9.052728387492335,6.236664622930717,2.0,1.6388278388278386,610.1922217255253,5.154944350562321,9.626944816735621,-31.136297418565352,1272.5274725274724,-1.0,-1.0,1.6427665662281337,
2023-08-15 18:11:27.791000,-8.44578313253012,3.144578313253012,4.542168674698796,3.4285714285714284,-8.373390557939913,4.922133660331085,2.0,1.64029304029304,609.647163912461,10.605326029951634,1.229998251850126,-28.220266884214208,1265.9340659340658,-1.0,-1.0,1.6427318727422924,
2023-08-15 18:11:27.799000,-7.819277108433735,3.180722891566265,3.6867469879518073,3.502145922746781,-7.613120784794604,4.198651134273452,2.0,1.64029304029304,609.647163912461,16.66639473224171,3.947555503758523,-27.45690810558825,1243.956043956044,-1.0,-1.0,1.642695251769336,
