Shimmer_F5D4_Timestamp_FormattedUnix_CAL,Shimmer_F5D4_Accel_LN_X_CAL,Shimmer_F5D4_Accel_LN_Y_CAL,Shimmer_F5D4_Accel_LN_Z_CAL,Shimmer_F5D4_Accel_WR_X_CAL,Shimmer_F5D4_Accel_WR_Y_CAL,Shimmer_F5D4_Accel_WR_Z_CAL,Shimmer_F5D4_GSR_Range_CAL,Shimmer_F5D4_GSR_Skin_Conductance_CAL,Shimmer_F5D4_GSR_Skin_Resistance_CAL,Shimmer_F5D4_Gyro_X_CAL,Shimmer_F5D4_Gyro_Y_CAL,Shimmer_F5D4_Gyro_Z_CAL,Shimmer_F5D4_PPG_A13_CAL,Shimmer_F5D4_PPG_IBI_CAL,Shimmer_F5D4_PPGtoHR_CAL,Shimmer_F5D4_GSR_Skin_Conductance_LPF_CAL,
yyyy/mm/dd hh:mm:ss.000,m/(s^2),m/(s^2),m/(s^2),m/(s^2),m/(s^2),m/(s^2),no_units,uS,kOhms,deg/s,deg/s,deg/s,mV,ms,BPM,uS,
2023-08-10 17:18:11.647000,8.409638554216867,1.5903614457831325,-5.0120481927710845,1.753525444512569,9.056407112201104,-4.377682403433476,2.0,2.3494505494505495,425.6314312441534,0.11269739525668582,-0.5244449624147777,-0.26140667793252126,1285.7142857142856,-1.0,70.56745989016905,2.3512497810837036,
2023-08-10 17:18:11.655000,8.3855421686747,1.5903614457831325,-5.024096385542169,1.765787860208461,9.071122011036174,-4.421827099938688,2.0,2.3494505494505495,425.6314312441534,-0.23833109958627052,-0.21409008799020968,-0.21409008799021054,1272.5274725274724,-1.0,70.56745989016905,2.35123216949106,
2023-08-10 17:18:11.663000,8.397590361445783,1.6144578313253013,-5.0120481927710845,1.7339055793991416,9.02942979767014,-4.461066830165542,2.0,2.3494505494505495,425.6314312441534,-0.37270555328943533,0.36711147369034475,-0.3334304527708175,1263.7362637362637,-1.0,70.56745989016905,2.3512145178317128,
2023-08-10 17:18:11.670000,8.421686746987952,1.6144578313253013,-4.975903614457832,1.8221949724095645,9.04659717964439,-4.438994481912936,2.0,2.3494505494505495,425.6314312441534,0.012353592447992964,0.2865800361284305,0.020278538546704597,1257.142857142857,-1.0,70.56745989016905,2.3511968253145774,
2023-08-10 17:18:11.678000,8.397590361445783,1.5903614457831325,-4.9879518072289155,1.7952176578786019,9.012262415695892,-4.362967504598406,2.0,2.3494505494505495,425.6314312441534,0.3345958860206289,0.1305285239787885,-0.298350911951518,1252.014652014652,-1.0,70.56745989016905,2.351179090953803,
2023-08-10 17:18:11.686000,8.397590361445783,1.602409638554217,-4.963855421686747,1.765787860208461,9.039239730226853,-4.421827099938688,2.0,2.3494505494505495,425.6314312441534,-0.09346774663481136,0.48132393217178493,-0.26455334770700994,1248.3516483516482,-1.0,70.56745989016905,2.351161313119447,
2023-08-10 17:18:11.693000,8.409638554216867,1.6144578313253013,-5.0,1.7461679950950337,9.103004291845494,-4.407112201103617,2.0,2.3494505494505495,425.6314312441534,-0.2898432492279009,0.09544898315948905,-0.44437969815278816,1248.3516483516482,-1.0,70.56745989016905,2.3511434900725092,
2023-08-10 17:18:11.701000,8.409638554216867,1.6144578313253013,-5.0,1.8050275904353157,9.100551808706316,-4.380134886572654,2.0,2.3494505494505495,425.6314312441534,-0.13425791037818222,0.0621175922149056,-0.18145795699551298,1251.2820512820513,-1.0,70.56745989016905,2.351125620397311,
2023-08-10 17:18:11.708000,8.397590361445783,1.602409638554217,-5.0120481927710845,1.8687921520539545,9.068669527896995,-4.389944819129369,2.0,2.3494505494505495,425.6314312441534,0.01969582192179955,-0.014684458947613166,-0.13355865042829676,1253.4798534798533,-1.0,70.56745989016905,2.3511077020641755,
2023-08-10 17:18:11.716000,8.421686746987952,1.602409638554217,-4.9879518072289155,1.7216431637032494,9.159411404046597,-4.404659717964439,2.0,2.3479853479853485,425.8970358814352,0.31175339432433985,-0.07726822446244384,0.14241594312685726,1255.6776556776556,-1.0,70.56745989016905,2.3510897329691,
2023-08-10 17:18:11.724000,8.409638554216867,1.5903614457831325,-4.9879518072289155,1.8516247700797055,9.083384426732065,-4.382587369711833,2.0,2.3494505494505495,425.6314312441534,0.18949944641920632,-0.002214323174639364,-0.22364664063865736,1260.8058608058607,-1.0,70.56745989016905,2.351071710878004,
2023-08-10 17:18:11.731000,8.409638554216867,1.602409638554217,-5.0120481927710845,1.7903126916002452,9.103004291845494,-4.404659717964439,2.0,2.3494505494505495,425.6314312441534,0.03682769069401549,-0.3383252724200226,-0.19136413961890317,1265.2014652014652,-1.0,70.56745989016905,2.3510536333722194,
2023-08-10 17:18:11.739000,8.409638554216867,1.5903614457831325,-5.0,1.765787860208461,9.083384426732065,-4.443899448191293,2.0,2.3479853479853485,425.8970358814352,0.3265543965969356,0.366412213740458,0.22236466406386554,1270.3296703296703,-1.0,70.56745989016905,2.3510354979339416,
2023-08-10 17:18:11.747000,8.421686746987952,1.6144578313253013,-5.0120481927710845,1.748620478234212,9.041692213366032,-4.421827099938688,2.0,2.3494505494505495,425.6314312441534,0.15605151214964202,0.21082687489074106,0.06806130178893997,1276.1904761904761,-1.0,70.56745989016905,2.351017301998001,
2023-08-10 17:18:11.754000,8.421686746987952,1.6144578313253013,-4.9879518072289155,1.7682403433476395,9.053954629061925,-4.389944819129369,2.0,2.3479853479853485,425.8970358814352,0.20173649554221845,0.08577588718606226,0.31396771749898006,1280.5860805860805,-1.0,70.56745989016905,2.3509990437465684,
2023-08-10 17:18:11.762000,8.397590361445783,1.6144578313253013,-4.975903614457832,1.7878602084610666,9.036787247087675,-4.441446965052115,2.0,2.3494505494505495,425.6314312441534,-0.028902744595302985,-0.07272303478818254,0.3435697220441698,1283.5164835164835,-1.0,70.56745989016905,2.3509807207240248,
2023-08-10 17:18:11.770000,8.421686746987952,1.5783132530120483,-5.0,1.8221949724095645,9.073574494175352,-4.389944819129369,2.0,2.3494505494505495,425.6314312441534,0.08146378416176263,0.23250393333721828,0.3560398578171436,1286.4468864468863,-1.0,70.56745989016905,2.350962329892696,
2023-08-10 17:18:11.777000,8.433734939759036,1.5783132530120483,-5.0,1.7878602084610666,9.093194359288779,-4.394849785407725,2.0,2.3494505494505495,425.6314312441534,0.09649787308431831,-0.24345900588543773,0.506613833692675,1284.9816849816848,-1.0,70.56745989016905,2.350943868671732,
2023-08-10 17:18:11.785000,8.397590361445783,1.5783132530120483,-4.9879518072289155,1.7388105456774983,9.103004291845494,-4.453709380748007,2.0,2.3494505494505495,425.6314312441534,-0.02540644484587095,-0.13379173707825887,0.36524678049064746,1284.2490842490843,-1.0,70.56745989016905,2.350925334043193,
2023-08-10 17:18:11.793000,8.397590361445783,1.5542168674698795,-5.0120481927710845,1.7854077253218883,9.093194359288779,-4.421827099938688,2.0,2.3494505494505495,425.6314312441534,0.005943709574034809,-0.025289901520890112,0.07283957811316338,1283.5164835164835,-1.0,70.56745989016905,2.350906723099652,
2023-08-10 17:18:11.800000,8.3855421686747,1.5903614457831325,-5.0120481927710845,1.8221949724095645,9.103004291845494,-4.456161863887186,2.0,2.3494505494505495,425.6314312441534,-0.008973836023541765,-0.26653458423168847,0.2868131227783931,1282.7838827838827,-1.0,70.56745989016905,2.3508880334883373,
2023-08-10 17:18:11.808000,8.421686746987952,1.5903614457831325,-4.9879518072289155,1.778050275904353,9.100551808706316,-4.416922133660331,2.0,2.3494505494505495,425.6314312441534,-0.19287920284365753,0.11642678165608127,0.19521006934327859,1284.2490842490843,-1.0,70.56745989016905,2.3508692629426235,
2023-08-10 17:18:11.816000,8.409638554216867,1.5783132530120483,-4.9879518072289155,1.812385039852851,9.117719190680564,-4.431637032495401,2.0,2.3494505494505495,425.6314312441534,-0.068877105063808,0.2537148184837722,-0.07831711438727354,1284.2490842490843,-1.0,70.56745989016905,2.350850409306523,
2023-08-10 17:18:11.823000,8.409638554216867,1.5783132530120483,-5.0,1.748620478234212,9.02942979767014,-4.414469650521152,2.0,2.3494505494505495,425.6314312441534,0.06957636501369302,0.19159722626886486,0.412097197133034,1284.9816849816848,-1.0,70.56745989016905,2.350831470101575,
2023-08-10 17:18:11.831000,8.397590361445783,1.602409638554217,-5.0,1.7633353770692826,9.017167381974248,-4.441446965052115,2.0,2.3494505494505495,425.6314312441534,-0.26583532428180173,0.02191014509643891,0.5333022551133382,1284.2490842490843,-1.0,70.56745989016905,2.350812443076853,
2023-08-10 17:18:11.839000,8.421686746987952,1.5783132530120483,-5.0,1.7412630288166768,9.098099325567135,-4.394849785407725,2.0,2.3494505494505495,425.6314312441534,-0.26303828448225647,0.024241011596060846,0.530738301963755,1282.051282051282,-1.0,70.56745989016905,2.3507933266549994,
2023-08-10 17:18:11.846000,8.397590361445783,1.5783132530120483,-5.0120481927710845,1.7608828939301042,9.103004291845494,-4.465971796443899,2.0,2.3494505494505495,425.6314312441534,-0.1719014043470653,0.28110249985432084,0.02470718489598506,1279.8534798534797,-1.0,70.56745989016905,2.350774119464986,
2023-08-10 17:18:11.854000,8.409638554216867,1.5783132530120483,-5.0361445783132535,1.753525444512569,9.066217044757817,-4.409564684242795,2.0,2.3494505494505495,425.6314312441534,0.058388205815511886,-0.07074179826350485,0.34566750189382917,1277.6556776556777,-1.0,70.56745989016905,2.350754820367331,
2023-08-10 17:18:11.862000,8.409638554216867,1.5783132530120483,-5.0,1.7461679950950337,9.073574494175352,-4.416922133660331,2.0,2.3494505494505495,425.6314312441534,-0.06258376551483068,-0.10104306275858134,0.12878037410407336,1274.7252747252746,-1.0,70.56745989016905,2.3507354284789383,
2023-08-10 17:18:11.869000,8.421686746987952,1.602409638554217,-5.024096385542169,1.7290006131207847,9.066217044757817,-4.416922133660331,2.0,2.3494505494505495,425.6314312441534,-0.06176796223996309,-0.12936309072897842,0.3715401200396248,1275.4578754578754,-1.0,70.56745989016905,2.3507159431974336,
2023-08-10 17:18:11.877000,8.421686746987952,1.5783132530120483,-4.9879518072289155,1.7339055793991416,9.063764561618639,-4.441446965052115,2.0,2.3479853479853485,425.8970358814352,0.02960200454518974,-0.2368160363615179,0.015849892197424133,1277.6556776556777,-1.0,70.56745989016905,2.3506963642248713,
2023-08-10 17:18:11.885000,8.409638554216867,1.5783132530120483,-5.0120481927710845,1.6922133660331085,9.063764561618639,-4.416922133660331,2.0,2.3494505494505495,425.6314312441534,-0.2453236990851346,0.06841093176388291,-0.0926519433599442,1278.3882783882782,-1.0,70.56745989016905,2.350676691098002,
2023-08-10 17:18:11.892000,8.409638554216867,1.5903614457831325,-5.0120481927710845,1.7339055793991416,9.071122011036174,-4.43408951563458,2.0,2.3494505494505495,425.6314312441534,-0.03135015441990576,0.31012178777460464,0.2136239146902859,1277.6556776556777,-1.0,70.56745989016905,2.35065692363079,
2023-08-10 17:18:11.900000,8.397590361445783,1.5783132530120483,-5.0,1.7388105456774983,9.071122011036174,-4.426732066217045,2.0,2.3479853479853485,425.8970358814352,0.12073888468037916,0.1355398869529749,0.2096614416409301,1274.7252747252746,-1.0,70.56745989016905,2.3506370629177833,
2023-08-10 17:18:11.908000,8.373493975903616,1.566265060240964,-5.0,1.73635806253832,9.002452483139178,-4.416922133660331,2.0,2.3494505494505495,425.6314312441534,0.10314084260823987,0.008740749373580091,-0.06759512848901576,1272.5274725274724,-1.0,70.56745989016905,2.3506171098777044,
2023-08-10 17:18:11.915000,8.409638554216867,1.5783132530120483,-5.0120481927710845,1.706928264868179,9.039239730226853,-4.392397302268547,2.0,2.3494505494505495,425.6314312441534,0.242759745935551,0.037760037293863916,0.25161703863411233,1271.062271062271,-1.0,70.56745989016905,2.3505970652708084,
2023-08-10 17:18:11.923000,8.44578313253012,1.566265060240964,-5.0,1.7510729613733904,9.04659717964439,-4.404659717964439,2.0,2.3494505494505495,425.6314312441534,-0.06363265543965994,-0.49495950119456883,0.2314550434123886,1271.7948717948716,-1.0,70.56745989016905,2.3505769307320366,
2023-08-10 17:18:11.931000,8.421686746987952,1.5783132530120483,-4.9879518072289155,1.7388105456774983,9.103004291845494,-4.362967504598406,2.0,2.3494505494505495,425.6314312441534,0.13169395722860036,-0.22807528698793783,-0.1989394557426723,1276.1904761904761,-1.0,70.56745989016905,2.3505567083270873,
2023-08-10 17:18:11.938000,8.433734939759036,1.5903614457831325,-5.0120481927710845,1.7927651747394235,9.078479460453709,-4.463519313304721,2.0,2.3479853479853485,425.8970358814352,0.221432317464018,-0.37538604976399975,0.015267175572519083,1278.3882783882782,-1.0,70.56745989016905,2.350536400564821,
2023-08-10 17:18:11.946000,8.421686746987952,1.5783132530120483,-5.0,1.7461679950950337,9.125076640098099,-4.40220723482526,2.0,2.3494505494505495,425.6314312441534,-0.1466115028261752,-0.26432026105704737,0.06165141891498138,1280.5860805860805,-1.0,70.56745989016905,2.3505160099154163,
2023-08-10 17:18:11.954000,8.397590361445783,1.5783132530120483,-5.0120481927710845,1.7461679950950337,9.063764561618639,-4.41937461679951,2.0,2.3494505494505495,425.6314312441534,-0.038575840568731506,-0.184954256744945,0.10850183555736834,1283.5164835164835,-1.0,70.56745989016905,2.350495539240001,
2023-08-10 17:18:11.961000,8.421686746987952,1.5903614457831325,-5.0,1.78295524218271,9.100551808706316,-4.43408951563458,2.0,2.3479853479853485,425.8970358814352,0.12959617737894008,0.10733640230755867,0.38284482256278807,1284.9816849816848,-1.0,70.56745989016905,2.3504749923225616,
2023-08-10 17:18:11.969000,8.397590361445783,1.566265060240964,-4.9879518072289155,1.7682403433476395,9.125076640098099,-4.380134886572654,2.0,2.3494505494505495,425.6314312441534,-0.06782821513897873,-0.18402191014509658,0.21420663131519138,1285.7142857142856,-1.0,70.56745989016905,2.3504543729244487,
2023-08-10 17:18:11.977000,8.409638554216867,1.566265060240964,-4.9879518072289155,1.7510729613733904,9.105456774984672,-4.397302268546904,2.0,2.3479853479853485,425.8970358814352,-0.12714876755433904,-0.39717965153545787,0.33576131927043856,1284.9816849816848,-1.0,70.56745989016905,2.3504336852080607,
2023-08-10 17:18:11.984000,8.397590361445783,1.5903614457831325,-5.024096385542169,1.7682403433476395,9.058859595340282,-4.448804414469651,2.0,2.3494505494505495,425.6314312441534,-0.07773439776236893,-0.4524211875764819,-0.09428354990967895,1282.7838827838827,-1.0,70.56745989016905,2.3504129337700745,
2023-08-10 17:18:11.992000,8.397590361445783,1.5783132530120483,-5.024096385542169,1.7633353770692826,9.105456774984672,-4.505211526670754,2.0,2.3479853479853485,425.8970358814352,-0.07470427131286024,-0.6160480158498922,-0.15768311869937635,1280.5860805860805,-1.0,70.56745989016905,2.350392123602964,
2023-08-10 17:18:12,8.409638554216867,1.5783132530120483,-5.024096385542169,1.7510729613733904,9.051502145922747,-4.475781729000613,2.0,2.3479853479853485,425.8970358814352,-0.11794184488083388,-0.19975525901753902,0.03904201386865572,1276.923076923077,-1.0,70.56745989016905,2.3503712601238975,
2023-08-10 17:18:12.007000,8.397590361445783,1.5783132530120483,-5.0361445783132535,1.8099325567136726,9.083384426732065,-4.409564684242795,2.0,2.3479853479853485,425.8970358814352,-0.22213157741390302,-0.3038284482256273,-0.35848726764174593,1273.9926739926739,903.86962890625,66.38125464244716,2.350350348639301,
2023-08-10 17:18:12.015000,8.3855421686747,1.5903614457831325,-5.0,1.7265481299816063,9.051502145922747,-4.448804414469651,2.0,2.3479853479853485,425.8970358814352,-0.12959617737894008,-0.5453062175863874,-0.45055649437678463,1271.062271062271,-1.0,66.38125464244716,2.3503293947899597,
2023-08-10 17:18:12.023000,8.3855421686747,1.5903614457831325,-5.0120481927710845,1.731453096259963,9.012262415695892,-4.461066830165542,2.0,2.3479853479853485,425.8970358814352,0.17598042072140324,-0.4490414311520307,-0.4197890565817844,1266.6666666666665,-1.0,66.38125464244716,2.3503084045358733,
2023-08-10 17:18:12.030000,8.3855421686747,1.602409638554217,-5.0120481927710845,1.753525444512569,9.039239730226853,-4.446351931330472,2.0,2.3479853479853485,425.8970358814352,-0.17737894062117676,-0.5972845405279411,-0.48120738884680364,1263.003663003663,-1.0,66.38125464244716,2.3502873841387752,
2023-08-10 17:18:12.038000,8.3855421686747,1.5903614457831325,-5.024096385542169,1.778050275904353,9.07602697731453,-4.443899448191293,2.0,2.3494505494505495,425.6314312441534,-0.07050871161354318,-0.6197774022492859,-0.25208321193403654,1263.003663003663,-1.0,66.38125464244716,2.350266340142399,
2023-08-10 17:18:12.046000,8.3855421686747,1.602409638554217,-5.0120481927710845,1.7510729613733904,9.06131207847946,-4.483139178418148,2.0,2.3479853479853485,425.8970358814352,0.18763475321950945,-0.6902861138628291,0.06736204183905366,1264.4688644688645,-1.0,66.38125464244716,2.350245279843252,
2023-08-10 17:18:12.053000,8.397590361445783,1.5903614457831325,-5.0120481927710845,1.7927651747394235,9.058859595340282,-4.429184549356223,2.0,2.3479853479853485,425.8970358814352,2.3308664996167294E-4,-0.6377250742963695,0.21758638773964215,1274.7252747252746,-1.0,66.38125464244716,2.350224211304063,
2023-08-10 17:18:12.061000,8.421686746987952,1.602409638554217,-5.0361445783132535,1.765787860208461,9.019619865113427,-4.443899448191293,2.0,2.3479853479853485,425.8970358814352,0.3372763824951933,-0.2966027620768016,0.41267991375793944,1292.3076923076922,-1.0,66.38125464244716,2.3502031427361656,
2023-08-10 17:18:12.069000,8.397590361445783,1.5903614457831325,-5.0602409638554215,1.7682403433476395,8.995095033721643,-4.441446965052115,2.0,2.3479853479853485,425.8970358814352,-0.09509935318454654,0.02738768137054864,0.6964629100868247,1317.216117216117,-1.0,66.38125464244716,2.3501820819840518,
2023-08-10 17:18:12.076000,8.3855421686747,1.5783132530120483,-5.0120481927710845,1.7682403433476395,9.036787247087675,-4.436541998773758,2.0,2.3479853479853485,425.8970358814352,-0.03577880076918622,0.4563836606258373,0.46046267700017485,1350.9157509157508,-1.0,66.38125464244716,2.350161037025398,
2023-08-10 17:18:12.084000,8.3855421686747,1.5542168674698795,-5.048192771084338,1.7388105456774983,9.058859595340282,-4.473329245861435,2.0,2.3494505494505495,425.6314312441534,0.04009090379348585,0.5454227609113682,0.8053143756191364,1393.4065934065934,-1.0,66.38125464244716,2.350140015907037,
2023-08-10 17:18:12.091000,8.3855421686747,1.566265060240964,-5.048192771084338,1.7510729613733904,9.002452483139178,-4.458614347026364,2.0,2.3494505494505495,425.6314312441534,0.29741856535166916,0.5277081755142481,0.32154303362274916,1443.2234432234432,-1.0,66.38125464244716,2.350119026783578,
2023-08-10 17:18:12.099000,8.3855421686747,1.5783132530120483,-5.024096385542169,1.6922133660331085,9.041692213366032,-4.421827099938688,2.0,2.3479853479853485,425.8970358814352,-0.11899073480566313,0.6015966435522407,0.4397179651535456,1497.4358974358972,-1.0,66.38125464244716,2.3500980784475223,
2023-08-10 17:18:12.107000,8.3855421686747,1.5783132530120483,-5.0,1.7633353770692826,9.063764561618639,-4.392397302268547,2.0,2.3479853479853485,425.8970358814352,-0.14789347940096786,0.22947380688771132,0.11631023833109956,1557.5091575091574,-1.0,66.38125464244716,2.350077179348552,
2023-08-10 17:18:12.114000,8.397590361445783,1.5783132530120483,-4.9879518072289155,1.7584304107909257,9.095646842427957,-4.478234212139792,2.0,2.3494505494505495,425.6314312441534,-0.14591224287628843,0.22702639706310856,0.11246430860672459,1619.047619047619,-1.0,66.38125464244716,2.3500563379489363,
2023-08-10 17:18:12.122000,8.397590361445783,1.5783132530120483,-5.0361445783132535,1.7265481299816063,9.147148988350704,-4.441446965052115,2.0,2.3479853479853485,425.8970358814352,0.3589534409416706,0.3300506963463676,0.05127906299166698,1679.120879120879,-1.0,66.38125464244716,2.350035563113089,
2023-08-10 17:18:12.130000,8.421686746987952,1.5783132530120483,-5.0,1.7216431637032494,9.105456774984672,-4.407112201103617,2.0,2.3494505494505495,425.6314312441534,-0.053493386166308075,0.006409882873958155,-0.3314492162461394,1736.9963369963368,-1.0,66.38125464244716,2.3500148636876275,
2023-08-10 17:18:12.137000,8.397590361445783,1.5903614457831325,-5.024096385542169,1.7461679950950337,9.110361741263029,-4.424279583077866,2.0,2.3479853479853485,425.8970358814352,-0.19194685624380908,0.14451372297651666,-0.5564943767845698,1787.5457875457873,-1.0,66.38125464244716,2.3499942488579,
2023-08-10 17:18:12.145000,8.397590361445783,1.602409638554217,-5.0120481927710845,1.7142857142857142,9.0907418761496,-4.372777437155119,2.0,2.3494505494505495,425.6314312441534,0.037060777343977155,0.08309539071149782,-0.13868655672746355,1825.6410256410254,-1.0,66.38125464244716,2.3499737272027277,
2023-08-10 17:18:12.153000,8.3855421686747,1.5903614457831325,-5.024096385542169,1.7093807480073573,9.073574494175352,-4.412017167381974,2.0,2.3494505494505495,425.6314312441534,0.06608006526426272,-0.11129887535691405,-0.6109201095507254,1852.0146520146518,-1.0,66.38125464244716,2.349953307155151,
2023-08-10 17:18:12.160000,8.409638554216867,1.602409638554217,-5.0361445783132535,1.765787860208461,9.019619865113427,-4.478234212139792,2.0,2.3494505494505495,425.6314312441534,-0.1313443272536561,-0.06118524561505717,-0.5344676883631492,1866.6666666666665,-1.0,66.38125464244716,2.3499329974635974,
2023-08-10 17:18:12.168000,8.409638554216867,1.602409638554217,-5.0120481927710845,1.7412630288166768,9.071122011036174,-4.429184549356223,2.0,2.3494505494505495,425.6314312441534,-0.3596527008915556,0.004661732999242137,-0.5016024707184895,1872.5274725274724,-1.0,66.38125464244716,2.3499128062826573,
2023-08-10 17:18:12.176000,8.409638554216867,1.602409638554217,-5.0,1.7731453096259961,9.071122011036174,-4.461066830165542,2.0,2.3479853479853485,425.8970358814352,-0.06829438843890208,0.008158032748674174,-0.11887419148068318,1868.131868131868,-1.0,66.38125464244716,2.3498927416363014,
2023-08-10 17:18:12.183000,8.3855421686747,1.6144578313253013,-5.048192771084338,1.731453096259963,9.06131207847946,-4.470876762722256,2.0,2.3494505494505495,425.6314312441534,-0.08647514713594728,0.1329759338033913,-0.1981236524678047,1852.0146520146518,-1.0,66.38125464244716,2.349872810897424,
2023-08-10 17:18:12.191000,8.397590361445783,1.5903614457831325,-5.0120481927710845,1.7167381974248925,9.068669527896995,-4.488044144696505,2.0,2.3494505494505495,425.6314312441534,-0.14637841617621353,-0.06270030883981152,-0.1707359710972552,1824.1758241758241,-1.0,66.38125464244716,2.349853021182345,
2023-08-10 17:18:12.199000,8.397590361445783,1.5903614457831325,-5.0120481927710845,1.765787860208461,9.058859595340282,-4.441446965052115,2.0,2.3465201465201466,426.1629722135498,-0.08402773731134625,0.1699201678223876,-0.021443971796515564,1785.3479853479853,-1.0,66.38125464244716,2.3498333798512996,
2023-08-10 17:18:12.206000,8.409638554216867,1.5903614457831325,-5.024096385542169,1.753525444512569,9.06131207847946,-4.43408951563458,2.0,2.3479853479853485,425.8970358814352,-0.1305285239787885,0.2629217411572756,0.278072373404813,1738.4615384615383,-1.0,66.38125464244716,2.3498138935006234,
2023-08-10 17:18:12.214000,8.421686746987952,1.5783132530120483,-5.0120481927710845,1.7706928264868178,9.02942979767014,-4.443899448191293,2.0,2.3479853479853485,425.8970358814352,0.06759512848901532,0.09708058970922423,0.01165433249810621,1685.7142857142856,-1.0,66.38125464244716,2.3497945682235857,
2023-08-10 17:18:12.222000,8.409638554216867,1.5783132530120483,-5.0,1.7805027590435314,9.01471489883507,-4.431637032495401,2.0,2.3479853479853485,425.8970358814352,-0.2985839986014793,0.4844706019462727,0.3778334595886021,1629.3040293040292,-1.0,66.38125464244716,2.3497754100810297,
2023-08-10 17:18:12.229000,8.409638554216867,1.5783132530120483,-5.0120481927710845,1.78295524218271,9.120171673819742,-4.414469650521152,2.0,2.3479853479853485,425.8970358814352,-0.15861546529922566,0.3640813472408361,0.09894528290892152,1574.3589743589744,-1.0,66.38125464244716,2.349756424167204,
2023-08-10 17:18:12.237000,8.421686746987952,1.5783132530120483,-5.0120481927710845,1.6922133660331085,9.058859595340282,-4.458614347026364,2.0,2.3479853479853485,425.8970358814352,-0.1281976574791683,0.4738651593729975,0.14334828972670569,1520.14652014652,-1.0,66.38125464244716,2.3497376151178537,
2023-08-10 17:18:12.245000,8.409638554216867,1.5783132530120483,-5.0120481927710845,1.7682403433476395,9.019619865113427,-4.451256897608829,2.0,2.3479853479853485,425.8970358814352,-0.020977798496590483,0.24683876230988894,0.3862245789872384,1469.5970695970695,-1.0,66.38125464244716,2.349718987057962,
2023-08-10 17:18:12.252000,8.397590361445783,1.5783132530120483,-5.024096385542169,1.731453096259963,9.103004291845494,-4.409564684242795,2.0,2.3479853479853485,425.8970358814352,-0.36909271021502243,0.0045451896742613,0.4906473981702701,1424.1758241758241,-1.0,66.38125464244716,2.349700543163089,
2023-08-10 17:18:12.260000,8.397590361445783,1.5783132530120483,-5.0361445783132535,1.7510729613733904,9.036787247087675,-4.473329245861435,2.0,2.3479853479853485,425.8970358814352,0.03298176096964094,0.23565060311170608,0.22807528698793783,1389.0109890109889,-1.0,66.38125464244716,2.349682286136234,
2023-08-10 17:18:12.268000,8.397590361445783,1.5783132530120483,-5.0120481927710845,1.731453096259963,9.02942979767014,-4.426732066217045,2.0,2.3479853479853485,425.8970358814352,0.17108560107219944,-0.02191014509643891,0.10558825243284178,1361.904761904762,-1.0,66.38125464244716,2.3496642181945067,
2023-08-10 17:18:12.275000,8.409638554216867,1.5903614457831325,-5.0120481927710845,1.7240956468424278,9.036787247087675,-4.446351931330472,2.0,2.3479853479853485,425.8970358814352,0.30872326787483284,-0.2961365887768782,0.05897092244041737,1339.9267399267399,-1.0,66.38125464244716,2.3496463410583495,
2023-08-10 17:18:12.283000,8.409638554216867,1.5903614457831325,-5.0,1.648068669527897,9.095646842427957,-4.473329245861435,2.0,2.3479853479853485,425.8970358814352,0.01992890857176122,-0.033681020919527696,0.289260532602995,1323.8095238095236,-1.0,66.38125464244716,2.3496286559433908,
2023-08-10 17:18:12.291000,8.3855421686747,1.566265060240964,-5.024096385542169,1.7290006131207847,9.080931943592887,-4.429184549356223,2.0,2.3479853479853485,425.8970358814352,0.11304702523163007,0.13425791037818222,0.08938873026047427,1311.3553113553112,-1.0,66.38125464244716,2.349611163554968,
2023-08-10 17:18:12.298000,8.397590361445783,1.5783132530120483,-5.0361445783132535,1.73635806253832,8.995095033721643,-4.465971796443899,2.0,2.3479853479853485,425.8970358814352,-0.038808927218693175,0.4841209719713302,0.24217702931064639,1302.5641025641025,-1.0,66.38125464244716,2.3495938645432495,
2023-08-10 17:18:12.306000,8.3855421686747,1.566265060240964,-5.024096385542169,1.7240956468424278,9.068669527896995,-4.446351931330472,2.0,2.3479853479853485,425.8970358814352,-0.12749839752928155,-0.22434590058854412,-0.04591807004253852,1296.7032967032967,-1.0,66.38125464244716,2.349576759435947,
2023-08-10 17:18:12.314000,8.397590361445783,1.5783132530120483,-5.0120481927710845,1.7437155119558552,9.068669527896995,-4.424279583077866,2.0,2.3479853479853485,425.8970358814352,0.013635569022783902,-0.08973836023541765,0.2161878678398695,1290.8424908424909,-1.0,66.38125464244716,2.3495598481526607,
2023-08-10 17:18:12.321000,8.397590361445783,1.5783132530120483,-5.0120481927710845,1.7412630288166768,9.063764561618639,-4.438994481912936,2.0,2.3479853479853485,425.8970358814352,-0.12202086125517184,0.13542334362799405,0.11048307208204645,1286.4468864468863,-1.0,66.38125464244716,2.3495431295560825,
2023-08-10 17:18:12.329000,8.397590361445783,1.5783132530120483,-5.0,1.7976701410177804,9.066217044757817,-4.441446965052115,2.0,2.3479853479853485,425.8970358814352,0.13996853330225537,-0.055241536041024095,-0.13076161062875105,1282.7838827838827,-1.0,66.38125464244716,2.3495266019882357,
2023-08-10 17:18:12.337000,8.397590361445783,1.5783132530120483,-5.0,1.7118332311465358,9.01471489883507,-4.421827099938688,2.0,2.3479853479853485,425.8970358814352,0.07843365771225394,-0.08985490356039848,-0.019928908571761654,1283.5164835164835,-1.0,66.38125464244716,2.349510263704737,
2023-08-10 17:18:12.344000,8.409638554216867,1.5542168674698795,-5.0361445783132535,1.7142857142857142,9.07602697731453,-4.478234212139792,2.0,2.3479853479853485,425.8970358814352,0.11036652875706562,0.13530680030301323,0.043936833517860395,1287.9120879120878,-1.0,66.38125464244716,2.349494111939979,
2023-08-10 17:18:12.352000,8.397590361445783,1.5421686746987953,-5.0120481927710845,1.7216431637032494,9.120171673819742,-4.429184549356223,2.0,2.3465201465201466,426.1629722135498,0.01713186877221594,-0.08752403706077655,0.2584930948079947,1292.3076923076922,-1.0,66.38125464244716,2.3494781434499203,
2023-08-10 17:18:12.360000,8.409638554216867,1.5783132530120483,-5.0361445783132535,1.7608828939301042,9.112814224402207,-4.453709380748007,2.0,2.3465201465201466,426.1629722135498,-0.014334828972670657,0.6264203717732075,-0.24613950236000218,1298.168498168498,-1.0,66.38125464244716,2.349462354459997,
2023-08-10 17:18:12.367000,8.3855421686747,1.5783132530120483,-5.024096385542169,1.7437155119558552,9.093194359288779,-4.41937461679951,2.0,2.3479853479853485,425.8970358814352,0.06503117533943172,0.6186119689994758,-0.043470660217936184,1308.4249084249084,-1.0,66.38125464244716,2.349446740122174,
2023-08-10 17:18:12.375000,8.409638554216867,1.566265060240964,-5.024096385542169,1.7167381974248925,9.100551808706316,-4.473329245861435,2.0,2.3479853479853485,425.8970358814352,-0.1968416758930129,0.3211934036478067,-0.4513722976516518,1321.6117216117216,-1.0,66.38125464244716,2.349431295483467,
2023-08-10 17:18:12.383000,8.409638554216867,1.566265060240964,-5.0,1.778050275904353,9.080931943592887,-4.370324954015941,2.0,2.3479853479853485,425.8970358814352,-0.11456208845638441,0.4260823961307608,-0.38435988578754154,1334.7985347985348,-1.0,66.38125464244716,2.3494160155771002,
2023-08-10 17:18:12.390000,8.397590361445783,1.5783132530120483,-5.0361445783132535,1.706928264868179,9.058859595340282,-4.483139178418148,2.0,2.3479853479853485,425.8970358814352,-0.1131635685566109,0.42258609638133054,-0.3780665462385642,1350.18315018315,-1.0,66.38125464244716,2.3494008949900493,
2023-08-10 17:18:12.398000,8.409638554216867,1.5783132530120483,-5.0,1.719190680564071,9.0907418761496,-4.424279583077866,2.0,2.3479853479853485,425.8970358814352,0.15092360585047482,0.3755025930889806,0.010139269273352298,1367.032967032967,-1.0,66.38125464244716,2.3493859278898794,
2023-08-10 17:18:12.406000,8.409638554216867,1.5783132530120483,-5.0120481927710845,1.7706928264868178,9.13733905579399,-4.470876762722256,2.0,2.3479853479853485,425.8970358814352,-0.24625604568498302,0.34275391876930306,-0.06176796223996266,1381.6849816849815,-1.0,66.38125464244716,2.3493711075950374,
2023-08-10 17:18:12.413000,8.409638554216867,1.5542168674698795,-4.975903614457832,1.7633353770692826,9.056407112201104,-4.443899448191293,2.0,2.3479853479853485,425.8970358814352,3.496299749425094E-4,-0.1343744537031648,-0.3787658061884505,1394.139194139194,-1.0,66.38125464244716,2.3493564271293637,
2023-08-10 17:18:12.421000,8.409638554216867,1.566265060240964,-5.024096385542169,1.7461679950950337,9.06131207847946,-4.397302268546904,2.0,2.3479853479853485,425.8970358814352,-0.029485461220208904,0.20266884214206687,0.13076161062875105,1403.6630036630036,-1.0,66.38125464244716,2.3493418796736836,
2023-08-10 17:18:12.429000,8.397590361445783,1.566265060240964,-5.024096385542169,1.7216431637032494,9.06131207847946,-4.436541998773758,2.0,2.3479853479853485,425.8970358814352,-0.16607423809801306,-0.20861255171609994,0.008274576073655443,1411.7216117216117,-1.0,66.38125464244716,2.3493274581052828,
2023-08-10 17:18:12.436000,8.409638554216867,1.5903614457831325,-5.0,1.719190680564071,9.12262415695892,-4.43408951563458,2.0,2.3479853479853485,425.8970358814352,-0.22539479051337338,0.1637433715983911,-0.3713070333896627,1418.3150183150183,-1.0,66.38125464244716,2.3493131550308766,
2023-08-10 17:18:12.444000,8.3855421686747,1.5542168674698795,-5.024096385542169,1.7044757817290006,9.07602697731453,-4.446351931330472,2.0,2.3479853479853485,425.8970358814352,-0.05629042596585336,-0.06293339548977318,0.21234193811549454,1425.6410256410256,-1.0,66.38125464244716,2.349298962820364,
2023-08-10 17:18:12.452000,8.397590361445783,1.5783132530120483,-5.0,1.702023298589822,9.085836909871244,-4.407112201103617,2.0,2.3479853479853485,425.8970358814352,0.3555736845172194,0.30511042480042,0.20919526834100588,1432.2344322344322,-1.0,66.38125464244716,2.3492848731832714,
2023-08-10 17:18:12.459000,8.397590361445783,1.566265060240964,-5.0361445783132535,1.7388105456774983,9.066217044757817,-4.421827099938688,2.0,2.3479853479853485,425.8970358814352,-0.10535516578287923,0.04347066021793532,-0.007225686148825746,1437.3626373626373,-1.0,66.38125464244716,2.3492708777287077,
2023-08-10 17:18:12.467000,8.3855421686747,1.566265060240964,-5.048192771084338,1.7388105456774983,9.088289393010422,-4.465971796443899,2.0,2.3479853479853485,425.8970358814352,-0.24310937591049522,-0.295786958801934,-0.46803799312394395,1440.2930402930401,-1.0,66.38125464244716,2.349256968421627,
2023-08-10 17:18:12.474000,8.3855421686747,1.5783132530120483,-5.0361445783132535,1.6701410177805027,9.134886572654812,-4.441446965052115,2.0,2.3479853479853485,425.8970358814352,-0.12085542800536173,-0.06876056173882716,-0.12901346075403503,1435.8974358974358,-1.0,66.38125464244716,2.34924313712617,
2023-08-10 17:18:12.482000,8.3855421686747,1.5783132530120483,-5.0120481927710845,1.7559779276517473,9.039239730226853,-4.463519313304721,2.0,2.3465201465201466,426.1629722135498,-0.05745585921566346,-0.3636151739409127,-0.09731367635918677,1428.5714285714284,-1.0,66.38125464244716,2.3492293756417406,
2023-08-10 17:18:12.490000,8.3855421686747,1.566265060240964,-5.0,1.7682403433476395,9.093194359288779,-4.49540159411404,2.0,2.3479853479853485,425.8970358814352,-0.36466406386574196,0.07889983101217903,-0.23401899656197175,1420.5128205128203,-1.0,66.38125464244716,2.349215674788454,
2023-08-10 17:18:12.497000,8.373493975903616,1.5421686746987953,-5.024096385542169,1.7240956468424278,9.085836909871244,-4.497854077253218,2.0,2.3479853479853485,425.8970358814352,-0.20849600839111912,0.12027271138045581,-0.0017481498747160184,1413.1868131868132,-1.0,66.38125464244716,2.3492020253885357,
2023-08-10 17:18:12.505000,8.373493975903616,1.566265060240964,-5.024096385542169,1.765787860208461,9.049049662783569,-4.43408951563458,2.0,2.3465201465201466,426.1629722135498,-0.11351319853155341,-0.06573043528931848,-0.16992016782238803,1403.6630036630036,-1.0,66.38125464244716,2.3491884187894967,
2023-08-10 17:18:12.513000,8.397590361445783,1.5903614457831325,-5.024096385542169,1.8001226241569588,9.078479460453709,-4.438994481912936,2.0,2.3465201465201466,426.1629722135498,0.20768020511625152,-0.08123069751179923,0.1515063224753803,1391.9413919413919,-1.0,66.38125464244716,2.349174846438915,
2023-08-10 17:18:12.520000,8.397590361445783,1.566265060240964,-5.024096385542169,1.7510729613733904,9.06131207847946,-4.40220723482526,2.0,2.3479853479853485,425.8970358814352,-0.11479517510634608,0.08833984033564414,-0.23413553988695304,1379.4871794871794,-1.0,66.38125464244716,2.349161299742646,
2023-08-10 17:18:12.528000,8.3855421686747,1.5783132530120483,-4.9879518072289155,1.73635806253832,9.034334763948497,-4.414469650521152,2.0,2.3479853479853485,425.8970358814352,0.25045160538430183,0.3019637550259305,-0.4464774780024476,1364.102564102564,-1.0,66.38125464244716,2.349147770130329,
2023-08-10 17:18:12.536000,8.397590361445783,1.5783132530120483,-5.024096385542169,1.7510729613733904,9.036787247087675,-4.451256897608829,2.0,2.3479853479853485,425.8970358814352,0.0030301264495069553,0.29846745527649843,-0.0037293863993941435,1348.7179487179487,-1.0,66.38125464244716,2.349134249646921,
2023-08-10 17:18:12.543000,8.397590361445783,1.5903614457831325,-5.048192771084338,1.7633353770692826,9.080931943592887,-4.453709380748007,2.0,2.3465201465201466,426.1629722135498,-0.12132160130528508,0.008507662723616683,-0.0971971330342055,1334.7985347985348,-1.0,66.38125464244716,2.349120730525506,
2023-08-10 17:18:12.551000,8.3855421686747,1.5783132530120483,-5.0,1.7118332311465358,9.13733905579399,-4.397302268546904,2.0,2.3479853479853485,425.8970358814352,-0.24310937591049522,0.08612551716100478,0.23821455626129012,1320.8791208791208,-1.0,66.38125464244716,2.3491072047243042,
2023-08-10 17:18:12.559000,8.409638554216867,1.5783132530120483,-5.0,1.73635806253832,9.083384426732065,-4.41937461679951,2.0,2.3465201465201466,426.1629722135498,-0.08973836023541765,0.11735912825592969,-0.25336518850882794,1304.7619047619046,-1.0,66.38125464244716,2.349093664375709,
2023-08-10 17:18:12.566000,8.409638554216867,1.5783132530120483,-5.0361445783132535,1.7854077253218883,9.066217044757817,-4.446351931330472,2.0,2.3479853479853485,425.8970358814352,0.017248412097196776,0.1616455917487326,-0.20686440184138435,1289.3772893772893,-1.0,66.38125464244716,2.3490801018455048,
2023-08-10 17:18:12.574000,8.409638554216867,1.5783132530120483,-5.024096385542169,1.7240956468424278,9.093194359288779,-4.436541998773758,2.0,2.3479853479853485,425.8970358814352,-0.21245848144047624,0.08344502068644033,-0.038575840568731506,1277.6556776556777,-1.0,66.38125464244716,2.3490665097209646,
2023-08-10 17:18:12.582000,8.409638554216867,1.566265060240964,-5.024096385542169,1.7461679950950337,9.088289393010422,-4.409564684242795,2.0,2.3479853479853485,425.8970358814352,-0.27259483713070415,0.5112755666919172,0.11467863178136481,1270.3296703296703,-1.0,66.38125464244716,2.349052881359525,
2023-08-10 17:18:12.589000,8.421686746987952,1.566265060240964,-5.0120481927710845,1.7510729613733904,9.044144696505212,-4.416922133660331,2.0,2.3479853479853485,425.8970358814352,-0.1637433715983911,0.11036652875706562,-0.08647514713594771,1265.2014652014652,-1.0,66.38125464244716,2.349039210453128,
2023-08-10 17:18:12.597000,8.421686746987952,1.5542168674698795,-5.0,1.7559779276517473,9.105456774984672,-4.461066830165542,2.0,2.3479853479853485,425.8970358814352,0.06759512848901532,0.4287628926053253,-0.1614125050987705,1262.2710622710622,-1.0,66.38125464244716,2.349025491506885,
2023-08-10 17:18:12.605000,8.409638554216867,1.566265060240964,-5.0,1.7412630288166768,9.06131207847946,-4.409564684242795,2.0,2.3479853479853485,425.8970358814352,-0.1931122894936192,0.3638482605908744,-0.29660276207680203,1261.5384615384614,-1.0,66.38125464244716,2.34901171933333,
2023-08-10 17:18:12.612000,8.397590361445783,1.5903614457831325,-5.0120481927710845,1.7608828939301042,9.105456774984672,-4.43408951563458,2.0,2.3479853479853485,425.8970358814352,-0.11491171843132691,0.28483188625371453,-0.24963580210943423,1260.8058608058607,-1.0,66.38125464244716,2.348997888649195,
2023-08-10 17:18:12.620000,8.397590361445783,1.5783132530120483,-5.0120481927710845,1.7706928264868178,9.049049662783569,-4.463519313304721,2.0,2.3479853479853485,425.8970358814352,0.09766330633413015,0.32713711322183975,-0.28156867315424505,1261.5384615384614,-1.0,66.38125464244716,2.3489839945838407,
2023-08-10 17:18:12.628000,8.421686746987952,1.5903614457831325,-5.0,1.7731453096259961,9.0907418761496,-4.475781729000613,2.0,2.3479853479853485,425.8970358814352,-0.05360992949128891,0.36874308024007996,0.11596060835615618,1260.8058608058607,-1.0,66.38125464244716,2.348970032693506,
2023-08-10 17:18:12.635000,8.421686746987952,1.5903614457831325,-4.9879518072289155,1.7584304107909257,9.04659717964439,-4.451256897608829,2.0,2.3479853479853485,425.8970358814352,0.006876056173883237,0.792844239846163,-0.02645533477070108,1260.07326007326,-1.0,66.38125464244716,2.3489559989740383,
2023-08-10 17:18:12.643000,8.433734939759036,1.5903614457831325,-4.9879518072289155,1.8001226241569588,9.098099325567135,-4.461066830165542,2.0,2.3479853479853485,425.8970358814352,-0.06934327836373134,0.648680146844589,0.0029135831245265527,1257.8754578754579,-1.0,66.38125464244716,2.3489418898721217,
2023-08-10 17:18:12.651000,8.409638554216867,1.566265060240964,-5.0120481927710845,1.7755977927651747,9.07602697731453,-4.461066830165542,2.0,2.3479853479853485,425.8970358814352,0.03810966726880642,0.4271312860555918,-0.4707184895985084,1254.212454212454,-1.0,66.38125464244716,2.3489277022949793,
2023-08-10 17:18:12.658000,8.409638554216867,1.5903614457831325,-5.0,1.778050275904353,9.095646842427957,-4.387492335990189,2.0,2.3465201465201466,426.1629722135498,-0.08297884738651524,0.12947963405395924,-0.36256628401608304,1248.3516483516482,-1.0,66.38125464244716,2.3489134336185917,
2023-08-10 17:18:12.666000,8.409638554216867,1.5783132530120483,-5.0,1.7878602084610666,9.073574494175352,-4.370324954015941,2.0,2.3465201465201466,426.1629722135498,-0.083678107336402,0.12644950760445228,-0.3617504807412154,1246.153846153846,-1.0,66.38125464244716,2.348899081659647,
2023-08-10 17:18:12.674000,8.409638554216867,1.5783132530120483,-5.0,1.836909871244635,9.04659717964439,-4.441446965052115,2.0,2.3465201465201466,426.1629722135498,0.23518442981178272,0.26525260765689584,-0.19392809276848677,1246.8864468864467,-1.0,66.38125464244716,2.34888464454137,
2023-08-10 17:18:12.681000,8.397590361445783,1.5783132530120483,-4.9879518072289155,1.6946658491722868,8.977927651747393,-4.43408951563458,2.0,2.3465201465201466,426.1629722135498,-0.20884563836606335,0.05127906299166698,0.021094341821572188,1249.8168498168498,-1.0,66.38125464244716,2.3488701202034283,
2023-08-10 17:18:12.689000,8.409638554216867,1.566265060240964,-5.0,1.7240956468424278,9.071122011036174,-4.43408951563458,2.0,2.3479853479853485,425.8970358814352,-0.2959035021269148,0.06677932521414773,-0.027504224695530342,1252.7472527472526,-1.0,66.38125464244716,2.3488555064691123,
2023-08-10 17:18:12.697000,8.397590361445783,1.5903614457831325,-4.9879518072289155,1.753525444512569,9.07602697731453,-4.424279583077866,2.0,2.3479853479853485,425.8970358814352,0.08775712371073996,-0.296835848726765,-0.106054425732766,1258.6080586080586,-1.0,66.38125464244716,2.3488408020236933,
2023-08-10 17:18:12.704000,8.397590361445783,1.5783132530120483,-5.024096385542169,1.7388105456774983,9.105456774984672,-4.446351931330472,2.0,2.3479853479853485,425.8970358814352,-0.08262921741157274,-0.0651477186644143,-0.24648913233494557,1266.6666666666665,-1.0,66.38125464244716,2.348826006477787,
2023-08-10 17:18:12.712000,8.397590361445783,1.566265060240964,-5.0120481927710845,1.8295524218270998,9.103004291845494,-4.394849785407725,2.0,2.3479853479853485,425.8970358814352,-0.2200337975642445,-0.1713186877221611,-0.09381737660975473,1273.260073260073,-1.0,66.38125464244716,2.348811119904469,
2023-08-10 17:18:12.720000,8.397590361445783,1.566265060240964,-5.0,1.765787860208461,9.098099325567135,-4.446351931330472,2.0,2.3479853479853485,425.8970358814352,0.19439426606841012,0.13495717032806898,0.08857292698560668,1279.8534798534797,-1.0,66.38125464244716,2.3487961428332,
2023-08-10 17:18:12.727000,8.433734939759036,1.566265060240964,-5.0,1.7854077253218883,9.053954629061925,-4.409564684242795,2.0,2.3479853479853485,425.8970358814352,0.45521822737602724,0.02622224812073854,-0.12528407435464134,1286.4468864468863,-1.0,66.38125464244716,2.3487810762428145,
2023-08-10 17:18:12.735000,8.409638554216867,1.5783132530120483,-4.975903614457832,1.7927651747394235,9.056407112201104,-4.443899448191293,2.0,2.3479853479853485,425.8970358814352,-0.03496299749431863,-0.11164850533185655,-0.40137521123477665,1290.8424908424909,-1.0,66.38125464244716,2.3487659215536474,
2023-08-10 17:18:12.743000,8.409638554216867,1.5783132530120483,-4.9879518072289155,1.7633353770692826,9.080931943592887,-4.421827099938688,2.0,2.3479853479853485,425.8970358814352,0.07283957811316338,0.0848435405862121,-0.033914107569488934,1293.040293040293,-1.0,66.38125464244716,2.348750680618865,
2023-08-10 17:18:12.750000,8.421686746987952,1.566265060240964,-4.9879518072289155,1.7584304107909257,9.04659717964439,-4.470876762722256,2.0,2.3465201465201466,426.1629722135498,0.10570479575782349,0.2699143406561397,0.028553114620360042,1293.7728937728937,-1.0,66.38125464244716,2.348735355715125,
2023-08-10 17:18:12.758000,8.421686746987952,1.5903614457831325,-4.9879518072289155,1.7706928264868178,9.10790925812385,-4.43408951563458,2.0,2.3479853479853485,425.8970358814352,-0.1835557368451715,0.42188683643144376,0.11992308140551243,1294.5054945054944,-1.0,66.38125464244716,2.348719949039944,
2023-08-10 17:18:12.766000,8.397590361445783,1.5783132530120483,-4.975903614457832,1.7167381974248925,9.07602697731453,-4.416922133660331,2.0,2.3479853479853485,425.8970358814352,-0.18017598042072205,0.35802109434182217,0.1666569547229181,1293.7728937728937,-1.0,66.38125464244716,2.3487044631217073,
2023-08-10 17:18:12.773000,8.3855421686747,1.5783132530120483,-4.9879518072289155,1.702023298589822,8.980380134886571,-4.404659717964439,2.0,2.3479853479853485,425.8970358814352,0.24893654215954747,0.4613950236000237,0.06060252899015212,1291.5750915750914,-1.0,66.38125464244716,2.348688901333237,
2023-08-10 17:18:12.781000,8.397590361445783,1.566265060240964,-5.0,1.7952176578786019,9.058859595340282,-4.382587369711833,2.0,2.3465201465201466,426.1629722135498,-0.17936017714585445,-0.05967018239030283,0.10815220558242539,1287.9120879120878,-1.0,66.38125464244716,2.3486732674220243,
2023-08-10 17:18:12.789000,8.3855421686747,1.566265060240964,-5.0361445783132535,1.7755977927651747,9.098099325567135,-4.399754751686082,2.0,2.3479853479853485,425.8970358814352,-0.10046034613367542,0.04556844006759558,-0.25569605500844944,1284.2490842490843,-1.0,66.38125464244716,2.3486575650054013,
2023-08-10 17:18:12.796000,8.397590361445783,1.566265060240964,-5.0120481927710845,1.6995708154506437,9.036787247087675,-4.416922133660331,2.0,2.3465201465201466,426.1629722135498,0.007458772798787419,-0.3835440825126739,-0.20558242526659298,1282.051282051282,-1.0,66.38125464244716,2.348641797978667,
2023-08-10 17:18:12.804000,8.373493975903616,1.5783132530120483,-5.0,1.8025751072961373,9.068669527896995,-4.40220723482526,2.0,2.3479853479853485,425.8970358814352,0.282734106404056,-0.21315774139036126,-0.5397121379872968,1283.5164835164835,-1.0,66.38125464244716,2.3486259705344508,
2023-08-10 17:18:12.812000,8.397590361445783,1.566265060240964,-5.0,1.753525444512569,9.100551808706316,-4.412017167381974,2.0,2.3465201465201466,426.1629722135498,0.29625313210185905,0.07621933453761458,-0.2284249169628812,1284.2490842490843,-1.0,66.38125464244716,2.3486100871121844,
2023-08-10 17:18:12.819000,8.3855421686747,1.5783132530120483,-5.0120481927710845,1.807480073574494,9.049049662783569,-4.372777437155119,2.0,2.3465201465201466,426.1629722135498,0.04871510984208337,-0.15278829905017166,-0.3476487384185069,1285.7142857142856,-1.0,66.38125464244716,2.3485941528747194,
2023-08-10 17:18:12.827000,8.397590361445783,1.5903614457831325,-4.9879518072289155,1.7388105456774983,9.063764561618639,-4.41937461679951,2.0,2.3465201465201466,426.1629722135498,0.0787832876871982,-0.18052561039566456,-0.28483188625371497,1287.9120879120878,-1.0,66.38125464244716,2.348578173097402,
2023-08-10 17:18:12.834000,8.397590361445783,1.5903614457831325,-5.0,1.7339055793991416,9.007357449417535,-4.409564684242795,2.0,2.3465201465201466,426.1629722135498,0.2623390245323697,-0.36116776411630996,-0.7225686148825824,1287.9120879120878,-1.0,66.38125464244716,2.348562153118585,
2023-08-10 17:18:12.842000,8.409638554216867,1.566265060240964,-5.0120481927710845,1.778050275904353,9.088289393010422,-4.41937461679951,2.0,2.3479853479853485,425.8970358814352,0.07552007458772783,-0.266884214206631,-0.5300390420138688,1286.4468864468863,-1.0,66.38125464244716,2.3485460978660444,
2023-08-10 17:18:12.850000,8.409638554216867,1.5903614457831325,-5.0,1.7608828939301042,9.056407112201104,-4.404659717964439,2.0,2.3465201465201466,426.1629722135498,-0.09463317988462146,-0.06642969523920522,-0.23203776003729407,1287.9120879120878,-1.0,66.38125464244716,2.3485300128580944,
2023-08-10 17:18:12.857000,8.421686746987952,1.5783132530120483,-5.0120481927710845,1.8172900061312078,9.112814224402207,-4.416922133660331,2.0,2.3465201465201466,426.1629722135498,0.08833984033564414,0.11922382145562654,0.2736437270555325,1287.9120879120878,-1.0,66.38125464244716,2.3485139037288603,
2023-08-10 17:18:12.865000,8.433734939759036,1.5783132530120483,-5.0,1.8099325567136726,9.068669527896995,-4.392397302268547,2.0,2.3479853479853485,425.8970358814352,0.07318920808810589,0.1786609171959677,0.1825068469203427,1286.4468864468863,-1.0,66.38125464244716,2.3484977757185925,
2023-08-10 17:18:12.873000,8.433734939759036,1.566265060240964,-4.975903614457832,1.7167381974248925,9.110361741263029,-4.416922133660331,2.0,2.3479853479853485,425.8970358814352,-0.26338791445719895,0.45113921100168924,0.3194452537730898,1283.5164835164835,-1.0,66.38125464244716,2.3484816345697763,
2023-08-10 17:18:12.880000,8.433734939759036,1.566265060240964,-4.9879518072289155,1.7339055793991416,9.142244022072347,-4.438994481912936,2.0,2.3465201465201466,426.1629722135498,-0.1851873433949067,0.33960724899481354,0.12132160130528508,1281.3186813186812,-1.0,66.38125464244716,2.3484654861562615,
2023-08-10 17:18:12.888000,8.397590361445783,1.5903614457831325,-5.0,1.7731453096259961,9.098099325567135,-4.41937461679951,2.0,2.3479853479853485,425.8970358814352,-0.07633587786259542,0.060136355690227905,-0.3222422935726355,1279.120879120879,-1.0,66.38125464244716,2.348449336466404,
2023-08-10 17:18:12.896000,8.421686746987952,1.5783132530120483,-4.9879518072289155,1.7706928264868178,9.078479460453709,-4.458614347026364,2.0,2.3465201465201466,426.1629722135498,0.2433424625604569,0.13623914690286165,-0.12202086125517139,1276.1904761904761,-1.0,66.38125464244716,2.3484331919402814,
2023-08-10 17:18:12.903000,8.433734939759036,1.566265060240964,-5.024096385542169,1.7461679950950337,9.068669527896995,-4.399754751686082,2.0,2.3479853479853485,425.8970358814352,-0.4912301147951751,0.21362391469028633,-0.18052561039566456,1276.1904761904761,-1.0,66.38125464244716,2.3484170585401762,
2023-08-10 17:18:12.911000,8.397590361445783,1.5783132530120483,-5.0361445783132535,1.731453096259963,9.051502145922747,-4.424279583077866,2.0,2.3465201465201466,426.1629722135498,-0.1503408892255689,0.27387681370549505,-0.14696113280111855,1276.923076923077,-1.0,66.38125464244716,2.3484009422272347,
2023-08-10 17:18:12.919000,8.397590361445783,1.5783132530120483,-5.0120481927710845,1.719190680564071,9.036787247087675,-4.414469650521152,2.0,2.3465201465201466,426.1629722135498,0.035196084144280305,0.3021968416758921,-0.31420080414894214,1278.3882783882782,-1.0,66.38125464244716,2.3483848494037405,
2023-08-10 17:18:12.926000,8.397590361445783,1.5783132530120483,-5.0120481927710845,1.7290006131207847,9.041692213366032,-4.421827099938688,2.0,2.3465201465201466,426.1629722135498,0.15931472524911067,0.10150923605850469,-0.1571004020744713,1278.3882783882782,-1.0,66.38125464244716,2.34836878542233,
2023-08-10 17:18:12.934000,8.3855421686747,1.5903614457831325,-5.024096385542169,1.7682403433476395,9.058859595340282,-4.397302268546904,2.0,2.3479853479853485,425.8970358814352,-0.055707709340947445,0.09673095973428172,-0.32189266359769253,1276.1904761904761,-1.0,66.38125464244716,2.34835275555379,
2023-08-10 17:18:12.942000,8.361445783132531,1.5783132530120483,-5.0120481927710845,1.7437155119558552,9.044144696505212,-4.43408951563458,2.0,2.3465201465201466,426.1629722135498,-0.05384301614125059,0.09393391993473643,-0.32072723034788203,1273.260073260073,942.169189453125,63.68282965698183,2.348336765885601,
2023-08-10 17:18:12.949000,8.373493975903616,1.602409638554217,-5.024096385542169,1.7388105456774983,9.056407112201104,-4.407112201103617,2.0,2.3479853479853485,425.8970358814352,0.2693316240312338,-0.41384534700775044,-0.440067595128489,1271.7948717948716,-1.0,63.68282965698183,2.348320821936364,
2023-08-10 17:18:12.957000,8.3855421686747,1.5783132530120483,-5.0120481927710845,1.748620478234212,9.058859595340282,-4.461066830165542,2.0,2.3465201465201466,426.1629722135498,0.05291066954140216,-0.09253540003496293,-0.4207214031816328,1276.923076923077,-1.0,63.68282965698183,2.34830492913465,
2023-08-10 17:18:12.965000,8.3855421686747,1.5903614457831325,-5.0120481927710845,1.7044757817290006,9.0907418761496,-4.40220723482526,2.0,2.3465201465201466,426.1629722135498,0.1290134607540359,-0.17003671114736846,-0.12633296427947058,1289.3772893772893,-1.0,63.68282965698183,2.3482890932638463,
2023-08-10 17:18:12.972000,8.421686746987952,1.5783132530120483,-5.0361445783132535,1.7976701410177804,9.071122011036174,-4.399754751686082,2.0,2.3465201465201466,426.1629722135498,0.12947963405395924,-0.47374861604801666,-0.38167938931297707,1309.89010989011,-1.0,63.68282965698183,2.3482733198900565,
2023-08-10 17:18:12.980000,8.433734939759036,1.5903614457831325,-5.0,1.7682403433476395,9.098099325567135,-4.465971796443899,2.0,2.3465201465201466,426.1629722135498,-0.10057688945865627,-0.02925237457024723,-0.010372355923314406,1336.9963369963368,-1.0,63.68282965698183,2.348257614282917,
2023-08-10 17:18:12.988000,8.409638554216867,1.5903614457831325,-5.0120481927710845,1.7290006131207847,9.044144696505212,-4.392397302268547,2.0,2.3465201465201466,426.1629722135498,-0.13087815395373276,0.486568381795933,0.05372647281626932,1370.6959706959706,-1.0,63.68282965698183,2.3482419809828357,
2023-08-10 17:18:12.995000,8.409638554216867,1.5783132530120483,-4.975903614457832,1.7633353770692826,9.012262415695892,-4.448804414469651,2.0,2.3465201465201466,426.1629722135498,0.31268574092418827,0.448342171202144,0.02249286172134483,1409.5238095238094,-1.0,63.68282965698183,2.3482264242817257,
2023-08-10 17:18:13.003000,8.3855421686747,1.5783132530120483,-4.9879518072289155,1.7584304107909257,9.024524831391783,-4.409564684242795,2.0,2.3465201465201466,426.1629722135498,-0.1020919526834106,0.7449449332789455,0.26583532428180173,1452.014652014652,-1.0,63.68282965698183,2.348210948211453,
2023-08-10 17:18:13.011000,8.397590361445783,1.566265060240964,-5.0,1.7608828939301042,9.10790925812385,-4.380134886572654,2.0,2.3465201465201466,426.1629722135498,-0.05605733931588995,0.6301497581726012,0.4935609812947962,1498.9010989010987,-1.0,63.68282965698183,2.34819555653276,
2023-08-10 17:18:13.018000,8.409638554216867,1.5783132530120483,-4.9879518072289155,1.778050275904353,9.095646842427957,-4.412017167381974,2.0,2.3465201465201466,426.1629722135498,0.034613367519376124,0.4542858807761788,0.4111648505331856,1550.18315018315,-1.0,63.68282965698183,2.3481802527246867,
2023-08-10 17:18:13.026000,8.409638554216867,1.5542168674698795,-4.963855421686747,1.7608828939301042,9.0907418761496,-4.358062538320048,2.0,2.3465201465201466,426.1629722135498,0.033681020919527696,0.44577821805256035,0.5729269856068995,1603.6630036630036,-1.0,63.68282965698183,2.3481650399745764,
2023-08-10 17:18:13.034000,8.409638554216867,1.5783132530120483,-4.975903614457832,1.7854077253218883,9.0907418761496,-4.389944819129369,2.0,2.3465201465201466,426.1629722135498,0.17248412097197122,0.2700308839811205,0.2756249635802111,1654.212454212454,-1.0,63.68282965698183,2.348149921168719,
2023-08-10 17:18:13.041000,8.409638554216867,1.5903614457831325,-5.0,1.7461679950950337,9.071122011036174,-4.397302268546904,2.0,2.3465201465201466,426.1629722135498,0.3228250101975401,0.06386574208962162,0.025872618145795594,1701.098901098901,-1.0,63.68282965698183,2.3481348988836896,
2023-08-10 17:18:13.049000,8.433734939759036,1.566265060240964,-5.024096385542169,1.7290006131207847,9.125076640098099,-4.446351931330472,2.0,2.3465201465201466,426.1629722135498,-0.21420663131519224,-0.12575024765456555,0.29881708525144224,1739.9267399267399,-1.0,63.68282965698183,2.3481199753784283,
2023-08-10 17:18:13.057000,8.421686746987952,1.5783132530120483,-5.0120481927710845,1.719190680564071,9.13733905579399,-4.392397302268547,2.0,2.3465201465201466,426.1629722135498,0.09451663655964061,-0.1466115028261752,0.2515004953091311,1771.4285714285713,-1.0,63.68282965698183,2.3481051525871472,
2023-08-10 17:18:13.064000,8.409638554216867,1.5903614457831325,-4.9879518072289155,1.6995708154506437,9.044144696505212,-4.362967504598406,2.0,2.3479853479853485,425.8970358814352,0.017831128722102692,-0.060136355690227905,0.053027212866383,1792.6739926739926,-1.0,63.68282965698183,2.348090432113088,
2023-08-10 17:18:13.072000,8.421686746987952,1.566265060240964,-5.0,1.7461679950950337,9.071122011036174,-4.436541998773758,2.0,2.3465201465201466,426.1629722135498,0.2954373288269915,-0.2160713245148891,-0.1882174698444145,1804.3956043956043,-1.0,63.68282965698183,2.3480758157158728,
2023-08-10 17:18:13.080000,8.397590361445783,1.566265060240964,-4.9879518072289155,1.7388105456774983,9.066217044757817,-4.404659717964439,2.0,2.3465201465201466,426.1629722135498,0.14020161995221703,-0.42946215255521203,-0.013169395722859687,1804.3956043956043,-1.0,63.68282965698183,2.348061304886677,
2023-08-10 17:18:13.087000,8.409638554216867,1.5903614457831325,-4.9879518072289155,1.8221949724095645,9.034334763948497,-4.438994481912936,2.0,2.3465201465201466,426.1629722135498,0.2919410290775594,-0.3020802983509113,-0.31443389079890427,1793.4065934065932,-1.0,63.68282965698183,2.348046900320388,
2023-08-10 17:18:13.095000,8.397590361445783,1.5903614457831325,-5.0,1.7706928264868178,9.120171673819742,-4.43408951563458,2.0,2.3465201465201466,426.1629722135498,-0.014917545597576574,-0.3428704620942839,-0.38167938931297707,1769.230769230769,-1.0,63.68282965698183,2.3480326023718145,
2023-08-10 17:18:13.103000,8.421686746987952,1.602409638554217,-5.0,1.7216431637032494,9.095646842427957,-4.443899448191293,2.0,2.3465201465201466,426.1629722135498,-0.13425791037818222,0.13565643027795574,-0.4214206631315191,1734.7985347985348,-1.0,63.68282965698183,2.3480184110550923,
2023-08-10 17:18:13.110000,8.421686746987952,1.5783132530120483,-5.0120481927710845,1.6848559166155732,9.088289393010422,-4.453709380748007,2.0,2.3465201465201466,426.1629722135498,-0.08787366703572079,-0.04533535341763217,-0.1545364489248877,1693.7728937728937,-1.0,63.68282965698183,2.348004326044177,
2023-08-10 17:18:13.118000,8.421686746987952,1.566265060240964,-4.9879518072289155,1.8001226241569588,9.085836909871244,-4.399754751686082,2.0,2.3465201465201466,426.1629722135498,-0.3321484761960261,0.12341938115494361,0.12318629450498236,1646.8864468864467,-1.0,63.68282965698183,2.347990346674479,
2023-08-10 17:18:13.126000,8.421686746987952,1.566265060240964,-5.0120481927710845,1.8148375229920293,9.041692213366032,-4.399754751686082,2.0,2.3465201465201466,426.1629722135498,0.09719713303420506,0.5657012994580737,-0.08973836023541765,1600.0,-1.0,63.68282965698183,2.347976472403506,
2023-08-10 17:18:13.133000,8.409638554216867,1.5903614457831325,-5.0,1.7290006131207847,9.083384426732065,-4.385039852851011,2.0,2.3465201465201466,426.1629722135498,-0.17516461744653566,0.608472699726124,0.23285356331216123,1553.8461538461538,-1.0,63.68282965698183,2.3479627022896783,
2023-08-10 17:18:13.141000,8.433734939759036,1.566265060240964,-4.975903614457832,1.7559779276517473,9.085836909871244,-4.421827099938688,2.0,2.3465201465201466,426.1629722135498,-0.17376609754676214,0.5415768311869936,0.12260357788007688,1510.6227106227104,-1.0,63.68282965698183,2.347949035034181,
2023-08-10 17:18:13.149000,8.421686746987952,1.5903614457831325,-4.9879518072289155,1.753525444512569,9.078479460453709,-4.426732066217045,2.0,2.3465201465201466,426.1629722135498,-0.21921799428937688,0.2929899190023887,0.1030242992832586,1471.062271062271,-1.0,63.68282965698183,2.3479354689541565,
2023-08-10 17:18:13.156000,8.3855421686747,1.5783132530120483,-5.0,1.7167381974248925,9.066217044757817,-4.367872470876763,2.0,2.3465201465201466,426.1629722135498,0.27177903385583657,0.47328244274809156,0.31571586737369606,1435.8974358974358,-1.0,63.68282965698183,2.3479220015684024,
2023-08-10 17:18:13.164000,8.397590361445783,1.5783132530120483,-5.0120481927710845,1.7706928264868178,9.058859595340282,-4.360515021459228,2.0,2.3465201465201466,426.1629722135498,0.07225686148825747,0.406386574208963,-0.194394266068411,1404.3956043956043,-1.0,63.68282965698183,2.3479086300974017,
2023-08-10 17:18:13.172000,8.397590361445783,1.5783132530120483,-4.9879518072289155,1.7118332311465358,9.100551808706316,-4.394849785407725,2.0,2.3465201465201466,426.1629722135498,-0.09673095973428172,0.3708408600897385,-0.11992308140551243,1376.5567765567764,-1.0,63.68282965698183,2.3478953514718715,
2023-08-10 17:18:13.179000,8.409638554216867,1.5783132530120483,-4.963855421686747,1.7878602084610666,9.026977314530962,-4.424279583077866,2.0,2.3465201465201466,426.1629722135498,-0.14404754967659159,0.2749257036303243,-0.183206106870229,1352.3809523809523,-1.0,63.68282965698183,2.3478821623424975,
2023-08-10 17:18:13.187000,8.397590361445783,1.5903614457831325,-4.9879518072289155,1.765787860208461,9.083384426732065,-4.399754751686082,2.0,2.3465201465201466,426.1629722135498,0.13181050055358118,0.2407785094108733,-0.41104830720820473,1333.3333333333333,-1.0,63.68282965698183,2.347869059090857,
2023-08-10 17:18:13.195000,8.421686746987952,1.6144578313253013,-4.975903614457832,1.7142857142857142,9.039239730226853,-4.443899448191293,2.0,2.3465201465201466,426.1629722135498,-0.0067595128489024,-0.021210885146553893,-0.46978614299865956,1315.7509157509157,-1.0,63.68282965698183,2.347856037841501,
2023-08-10 17:18:13.202000,8.409638554216867,1.5783132530120483,-5.0,1.765787860208461,9.04659717964439,-4.365419987737584,2.0,2.3465201465201466,426.1629722135498,0.03845929724375067,-0.6949478468620712,-0.2835499096789232,1297.4358974358975,-1.0,63.68282965698183,2.347843094475203,
2023-08-10 17:18:13.210000,8.433734939759036,1.5783132530120483,-5.0,1.6922133660331085,9.06131207847946,-4.407112201103617,2.0,2.3465201465201466,426.1629722135498,0.46547403997435993,-0.6137171493502703,-0.06701241186411028,1282.051282051282,-1.0,63.68282965698183,2.34783022464332,
2023-08-10 17:18:13.217000,8.421686746987952,1.5903614457831325,-5.0120481927710845,1.7682403433476395,9.115266707541386,-4.426732066217045,2.0,2.3465201465201466,426.1629722135498,0.4613950236000237,-0.6087057863760856,-0.06351611211467867,1270.3296703296703,-1.0,63.68282965698183,2.3478174237832765,
2023-08-10 17:18:13.225000,8.421686746987952,1.602409638554217,-4.9879518072289155,1.7584304107909257,9.073574494175352,-4.407112201103617,2.0,2.3465201465201466,426.1629722135498,0.10768603228250118,-0.7423809801293637,0.060136355690227905,1265.9340659340658,-1.0,63.68282965698183,2.3478046871350853,
2023-08-10 17:18:13.233000,8.397590361445783,1.602409638554217,-5.024096385542169,1.7118332311465358,9.088289393010422,-4.43408951563458,2.0,2.3465201465201466,426.1629722135498,0.19660858924305122,-0.41407843365771213,-0.19602587261814575,1263.003663003663,-1.0,63.68282965698183,2.3477920097589076,
2023-08-10 17:18:13.240000,8.397590361445783,1.602409638554217,-5.0120481927710845,1.73635806253832,9.02942979767014,-4.448804414469651,2.0,2.3465201465201466,426.1629722135498,-0.20266884214206687,-0.27236175048074074,0.38739001223704933,1264.4688644688645,-1.0,63.68282965698183,2.3477793865535843,
2023-08-10 17:18:13.248000,8.421686746987952,1.6144578313253013,-5.024096385542169,1.7461679950950337,9.034334763948497,-4.426732066217045,2.0,2.3465201465201466,426.1629722135498,-0.12540061767962304,-0.20721403181632816,0.14229939980187642,1271.062271062271,-1.0,63.68282965698183,2.3477668122760686,
2023-08-10 17:18:13.256000,8.421686746987952,1.602409638554217,-4.9879518072289155,1.7952176578786019,9.095646842427957,-4.438994481912936,2.0,2.3465201465201466,426.1629722135498,0.18110832702057048,0.14579569955130758,0.2826175630790747,1282.051282051282,-1.0,63.68282965698183,2.3477542820196136,
2023-08-10 17:18:13.263000,8.397590361445783,1.5783132530120483,-5.024096385542169,1.765787860208461,9.115266707541386,-4.407112201103617,2.0,2.3465201465201466,426.1629722135498,-0.021210885146553893,-0.07062525493852402,0.1631606549734865,1293.7728937728937,-1.0,63.68282965698183,2.3477417907097418,
2023-08-10 17:18:13.271000,8.409638554216867,1.5903614457831325,-5.0,1.7265481299816063,9.073574494175352,-4.446351931330472,2.0,2.3450549450549456,426.42924086223053,0.010022725948371029,0.4186236233319734,0.16479226152322127,1304.0293040293038,-1.0,63.68282965698183,2.3477293327049233,
2023-08-10 17:18:13.279000,8.44578313253012,1.5903614457831325,-5.0,1.7805027590435314,9.085836909871244,-4.382587369711833,2.0,2.3450549450549456,426.42924086223053,0.10314084260823987,0.30674203135015515,0.1502243459005885,1314.2857142857142,-1.0,63.68282965698183,2.347716902276274,
2023-08-10 17:18:13.286000,8.409638554216867,1.5783132530120483,-4.963855421686747,1.8025751072961373,9.058859595340282,-4.468424279583077,2.0,2.3465201465201466,426.1629722135498,0.08973836023541765,0.2851815162286588,0.28809509935318445,1326.007326007326,-1.0,63.68282965698183,2.3477044930326083,
2023-08-10 17:18:13.294000,8.44578313253012,1.5783132530120483,-4.9879518072289155,1.6897608828939301,9.085836909871244,-4.348252605763335,2.0,2.3465201465201466,426.1629722135498,-0.10896800885729212,0.09777984965911098,0.22819183031291865,1337.7289377289376,-1.0,63.68282965698183,2.347692098925022,
2023-08-10 17:18:13.302000,8.409638554216867,1.5903614457831325,-4.975903614457832,1.7755977927651747,9.044144696505212,-4.338442673206622,2.0,2.3465201465201466,426.1629722135498,0.07621933453761458,-0.07167414486335329,0.6557892896684343,1349.4505494505493,-1.0,63.68282965698183,2.3476797143030668,
2023-08-10 17:18:13.309000,8.421686746987952,1.5783132530120483,-5.0,1.7633353770692826,9.103004291845494,-4.414469650521152,2.0,2.3465201465201466,426.1629722135498,-0.09230231338500125,-0.0692267350387505,0.440067595128489,1361.1721611721612,-1.0,63.68282965698183,2.3476673330575006,
2023-08-10 17:18:13.317000,8.397590361445783,1.5783132530120483,-5.0120481927710845,1.7461679950950337,9.098099325567135,-4.40220723482526,2.0,2.3465201465201466,426.1629722135498,0.18250684692034225,-0.5606899364838873,0.19322883281860045,1372.161172161172,-1.0,63.68282965698183,2.3476549491343595,
2023-08-10 17:18:13.325000,8.421686746987952,1.5903614457831325,-4.975903614457832,1.7559779276517473,9.0907418761496,-4.426732066217045,2.0,2.3465201465201466,426.1629722135498,0.31886253714818474,-0.6809626478643431,0.27084668725598726,1380.2197802197802,-1.0,63.68282965698183,2.347642556556587,
2023-08-10 17:18:13.332000,8.409638554216867,1.5783132530120483,-4.9879518072289155,1.731453096259963,9.063764561618639,-4.426732066217045,2.0,2.3465201465201466,426.1629722135498,0.14777693607598702,-0.35580677116718107,0.2707301439310064,1389.0109890109889,-1.0,63.68282965698183,2.3476301494458505,
2023-08-10 17:18:13.340000,8.397590361445783,1.566265060240964,-5.0,1.7388105456774983,9.078479460453709,-4.441446965052115,2.0,2.3465201465201466,426.1629722135498,0.11735912825592969,-0.660451022667676,0.40615348755900005,1398.5347985347985,-1.0,63.68282965698183,2.3476177220444407,
2023-08-10 17:18:13.348000,8.409638554216867,1.566265060240964,-5.0,1.6946658491722868,9.080931943592887,-4.485591661557327,2.0,2.3465201465201466,426.1629722135498,0.20884563836606335,-0.2759745935551536,0.20546588194161172,1406.5934065934066,-1.0,63.68282965698183,2.347605268737209,
2023-08-10 17:18:13.355000,8.421686746987952,1.5783132530120483,-5.024096385542169,1.7118332311465358,9.07602697731453,-4.416922133660331,2.0,2.3450549450549456,426.42924086223053,0.20826292174115743,-0.09113688013518942,0.1288969174290542,1413.1868131868132,-1.0,63.68282965698183,2.3475927840734543,
2023-08-10 17:18:13.363000,8.397590361445783,1.5783132530120483,-4.9879518072289155,1.7240956468424278,9.13733905579399,-4.421827099938688,2.0,2.3465201465201466,426.1629722135498,-0.2510343220092077,-0.2146728046151156,0.39042013868655673,1416.117216117216,-1.0,63.68282965698183,2.3475802622960202,
2023-08-10 17:18:13.371000,8.409638554216867,1.5783132530120483,-5.0120481927710845,1.7706928264868178,9.117719190680564,-4.41937461679951,2.0,2.3465201465201466,426.1629722135498,0.17842783054600603,-0.28599731950352464,0.09649787308431917,1417.5824175824175,-1.0,63.68282965698183,2.3475676977833344,
2023-08-10 17:18:13.378000,8.421686746987952,1.566265060240964,-4.975903614457832,1.7731453096259961,9.036787247087675,-4.465971796443899,2.0,2.3450549450549456,426.42924086223053,-0.234485169861896,-0.11246430860672414,0.050579803041780655,1414.6520146520145,-1.0,63.68282965698183,2.3475550855951917,
2023-08-10 17:18:13.386000,8.409638554216867,1.5542168674698795,-4.9879518072289155,1.731453096259963,9.041692213366032,-4.451256897608829,2.0,2.3465201465201466,426.1629722135498,-0.020278538546705464,0.1339082804032397,-0.07447118466289857,1410.2564102564102,-1.0,63.68282965698183,2.347542420542513,
2023-08-10 17:18:13.394000,8.3855421686747,1.5542168674698795,-5.0120481927710845,1.778050275904353,9.036787247087675,-4.429184549356223,2.0,2.3450549450549456,426.42924086223053,-0.20406736204183865,0.1960258726181453,0.09195268341005788,1404.3956043956043,-1.0,63.68282965698183,2.347529697627724,
2023-08-10 17:18:13.401000,8.3855421686747,1.5783132530120483,-5.024096385542169,1.7167381974248925,9.019619865113427,-4.448804414469651,2.0,2.3465201465201466,426.1629722135498,0.07155760153837244,0.45615057397587566,-0.04824893654215959,1398.5347985347985,-1.0,63.68282965698183,2.3475169120959785,
2023-08-10 17:18:13.409000,8.409638554216867,1.5903614457831325,-5.024096385542169,1.7167381974248925,9.04659717964439,-4.5370938074800735,2.0,2.3465201465201466,426.1629722135498,-0.09568206980945246,-0.018880018646931958,0.22772565701299444,1389.7435897435896,-1.0,63.68282965698183,2.3475040594160013,
2023-08-10 17:18:13.417000,8.397590361445783,1.5783132530120483,-5.0120481927710845,1.73635806253832,9.071122011036174,-4.414469650521152,2.0,2.3465201465201466,426.1629722135498,-0.050929433016724465,0.6239729619486047,0.08880601363556921,1377.2893772893772,-1.0,63.68282965698183,2.3474911362800666,
2023-08-10 17:18:13.424000,8.421686746987952,1.602409638554217,-5.0,1.7461679950950337,9.144696505211526,-4.453709380748007,2.0,2.3450549450549456,426.42924086223053,0.10220849600839145,0.6628984324922788,0.17749548394615672,1360.4395604395604,-1.0,63.68282965698183,2.3474781396373334,
2023-08-10 17:18:13.432000,8.421686746987952,1.602409638554217,-4.9879518072289155,1.778050275904353,9.105456774984672,-4.436541998773758,2.0,2.3450549450549456,426.42924086223053,0.07074179826350485,0.44449624147776945,0.5746751354816154,1339.194139194139,-1.0,63.68282965698183,2.3474650657956624,
2023-08-10 17:18:13.440000,8.421686746987952,1.5783132530120483,-5.0,1.748620478234212,9.02942979767014,-4.394849785407725,2.0,2.3450549450549456,426.42924086223053,0.14532952625138426,0.7589301322766737,0.6167472757997785,1317.216117216117,-1.0,63.68282965698183,2.3474519113141654,
2023-08-10 17:18:13.447000,8.409638554216867,1.5903614457831325,-4.975903614457832,1.78295524218271,9.0907418761496,-4.358062538320048,2.0,2.3450549450549456,426.42924086223053,0.23413553988695346,0.7225686148825833,0.38074704271312865,1296.7032967032967,-1.0,63.68282965698183,2.3474386729437375,
2023-08-10 17:18:13.455000,8.409638554216867,1.566265060240964,-4.951807228915663,1.6873083997547516,9.132434089515634,-4.421827099938688,2.0,2.3450549450549456,426.42924086223053,0.10978381213215971,0.5014859273935078,0.5173358195909328,1282.7838827838827,-1.0,63.68282965698183,2.347425347212247,
2023-08-10 17:18:13.463000,8.409638554216867,1.566265060240964,-4.927710843373494,1.7755977927651747,9.093194359288779,-4.353157572041692,2.0,2.3450549450549456,426.42924086223053,0.2795874366295665,0.28483188625371453,0.4696695996736787,1275.4578754578754,-1.0,63.68282965698183,2.3474119309213664,
2023-08-10 17:18:13.470000,8.421686746987952,1.5783132530120483,-4.9879518072289155,1.7608828939301042,9.051502145922747,-4.404659717964439,2.0,2.3465201465201466,426.1629722135498,0.07820057106229227,0.11362974185653599,0.4970572810442282,1271.062271062271,-1.0,63.68282965698183,2.347398421149209,
2023-08-10 17:18:13.478000,8.433734939759036,1.566265060240964,-4.9879518072289155,1.753525444512569,9.041692213366032,-4.429184549356223,2.0,2.3450549450549456,426.42924086223053,0.167356214672804,-0.34893071499329953,0.20010488899248283,1267.3992673992673,-1.0,63.68282965698183,2.3473848162020414,
2023-08-10 17:18:13.486000,8.397590361445783,1.5783132530120483,-4.9879518072289155,1.7706928264868178,9.093194359288779,-4.328632740649907,2.0,2.3450549450549456,426.42924086223053,0.2720121205057982,-0.28716275275333647,-0.13787075345259597,1268.131868131868,-1.0,63.68282965698183,2.3473711146683454,
2023-08-10 17:18:13.493000,8.397590361445783,1.566265060240964,-4.975903614457832,1.8148375229920293,9.041692213366032,-4.407112201103617,2.0,2.3465201465201466,426.1629722135498,0.26944816735621463,-0.28914398927801416,-0.13717149350270966,1268.8644688644688,-1.0,63.68282965698183,2.3473573144714357,
2023-08-10 17:18:13.501000,8.421686746987952,1.5903614457831325,-4.975903614457832,1.748620478234212,9.071122011036174,-4.429184549356223,2.0,2.3465201465201466,426.1629722135498,0.23401899656197264,-0.8220966144164086,0.15255521240020956,1269.5970695970695,-1.0,63.68282965698183,2.3473434147673156,
2023-08-10 17:18:13.509000,8.433734939759036,1.566265060240964,-4.9879518072289155,1.7608828939301042,9.098099325567135,-4.409564684242795,2.0,2.3465201465201466,426.1629722135498,-0.1358895169279174,-1.0605442573276616,-0.22993998018763467,1271.062271062271,-1.0,63.68282965698183,2.3473294154871254,
2023-08-10 17:18:13.516000,8.44578313253012,1.566265060240964,-5.0,1.7633353770692826,9.051502145922747,-4.412017167381974,2.0,2.3450549450549456,426.42924086223053,0.29159139910261694,-0.4588310704504401,0.04568498339257598,1273.260073260073,-1.0,63.68282965698183,2.347315316915624,
2023-08-10 17:18:13.524000,8.433734939759036,1.5783132530120483,-5.048192771084338,1.7559779276517473,9.058859595340282,-4.431637032495401,2.0,2.3465201465201466,426.1629722135498,-0.07563661791270866,-0.25872618145795684,0.2758580502301732,1271.7948717948716,-1.0,63.68282965698183,2.3473011191643502,
2023-08-10 17:18:13.532000,8.409638554216867,1.5783132530120483,-4.9879518072289155,1.7559779276517473,9.073574494175352,-4.375229920294298,2.0,2.3450549450549456,426.42924086223053,0.015500262222480757,0.21595478118990652,0.31816327719829884,1270.3296703296703,-1.0,63.68282965698183,2.3472868226265087,
2023-08-10 17:18:13.539000,8.409638554216867,1.5783132530120483,-4.975903614457832,1.7510729613733904,9.103004291845494,-4.412017167381974,2.0,2.3465201465201466,426.1629722135498,0.24613950236000218,0.24590641571004052,-0.14532952625138382,1268.8644688644688,-1.0,63.68282965698183,2.3472724284306294,
2023-08-10 17:18:13.547000,8.421686746987952,1.566265060240964,-5.0,1.7755977927651747,9.10790925812385,-4.456161863887186,2.0,2.3465201465201466,426.1629722135498,-0.06118524561505717,0.4282967193054019,-0.09812947963405436,1267.3992673992673,-1.0,63.68282965698183,2.3472579379100664,
2023-08-10 17:18:13.555000,8.421686746987952,1.566265060240964,-4.9879518072289155,1.677498467198038,9.04659717964439,-4.385039852851011,2.0,2.3450549450549456,426.42924086223053,0.07563661791270866,0.27119631723093063,0.1770293106462325,1265.9340659340658,-1.0,63.68282965698183,2.3472433531259598,
2023-08-10 17:18:13.562000,8.421686746987952,1.5542168674698795,-5.024096385542169,1.7240956468424278,9.058859595340282,-4.397302268546904,2.0,2.3450549450549456,426.42924086223053,-0.1712021443971803,0.2685158207563662,0.10150923605850469,1265.9340659340658,-1.0,63.68282965698183,2.347228675913475,
2023-08-10 17:18:13.570000,8.421686746987952,1.566265060240964,-5.0,1.7682403433476395,9.10790925812385,-4.429184549356223,2.0,2.3465201465201466,426.1629722135498,0.21094341821572188,0.32713711322183975,-0.09929491288386447,1263.003663003663,-1.0,63.68282965698183,2.3472139078054575,
2023-08-10 17:18:13.578000,8.397590361445783,1.5783132530120483,-5.0,1.7510729613733904,9.095646842427957,-4.456161863887186,2.0,2.3435897435897437,426.69584245076584,0.10244158265835313,0.4467105646524088,-0.0692267350387505,1257.142857142857,-1.0,63.68282965698183,2.347199050514487,
2023-08-10 17:18:13.585000,8.409638554216867,1.5783132530120483,-4.9879518072289155,1.6971183323114654,9.056407112201104,-4.367872470876763,2.0,2.3450549450549456,426.42924086223053,-0.03752695064390224,0.3204941436979199,0.2366994930365362,1253.4798534798533,-1.0,63.68282965698183,2.347184105532833,
2023-08-10 17:18:13.593000,8.409638554216867,1.5783132530120483,-5.0,1.6848559166155732,9.044144696505212,-4.407112201103617,2.0,2.3450549450549456,426.42924086223053,0.1131635685566109,0.5954198473282443,0.14451372297651666,1253.4798534798533,-1.0,63.68282965698183,2.3471690744362195,
2023-08-10 17:18:13.600000,8.409638554216867,1.5783132530120483,-5.0120481927710845,1.753525444512569,9.080931943592887,-4.385039852851011,2.0,2.3450549450549456,426.42924086223053,-0.11817493153079728,0.49880543091894336,0.2652526076568967,1257.142857142857,-1.0,63.68282965698183,2.3471539593602886,
2023-08-10 17:18:13.608000,8.397590361445783,1.566265060240964,-4.975903614457832,1.73635806253832,9.066217044757817,-4.385039852851011,2.0,2.3450549450549456,426.42924086223053,-0.23914690286113813,0.29846745527649843,-0.14987471592564555,1263.7362637362637,-1.0,63.68282965698183,2.3471387625277806,
2023-08-10 17:18:13.616000,8.421686746987952,1.5783132530120483,-5.0,1.7240956468424278,9.051502145922747,-4.448804414469651,2.0,2.3450549450549456,426.42924086223053,0.08158032748674347,0.37398752986422623,-0.08962181691043637,1270.3296703296703,-1.0,63.68282965698183,2.3471234862326726,
2023-08-10 17:18:13.623000,8.421686746987952,1.5783132530120483,-4.975903614457832,1.6529736358062537,9.073574494175352,-4.431637032495401,2.0,2.3450549450549456,426.42924086223053,0.01876347532195112,0.3262047666219913,-0.044752636792727556,1274.7252747252746,-1.0,63.68282965698183,2.347108132365649,
2023-08-10 17:18:13.631000,8.397590361445783,1.5542168674698795,-4.975903614457832,1.731453096259963,9.120171673819742,-4.446351931330472,2.0,2.3450549450549456,426.42924086223053,0.003845929724374546,0.2943884389021622,0.28961016257793837,1276.923076923077,-1.0,63.68282965698183,2.3470927024640513,
2023-08-10 17:18:13.639000,8.421686746987952,1.566265060240964,-5.0,1.6848559166155732,9.110361741263029,-4.3408951563458,2.0,2.3450549450549456,426.42924086223053,-0.13425791037818222,0.18681894994464188,-0.0015150632247534776,1276.923076923077,-1.0,63.68282965698183,2.347077198640337,
2023-08-10 17:18:13.646000,8.457831325301205,1.5783132530120483,-4.963855421686747,1.731453096259963,9.117719190680564,-4.380134886572654,2.0,2.3465201465201466,426.1629722135498,-0.026571878095682785,-0.05407610279121226,-0.0013985198997726411,1279.120879120879,-1.0,63.68282965698183,2.3470616234930506,
2023-08-10 17:18:13.654000,8.44578313253012,1.5903614457831325,-4.975903614457832,1.7952176578786019,9.0907418761496,-4.426732066217045,2.0,2.3450549450549456,426.42924086223053,-0.10349047258318238,-0.034613367519376124,0.22795874366295654,1283.5164835164835,-1.0,63.68282965698183,2.347045979631932,
2023-08-10 17:18:13.662000,8.421686746987952,1.5783132530120483,-4.963855421686747,1.7755977927651747,9.100551808706316,-4.365419987737584,2.0,2.3450549450549456,426.42924086223053,0.034729910844356955,-0.21537206456500235,-0.05186177961657246,1287.9120879120878,-1.0,63.68282965698183,2.3470302697655128,
2023-08-10 17:18:13.669000,8.409638554216867,1.566265060240964,-4.9879518072289155,1.807480073574494,9.078479460453709,-4.438994481912936,2.0,2.3450549450549456,426.42924086223053,-0.0427714002680503,-0.3511450381679389,0.25138395198415026,1292.3076923076922,-1.0,63.68282965698183,2.34701449612292,
2023-08-10 17:18:13.677000,8.421686746987952,1.566265060240964,-4.975903614457832,1.7608828939301042,9.06131207847946,-4.414469650521152,2.0,2.3465201465201466,426.1629722135498,0.18565351669483177,-0.058388205815511886,0.14008507662723618,1296.7032967032967,-1.0,63.68282965698183,2.346998660928788,
2023-08-10 17:18:13.685000,8.433734939759036,1.5542168674698795,-4.975903614457832,1.7290006131207847,9.06131207847946,-4.416922133660331,2.0,2.3450549450549456,426.42924086223053,0.13996853330225537,-0.2858807761785438,0.13775421012761513,1299.6336996336995,-1.0,63.68282965698183,2.346982766844119,
2023-08-10 17:18:13.692000,8.409638554216867,1.566265060240964,-4.975903614457832,1.7118332311465358,9.066217044757817,-4.492949110974862,2.0,2.3465201465201466,426.1629722135498,0.1523221257502483,-0.3147835207738485,-0.030883981119981543,1301.098901098901,-1.0,63.68282965698183,2.346966816106465,
2023-08-10 17:18:13.700000,8.421686746987952,1.566265060240964,-5.0,1.7118332311465358,9.115266707541386,-4.416922133660331,2.0,2.3465201465201466,426.1629722135498,0.026455334770700212,-0.41967251325680266,-0.1680554746226912,1298.9010989010987,-1.0,63.68282965698183,2.3469508109731976,
2023-08-10 17:18:13.708000,8.433734939759036,1.5421686746987953,-4.9879518072289155,1.7167381974248925,9.093194359288779,-4.429184549356223,2.0,2.3465201465201466,426.1629722135498,-0.019229648621874467,-0.09906182623390192,-0.2284249169628812,1297.4358974358975,-1.0,63.68282965698183,2.346934754235969,
2023-08-10 17:18:13.715000,8.409638554216867,1.5542168674698795,-4.9879518072289155,1.748620478234212,9.142244022072347,-4.370324954015941,2.0,2.3450549450549456,426.42924086223053,0.1936950061185251,-0.008158032748674174,-0.24357554921041902,1297.4358974358975,-1.0,63.68282965698183,2.346918649212153,
2023-08-10 17:18:13.723000,8.409638554216867,1.5783132530120483,-4.9879518072289155,1.7388105456774983,9.088289393010422,-4.382587369711833,2.0,2.3465201465201466,426.1629722135498,0.08332847736145949,0.23390245323699005,-0.24217702931064594,1300.3663003663003,-1.0,63.68282965698183,2.346902498720648,
2023-08-10 17:18:13.731000,8.421686746987952,1.5783132530120483,-4.975903614457832,1.7339055793991416,9.142244022072347,-4.407112201103617,2.0,2.3435897435897437,426.69584245076584,0.007458772798787419,0.43062758580502386,-0.056173882640871656,1301.098901098901,-1.0,63.68282965698183,2.346886305077045,
2023-08-10 17:18:13.738000,8.44578313253012,1.5542168674698795,-4.9879518072289155,1.7240956468424278,9.083384426732065,-4.431637032495401,2.0,2.3450549450549456,426.42924086223053,-0.020045451896742058,0.30441116485053327,-0.16327719829846735,1301.8315018315018,-1.0,63.68282965698183,2.3468700710385764,
2023-08-10 17:18:13.746000,8.44578313253012,1.5542168674698795,-5.0120481927710845,1.7339055793991416,9.0907418761496,-4.389944819129369,2.0,2.3450549450549456,426.42924086223053,-0.18845055649437706,0.5597575898840389,0.2626886545073131,1301.8315018315018,-1.0,63.68282965698183,2.3468537991011793,
2023-08-10 17:18:13.754000,8.46987951807229,1.5903614457831325,-4.9397590361445785,1.7682403433476395,9.041692213366032,-4.367872470876763,2.0,2.3450549450549456,426.42924086223053,-0.03414719421945104,0.41769127673212497,-0.18204067362041845,1298.9010989010987,-1.0,63.68282965698183,2.3468374915680665,
2023-08-10 17:18:13.761000,8.421686746987952,1.5783132530120483,-4.951807228915663,1.7240956468424278,9.120171673819742,-4.372777437155119,2.0,2.3450549450549456,426.42924086223053,-0.06398228541460245,0.5528815337101574,0.35417516461744675,1294.5054945054944,-1.0,63.68282965698183,2.3468211505842493,
2023-08-10 17:18:13.769000,8.421686746987952,1.566265060240964,-4.9879518072289155,1.7731453096259961,9.07602697731453,-4.365419987737584,2.0,2.3450549450549456,426.42924086223053,-0.06526426198939513,0.550783753860497,0.3526601013926924,1290.8424908424909,-1.0,63.68282965698183,2.3468047781372388,
2023-08-10 17:18:13.777000,8.433734939759036,1.5783132530120483,-4.963855421686747,1.7461679950950337,9.066217044757817,-4.392397302268547,2.0,2.3450549450549456,426.42924086223053,-0.1276149408542624,0.39554804498572266,0.18355573684517237,1287.179487179487,-1.0,63.68282965698183,2.3467883760587642,
2023-08-10 17:18:13.784000,8.457831325301205,1.566265060240964,-4.951807228915663,1.765787860208461,9.085836909871244,-4.438994481912936,2.0,2.3465201465201466,426.1629722135498,0.1343744537031648,0.3949653283608185,-0.2598916147077678,1283.5164835164835,-1.0,63.68282965698183,2.3467719460274554,
2023-08-10 17:18:13.792000,8.433734939759036,1.5542168674698795,-4.975903614457832,1.7608828939301042,9.034334763948497,-4.35561005518087,2.0,2.3450549450549456,426.42924086223053,0.009440009323466846,-0.06759512848901532,-0.058388205815511886,1282.051282051282,-1.0,63.68282965698183,2.346755490065169,
2023-08-10 17:18:13.800000,8.421686746987952,1.566265060240964,-4.963855421686747,1.731453096259963,9.051502145922747,-4.367872470876763,2.0,2.3450549450549456,426.42924086223053,0.0844939106112696,-0.052561039566459654,-0.21234193811549454,1279.120879120879,-1.0,63.68282965698183,2.3467390101211123,
2023-08-10 17:18:13.807000,8.397590361445783,1.5903614457831325,-4.9879518072289155,1.7927651747394235,9.07602697731453,-4.394849785407725,2.0,2.3450549450549456,426.42924086223053,-0.19136413961890317,0.05069634636676106,0.001631606549734748,1276.923076923077,-1.0,63.68282965698183,2.346722507552881,
2023-08-10 17:18:13.815000,8.409638554216867,1.566265060240964,-4.9879518072289155,1.7216431637032494,9.066217044757817,-4.385039852851011,2.0,2.3450549450549456,426.42924086223053,0.23926344618611894,-0.08985490356039848,0.1198065380805316,1275.4578754578754,-1.0,63.68282965698183,2.3467059835913453,
2023-08-10 17:18:13.823000,8.409638554216867,1.5903614457831325,-4.9879518072289155,1.7682403433476395,9.049049662783569,-4.431637032495401,2.0,2.3450549450549456,426.42924086223053,0.13239321717848537,-0.15080706252549397,0.08670823378590982,1276.1904761904761,-1.0,63.68282965698183,2.3466894393484994,
2023-08-10 17:18:13.830000,8.409638554216867,1.5903614457831325,-4.9879518072289155,1.778050275904353,9.073574494175352,-4.463519313304721,2.0,2.3450549450549456,426.42924086223053,-0.006060252899015646,-0.3962473049356094,0.05291066954140216,1279.120879120879,-1.0,63.68282965698183,2.346672875826079,
2023-08-10 17:18:13.838000,8.397590361445783,1.5783132530120483,-5.0,1.8001226241569588,9.044144696505212,-4.431637032495401,2.0,2.3450549450549456,426.42924086223053,0.36058504749140574,-0.5942544140784342,0.15721694539945213,1287.9120879120878,-1.0,63.68282965698183,2.346656293924891,
2023-08-10 17:18:13.846000,8.421686746987952,1.5903614457831325,-5.0,1.7044757817290006,9.117719190680564,-4.385039852851011,2.0,2.3450549450549456,426.42924086223053,-0.03752695064390224,-0.4409999417283374,0.08938873026047427,1303.2967032967033,-1.0,63.68282965698183,2.3466396944548253,
2023-08-10 17:18:13.853000,8.421686746987952,1.5783132530120483,-4.9879518072289155,1.7608828939301042,9.080931943592887,-4.41937461679951,2.0,2.3450549450549456,426.42924086223053,0.16141250509877092,-0.19660858924305122,0.42037177320668945,1324.5421245421244,934.50927734375,64.20482006400627,2.3466230781454267,
2023-08-10 17:18:13.861000,8.433734939759036,1.5783132530120483,-4.9879518072289155,1.6578786020846106,9.06131207847946,-4.451256897608829,2.0,2.3450549450549456,426.42924086223053,0.09801293630907265,-0.028902744595302985,0.5525319037352135,1355.3113553113553,-1.0,64.20482006400627,2.346606445657035,
2023-08-10 17:18:13.869000,8.421686746987952,1.5542168674698795,-4.975903614457832,1.748620478234212,9.117719190680564,-4.367872470876763,2.0,2.3450549450549456,426.42924086223053,0.2960200454518974,0.3984616281102505,0.4432142649029776,1392.6739926739926,-1.0,64.20482006400627,2.34658979759236,
2023-08-10 17:18:13.876000,8.409638554216867,1.5421686746987953,-4.975903614457832,1.6554261189454322,9.134886572654812,-4.424279583077866,2.0,2.3450549450549456,426.42924086223053,0.11071615873200813,-0.15407027562496434,0.2118757648155703,1438.8278388278388,-1.0,64.20482006400627,2.34657313450847,
2023-08-10 17:18:13.884000,8.421686746987952,1.530120481927711,-4.9879518072289155,1.677498467198038,9.115266707541386,-4.412017167381974,2.0,2.3450549450549456,426.42924086223053,0.04638424334246317,-0.31862945049822305,0.3497465182681663,1488.6446886446886,-1.0,64.20482006400627,2.346556456929073,
2023-08-10 17:18:13.892000,8.433734939759036,1.530120481927711,-4.975903614457832,1.6750459840588594,9.041692213366032,-4.35561005518087,2.0,2.3450549450549456,426.42924086223053,-0.0779674844123306,-0.17737894062117676,0.2407785094108733,1542.1245421245421,-1.0,64.20482006400627,2.3465397658149363,
2023-08-10 17:18:13.899000,8.409638554216867,1.566265060240964,-4.9879518072289155,1.7216431637032494,9.056407112201104,-4.414469650521152,2.0,2.3435897435897437,426.69584245076584,0.05897092244041781,-0.17667968067129,-0.40510459763417034,1597.069597069597,-1.0,64.20482006400627,2.346523062509309,
2023-08-10 17:18:13.907000,8.433734939759036,1.5542168674698795,-4.975903614457832,1.7633353770692826,9.04659717964439,-4.358062538320048,2.0,2.3450549450549456,426.42924086223053,-0.33704329584522996,-0.09906182623390192,-0.15908163859914942,1653.4798534798533,-1.0,64.20482006400627,2.346506347311803,
2023-08-10 17:18:13.915000,8.44578313253012,1.566265060240964,-4.9879518072289155,1.6505211526670753,9.117719190680564,-4.372777437155119,2.0,2.3450549450549456,426.42924086223053,-0.3844764291125224,0.3755025930889806,-0.3276032865217644,1709.1575091575091,-1.0,64.20482006400627,2.3464896199825325,
2023-08-10 17:18:13.922000,8.44578313253012,1.5421686746987953,-4.975903614457832,1.7412630288166768,9.068669527896995,-4.392397302268547,2.0,2.3450549450549456,426.42924086223053,-0.01678223879727343,-0.16071324514888416,-0.41827399335703047,1760.4395604395604,-1.0,64.20482006400627,2.3464728807706936,
2023-08-10 17:18:13.930000,8.433734939759036,1.566265060240964,-4.963855421686747,1.8050275904353157,9.093194359288779,-4.382587369711833,2.0,2.3450549450549456,426.42924086223053,-0.2764407668550787,-0.2498688887593959,-0.38739001223704933,1804.3956043956043,-1.0,64.20482006400627,2.3464561299673474,
2023-08-10 17:18:13.938000,8.433734939759036,1.5542168674698795,-4.9879518072289155,1.7805027590435314,9.100551808706316,-4.353157572041692,2.0,2.3450549450549456,426.42924086223053,0.13857001340248185,-0.3551075112172943,-0.5387797913874484,1840.2930402930401,-1.0,64.20482006400627,2.3464393679158886,
2023-08-10 17:18:13.945000,8.421686746987952,1.566265060240964,-4.963855421686747,1.7240956468424278,9.105456774984672,-4.362967504598406,2.0,2.3450549450549456,426.42924086223053,-0.061884505564943924,-0.1389196433774261,-0.29333954897733205,1863.003663003663,-1.0,64.20482006400627,2.3464225950223145,
2023-08-10 17:18:13.953000,8.433734939759036,1.566265060240964,-4.975903614457832,1.731453096259963,9.041692213366032,-4.431637032495401,2.0,2.3465201465201466,426.1629722135498,-0.047083503292348186,-0.2449740691101921,-0.18716857991958524,1872.5274725274724,-1.0,64.20482006400627,2.346405811765175,
2023-08-10 17:18:13.961000,8.421686746987952,1.566265060240964,-4.975903614457832,1.7290006131207847,9.066217044757817,-4.404659717964439,2.0,2.3450549450549456,426.42924086223053,-0.06048598566517042,-0.06398228541460245,0.100460346133675,1867.3992673992673,-1.0,64.20482006400627,2.346389019197889,
2023-08-10 17:18:13.968000,8.433734939759036,1.566265060240964,-4.9879518072289155,1.7682403433476395,9.080931943592887,-4.443899448191293,2.0,2.3450549450549456,426.42924086223053,0.22993998018763467,-0.2941553522522005,-0.10255812598333439,1850.5494505494505,-1.0,64.20482006400627,2.346372218537516,
2023-08-10 17:18:13.976000,8.3855421686747,1.5783132530120483,-4.951807228915663,1.7559779276517473,9.103004291845494,-4.375229920294298,2.0,2.3450549450549456,426.42924086223053,0.1828564768952865,-0.3399568789697578,0.01876347532195112,1821.9780219780218,-1.0,64.20482006400627,2.346355410649088,
2023-08-10 17:18:13.983000,8.397590361445783,1.5783132530120483,-4.975903614457832,1.7167381974248925,9.100551808706316,-4.407112201103617,2.0,2.3450549450549456,426.42924086223053,-0.07761785443738635,-0.43354116892954997,-0.15290484237515295,1783.150183150183,-1.0,64.20482006400627,2.3463385965124366,
2023-08-10 17:18:13.991000,8.433734939759036,1.566265060240964,-4.975903614457832,1.7927651747394235,9.063764561618639,-4.412017167381974,2.0,2.3450549450549456,426.42924086223053,-0.32259192354757843,-0.2482372822096607,-0.04568498339257598,1736.263736263736,-1.0,64.20482006400627,2.34632177723062,
2023-08-10 17:18:13.999000,8.421686746987952,1.5903614457831325,-4.951807228915663,1.7461679950950337,9.068669527896995,-4.446351931330472,2.0,2.3450549450549456,426.42924086223053,0.06001981236524707,-0.18250684692034225,-0.12202086125517139,1685.7142857142856,-1.0,64.20482006400627,2.3463049540377434,
2023-08-10 17:18:14.006000,8.421686746987952,1.5783132530120483,-4.975903614457832,1.7461679950950337,9.051502145922747,-4.385039852851011,2.0,2.3450549450549456,426.42924086223053,-0.1828564768952865,-0.10220849600839145,-0.48808344502068646,1633.6996336996335,-1.0,64.20482006400627,2.3462881283061496,
2023-08-10 17:18:14.014000,8.44578313253012,1.5903614457831325,-5.0,1.778050275904353,9.0907418761496,-4.409564684242795,2.0,2.3450549450549456,426.42924086223053,-0.15220558242526575,-0.17283375094691372,-0.37620185303886733,1583.8827838827838,-1.0,64.20482006400627,2.346271301552939,
2023-08-10 17:18:14.022000,8.421686746987952,1.5542168674698795,-5.0,1.6971183323114654,9.080931943592887,-4.426732066217045,2.0,2.3450549450549456,426.42924086223053,-0.07563661791270866,0.2143231746401731,0.31676475729852577,1538.4615384615383,-1.0,64.20482006400627,2.3462544759036525,
2023-08-10 17:18:14.029000,8.421686746987952,1.566265060240964,-5.0,1.7952176578786019,9.088289393010422,-4.412017167381974,2.0,2.3450549450549456,426.42924086223053,0.29112522580269184,-0.1355398869529749,0.19474389604335393,1499.6336996336995,-1.0,64.20482006400627,2.346237653572212,
2023-08-10 17:18:14.037000,8.409638554216867,1.566265060240964,-4.9879518072289155,1.6971183323114654,9.100551808706316,-4.40220723482526,2.0,2.3435897435897437,426.69584245076584,0.04440300681778374,0.005827166249052237,0.44134957170328076,1463.003663003663,-1.0,64.20482006400627,2.3462208364440857,
2023-08-10 17:18:14.045000,8.421686746987952,1.566265060240964,-4.975903614457832,1.824647455548743,9.051502145922747,-4.416922133660331,2.0,2.3435897435897437,426.69584245076584,0.04486918011770882,0.17539770409649733,0.28692966610337395,1430.7692307692307,-1.0,64.20482006400627,2.3462040265370283,
2023-08-10 17:18:14.052000,8.421686746987952,1.566265060240964,-4.975903614457832,1.7976701410177804,9.142244022072347,-4.412017167381974,2.0,2.3450549450549456,426.42924086223053,0.046500786667444005,0.17423227084668724,0.2844822562787716,1402.9304029304028,-1.0,64.20482006400627,2.3461872258636567,
2023-08-10 17:18:14.060000,8.421686746987952,1.566265060240964,-5.0120481927710845,1.7412630288166768,9.15205395462906,-4.443899448191293,2.0,2.3450549450549456,426.42924086223053,-0.13915273002738776,0.04953091311695096,0.46733873317405766,1380.952380952381,-1.0,64.20482006400627,2.346170436431411,
2023-08-10 17:18:14.068000,8.421686746987952,1.566265060240964,-4.975903614457832,1.7216431637032494,9.083384426732065,-4.377682403433476,2.0,2.3450549450549456,426.42924086223053,-0.03100052444496325,0.12411864110483035,0.3431035487442456,1359.7069597069597,-1.0,64.20482006400627,2.346153660379839,
2023-08-10 17:18:14.075000,8.421686746987952,1.5542168674698795,-5.0,1.719190680564071,9.117719190680564,-4.345800122624157,2.0,2.3450549450549456,426.42924086223053,-0.22959035021269217,0.33622749257036233,0.05034671639181855,1338.4615384615383,-1.0,64.20482006400627,2.346136900012482,
2023-08-10 17:18:14.083000,8.433734939759036,1.566265060240964,-5.0,1.6676885346413242,9.0907418761496,-4.438994481912936,2.0,2.3450549450549456,426.42924086223053,-0.21082687489074106,0.10279121263329563,-0.19625895926810785,1318.6813186813185,-1.0,64.20482006400627,2.3461201582510838,
2023-08-10 17:18:14.091000,8.409638554216867,1.5542168674698795,-4.975903614457832,1.6701410177805027,9.044144696505212,-4.387492335990189,2.0,2.3450549450549456,426.42924086223053,-0.17807820057106177,-0.45113921100168924,-0.10384010255812576,1304.0293040293038,-1.0,64.20482006400627,2.3461034381060926,
2023-08-10 17:18:14.098000,8.421686746987952,1.5542168674698795,-4.9879518072289155,1.753525444512569,9.085836909871244,-4.412017167381974,2.0,2.3435897435897437,426.69584245076584,-0.03752695064390224,-0.4350562321543026,-0.16712312802284232,1291.5750915750914,-1.0,64.20482006400627,2.3460867427083816,
2023-08-10 17:18:14.106000,8.421686746987952,1.566265060240964,-4.9879518072289155,1.7216431637032494,9.100551808706316,-4.443899448191293,2.0,2.3450549450549456,426.42924086223053,-0.08356156401142116,-0.7095157624847036,-0.06258376551483025,1283.5164835164835,-1.0,64.20482006400627,2.346070074777827,
2023-08-10 17:18:14.114000,8.421686746987952,1.566265060240964,-4.975903614457832,1.6897608828939301,9.093194359288779,-4.409564684242795,2.0,2.3450549450549456,426.42924086223053,-0.008041489423693338,-0.19963871569255817,-0.46302663014975803,1280.5860805860805,-1.0,64.20482006400627,2.3460534366157857,
2023-08-10 17:18:14.121000,8.421686746987952,1.566265060240964,-4.963855421686747,1.7608828939301042,9.10790925812385,-4.387492335990189,2.0,2.3450549450549456,426.42924086223053,-0.5587086999592096,-0.15302138570013335,-0.09509935318454654,1282.051282051282,-1.0,64.20482006400627,2.346036831114228,
2023-08-10 17:18:14.129000,8.433734939759036,1.566265060240964,-4.975903614457832,1.7216431637032494,9.112814224402207,-4.338442673206622,2.0,2.3450549450549456,426.42924086223053,-0.023075578346250746,-0.013868655672745575,-0.27748965677990794,1288.6446886446886,-1.0,64.20482006400627,2.3460202612887744,
2023-08-10 17:18:14.137000,8.421686746987952,1.5783132530120483,-4.975903614457832,1.7461679950950337,9.026977314530962,-4.397302268546904,2.0,2.3450549450549456,426.42924086223053,0.05372647281626975,-0.1471942194510811,-0.4295786958801933,1298.9010989010987,-1.0,64.20482006400627,2.3460037302692305,
2023-08-10 17:18:14.144000,8.433734939759036,1.5783132530120483,-4.9879518072289155,1.7755977927651747,9.063764561618639,-4.382587369711833,2.0,2.3450549450549456,426.42924086223053,-0.2690985373812721,0.07202377483829579,-0.45591748732591353,1309.89010989011,-1.0,64.20482006400627,2.345987241289866,
2023-08-10 17:18:14.152000,8.44578313253012,1.5783132530120483,-4.963855421686747,1.7510729613733904,9.13733905579399,-4.407112201103617,2.0,2.3450549450549456,426.42924086223053,-0.009323465998484274,-0.1994056290425965,-0.17749548394615716,1321.6117216117216,-1.0,64.20482006400627,2.345970797679473,
2023-08-10 17:18:14.160000,8.421686746987952,1.566265060240964,-4.9879518072289155,1.7510729613733904,9.125076640098099,-4.40220723482526,2.0,2.3435897435897437,426.69584245076584,0.034380280869412715,0.2316881300623507,-0.0844939106112696,1333.3333333333333,-1.0,64.20482006400627,2.345954402851303,
2023-08-10 17:18:14.167000,8.421686746987952,1.5542168674698795,-5.0,1.7290006131207847,9.095646842427957,-4.399754751686082,2.0,2.3450549450549456,426.42924086223053,-0.20861255171609994,0.004428646349280464,-0.2043004486918012,1345.054945054945,-1.0,64.20482006400627,2.345938059800284,
2023-08-10 17:18:14.175000,8.46987951807229,1.5542168674698795,-4.963855421686747,1.7952176578786019,9.080931943592887,-4.387492335990189,2.0,2.3450549450549456,426.42924086223053,-0.32911834974651744,0.23646640638657368,0.11572752170619408,1356.7765567765566,-1.0,64.20482006400627,2.345921771513392,
2023-08-10 17:18:14.183000,8.433734939759036,1.566265060240964,-5.0,1.765787860208461,9.132434089515634,-4.412017167381974,2.0,2.3450549450549456,426.42924086223053,-0.19043179301905475,0.11537789173125026,0.1743488141716685,1370.6959706959706,-1.0,64.20482006400627,2.3459055414841523,
2023-08-10 17:18:14.190000,8.421686746987952,1.5421686746987953,-4.963855421686747,1.7461679950950337,9.15205395462906,-4.331085223789086,2.0,2.3435897435897437,426.69584245076584,-0.06841093176388291,-0.17341646757181964,0.17096905774721774,1384.6153846153845,-1.0,64.20482006400627,2.3458893732443027,
2023-08-10 17:18:14.198000,8.397590361445783,1.5783132530120483,-4.9879518072289155,1.7755977927651747,9.105456774984672,-4.350705088902513,2.0,2.3435897435897437,426.69584245076584,-0.15896509527416816,-0.12435172775479203,-0.09370083328477347,1397.069597069597,-1.0,64.20482006400627,2.3458732703188,
2023-08-10 17:18:14.206000,8.397590361445783,1.5542168674698795,-4.9879518072289155,1.6750459840588594,9.112814224402207,-4.358062538320048,2.0,2.3435897435897437,426.69584245076584,0.37608530971388654,-0.3982285414602871,0.07062525493852358,1409.5238095238094,-1.0,64.20482006400627,2.3458572360764958,
2023-08-10 17:18:14.213000,8.421686746987952,1.566265060240964,-4.9879518072289155,1.7412630288166768,9.085836909871244,-4.382587369711833,2.0,2.3435897435897437,426.69584245076584,-0.17656313734630918,-0.12551716100460386,-0.08554280053609929,1419.7802197802198,-1.0,64.20482006400627,2.34584127368459,
2023-08-10 17:18:14.221000,8.397590361445783,1.5542168674698795,-4.9879518072289155,1.753525444512569,9.149601471489882,-4.431637032495401,2.0,2.3435897435897437,426.69584245076584,-0.049997086416876044,-0.174931530796574,-0.4373870986539245,1429.3040293040292,-1.0,64.20482006400627,2.345825386097052,
2023-08-10 17:18:14.229000,8.433734939759036,1.5783132530120483,-4.975903614457832,1.7878602084610666,9.068669527896995,-4.350705088902513,2.0,2.3450549450549456,426.42924086223053,0.44204883165316666,-0.11712604160596629,0.007342229473807017,1436.6300366300366,-1.0,64.20482006400627,2.3458095755844584,
2023-08-10 17:18:14.236000,8.433734939759036,1.5542168674698795,-4.963855421686747,1.7903126916002452,9.105456774984672,-4.438994481912936,2.0,2.3435897435897437,426.69584245076584,0.2101276149408543,-0.42724782938057265,0.2969523920517454,1442.4908424908424,-1.0,64.20482006400627,2.345793844280997,
2023-08-10 17:18:14.244000,8.421686746987952,1.566265060240964,-4.963855421686747,1.731453096259963,9.134886572654812,-4.412017167381974,2.0,2.3435897435897437,426.69584245076584,0.17912709049589104,0.07656896451255708,0.18542043004486924,1443.956043956044,-1.0,64.20482006400627,2.3457781942389344,
2023-08-10 17:18:14.252000,8.397590361445783,1.5542168674698795,-5.0120481927710845,1.7437155119558552,9.063764561618639,-4.365419987737584,2.0,2.3450549450549456,426.42924086223053,-0.1752811607715165,-0.17050288444729353,0.6440184138453467,1441.0256410256409,-1.0,64.20482006400627,2.3457626268866307,
2023-08-10 17:18:14.259000,8.409638554216867,1.566265060240964,-5.0361445783132535,1.7461679950950337,9.095646842427957,-4.350705088902513,2.0,2.3435897435897437,426.69584245076584,0.023192121671231584,-0.384709515762484,0.04382029019287913,1434.4322344322343,-1.0,64.20482006400627,2.3457471439625843,
2023-08-10 17:18:14.267000,8.397590361445783,1.5542168674698795,-4.963855421686747,1.7682403433476395,9.044144696505212,-4.426732066217045,2.0,2.3435897435897437,426.69584245076584,0.2530155585338854,-0.13658877687780416,-0.24544024241011586,1427.8388278388277,-1.0,64.20482006400627,2.3457317470789047,
2023-08-10 17:18:14.275000,8.421686746987952,1.5542168674698795,-4.975903614457832,1.765787860208461,9.058859595340282,-4.394849785407725,2.0,2.3435897435897437,426.69584245076584,0.23530097313676357,0.03169978439484827,0.107802575607482,1420.5128205128203,-1.0,64.20482006400627,2.3457164371813413,
2023-08-10 17:18:14.282000,8.409638554216867,1.5542168674698795,-5.0,1.7142857142857142,9.098099325567135,-4.424279583077866,2.0,2.3435897435897437,426.69584245076584,-0.04160596701823846,-0.11817493153079728,-0.24392517918536197,1412.4542124542124,-1.0,64.20482006400627,2.3457012149929697,
2023-08-10 17:18:14.290000,8.421686746987952,1.566265060240964,-4.975903614457832,1.7290006131207847,9.10790925812385,-4.394849785407725,2.0,2.3450549450549456,426.42924086223053,-0.0867082337859107,-0.160829788473865,-0.16560806479808884,1401.4652014652013,-1.0,64.20482006400627,2.3456860814586395,
2023-08-10 17:18:14.298000,8.433734939759036,1.5542168674698795,-4.963855421686747,1.7388105456774983,9.063764561618639,-4.367872470876763,2.0,2.3450549450549456,426.42924086223053,-0.11631023833110044,0.05629042596585336,-0.07155760153837201,1388.278388278388,-1.0,64.20482006400627,2.3456710376999363,
2023-08-10 17:18:14.305000,8.421686746987952,1.5542168674698795,-5.0,1.7093807480073573,9.105456774984672,-4.448804414469651,2.0,2.3435897435897437,426.69584245076584,-0.04032399044344752,0.25511333838354394,-0.07027562496358021,1373.6263736263736,-1.0,64.20482006400627,2.3456560846546255,
2023-08-10 17:18:14.313000,8.44578313253012,1.566265060240964,-4.9879518072289155,1.7633353770692826,9.068669527896995,-4.426732066217045,2.0,2.3435897435897437,426.69584245076584,0.18914981644426382,-0.08321193403647865,-0.23366936658702883,1358.2417582417581,-1.0,64.20482006400627,2.3456412226130885,
2023-08-10 17:18:14.321000,8.421686746987952,1.5903614457831325,-4.975903614457832,1.73635806253832,9.134886572654812,-4.382587369711833,2.0,2.3435897435897437,426.69584245076584,-0.10349047258318238,-0.2815686731542459,-0.12260357788007688,1343.5897435897434,-1.0,64.20482006400627,2.3456264516000616,
2023-08-10 17:18:14.328000,8.433734939759036,1.566265060240964,-4.951807228915663,1.706928264868179,9.031882280809318,-4.372777437155119,2.0,2.3435897435897437,426.69584245076584,-0.10174232270846637,-0.2836664530039044,-0.12108851465532297,1329.6703296703297,-1.0,64.20482006400627,2.3456117712996325,
2023-08-10 17:18:14.336000,8.44578313253012,1.5542168674698795,-4.975903614457832,1.7118332311465358,9.129981606376456,-4.377682403433476,2.0,2.3450549450549456,426.42924086223053,0.16059670182390334,0.15605151214964202,-0.2105937882407785,1316.4835164835165,-1.0,64.20482006400627,2.345597181085454,
2023-08-10 17:18:14.343000,8.397590361445783,1.5542168674698795,-5.0,1.6897608828939301,9.073574494175352,-4.40220723482526,2.0,2.3435897435897437,426.69584245076584,-0.12994580735388434,-0.4127964570829212,-0.3146669774488668,1304.7619047619046,-1.0,64.20482006400627,2.3455826804750672,
2023-08-10 17:18:14.351000,8.421686746987952,1.566265060240964,-5.0,1.7093807480073573,9.041692213366032,-4.387492335990189,2.0,2.3435897435897437,426.69584245076584,-0.05209486626653457,0.21117650486568357,-0.20313501544199067,1294.5054945054944,-1.0,64.20482006400627,2.3455682687415615,
2023-08-10 17:18:14.359000,8.397590361445783,1.566265060240964,-4.975903614457832,1.7388105456774983,9.078479460453709,-4.41937461679951,2.0,2.3435897435897437,426.69584245076584,0.010605442573276946,0.06992599498863726,-0.36874308024007907,1284.2490842490843,-1.0,64.20482006400627,2.3455539448106357,
2023-08-10 17:18:14.366000,8.409638554216867,1.5783132530120483,-4.9879518072289155,1.8270999386879214,9.034334763948497,-4.380134886572654,2.0,2.3435897435897437,426.69584245076584,0.1339082804032397,0.022725948371306502,-0.594720587378358,1276.1904761904761,-1.0,64.20482006400627,2.3455397072282613,
2023-08-10 17:18:14.374000,8.433734939759036,1.5903614457831325,-4.975903614457832,1.8172900061312078,9.068669527896995,-4.426732066217045,2.0,2.3435897435897437,426.69584245076584,0.05430918944117393,-0.05559116601596661,-0.05360992949128848,1268.8644688644688,-1.0,64.20482006400627,2.345525554163902,
2023-08-10 17:18:14.382000,8.409638554216867,1.602409638554217,-4.975903614457832,1.748620478234212,9.073574494175352,-4.35561005518087,2.0,2.3435897435897437,426.69584245076584,-0.12831420080414915,0.17143523104714195,-0.2058155119165551,1262.2710622710622,-1.0,64.20482006400627,2.345511482956687,
2023-08-10 17:18:14.389000,8.433734939759036,1.5783132530120483,-4.9879518072289155,1.7339055793991416,9.098099325567135,-4.365419987737584,2.0,2.3435897435897437,426.69584245076584,-0.053143756191363835,-0.15162286580036158,-0.14346483305168697,1260.07326007326,-1.0,64.20482006400627,2.345497490645413,
2023-08-10 17:18:14.397000,8.421686746987952,1.566265060240964,-4.9879518072289155,1.7240956468424278,9.095646842427957,-4.416922133660331,2.0,2.3435897435897437,426.69584245076584,0.29788473865159426,-0.24136122603577922,-0.006176796223996482,1260.07326007326,-1.0,64.20482006400627,2.345483574395398,
2023-08-10 17:18:14.405000,8.421686746987952,1.566265060240964,-5.0120481927710845,1.7388105456774983,9.078479460453709,-4.40220723482526,2.0,2.3435897435897437,426.69584245076584,-0.026921508070625294,-0.024590641571003356,0.08554280053609929,1263.003663003663,-1.0,64.20482006400627,2.345469730555233,
2023-08-10 17:18:14.412000,8.44578313253012,1.5783132530120483,-5.0,1.7167381974248925,9.132434089515634,-4.389944819129369,2.0,2.3435897435897437,426.69584245076584,-0.24031233611094996,-0.15861546529922566,0.06864401841384546,1265.9340659340658,-1.0,64.20482006400627,2.3454559547322065,
2023-08-10 17:18:14.420000,8.433734939759036,1.5783132530120483,-5.0,1.7265481299816063,9.12262415695892,-4.392397302268547,2.0,2.3435897435897437,426.69584245076584,0.2184021910145093,-0.17306683759687713,0.14556261290134592,1267.3992673992673,-1.0,64.20482006400627,2.345442242747685,
2023-08-10 17:18:14.428000,8.433734939759036,1.566265060240964,-4.963855421686747,1.7388105456774983,9.07602697731453,-4.421827099938688,2.0,2.3435897435897437,426.69584245076584,-0.24206048598566596,6.992599498867545E-4,-0.008158032748674174,1267.3992673992673,-1.0,64.20482006400627,2.345428590118398,
2023-08-10 17:18:14.435000,8.433734939759036,1.566265060240964,-4.963855421686747,1.7118332311465358,9.06131207847946,-4.404659717964439,2.0,2.3435897435897437,426.69584245076584,0.1571004020744713,-0.20814637841617661,-0.03787658061884518,1268.131868131868,-1.0,64.20482006400627,2.345414992101192,
2023-08-10 17:18:14.443000,8.433734939759036,1.566265060240964,-5.0,1.7240956468424278,9.078479460453709,-4.41937461679951,2.0,2.3435897435897437,426.69584245076584,0.04918128314200845,-0.2795874366295665,-0.033797564244508096,1270.3296703296703,-1.0,64.20482006400627,2.3454014436695463,
2023-08-10 17:18:14.451000,8.421686746987952,1.5542168674698795,-5.0,1.7731453096259961,9.034334763948497,-4.380134886572654,2.0,2.3435897435897437,426.69584245076584,-0.026804964745644456,-0.3479983683934494,-0.10570479575782304,1275.4578754578754,-1.0,64.20482006400627,2.3453879395608617,
2023-08-10 17:18:14.458000,8.433734939759036,1.5783132530120483,-4.9879518072289155,1.6897608828939301,9.105456774984672,-4.436541998773758,2.0,2.3435897435897437,426.69584245076584,-0.009906182623390191,0.10302429928325904,0.01969582192179955,1281.3186813186812,-1.0,64.20482006400627,2.3453744747133545,
2023-08-10 17:18:14.466000,8.457831325301205,1.5783132530120483,-5.0,1.7216431637032494,9.110361741263029,-4.421827099938688,2.0,2.3435897435897437,426.69584245076584,0.09754676300914931,-0.3059262280752876,-0.28226793310413134,1287.9120879120878,-1.0,64.20482006400627,2.3453610437906893,
2023-08-10 17:18:14.474000,8.44578313253012,1.566265060240964,-4.975903614457832,1.6897608828939301,9.115266707541386,-4.382587369711833,2.0,2.3435897435897437,426.69584245076584,-0.11514480508128859,-0.04160596701823846,-0.1547695355748498,1290.10989010989,-1.0,64.20482006400627,2.345347640742302,
2023-08-10 17:18:14.481000,8.433734939759036,1.5421686746987953,-5.0,1.6873083997547516,9.04659717964439,-4.409564684242795,2.0,2.3435897435897437,426.69584245076584,0.09976108618378868,-0.20802983509119577,-0.31804673387331756,1288.6446886446886,-1.0,64.20482006400627,2.345334259347533,
2023-08-10 17:18:14.489000,8.409638554216867,1.5783132530120483,-4.9879518072289155,1.7412630288166768,9.044144696505212,-4.389944819129369,2.0,2.3435897435897437,426.69584245076584,0.2832002797039794,0.1729502942718963,0.006293339548977319,1287.179487179487,-1.0,64.20482006400627,2.345320893198699,
2023-08-10 17:18:14.497000,8.421686746987952,1.5542168674698795,-4.963855421686747,1.7510729613733904,9.0907418761496,-4.392397302268547,2.0,2.3435897435897437,426.69584245076584,-0.236233319736612,-0.12027271138045581,-0.05605733931589082,1286.4468864468863,-1.0,64.20482006400627,2.345307535754753,
2023-08-10 17:18:14.504000,8.409638554216867,1.5783132530120483,-5.0120481927710845,1.6995708154506437,9.073574494175352,-4.426732066217045,2.0,2.342124542124542,426.96277760400375,-0.21735330108968004,-0.12120505798030425,0.08053143756191378,1285.7142857142856,-1.0,64.20482006400627,2.34529418078435,
2023-08-10 17:18:14.512000,8.3855421686747,1.5783132530120483,-5.0,1.6897608828939301,9.071122011036174,-4.43408951563458,2.0,2.3435897435897437,426.69584245076584,-0.3820290192879196,-0.1414835965270097,-0.11759221490589136,1285.7142857142856,-1.0,64.20482006400627,2.345280821403712,
2023-08-10 17:18:14.520000,8.421686746987952,1.5903614457831325,-5.0120481927710845,1.753525444512569,9.009809932556713,-4.456161863887186,2.0,2.3435897435897437,426.69584245076584,-0.33447934269564633,0.12656605092943313,-0.37818308956354507,1282.7838827838827,-1.0,64.20482006400627,2.345267450520938,
2023-08-10 17:18:14.527000,8.433734939759036,1.5903614457831325,-4.9879518072289155,1.8025751072961373,9.026977314530962,-4.436541998773758,2.0,2.3435897435897437,426.69584245076584,-0.20768020511625152,0.2901928792028434,-0.29881708525144224,1277.6556776556777,-1.0,64.20482006400627,2.3452540613848387,
2023-08-10 17:18:14.535000,8.421686746987952,1.566265060240964,-5.0,1.7093807480073573,9.12262415695892,-4.438994481912936,2.0,2.3435897435897437,426.69584245076584,-0.3136180875240367,0.6525260765689652,0.40766855078375397,1272.5274725274724,-1.0,64.20482006400627,2.3452406471512486,
2023-08-10 17:18:14.543000,8.421686746987952,1.5783132530120483,-4.963855421686747,1.7682403433476395,9.105456774984672,-4.385039852851011,2.0,2.3435897435897437,426.69584245076584,0.36058504749140574,0.28285064972903684,0.20837946506613828,1274.7252747252746,-1.0,64.20482006400627,2.3452272009076323,
2023-08-10 17:18:14.550000,8.421686746987952,1.5903614457831325,-4.963855421686747,1.778050275904353,9.083384426732065,-4.365419987737584,2.0,2.3435897435897437,426.69584245076584,0.1764465940213266,0.6490297768195331,0.1139793718314785,1279.8534798534797,-1.0,64.20482006400627,2.3452137156980406,
2023-08-10 17:18:14.558000,8.44578313253012,1.5903614457831325,-4.9879518072289155,1.7633353770692826,9.058859595340282,-4.409564684242795,2.0,2.3435897435897437,426.69584245076584,0.14404754967659159,0.006176796223996482,0.7229182448575258,1284.2490842490843,-1.0,64.20482006400627,2.345200184548333,
2023-08-10 17:18:14.566000,8.433734939759036,1.5783132530120483,-4.9397590361445785,1.7265481299816063,9.063764561618639,-4.313917841814837,2.0,2.3435897435897437,426.69584245076584,0.2350678864868019,-0.022259775071383155,0.1842549967950587,1287.9120879120878,-1.0,64.20482006400627,2.3451866004916315,
2023-08-10 17:18:14.573000,8.433734939759036,1.5903614457831325,-4.963855421686747,1.748620478234212,9.105456774984672,-4.377682403433476,2.0,2.3435897435897437,426.69584245076584,0.3082570945749078,-0.035196084144280305,0.5956529339782064,1290.10989010989,-1.0,64.20482006400627,2.345172956593904,
2023-08-10 17:18:14.581000,8.433734939759036,1.566265060240964,-4.951807228915663,1.7510729613733904,9.129981606376456,-4.463519313304721,2.0,2.3435897435897437,426.69584245076584,0.24637258900996387,-0.23075578346250228,0.5138395198415012,1290.8424908424909,-1.0,64.20482006400627,2.3451592459796275,
2023-08-10 17:18:14.589000,8.433734939759036,1.566265060240964,-4.975903614457832,1.753525444512569,9.083384426732065,-4.397302268546904,2.0,2.3435897435897437,426.69584245076584,0.291008682477711,-0.05745585921566346,0.2954373288269915,1292.3076923076922,-1.0,64.20482006400627,2.3451454618574474,
2023-08-10 17:18:14.596000,8.433734939759036,1.566265060240964,-4.963855421686747,1.7731453096259961,9.041692213366032,-4.362967504598406,2.0,2.3435897435897437,426.69584245076584,0.24264320261057015,-0.49705728104422736,0.32527242002214335,1293.7728937728937,-1.0,64.20482006400627,2.3451315975457607,
2023-08-10 17:18:14.604000,8.397590361445783,1.5542168674698795,-4.9879518072289155,1.7290006131207847,9.058859595340282,-4.365419987737584,2.0,2.3435897435897437,426.69584245076584,0.2415943126857409,-0.4884330749956298,0.32364081347240814,1292.3076923076922,-1.0,64.20482006400627,2.345117646040293,
2023-08-10 17:18:14.612000,8.397590361445783,1.5783132530120483,-4.9879518072289155,1.7559779276517473,9.073574494175352,-4.392397302268547,2.0,2.3435897435897437,426.69584245076584,0.20826292174115743,-0.9079890449274517,0.20080414894236914,1290.8424908424909,-1.0,64.20482006400627,2.345103600564448,
2023-08-10 17:18:14.619000,8.433734939759036,1.566265060240964,-4.975903614457832,1.7167381974248925,9.034334763948497,-4.412017167381974,2.0,2.3435897435897437,426.69584245076584,0.43377425557951166,-0.8525144222364659,0.06048598566517085,1287.9120879120878,-1.0,64.20482006400627,2.3450894550153514,
2023-08-10 17:18:14.627000,8.433734939759036,1.5421686746987953,-5.0,1.6922133660331085,9.13733905579399,-4.412017167381974,2.0,2.3435897435897437,426.69584245076584,0.23250393333721828,-1.0105471709107856,-0.07831711438727354,1285.7142857142856,-1.0,64.20482006400627,2.345075203496425,
2023-08-10 17:18:14.635000,8.457831325301205,1.5421686746987953,-5.0,1.6652360515021458,9.149601471489882,-4.3408951563458,2.0,2.3435897435897437,426.69584245076584,0.44449624147776945,-0.5874949012295317,0.4407668550783753,1281.3186813186812,-1.0,64.20482006400627,2.3450608403421507,
2023-08-10 17:18:14.642000,8.457831325301205,1.530120481927711,-4.9879518072289155,1.6922133660331085,9.100551808706316,-4.397302268546904,2.0,2.3435897435897437,426.69584245076584,0.15092360585047482,-0.702173533010897,0.0271545947205874,1279.8534798534797,-1.0,64.20482006400627,2.3450463601423452,
2023-08-10 17:18:14.650000,8.433734939759036,1.566265060240964,-4.9879518072289155,1.753525444512569,9.120171673819742,-4.385039852851011,2.0,2.342124542124542,426.96277760400375,0.14859273935085288,-0.06864401841384458,0.011421245848144104,1280.5860805860805,-1.0,64.20482006400627,2.3450317577658275,
2023-08-10 17:18:14.658000,8.409638554216867,1.566265060240964,-4.963855421686747,1.748620478234212,9.071122011036174,-4.409564684242795,2.0,2.342124542124542,426.96277760400375,-0.28040323990443405,0.10022725948371375,-0.1416001398519901,1281.3186813186812,-1.0,64.20482006400627,2.3450170278907434,
2023-08-10 17:18:14.665000,8.421686746987952,1.5903614457831325,-5.0,1.748620478234212,9.105456774984672,-4.362967504598406,2.0,2.342124542124542,426.96277760400375,-0.12656605092943313,-0.15954781189907408,-0.18483771341996375,1284.2490842490843,-1.0,64.20482006400627,2.345002164954623,
2023-08-10 17:18:14.673000,8.409638554216867,1.566265060240964,-4.9879518072289155,1.6971183323114654,9.068669527896995,-4.380134886572654,2.0,2.3435897435897437,426.69584245076584,-0.15605151214964202,0.024007924946099175,-0.6573043528931882,1287.179487179487,-1.0,64.20482006400627,2.344987163628112,
2023-08-10 17:18:14.681000,8.433734939759036,1.5421686746987953,-5.0,1.7461679950950337,9.0907418761496,-4.385039852851011,2.0,2.342124542124542,426.96277760400375,-0.26222248120738884,-0.008624206048599255,-0.4215372064565004,1293.040293040293,-1.0,64.20482006400627,2.3449720193219874,
2023-08-10 17:18:14.688000,8.397590361445783,1.5421686746987953,-5.0,1.6701410177805027,9.07602697731453,-4.431637032495401,2.0,2.3435897435897437,426.69584245076584,-0.5032340772682238,0.3886719888118412,-0.23413553988695304,1298.168498168498,-1.0,64.20482006400627,2.344956727779496,
2023-08-10 17:18:14.696000,8.409638554216867,1.5783132530120483,-4.9879518072289155,1.7706928264868178,9.083384426732065,-4.409564684242795,2.0,2.3435897435897437,426.69584245076584,-0.2847153429287337,0.15523570887477445,-0.41454460695763634,1298.9010989010987,-1.0,64.20482006400627,2.3449412850557545,
2023-08-10 17:18:14.704000,8.3855421686747,1.5542168674698795,-4.951807228915663,1.7240956468424278,9.044144696505212,-4.375229920294298,2.0,2.3435897435897437,426.69584245076584,-0.18984907639414883,0.0759862478876529,-0.33529514597051435,1297.4358974358975,-1.0,64.20482006400627,2.3449256880580713,
