Shimmer_F5D4_Timestamp_FormattedUnix_CAL,Shimmer_F5D4_Accel_LN_X_CAL,Shimmer_F5D4_Accel_LN_Y_CAL,Shimmer_F5D4_Accel_LN_Z_CAL,Shimmer_F5D4_Accel_WR_X_CAL,Shimmer_F5D4_Accel_WR_Y_CAL,Shimmer_F5D4_Accel_WR_Z_CAL,Shimmer_F5D4_GSR_Range_CAL,Shimmer_F5D4_GSR_Skin_Conductance_CAL,Shimmer_F5D4_GSR_Skin_Resistance_CAL,Shimmer_F5D4_Gyro_X_CAL,Shimmer_F5D4_Gyro_Y_CAL,Shimmer_F5D4_Gyro_Z_CAL,Shimmer_F5D4_PPG_A13_CAL,Shimmer_F5D4_PPG_IBI_CAL,Shimmer_F5D4_PPGtoHR_CAL,Shimmer_F5D4_GSR_Skin_Conductance_LPF_CAL,
yyyy/mm/dd hh:mm:ss.000,m/(s^2),m/(s^2),m/(s^2),m/(s^2),m/(s^2),m/(s^2),no_units,uS,kOhms,deg/s,deg/s,deg/s,mV,ms,BPM,uS,
2023-08-09 09:55:32.170000,6.506024096385542,0.5662650602409639,-7.481927710843374,0.6106683016554261,7.229307173513182,-6.957694665849172,2.0,3.231501831501831,309.453638630696,-0.1355398869529749,0.07738476778742467,0.045102266767671366,1554.5787545787546,-1.0,78.32988047808765,3.304072649844404,
2023-08-09 09:55:32.178000,6.530120481927711,0.5662650602409639,-7.493975903614459,0.6302881667688535,7.224402207234825,-6.979767014101777,2.0,3.231501831501831,309.453638630696,0.01713186877221594,-0.10582133908280432,-0.15337101567507672,1550.18315018315,-1.0,78.32988047808765,3.3038625455380166,
2023-08-09 09:55:32.186000,6.530120481927711,0.5542168674698795,-7.493975903614459,0.6499080318822807,7.236664622930717,-6.969957081545064,2.0,3.23003663003663,309.5940122476752,-0.15080706252549397,-0.5638366062583768,-0.41291300040790113,1533.3333333333333,-1.0,78.32988047808765,3.303635947807699,
2023-08-09 09:55:32.193000,6.542168674698796,0.5783132530120483,-7.493975903614459,0.7185775597792765,7.145922746781116,-6.972409564684242,2.0,3.23003663003663,309.5940122476752,0.18507080006992585,-0.960783171143873,-0.04650078666744314,1508.4249084249084,-1.0,78.32988047808765,3.3033929767997785,
2023-08-09 09:55:32.201000,6.542168674698796,0.5783132530120483,-7.481927710843374,0.598405885959534,7.180257510729613,-6.996934396076027,2.0,3.23003663003663,309.5940122476752,-0.39508187168579934,-1.1134549268690639,-0.12283666453003855,1476.923076923077,-1.0,78.32988047808765,3.3031337578459463,
2023-08-09 09:55:32.209000,6.518072289156627,0.5783132530120483,-7.481927710843374,0.6425505824647455,7.256284488044145,-6.994481912936848,2.0,3.2285714285714286,309.7345132743363,-0.16607423809801306,-1.2508595070217357,-0.12283666453003855,1440.2930402930401,-1.0,78.32988047808765,3.3028584224518016,
2023-08-09 09:55:32.216000,6.578313253012048,0.5903614457831325,-7.46987951807229,0.7210300429184548,7.221949724095646,-6.994481912936848,2.0,3.2271062271062276,309.87514188422244,-0.2576772915331276,-1.540935842899598,0.045102266767671366,1400.0,-1.0,78.32988047808765,3.302567108226292,
2023-08-09 09:55:32.224000,6.542168674698796,0.6144578313253012,-7.493975903614459,0.6719803801348866,7.221949724095646,-6.989576946658492,2.0,3.2256410256410257,310.01589825119237,-0.013402482372822228,-1.9684167589301325,0.21304119806538127,1356.7765567765566,-1.0,78.32988047808765,3.3022599578217724,
2023-08-09 09:55:32.231000,6.542168674698796,0.5903614457831325,-7.493975903614459,0.7112201103617413,7.212139791538933,-7.014101778050276,2.0,3.2271062271062276,309.87514188422244,0.07820057106229227,-2.258493094807995,-0.06176796223996222,1312.087912087912,-1.0,78.32988047808765,3.3019371192733553,
2023-08-09 09:55:32.239000,6.530120481927711,0.5903614457831325,-7.481927710843374,0.7234825260576333,7.18516247700797,-7.021459227467811,2.0,3.2241758241758243,310.1567825494206,-0.028669657945341313,-2.594370957403415,0.12143814463026678,1266.6666666666665,-1.0,78.32988047808765,3.3015987463313885,
2023-08-09 09:55:32.247000,6.518072289156627,0.5903614457831325,-7.481927710843374,0.6940527283874923,7.131207847946045,-6.977314530962599,2.0,3.2227106227106233,310.29779495339847,-0.12027271138045581,-2.9455159955713537,0.1061709690577477,1223.4432234432234,-1.0,78.32988047808765,3.301244998470834,
2023-08-09 09:55:32.254000,6.481927710843374,0.6024096385542169,-7.506024096385542,0.6548129981606376,7.197424892703863,-7.075413856529736,2.0,3.2227106227106233,310.29779495339847,-0.3187459938232039,-3.739409125342346,0.1061709690577477,1184.6153846153845,-1.0,78.32988047808765,3.300876040125684,
2023-08-09 09:55:32.262000,6.493975903614458,0.5783132530120483,-7.506024096385542,0.6131207847946045,7.190067443286327,-7.011649294911097,2.0,3.2227106227106233,310.29779495339847,-0.2118757648155703,-4.227958743662957,-0.1686381912475958,1153.113553113553,-1.0,78.32988047808765,3.3004920405133022,
2023-08-09 09:55:32.270000,6.506024096385542,0.5783132530120483,-7.542168674698796,0.7234825260576333,7.131207847946045,-7.0680564071122,2.0,3.2212454212454213,310.43893563793495,-0.3034788182506848,-4.151622865800362,-0.22970689353767212,1129.6703296703297,-1.0,78.32988047808765,3.30009317404841,
2023-08-09 09:55:32.277000,6.493975903614458,0.5783132530120483,-7.55421686746988,0.645003065603924,7.121397915389331,-7.080318822808093,2.0,3.2212454212454213,310.43893563793495,-0.2118757648155703,-4.258493094807995,-0.1686381912475958,1109.89010989011,-1.0,78.32988047808765,3.299679619802094,
2023-08-09 09:55:32.285000,6.481927710843374,0.5783132530120483,-7.566265060240965,0.7087676272225628,7.1066830165542605,-7.102391171060699,2.0,3.2212454212454213,310.43893563793495,-0.36454752054076117,-3.6630732474797507,-0.38237864926286297,1095.2380952380952,-1.0,78.32988047808765,3.29925156137756,
2023-08-09 09:55:32.293000,6.46987951807229,0.5662650602409639,-7.614457831325302,0.6793378295524218,7.082158185162476,-7.117106069895769,2.0,3.21978021978022,310.580204778157,-0.39508187168579934,-2.9149816444263155,-0.48924887827049657,1084.2490842490843,-1.0,78.32988047808765,3.2988091873073,
2023-08-09 09:55:32.300000,6.481927710843374,0.5662650602409639,-7.614457831325302,0.6597179644389944,7.13856529736358,-7.156345800122624,2.0,3.21978021978022,310.580204778157,-0.28821164267816574,-2.0142182856476896,-0.4587145271254584,1076.923076923077,-1.0,78.32988047808765,3.2983526909546526,
2023-08-09 09:55:32.308000,6.506024096385542,0.5783132530120483,-7.602409638554217,0.6989576946658491,7.160637645616186,-7.175965665236051,2.0,3.21978021978022,310.580204778157,-0.4103490472583184,-0.9913175222889111,-0.5197832294155347,1073.9926739926739,-1.0,78.32988047808765,3.29788227030844,
2023-08-09 09:55:32.316000,6.506024096385542,0.5662650602409639,-7.602409638554217,0.6719803801348866,7.158185162477007,-7.1367259350091965,2.0,3.2183150183150184,310.7216025495106,-0.4103490472583184,0.2605908746576537,-0.6571878095682064,1076.923076923077,-1.0,78.32988047808765,3.2973981278794837,
2023-08-09 09:55:32.323000,6.506024096385542,0.6024096385542169,-7.590361445783133,0.7014101778050276,7.163090128755364,-7.1661557326793375,2.0,3.216849816849817,310.86312912776134,-0.6240895052735855,1.1918885845813179,-0.7182565118582828,1082.051282051282,-1.0,78.32988047808765,3.2969004701371776,
2023-08-09 09:55:32.331000,6.506024096385542,0.5903614457831325,-7.602409638554217,0.7185775597792765,7.182709993868792,-7.153893316983446,2.0,3.216849816849817,310.86312912776134,0.09346774663481136,2.65753743954315,-0.5503175805605729,1091.5750915750914,-1.0,78.32988047808765,3.2963895068725377,
2023-08-09 09:55:32.339000,6.493975903614458,0.6144578313253012,-7.578313253012048,0.7185775597792765,7.163090128755364,-7.0778663396689145,2.0,3.216849816849817,310.86312912776134,-0.18134141367053214,3.2834916380164323,-0.6877221607132447,1103.2967032967033,-1.0,78.32988047808765,3.2958654515056645,
2023-08-09 09:55:32.346000,6.542168674698796,0.6024096385542169,-7.55421686746988,0.7553648068669527,7.180257510729613,-7.058246474555487,2.0,3.2153846153846155,311.0047846889952,0.0476662199172541,4.092651943359944,-0.22970689353767212,1116.4835164835165,-1.0,78.32988047808765,3.295328521459321,
2023-08-09 09:55:32.354000,6.506024096385542,0.5903614457831325,-7.506024096385542,0.733292458614347,7.155732679337829,-7.038626609442059,2.0,3.2139194139194145,311.1465694096193,-0.013402482372822228,4.107919118932463,0.07563661791270954,1128.2051282051282,-1.0,78.32988047808765,3.2947789380394874,
2023-08-09 09:55:32.362000,6.493975903614458,0.5903614457831325,-7.493975903614459,0.7185775597792765,7.160637645616186,-6.984671980380135,2.0,3.2139194139194145,311.1465694096193,0.03239904434473502,4.123186294504982,0.22830837363790035,1136.9963369963368,-1.0,78.32988047808765,3.294216925718985,
2023-08-09 09:55:32.369000,6.481927710843374,0.6024096385542169,-7.46987951807229,0.7357449417535254,7.204782342121398,-7.0410790925812385,2.0,3.212454212454212,311.2884834663626,-0.043936833517860395,3.98578171435231,0.02983509119515228,1142.857142857143,-1.0,78.32988047808765,3.2936427119460525,
2023-08-09 09:55:32.377000,6.481927710843374,0.6144578313253012,-7.481927710843374,0.7308399754751685,7.1361128142244015,-7.0680564071122,2.0,3.212454212454212,311.2884834663626,0.06293339548977318,3.130819882291241,0.350445778218053,1148.7179487179487,-1.0,78.32988047808765,3.293056527020073,
2023-08-09 09:55:32.385000,6.518072289156627,0.6265060240963856,-7.493975903614459,0.6989576946658491,7.153280196198651,-6.969957081545064,2.0,3.212454212454212,311.2884834663626,0.07820057106229227,2.703338966260707,0.045102266767671366,1155.3113553113553,-1.0,78.32988047808765,3.2924586039305512,
2023-08-09 09:55:32.392000,6.506024096385542,0.6144578313253012,-7.481927710843374,0.7872470876762722,7.153280196198651,-6.999386879215205,2.0,3.2095238095238097,311.5727002967359,0.215605151214964,2.4590641571004017,0.045102266767671366,1159.7069597069597,-1.0,78.32988047808765,3.2918491787219133,
2023-08-09 09:55:32.400000,6.506024096385542,0.6024096385542169,-7.46987951807229,0.6965052115266707,7.182709993868792,-7.00674432863274,2.0,3.2095238095238097,311.5727002967359,0.24613950236000218,2.184254996795058,0.22830837363790035,1165.5677655677655,-1.0,78.32988047808765,3.291228489874361,
2023-08-09 09:55:32.408000,6.530120481927711,0.6024096385542169,-7.493975903614459,0.7406499080318822,7.160637645616186,-6.99202942979767,2.0,3.2095238095238097,311.5727002967359,0.24613950236000218,2.184254996795058,0.22830837363790035,1172.161172161172,-1.0,78.32988047808765,3.290596778002668,
2023-08-09 09:55:32.415000,6.518072289156627,0.5903614457831325,-7.518072289156627,0.8044144696505211,7.163090128755364,-7.048436541998774,2.0,3.2095238095238097,311.5727002967359,0.1392692733523686,1.7262397296194856,0.3962473049356103,1175.8241758241757,-1.0,78.32988047808765,3.289954286643459,
2023-08-09 09:55:32.423000,6.542168674698796,0.5903614457831325,-7.530120481927711,0.6965052115266707,7.160637645616186,-7.0680564071122,2.0,3.2080586080586078,311.7150034254396,0.1392692733523686,1.6804382029019285,0.22830837363790035,1178.7545787545787,-1.0,78.32988047808765,3.289301261637903,
2023-08-09 09:55:32.431000,6.566265060240964,0.6144578313253012,-7.530120481927711,0.7185775597792765,7.180257510729613,-7.036174126302881,2.0,3.2080586080586078,311.7150034254396,0.5056814870928266,1.6499038517568902,0.1825068469203431,1181.6849816849815,-1.0,78.32988047808765,3.2886379505857812,
2023-08-09 09:55:32.438000,6.542168674698796,0.5662650602409639,-7.46987951807229,0.6891477621091354,7.199877375843041,-6.99202942979767,2.0,3.2080586080586078,311.7150034254396,0.36827690694015486,1.9857817143523102,0.014567915622633197,1184.6153846153845,-1.0,78.32988047808765,3.287964603110805,
2023-08-09 09:55:32.446000,6.55421686746988,0.5783132530120483,-7.493975903614459,0.6916002452483139,7.261189454322501,-6.984671980380135,2.0,3.2065934065934067,311.85743660041123,0.6125517161004602,2.016316065497348,0.07563661791270954,1186.080586080586,-1.0,78.32988047808765,3.287281470740021,
2023-08-09 09:55:32.454000,6.542168674698796,0.5783132530120483,-7.518072289156627,0.7234825260576333,7.199877375843041,-7.050889025137952,2.0,3.2065934065934067,311.85743660041123,0.41407843365771213,2.275858050230173,0.15197249577530494,1189.7435897435896,-1.0,78.32988047808765,3.286588806785882,
2023-08-09 09:55:32.461000,6.566265060240964,0.5903614457831325,-7.493975903614459,0.7210300429184548,7.244022072348252,-7.011649294911097,2.0,3.205128205128205,312.0,0.3835440825126739,2.0773847677874246,0.045102266767671366,1194.1391941391942,-1.0,78.32988047808765,3.2858868665848004,
2023-08-09 09:55:32.469000,6.55421686746988,0.5662650602409639,-7.457831325301205,0.7431023911710607,7.23175965665236,-6.999386879215205,2.0,3.205128205128205,312.0,0.3835440825126739,1.4514305693141423,-6.992599498858867E-4,1199.2673992673992,-1.0,78.32988047808765,3.2851759068250233,
2023-08-09 09:55:32.477000,6.55421686746988,0.5783132530120483,-7.46987951807229,0.6204782342121398,7.23175965665236,-6.972409564684242,2.0,3.205128205128205,312.0,0.582017364955422,1.1308198822912414,-0.15337101567507672,1206.5934065934066,-1.0,78.32988047808765,3.284456184911697,
2023-08-09 09:55:32.484000,6.542168674698796,0.5662650602409639,-7.493975903614459,0.6866952789699571,7.197424892703863,-7.016554261189454,2.0,3.205128205128205,312.0,0.47514713594778846,1.2071557601538367,0.09090379348522862,1215.3846153846152,-1.0,78.32988047808765,3.283727959351921,
2023-08-09 09:55:32.492000,6.55421686746988,0.5662650602409639,-7.46987951807229,0.6376456161863887,7.197424892703863,-7.009196811771918,2.0,3.203663003663004,312.1426938028813,0.3377425557951167,0.6117359128255926,-0.031233611094924053,1228.5714285714284,-1.0,78.32988047808765,3.2829914901425066,
2023-08-09 09:55:32.500000,6.542168674698796,0.5542168674698795,-7.46987951807229,0.7112201103617413,7.214592274678111,-7.033721643163703,2.0,3.203663003663004,312.1426938028813,0.47514713594778846,0.8407435464133789,-0.09230231338500039,1249.084249084249,-1.0,78.32988047808765,3.2822470381431015,
2023-08-09 09:55:32.507000,6.55421686746988,0.5542168674698795,-7.493975903614459,0.7234825260576333,7.207234825260576,-7.014101778050276,2.0,3.203663003663004,312.1426938028813,0.7804906473981701,0.7796748441233026,-6.992599498858867E-4,1276.923076923077,-1.0,78.32988047808765,3.281494864452258,
2023-08-09 09:55:32.515000,6.542168674698796,0.5421686746987953,-7.46987951807229,0.6719803801348866,7.221949724095646,-7.009196811771918,2.0,3.203663003663004,312.1426938028813,0.3377425557951167,1.085018355573684,0.12143814463026678,1318.6813186813185,-1.0,78.32988047808765,3.280735231261919,
2023-08-09 09:55:32.523000,6.566265060240964,0.5662650602409639,-7.481927710843374,0.6425505824647455,7.253832004904966,-7.001839362354383,2.0,3.2021978021978024,312.2855181880576,0.4904143115203075,0.7796748441233026,-0.13810384010255763,1381.6849816849815,-1.0,78.32988047808765,3.2799684017320088,
2023-08-09 09:55:32.530000,6.542168674698796,0.5542168674698795,-7.481927710843374,0.7063151440833844,7.273451870018393,-6.987124463519313,2.0,3.2021978021978024,312.2855181880576,0.01713186877221594,1.0239496532836079,-0.2602412446827103,1471.062271062271,-1.0,78.32988047808765,3.279194639412636,
2023-08-09 09:55:32.538000,6.542168674698796,0.5542168674698795,-7.481927710843374,0.6916002452483139,7.172900061312078,-7.072961373390558,2.0,3.2021978021978024,312.2855181880576,0.2308723267874831,1.237690111298875,-0.30604277140026753,1591.9413919413919,-1.0,78.32988047808765,3.2784142085153816,
2023-08-09 09:55:32.546000,6.542168674698796,0.5542168674698795,-7.530120481927711,0.6891477621091354,7.190067443286327,-6.960147148988351,2.0,3.200732600732601,312.42847333485923,0.24613950236000218,1.619369500611852,-0.04650078666744314,1743.5897435897434,-1.0,78.32988047808765,3.2776273737663923,
2023-08-09 09:55:32.553000,6.55421686746988,0.5783132530120483,-7.481927710843374,0.6499080318822807,7.229307173513182,-7.038626609442059,2.0,3.200732600732601,312.42847333485923,0.27667385350504037,1.9247130120622338,-0.24497406911019123,1921.6117216117216,-1.0,78.32988047808765,3.27683440029876,
2023-08-09 09:55:32.561000,6.578313253012048,0.5662650602409639,-7.457831325301205,0.6499080318822807,7.236664622930717,-6.972409564684242,2.0,3.200732600732601,312.42847333485923,0.1392692733523686,1.8483771341996384,-0.3365771225453057,2115.7509157509157,-1.0,78.32988047808765,3.276035553410054,
2023-08-09 09:55:32.569000,6.55421686746988,0.5783132530120483,-7.46987951807229,0.6695278969957081,7.204782342121398,-6.987124463519313,2.0,3.200732600732601,312.42847333485923,0.12400209777984952,2.1689878212225393,-0.3365771225453057,2317.2161172161173,-1.0,78.32988047808765,3.2752310980045523,
2023-08-09 09:55:32.576000,6.578313253012048,0.5783132530120483,-7.445783132530121,0.6989576946658491,7.226854690374004,-6.982219497240956,2.0,3.200732600732601,312.42847333485923,0.1545364489248877,2.0621175922149053,-0.3518442981178248,2508.424908424908,-1.0,78.32988047808765,3.274421299021685,
2023-08-09 09:55:32.584000,6.578313253012048,0.5783132530120483,-7.445783132530121,0.6916002452483139,7.226854690374004,-7.0410790925812385,2.0,3.200732600732601,312.42847333485923,0.0476662199172541,1.8789114853446764,-0.30604277140026753,2677.6556776556777,-1.0,78.32988047808765,3.2736064213404537,
2023-08-09 09:55:32.592000,6.578313253012048,0.5783132530120483,-7.445783132530121,0.6719803801348866,7.234212139791539,-6.955242182709993,2.0,3.200732600732601,312.42847333485923,0.27667385350504037,1.6957053784744476,-0.47398170269797746,2805.128205128205,-1.0,78.32988047808765,3.2727867297220055,
2023-08-09 09:55:32.599000,6.566265060240964,0.6024096385542169,-7.445783132530121,0.7185775597792765,7.266094420600858,-7.028816676885346,2.0,3.2021978021978024,312.2855181880576,-0.028669657945341313,1.1460870578637605,-0.7029893362857638,2805.128205128205,-1.0,78.32988047808765,3.2719624891786134,
2023-08-09 09:55:32.607000,6.578313253012048,0.6144578313253012,-7.433734939759036,0.6965052115266707,7.244022072348252,-6.918454935622317,2.0,3.200732600732601,312.42847333485923,0.03239904434473502,0.8102091952683407,-0.580851931705611,2805.128205128205,-1.0,78.32988047808765,3.271133964890358,
2023-08-09 09:55:32.614000,6.614457831325302,0.6024096385542169,-7.457831325301205,0.7308399754751685,7.305334150827712,-6.952789699570815,2.0,3.200732600732601,312.42847333485923,0.215605151214964,0.6422702639706308,-0.565584756133092,2805.128205128205,-1.0,78.32988047808765,3.2703014217389494,
2023-08-09 09:55:32.622000,6.602409638554217,0.5903614457831325,-7.457831325301205,0.6891477621091354,7.273451870018393,-6.99202942979767,2.0,3.2021978021978024,312.2855181880576,0.03239904434473502,0.3674611036652873,-0.7640580385758401,2805.128205128205,-1.0,78.32988047808765,3.269465123705535,
2023-08-09 09:55:32.630000,6.602409638554217,0.6024096385542169,-7.445783132530121,0.7308399754751685,7.268546903740036,-6.960147148988351,2.0,3.200732600732601,312.42847333485923,-0.10500553580793673,0.10791911893246285,-0.6113862828506492,2753.113553113553,-1.0,78.32988047808765,3.26862533478162,
2023-08-09 09:55:32.637000,6.626506024096386,0.6024096385542169,-7.421686746987953,0.6499080318822807,7.256284488044145,-6.972409564684242,2.0,3.2021978021978024,312.2855181880576,0.09346774663481136,0.19952217236757736,-0.6571878095682064,2643.223443223443,-1.0,78.32988047808765,3.267782318934664,
2023-08-09 09:55:32.645000,6.626506024096386,0.6024096385542169,-7.433734939759036,0.6548129981606376,7.27835683629675,-6.942979767014101,2.0,3.2021978021978024,312.2855181880576,0.1545364489248877,0.1689878212225392,-0.4434473515529393,2499.6336996336995,-1.0,78.32988047808765,3.266936339516549,
2023-08-09 09:55:32.653000,6.614457831325302,0.6144578313253012,-7.445783132530121,0.7210300429184548,7.244022072348252,-6.969957081545064,2.0,3.2021978021978024,312.2855181880576,0.3835440825126739,-0.029485461220208904,-0.2602412446827103,2335.5311355311355,765.9912109375,78.32988047808765,3.266087659764059,
2023-08-09 09:55:32.660000,6.590361445783133,0.6024096385542169,-7.445783132530121,0.7161250766400981,7.285714285714286,-7.011649294911097,2.0,3.2021978021978024,312.2855181880576,0.2308723267874831,-0.3348289726705906,-0.07703513781248131,2159.7069597069594,-1.0,78.32988047808765,3.2652365422841148,
2023-08-09 09:55:32.668000,6.590361445783133,0.6024096385542169,-7.457831325301205,0.7431023911710607,7.234212139791539,-6.984671980380135,2.0,3.2021978021978024,312.2855181880576,-0.1355398869529749,-0.3042946215255524,-0.12283666453003855,1986.8131868131866,-1.0,78.32988047808765,3.264383249034084,
2023-08-09 09:55:32.676000,6.566265060240964,0.5903614457831325,-7.445783132530121,0.82158185162477,7.207234825260576,-6.960147148988351,2.0,3.203663003663004,312.1426938028813,0.10873492220733044,0.138453470077501,-0.06176796223996222,1821.245421245421,-1.0,78.32988047808765,3.263528041727428,
2023-08-09 09:55:32.683000,6.566265060240964,0.6024096385542169,-7.433734939759036,0.7259350091968118,7.192519926425505,-6.947884733292458,2.0,3.203663003663004,312.1426938028813,0.10873492220733044,0.138453470077501,-0.06176796223996222,1667.3992673992673,-1.0,78.32988047808765,3.262671181785905,
2023-08-09 09:55:32.691000,6.578313253012048,0.5903614457831325,-7.457831325301205,0.6989576946658491,7.236664622930717,-6.965052115266707,2.0,3.203663003663004,312.1426938028813,-0.15080706252549397,-0.35009614824310964,-0.22970689353767212,1531.8681318681317,-1.0,78.32988047808765,3.261812930400328,
2023-08-09 09:55:32.699000,6.542168674698796,0.6024096385542169,-7.445783132530121,0.6768853464132434,7.192519926425505,-6.952789699570815,2.0,3.2021978021978024,312.2855181880576,-0.07447118466289857,-0.6707068352660104,-0.32130994697278664,1416.117216117216,-1.0,78.32988047808765,3.260953548491371,
2023-08-09 09:55:32.706000,6.566265060240964,0.6024096385542169,-7.433734939759036,0.7161250766400981,7.175352544451257,-7.009196811771918,2.0,3.203663003663004,312.1426938028813,-0.05920400909037948,-0.9302488199988348,0.02983509119515228,1321.6117216117216,-1.0,78.32988047808765,3.2600932966049583,
2023-08-09 09:55:32.714000,6.55421686746988,0.6024096385542169,-7.46987951807229,0.6695278969957081,7.214592274678111,-7.009196811771918,2.0,3.205128205128205,312.0,-0.043936833517860395,-1.0829205757240257,-0.18390536682011488,1246.8864468864467,-1.0,78.32988047808765,3.259232435199266,
2023-08-09 09:55:32.722000,6.578313253012048,0.6024096385542169,-7.481927710843374,0.7136725935009196,7.248927038626609,-7.019006744328633,2.0,3.2065934065934067,311.85743660041123,0.07820057106229227,-1.2966610337392928,0.045102266767671366,1188.278388278388,-1.0,78.32988047808765,3.258371224652505,
2023-08-09 09:55:32.729000,6.602409638554217,0.5903614457831325,-7.506024096385542,0.6670754138565297,7.226854690374004,-7.026364193746168,2.0,3.2065934065934067,311.85743660041123,-0.043936833517860395,-1.2050579803041783,-0.06176796223996222,1142.857142857143,-1.0,78.32988047808765,3.257509924921662,
2023-08-09 09:55:32.737000,6.566265060240964,0.5783132530120483,-7.46987951807229,0.6646229307173512,7.23175965665236,-6.996934396076027,2.0,3.2080586080586078,311.7150034254396,-0.12027271138045581,-0.9302488199988348,-0.10756948895751947,1104.7619047619046,-1.0,78.32988047808765,3.2566487956616537,
2023-08-09 09:55:32.745000,6.55421686746988,0.5903614457831325,-7.493975903614459,0.657265481299816,7.192519926425505,-6.987124463519313,2.0,3.2080586080586078,311.7150034254396,0.03239904434473502,-0.9760503467163921,0.24357554921041943,1073.9926739926739,-1.0,78.32988047808765,3.255788096700987,
2023-08-09 09:55:32.752000,6.542168674698796,0.5783132530120483,-7.457831325301205,0.7112201103617413,7.224402207234825,-6.972409564684242,2.0,3.2080586080586078,311.7150034254396,0.27667385350504037,-0.7470427131286058,0.31991142707301484,1046.8864468864467,-1.0,78.32988047808765,3.2549280880647786,
2023-08-09 09:55:32.760000,6.566265060240964,0.5783132530120483,-7.46987951807229,0.7136725935009196,7.224402207234825,-7.0410790925812385,2.0,3.2095238095238097,311.5727002967359,0.26140667793252126,-0.7012411864110486,-0.18390536682011488,1025.6410256410256,-1.0,78.32988047808765,3.2540690294752914,
2023-08-09 09:55:32.768000,6.578313253012048,0.5783132530120483,-7.46987951807229,0.6719803801348866,7.234212139791539,-6.999386879215205,2.0,3.2109890109890116,311.4305270362765,0.10873492220733044,-0.5180350795408196,-0.031233611094924053,1007.3260073260072,-1.0,78.32988047808765,3.25321118034712,
2023-08-09 09:55:32.775000,6.55421686746988,0.5783132530120483,-7.46987951807229,0.6916002452483139,7.27835683629675,-7.028816676885346,2.0,3.212454212454212,311.2884834663626,0.0018646931996968547,-1.1134549268690639,0.045102266767671366,994.139194139194,-1.0,78.32988047808765,3.2523548008388885,
2023-08-09 09:55:32.783000,6.55421686746988,0.5783132530120483,-7.445783132530121,0.6842427958307786,7.221949724095646,-6.989576946658492,2.0,3.2139194139194145,311.1465694096193,0.1545364489248877,-0.609638132975934,0.06036944234019045,986.8131868131868,-1.0,78.32988047808765,3.251500151891348,
2023-08-09 09:55:32.791000,6.55421686746988,0.5783132530120483,-7.457831325301205,0.6965052115266707,7.24647455548743,-6.99202942979767,2.0,3.2139194139194145,311.1465694096193,0.30720820465007853,-0.8081114154186821,0.2893770759279767,985.3479853479853,-1.0,78.32988047808765,3.2506474948835407,
2023-08-09 09:55:32.798000,6.566265060240964,0.5903614457831325,-7.493975903614459,0.6597179644389944,7.27835683629675,-6.984671980380135,2.0,3.2139194139194145,311.1465694096193,0.215605151214964,-0.777577064273644,0.1977740224928622,991.9413919413919,-1.0,78.32988047808765,3.249797091716025,
2023-08-09 09:55:32.806000,6.566265060240964,0.5662650602409639,-7.46987951807229,0.6621704475781729,7.212139791538933,-6.989576946658492,2.0,3.216849816849817,310.86312912776134,0.41407843365771213,-0.6859740108385295,0.350445778218053,1005.1282051282051,-1.0,78.32988047808765,3.2489492038777823,
2023-08-09 09:55:32.814000,6.55421686746988,0.5783132530120483,-7.46987951807229,0.6180257510729613,7.219497240956468,-7.009196811771918,2.0,3.216849816849817,310.86312912776134,0.03239904434473502,-0.792844239846163,0.6252549385233965,1027.8388278388277,-1.0,78.32988047808765,3.2481040934820733,
2023-08-09 09:55:32.821000,6.55421686746988,0.5903614457831325,-7.46987951807229,0.6916002452483139,7.202329858982219,-6.996934396076027,2.0,3.2183150183150184,310.7216025495106,0.07820057106229227,-1.0981877512965448,0.5489190606608011,1061.5384615384614,-1.0,78.32988047808765,3.2472620238822034,
2023-08-09 09:55:32.829000,6.518072289156627,0.5783132530120483,-7.457831325301205,0.6695278969957081,7.190067443286327,-6.984671980380135,2.0,3.21978021978022,310.580204778157,-0.028669657945341313,-1.4493327894644836,0.42678165608064844,1101.098901098901,-1.0,78.32988047808765,3.2464232592378104,
2023-08-09 09:55:32.837000,6.506024096385542,0.5542168674698795,-7.481927710843374,0.6793378295524218,7.167995095033722,-6.974862047823421,2.0,3.21978021978022,310.580204778157,-0.028669657945341313,-1.3882640871744074,0.1977740224928622,1148.7179487179487,-1.0,78.32988047808765,3.2455880650688473,
2023-08-09 09:55:32.844000,6.542168674698796,0.5662650602409639,-7.481927710843374,0.7136725935009196,7.209687308399754,-7.021459227467811,2.0,3.2227106227106233,310.29779495339847,-0.2271429403880894,-1.6172717207621936,0.22830837363790035,1202.197802197802,-1.0,78.32988047808765,3.244756707405525,
2023-08-09 09:55:32.852000,6.518072289156627,0.5662650602409639,-7.481927710843374,0.6940527283874923,7.224402207234825,-7.023911710606989,2.0,3.2212454212454213,310.43893563793495,-0.028669657945341313,-1.6325388963347127,0.1061709690577477,1257.8754578754579,-1.0,78.32988047808765,3.2439294533804897,
2023-08-09 09:55:32.860000,6.55421686746988,0.5542168674698795,-7.506024096385542,0.657265481299816,7.1655426118945424,-7.026364193746168,2.0,3.2227106227106233,310.29779495339847,-0.028669657945341313,-2.029485461220209,-0.4434473515529393,1313.5531135531135,-1.0,78.32988047808765,3.2431065718221554,
2023-08-09 09:55:32.867000,6.518072289156627,0.5542168674698795,-7.518072289156627,0.7234825260576333,7.190067443286327,-7.045984058859595,2.0,3.2241758241758243,310.1567825494206,-0.2729444671056466,-1.7699434764873845,-0.04650078666744314,1367.7655677655678,-1.0,78.32988047808765,3.2422883322339486,
2023-08-09 09:55:32.875000,6.530120481927711,0.5662650602409639,-7.506024096385542,0.6916002452483139,7.18516247700797,-7.060698957694665,2.0,3.2256410256410257,310.01589825119237,-0.028669657945341313,-1.708874774197308,-0.24497406911019123,1416.8498168498168,-1.0,78.32988047808765,3.2414750058454165,
2023-08-09 09:55:32.883000,6.55421686746988,0.5662650602409639,-7.481927710843374,0.657265481299816,7.190067443286327,-7.082771305947271,2.0,3.2285714285714286,309.7345132743363,0.09346774663481136,-1.5867373696171554,-0.48924887827049657,1458.6080586080584,-1.0,78.32988047808765,3.240666866136853,
2023-08-09 09:55:32.890000,6.542168674698796,0.5783132530120483,-7.530120481927711,0.6744328632740649,7.192519926425505,-7.050889025137952,2.0,3.23003663003663,309.5940122476752,0.18507080006992585,-1.2966610337392928,-0.3671114736903439,1490.8424908424906,-1.0,78.32988047808765,3.2398641884855874,
2023-08-09 09:55:32.898000,6.542168674698796,0.5783132530120483,-7.481927710843374,0.7063151440833844,7.180257510729613,-7.011649294911097,2.0,3.231501831501831,309.453638630696,-0.15080706252549397,-1.0065846978614303,-0.3365771225453057,1512.087912087912,-1.0,78.32988047808765,3.239067250408939,
2023-08-09 09:55:32.906000,6.518072289156627,0.5662650602409639,-7.506024096385542,0.6719803801348866,7.1361128142244015,-7.026364193746168,2.0,3.231501831501831,309.453638630696,0.10873492220733044,-0.9302488199988348,-0.01596643552240497,1522.3443223443223,-1.0,78.32988047808765,3.238276331702503,
2023-08-09 09:55:32.913000,6.530120481927711,0.5903614457831325,-7.518072289156627,0.6866952789699571,7.114040465971796,-7.001839362354383,2.0,3.232967032967033,309.31339225016995,0.24613950236000218,-0.9913175222889111,-0.15337101567507672,1521.6117216117216,-1.0,78.32988047808765,3.237491714508076,
2023-08-09 09:55:32.921000,6.530120481927711,0.6024096385542169,-7.518072289156627,0.7259350091968118,7.182709993868792,-6.977314530962599,2.0,3.2344322344322345,309.1732729331823,-0.07447118466289857,-0.594370957403415,-0.48924887827049657,1512.8205128205127,-1.0,78.32988047808765,3.236713683275429,
2023-08-09 09:55:32.929000,6.506024096385542,0.5783132530120483,-7.518072289156627,0.6744328632740649,7.121397915389331,-7.048436541998774,2.0,3.2358974358974364,309.0332805071315,0.0018646931996968547,-0.6707068352660104,0.06036944234019045,1493.040293040293,-1.0,78.32988047808765,3.2359425248250986,
2023-08-09 09:55:32.936000,6.518072289156627,0.5903614457831325,-7.530120481927711,0.7112201103617413,7.207234825260576,-7.026364193746168,2.0,3.237362637362638,308.8934147997284,-0.2271429403880894,-0.8539129421362394,-0.09230231338500039,1465.201465201465,-1.0,78.32988047808765,3.235178528441581,
2023-08-09 09:55:32.944000,6.506024096385542,0.5783132530120483,-7.530120481927711,0.703862660944206,7.177805027590435,-7.095033721643163,2.0,3.2388278388278393,308.7536756389957,0.06293339548977318,-0.6249053085484532,-0.09230231338500039,1428.5714285714284,-1.0,78.32988047808765,3.234421985961235,
2023-08-09 09:55:32.952000,6.518072289156627,0.5903614457831325,-7.518072289156627,0.7234825260576333,7.23175965665236,-7.050889025137952,2.0,3.2402930402930408,308.614062853267,-0.16607423809801306,-0.7623098887011249,0.1061709690577477,1385.3479853479853,-1.0,78.32988047808765,3.233673192311972,
2023-08-09 09:55:32.959000,6.530120481927711,0.6024096385542169,-7.530120481927711,0.6768853464132434,7.131207847946045,-7.0705088902513795,2.0,3.241758241758242,308.47457627118644,-0.16607423809801306,-0.7623098887011249,0.1061709690577477,1339.194139194139,-1.0,78.32988047808765,3.2329324455208117,
2023-08-09 09:55:32.967000,6.518072289156627,0.5903614457831325,-7.506024096385542,0.7112201103617413,7.204782342121398,-7.065603923973022,2.0,3.2432234432234432,308.3352157217077,-0.2118757648155703,-0.36536332381562875,-0.32130994697278664,1291.5750915750914,-1.0,78.32988047808765,3.2322000462924483,
2023-08-09 09:55:32.975000,6.518072289156627,0.5783132530120483,-7.530120481927711,0.7283874923359902,7.153280196198651,-7.031269160024524,2.0,3.2446886446886447,308.19598103409345,-0.15080706252549397,-0.2126915680904379,-0.5961191072781301,1245.4212454212454,-1.0,78.32988047808765,3.2314762980711063,
2023-08-09 09:55:32.982000,6.518072289156627,0.6024096385542169,-7.530120481927711,0.657265481299816,7.199877375843041,-7.075413856529736,2.0,3.2461538461538466,308.0568720379147,-0.05920400909037948,0.0621175922149056,-0.07703513781248131,1204.3956043956043,-1.0,78.32988047808765,3.2307615075500085,
2023-08-09 09:55:32.990000,6.518072289156627,0.5903614457831325,-7.530120481927711,0.7259350091968118,7.180257510729613,-7.036174126302881,2.0,3.247619047619047,307.91788856304987,-0.3034788182506848,0.18425499679505827,-0.3518442981178248,1169.230769230769,-1.0,78.32988047808765,3.23005598464459,
2023-08-09 09:55:32.997000,6.518072289156627,0.5783132530120483,-7.542168674698796,0.6891477621091354,7.1655426118945424,-7.050889025137952,2.0,3.2505494505494505,307.6402974983097,-0.043936833517860395,0.4743313326729208,-0.5045160538430157,1140.6593406593406,-1.0,78.32988047808765,3.229360042032609,
2023-08-09 09:55:33.005000,6.518072289156627,0.5903614457831325,-7.530120481927711,0.6646229307173512,7.160637645616186,-7.045984058859595,2.0,3.249084249084249,307.77903043968433,0.01713186877221594,0.7949420196958216,-0.21443971796515304,1117.9487179487178,-1.0,78.32988047808765,3.228673995666159,
2023-08-09 09:55:33.013000,6.542168674698796,0.5903614457831325,-7.506024096385542,0.7063151440833844,7.187614960147148,-7.001839362354383,2.0,3.2520146520146525,307.5016895697229,0.0018646931996968547,0.6575374395431498,-0.09230231338500039,1101.098901098901,-1.0,78.32988047808765,3.2279981647793647,
2023-08-09 09:55:33.020000,6.506024096385542,0.5903614457831325,-7.506024096385542,0.6965052115266707,7.148375229920294,-7.001839362354383,2.0,3.2534798534798535,307.3632064850259,0.03239904434473502,0.7491404929782643,-0.04650078666744314,1089.3772893772893,-1.0,78.32988047808765,3.2273328716399456,
2023-08-09 09:55:33.028000,6.506024096385542,0.5903614457831325,-7.506024096385542,0.640098099325567,7.1704475781729,-7.050889025137952,2.0,3.2549450549450545,307.2248480756246,0.0476662199172541,0.7338733174057452,-0.38237864926286297,1078.3882783882784,-1.0,78.32988047808765,3.2266784415298226,
2023-08-09 09:55:33.036000,6.542168674698796,0.5903614457831325,-7.481927710843374,0.6351931330472103,7.074800735744941,-7.031269160024524,2.0,3.256410256410257,307.0866141732283,0.09346774663481136,0.44379698152788266,-0.1686381912475958,1071.062271062271,-1.0,78.32988047808765,3.226035202252493,
2023-08-09 09:55:33.043000,6.518072289156627,0.5903614457831325,-7.493975903614459,0.5665236051502146,7.177805027590435,-7.001839362354383,2.0,3.2578754578754574,306.94850460984935,-0.07447118466289857,0.38272827923780633,-0.06176796223996222,1063.7362637362637,-1.0,78.32988047808765,3.225403484537812,
2023-08-09 09:55:33.051000,6.530120481927711,0.5903614457831325,-7.493975903614459,0.7112201103617413,7.1655426118945424,-7.05334150827713,2.0,3.2593406593406593,306.81051921780175,0.07820057106229227,0.4285298059553636,-0.07703513781248131,1060.8058608058607,-1.0,78.32988047808765,3.224783621902815,
2023-08-09 09:55:33.059000,6.493975903614458,0.5783132530120483,-7.518072289156627,0.6916002452483139,7.18516247700797,-7.043531575720417,2.0,3.2608058608058603,306.6726578297012,0.07820057106229227,0.2758580502301728,-0.15337101567507672,1059.3406593406592,-1.0,78.32988047808765,3.224175950072057,
2023-08-09 09:55:33.066000,6.542168674698796,0.5783132530120483,-7.493975903614459,0.6695278969957081,7.163090128755364,-7.08522378908645,2.0,3.2622710622710622,306.53492027846397,-0.1355398869529749,0.7644076685507835,-0.48924887827049657,1063.003663003663,-1.0,78.32988047808765,3.2235808073280947,
2023-08-09 09:55:33.074000,6.530120481927711,0.5903614457831325,-7.506024096385542,0.7087676272225628,7.209687308399754,-7.011649294911097,2.0,3.2637362637362632,306.3973063973064,0.06293339548977318,0.9476137754210124,-0.18390536682011488,1069.5970695970695,-1.0,78.32988047808765,3.2229985347740233,
2023-08-09 09:55:33.082000,6.542168674698796,0.5662650602409639,-7.542168674698796,0.7185775597792765,7.24647455548743,-6.999386879215205,2.0,3.2666666666666666,306.12244897959187,-0.3034788182506848,1.2834916380164323,-0.22970689353767212,1080.5860805860805,-1.0,78.32988047808765,3.2224294756288105,
2023-08-09 09:55:33.089000,6.55421686746988,0.5783132530120483,-7.542168674698796,0.6523605150214592,7.190067443286327,-7.0778663396689145,2.0,3.2666666666666666,306.12244897959187,-0.1355398869529749,1.772041256337043,0.24357554921041943,1091.5750915750914,-1.0,78.32988047808765,3.2218739750650944,
2023-08-09 09:55:33.097000,6.506024096385542,0.5662650602409639,-7.530120481927711,0.6695278969957081,7.241569589209074,-6.962599632127529,2.0,3.26959706959707,305.8480842482635,-0.013402482372822228,1.772041256337043,-0.04650078666744314,1102.5641025641025,-1.0,78.32988047808765,3.2213323800619444,
2023-08-09 09:55:33.105000,6.530120481927711,0.5542168674698795,-7.518072289156627,0.6940527283874923,7.180257510729613,-7.033721643163703,2.0,3.271062271062271,305.7110862262038,0.06293339548977318,2.1231862945049818,-0.30604277140026753,1114.2857142857142,-1.0,78.32988047808765,3.220805039098776,
2023-08-09 09:55:33.112000,6.55421686746988,0.5542168674698795,-7.506024096385542,0.6523605150214592,7.182709993868792,-7.0410790925812385,2.0,3.271062271062271,305.7110862262038,-0.1355398869529749,2.32165957694773,0.014567915622633197,1126.007326007326,-1.0,78.32988047808765,3.2202923024262593,
2023-08-09 09:55:33.120000,6.55421686746988,0.5542168674698795,-7.493975903614459,0.7406499080318822,7.160637645616186,-7.055793991416309,2.0,3.2739926739926735,305.43745804430523,-0.2271429403880894,2.4132626303828446,-0.2602412446827103,1138.4615384615383,-1.0,78.32988047808765,3.2197945208071017,
2023-08-09 09:55:33.128000,6.530120481927711,0.5542168674698795,-7.506024096385542,0.6474555487431024,7.199877375843041,-6.994481912936848,2.0,3.2754578754578754,305.30082755535676,-0.07447118466289857,3.1460870578637605,-0.19917254239263396,1150.18315018315,-1.0,78.32988047808765,3.219312045185074,
2023-08-09 09:55:33.135000,6.530120481927711,0.5662650602409639,-7.493975903614459,0.7112201103617413,7.175352544451257,-7.014101778050276,2.0,3.2754578754578754,305.30082755535676,0.1545364489248877,3.0239496532836077,-0.07703513781248131,1161.904761904762,-1.0,78.32988047808765,3.2188452273867254,
2023-08-09 09:55:33.143000,6.55421686746988,0.5662650602409639,-7.530120481927711,0.6817903126916002,7.217044757817289,-7.011649294911097,2.0,3.2783882783882783,305.02793296089385,-0.19660858924305122,3.1460870578637605,-0.8098595652933973,1174.3589743589744,-1.0,78.32988047808765,3.2183944188010303,
2023-08-09 09:55:33.151000,6.55421686746988,0.5662650602409639,-7.481927710843374,0.7136725935009196,7.199877375843041,-7.011649294911097,2.0,3.2798534798534797,304.8916685280322,-0.07447118466289857,3.0239496532836077,-0.5961191072781301,1187.5457875457876,-1.0,78.32988047808765,3.2179599704461985,
2023-08-09 09:55:33.158000,6.566265060240964,0.5903614457831325,-7.457831325301205,0.6817903126916002,7.241569589209074,-6.984671980380135,2.0,3.2798534798534797,304.8916685280322,-0.2271429403880894,3.1155527067187223,-0.7182565118582828,1199.2673992673992,-1.0,78.32988047808765,3.217542233087581,
2023-08-09 09:55:33.166000,6.566265060240964,0.5783132530120483,-7.506024096385542,0.6621704475781729,7.197424892703863,-6.974862047823421,2.0,3.281318681318681,304.75552578700604,-0.19660858924305122,2.901812248703455,-0.4434473515529393,1210.989010989011,-1.0,78.32988047808765,3.2171415563549464,
2023-08-09 09:55:33.174000,6.55421686746988,0.5783132530120483,-7.457831325301205,0.7014101778050276,7.202329858982219,-6.906192519926425,2.0,3.2827838827838827,304.6195045748717,-0.2729444671056466,2.917079424275974,-0.6113862828506492,1221.245421245421,-1.0,78.32988047808765,3.2167582881613495,
2023-08-09 09:55:33.181000,6.566265060240964,0.5903614457831325,-7.433734939759036,0.7381974248927038,7.23175965665236,-6.950337216431636,2.0,3.2842490842490837,304.48360472897616,-0.05920400909037948,2.4743313326729206,-0.5961191072781301,1227.106227106227,-1.0,78.32988047808765,3.216392773786101,
2023-08-09 09:55:33.189000,6.578313253012048,0.5903614457831325,-7.433734939759036,0.7381974248927038,7.280809319435929,-6.935622317596566,2.0,3.2857142857142856,304.34782608695656,-0.1355398869529749,2.6270030883981117,-0.6266534584231683,1230.7692307692307,-1.0,78.32988047808765,3.216045355466413,
2023-08-09 09:55:33.197000,6.614457831325302,0.5903614457831325,-7.445783132530121,0.7087676272225628,7.268546903740036,-6.942979767014101,2.0,3.287179487179487,304.2121684867395,-0.2424101159606085,2.6117359128255924,-0.7793252141483591,1232.2344322344322,-1.0,78.32988047808765,3.215716371971539,
2023-08-09 09:55:33.204000,6.602409638554217,0.5903614457831325,-7.457831325301205,0.7063151440833844,7.258736971183323,-6.999386879215205,2.0,3.2886446886446885,304.07663176654046,-0.3034788182506848,2.0926519433599435,-0.7335236874308019,1230.03663003663,-1.0,78.32988047808765,3.2154061586188005,
2023-08-09 09:55:33.212000,6.626506024096386,0.5783132530120483,-7.457831325301205,0.6474555487431024,7.302881667688534,-7.026364193746168,2.0,3.2886446886446885,304.07663176654046,0.12400209777984952,2.2911252258026917,-0.2602412446827103,1227.106227106227,-1.0,78.32988047808765,3.215115047207839,
2023-08-09 09:55:33.220000,6.626506024096386,0.5903614457831325,-7.457831325301205,0.6744328632740649,7.3372164316370325,-6.967504598405886,2.0,3.2915750915750914,303.80592032049856,-0.10500553580793673,2.15372064565002,-0.10756948895751947,1221.9780219780218,-1.0,78.32988047808765,3.214843364503157,
2023-08-09 09:55:33.227000,6.626506024096386,0.6024096385542169,-7.433734939759036,0.7283874923359902,7.266094420600858,-7.009196811771918,2.0,3.293040293040293,303.67074527252504,0.16980362449740677,1.7415069051920047,-0.19917254239263396,1218.3150183150183,-1.0,78.32988047808765,3.214591432147477,
2023-08-09 09:55:33.235000,6.602409638554217,0.6024096385542169,-7.433734939759036,0.7234825260576333,7.31023911710607,-6.916002452483139,2.0,3.293040293040293,303.67074527252504,0.10873492220733044,1.3445603403065085,-0.2907755958277485,1219.047619047619,-1.0,78.32988047808765,3.2143595666361167,
2023-08-09 09:55:33.243000,6.602409638554217,0.5903614457831325,-7.421686746987953,0.745554874310239,7.268546903740036,-6.938074800735745,2.0,3.294505494505494,303.5356904603069,0.10873492220733044,1.3445603403065085,-0.2907755958277485,1226.3736263736264,-1.0,78.32988047808765,3.2141480778437908,
2023-08-09 09:55:33.250000,6.614457831325302,0.5903614457831325,-7.445783132530121,0.7259350091968118,7.280809319435929,-6.938074800735745,2.0,3.2959706959706963,303.4007557234941,0.2308723267874831,0.8560107219858979,-0.3671114736903439,1239.5604395604396,-1.0,78.32988047808765,3.2139572683900104,
2023-08-09 09:55:33.258000,6.602409638554217,0.6144578313253012,-7.445783132530121,0.703862660944206,7.266094420600858,-6.965052115266707,2.0,3.2974358974358973,303.2659409020218,0.2308723267874831,0.3369267525202491,-0.10756948895751947,1264.4688644688645,-1.0,78.32988047808765,3.2137874335604755,
2023-08-09 09:55:33.266000,6.602409638554217,0.6024096385542169,-7.409638554216868,0.7161250766400981,7.31023911710607,-6.969957081545064,2.0,3.298901098901099,303.13124583610926,0.24613950236000218,0.07738476778742467,0.22830837363790035,1306.227106227106,-1.0,78.32988047808765,3.2136388607336976,
2023-08-09 09:55:33.273000,6.590361445783133,0.5783132530120483,-7.433734939759036,0.6965052115266707,7.214592274678111,-6.903740036787247,2.0,3.298901098901099,303.13124583610926,0.16980362449740677,0.12318629450498193,-0.07703513781248131,1370.6959706959706,-1.0,78.32988047808765,3.21351182884218,
2023-08-09 09:55:33.281000,6.566265060240964,0.5903614457831325,-7.409638554216868,0.7504598405885959,7.214592274678111,-6.977314530962599,2.0,3.3003663003663,302.9966703662597,0.18507080006992585,-0.3042946215255524,-0.01596643552240497,1463.7362637362637,-1.0,78.32988047808765,3.2134066073078245,
2023-08-09 09:55:33.289000,6.566265060240964,0.5903614457831325,-7.421686746987953,0.8142244022072348,7.239117106069895,-6.938074800735745,2.0,3.3003663003663,302.9966703662597,0.07820057106229227,-0.24322591923547607,-0.07703513781248131,1589.0109890109889,-1.0,78.32988047808765,3.2133234554361896,
2023-08-09 09:55:33.296000,6.566265060240964,0.5903614457831325,-7.421686746987953,0.6670754138565297,7.187614960147148,-6.94543225015328,2.0,3.301831501831502,302.8622143332594,-0.028669657945341313,-1.159256453586621,-0.42818017598042024,1745.7875457875457,-1.0,78.32988047808765,3.2132626222713174,
2023-08-09 09:55:33.304000,6.55421686746988,0.5783132530120483,-7.445783132530121,0.7210300429184548,7.236664622930717,-7.001839362354383,2.0,3.3032967032967027,302.727877578177,0.1545364489248877,-1.8004778276324225,-0.3365771225453057,1931.135531135531,-1.0,78.32988047808765,3.2132243454719176,
2023-08-09 09:55:33.312000,6.566265060240964,0.5783132530120483,-7.46987951807229,0.7381974248927038,7.197424892703863,-7.019006744328633,2.0,3.301831501831502,302.8622143332594,0.1392692733523686,-1.7852106520599036,-0.4434473515529393,2131.8681318681315,-1.0,78.32988047808765,3.213208850790355,
2023-08-09 09:55:33.319000,6.55421686746988,0.5903614457831325,-7.46987951807229,0.6891477621091354,7.229307173513182,-6.947884733292458,2.0,3.304761904761905,302.5936599423631,-0.043936833517860395,-1.9073480566400562,-0.565584756133092,2335.5311355311355,-1.0,78.32988047808765,3.213216351524718,
2023-08-09 09:55:33.327000,6.542168674698796,0.5903614457831325,-7.481927710843374,0.7161250766400981,7.217044757817289,-6.969957081545064,2.0,3.306227106227106,302.4595612674496,-0.2118757648155703,-2.258493094807995,-0.565584756133092,2526.7399267399264,-1.0,78.32988047808765,3.2132470487224145,
2023-08-09 09:55:33.335000,6.55421686746988,0.5783132530120483,-7.481927710843374,0.7087676272225628,7.207234825260576,-6.996934396076027,2.0,3.307692307692307,302.3255813953489,0.03239904434473502,-2.3348289726705906,-0.6419206339956874,2692.307692307692,-1.0,78.32988047808765,3.213301130657646,
2023-08-09 09:55:33.342000,6.542168674698796,0.5783132530120483,-7.46987951807229,0.7234825260576333,7.214592274678111,-7.031269160024524,2.0,3.309157509157509,302.1917201682533,-0.16607423809801306,-1.8310121787774607,-1.0694015500262217,2805.128205128205,-1.0,78.32988047808765,3.2133787714454303,
2023-08-09 09:55:33.350000,6.566265060240964,0.6144578313253012,-7.46987951807229,0.6842427958307786,7.224402207234825,-7.014101778050276,2.0,3.309157509157509,302.1917201682533,-0.16607423809801306,-1.8004778276324225,-1.145737427888817,2805.8608058608056,-1.0,78.32988047808765,3.213480131079074,
2023-08-09 09:55:33.358000,6.590361445783133,0.6144578313253012,-7.506024096385542,0.6916002452483139,7.273451870018393,-7.001839362354383,2.0,3.3106227106227104,302.0579774286347,-0.028669657945341313,-1.5562030184721172,-0.748790863003321,2805.128205128205,-1.0,78.32988047808765,3.21360535446724,
2023-08-09 09:55:33.365000,6.566265060240964,0.6144578313253012,-7.518072289156627,0.7234825260576333,7.175352544451257,-6.994481912936848,2.0,3.3120879120879123,301.92435301924354,0.0018646931996968547,-0.8081114154186821,-0.7793252141483591,2805.128205128205,-1.0,78.32988047808765,3.213754570948065,
2023-08-09 09:55:33.373000,6.590361445783133,0.5903614457831325,-7.457831325301205,0.7504598405885959,7.224402207234825,-7.026364193746168,2.0,3.3120879120879123,301.92435301924354,0.03239904434473502,-0.5638366062583768,-0.5045160538430157,2805.128205128205,-1.0,78.32988047808765,3.2139278947746424,
2023-08-09 09:55:33.380000,6.590361445783133,0.6144578313253012,-7.506024096385542,0.745554874310239,7.270999386879215,-7.004291845493562,2.0,3.3135531135531133,301.7908467831086,-0.043936833517860395,-0.7470427131286058,-0.3518442981178248,2764.8351648351645,-1.0,78.32988047808765,3.2141254241847754,
2023-08-09 09:55:33.388000,6.602409638554217,0.6265060240963856,-7.493975903614459,0.7112201103617413,7.280809319435929,-6.933169834457388,2.0,3.3135531135531133,301.7908467831086,0.16980362449740677,-0.3042946215255524,-0.04650078666744314,2662.271062271062,743.011474609375,80.75245410112129,3.214347240462366,
2023-08-09 09:55:33.396000,6.578313253012048,0.6024096385542169,-7.493975903614459,0.733292458614347,7.236664622930717,-7.011649294911097,2.0,3.315018315018315,301.65745856353595,0.1392692733523686,-0.10582133908280432,0.13670532020278586,2523.809523809524,-1.0,80.75245410112129,3.2145934075863907,
2023-08-09 09:55:33.403000,6.590361445783133,0.5903614457831325,-7.46987951807229,0.7283874923359902,7.217044757817289,-7.00674432863274,2.0,3.315018315018315,301.65745856353595,-0.19660858924305122,0.09265194335994377,0.045102266767671366,2364.8351648351645,-1.0,80.75245410112129,3.214863971837142,
2023-08-09 09:55:33.411000,6.578313253012048,0.5903614457831325,-7.481927710843374,0.6499080318822807,7.217044757817289,-7.019006744328633,2.0,3.315018315018315,301.65745856353595,-0.028669657945341313,-0.3806304993881478,0.12143814463026678,2198.5347985347985,-1.0,80.75245410112129,3.215158961500294,
2023-08-09 09:55:33.419000,6.578313253012048,0.5903614457831325,-7.445783132530121,0.7504598405885959,7.244022072348252,-6.955242182709993,2.0,3.316483516483516,301.5241882041087,0.0476662199172541,-0.3958976749606669,0.15197249577530494,2030.03663003663,-1.0,80.75245410112129,3.215478386496255,
2023-08-09 09:55:33.426000,6.55421686746988,0.5903614457831325,-7.445783132530121,0.6597179644389944,7.241569589209074,-6.952789699570815,2.0,3.3179487179487177,301.39103554868626,-0.2424101159606085,-0.10582133908280432,0.4725831827982057,1868.131868131868,-1.0,80.75245410112129,3.2158222380401003,
2023-08-09 09:55:33.434000,6.55421686746988,0.6024096385542169,-7.445783132530121,0.7259350091968118,7.190067443286327,-7.014101778050276,2.0,3.3179487179487177,301.39103554868626,-0.18134141367053214,-0.6859740108385295,0.24357554921041943,1718.6813186813185,-1.0,80.75245410112129,3.2161904889299935,
2023-08-09 09:55:33.442000,6.566265060240964,0.5903614457831325,-7.457831325301205,0.6866952789699571,7.187614960147148,-6.967504598405886,2.0,3.3179487179487177,301.39103554868626,-0.16607423809801306,-0.8691801177087585,0.13670532020278586,1588.278388278388,-1.0,80.75245410112129,3.216583092885507,
2023-08-09 09:55:33.449000,6.55421686746988,0.5903614457831325,-7.481927710843374,0.7431023911710607,7.199877375843041,-6.967504598405886,2.0,3.319413919413919,301.2580004414037,-0.45615057397587566,-1.0218518734339492,-0.06176796223996222,1476.923076923077,-1.0,80.75245410112129,3.216999984342999,
2023-08-09 09:55:33.457000,6.530120481927711,0.5662650602409639,-7.481927710843374,0.703862660944206,7.224402207234825,-6.947884733292458,2.0,3.3208791208791206,301.1250827266711,-0.2576772915331276,-1.6478060719072318,-0.06176796223996222,1386.8131868131868,-1.0,80.75245410112129,3.2174410786739007,
2023-08-09 09:55:33.465000,6.542168674698796,0.5783132530120483,-7.481927710843374,0.6940527283874923,7.199877375843041,-6.989576946658492,2.0,3.319413919413919,301.2580004414037,-0.12027271138045581,-1.708874774197308,-0.5503175805605729,1315.7509157509157,-1.0,80.75245410112129,3.2179062721216543,
2023-08-09 09:55:33.472000,6.55421686746988,0.5903614457831325,-7.493975903614459,0.7014101778050276,7.214592274678111,-7.033721643163703,2.0,3.3208791208791206,301.1250827266711,-0.05920400909037948,-1.9989511100751707,-0.3671114736903439,1260.8058608058607,-1.0,80.75245410112129,3.2183954417072327,
2023-08-09 09:55:33.480000,6.518072289156627,0.5783132530120483,-7.46987951807229,0.6916002452483139,7.167995095033722,-6.984671980380135,2.0,3.3223443223443225,300.9922822491731,-0.028669657945341313,-2.1821572169453995,-0.8403939164384354,1219.047619047619,-1.0,80.75245410112129,3.218908444541406,
2023-08-09 09:55:33.488000,6.542168674698796,0.6024096385542169,-7.481927710843374,0.7161250766400981,7.244022072348252,-7.021459227467811,2.0,3.3223443223443225,300.9922822491731,0.215605151214964,-1.9684167589301325,-0.7335236874308019,1187.5457875457876,-1.0,80.75245410112129,3.2194451178740935,
2023-08-09 09:55:33.495000,6.518072289156627,0.5903614457831325,-7.506024096385542,0.7063151440833844,7.155732679337829,-7.050889025137952,2.0,3.323809523809524,300.8595988538682,0.27667385350504037,-2.0905541635102853,-0.5503175805605729,1160.4395604395604,-1.0,80.75245410112129,3.22000527921472,
2023-08-09 09:55:33.503000,6.542168674698796,0.6144578313253012,-7.493975903614459,0.7210300429184548,7.26364193746168,-6.99202942979767,2.0,3.323809523809524,300.8595988538682,-0.12027271138045581,-2.258493094807995,-1.0388671988811835,1134.065934065934,-1.0,80.75245410112129,3.220588726385133,
2023-08-09 09:55:33.511000,6.566265060240964,0.6144578313253012,-7.481927710843374,0.6916002452483139,7.226854690374004,-7.004291845493562,2.0,3.325274725274725,300.72703238598814,0.5056814870928266,-2.3042946215255524,-0.580851931705611,1109.1575091575091,-1.0,80.75245410112129,3.2211952376792246,
2023-08-09 09:55:33.518000,6.55421686746988,0.6265060240963856,-7.481927710843374,0.7283874923359902,7.209687308399754,-6.967504598405886,2.0,3.325274725274725,300.72703238598814,0.5056814870928266,-2.3042946215255524,-0.580851931705611,1087.179487179487,-1.0,80.75245410112129,3.2218245724481775,
2023-08-09 09:55:33.526000,6.566265060240964,0.6144578313253012,-7.46987951807229,0.6965052115266707,7.202329858982219,-7.004291845493562,2.0,3.325274725274725,300.72703238598814,0.0476662199172541,-2.441699201678224,-0.8556610920109545,1068.131868131868,-1.0,80.75245410112129,3.222476470809617,
2023-08-09 09:55:33.534000,6.542168674698796,0.6144578313253012,-7.506024096385542,0.7578172900061312,7.214592274678111,-7.055793991416309,2.0,3.325274725274725,300.72703238598814,-0.07447118466289857,-2.1821572169453995,-0.27550842025522937,1051.2820512820513,-1.0,80.75245410112129,3.2231506538516155,
2023-08-09 09:55:33.541000,6.530120481927711,0.6144578313253012,-7.518072289156627,0.745554874310239,7.224402207234825,-7.004291845493562,2.0,3.326739926739926,300.59458269103726,0.12400209777984952,-2.075286987937766,-0.48924887827049657,1038.095238095238,-1.0,80.75245410112129,3.223846823768863,
2023-08-09 09:55:33.549000,6.518072289156627,0.6385542168674699,-7.518072289156627,0.6866952789699571,7.219497240956468,-7.038626609442059,2.0,3.326739926739926,300.59458269103726,-0.013402482372822228,-1.9684167589301325,-0.38237864926286297,1031.5018315018315,-1.0,80.75245410112129,3.224564664138766,
2023-08-09 09:55:33.557000,6.518072289156627,0.6024096385542169,-7.493975903614459,0.7014101778050276,7.182709993868792,-7.065603923973022,2.0,3.328205128205128,300.46224961479203,0.18507080006992585,-1.7852106520599036,-0.5045160538430157,1034.4322344322343,-1.0,80.75245410112129,3.22530384026728,
2023-08-09 09:55:33.564000,6.506024096385542,0.6024096385542169,-7.530120481927711,0.6916002452483139,7.221949724095646,-7.0410790925812385,2.0,3.328205128205128,300.46224961479203,-0.33401316939572295,-1.3577297360293692,-0.5197832294155347,1045.4212454212454,-1.0,80.75245410112129,3.22606399956919,
2023-08-09 09:55:33.572000,6.506024096385542,0.5903614457831325,-7.530120481927711,0.6842427958307786,7.241569589209074,-7.055793991416309,2.0,3.328205128205128,300.46224961479203,-0.34928034496824206,-1.3882640871744074,0.1825068469203431,1064.4688644688645,-1.0,80.75245410112129,3.2268447724402263,
2023-08-09 09:55:33.580000,6.518072289156627,0.5903614457831325,-7.518072289156627,0.6965052115266707,7.172900061312078,-7.033721643163703,2.0,3.3296703296703294,300.33003300330034,-0.19660858924305122,-1.1897908047316592,0.1977740224928622,1091.5750915750914,-1.0,80.75245410112129,3.2276457716868445,
2023-08-09 09:55:33.587000,6.506024096385542,0.5903614457831325,-7.506024096385542,0.733292458614347,7.141017780502759,-7.095033721643163,2.0,3.3296703296703294,300.33003300330034,-0.16607423809801306,-1.0218518734339492,-0.1686381912475958,1124.5421245421244,-1.0,80.75245410112129,3.2284665934635997,
2023-08-09 09:55:33.595000,6.530120481927711,0.5783132530120483,-7.518072289156627,0.7087676272225628,7.13856529736358,-7.036174126302881,2.0,3.3296703296703294,300.33003300330034,0.0476662199172541,-0.6401724841209723,-0.031233611094924053,1162.6373626373625,-1.0,80.75245410112129,3.229306817783868,
2023-08-09 09:55:33.603000,6.506024096385542,0.5903614457831325,-7.506024096385542,0.6866952789699571,7.155732679337829,-7.072961373390558,2.0,3.3311355311355313,300.197932702881,0.26140667793252126,-0.6401724841209723,0.045102266767671366,1205.8608058608058,-1.0,80.75245410112129,3.2301660085681534,
2023-08-09 09:55:33.610000,6.518072289156627,0.5783132530120483,-7.55421686746988,0.6768853464132434,7.131207847946045,-7.087676272225628,2.0,3.3311355311355313,300.197932702881,0.10873492220733044,-0.19742439251791882,-0.2907755958277485,1252.7472527472526,-1.0,80.75245410112129,3.2310437150928,
2023-08-09 09:55:33.618000,6.518072289156627,0.5783132530120483,-7.530120481927711,0.6817903126916002,7.109135499693439,-7.055793991416309,2.0,3.3311355311355313,300.197932702881,-0.18134141367053214,-0.18215721694539974,-0.10756948895751947,1297.4358974358975,-1.0,80.75245410112129,3.2319394720953722,
2023-08-09 09:55:33.626000,6.518072289156627,0.5903614457831325,-7.530120481927711,0.6719803801348866,7.155732679337829,-7.048436541998774,2.0,3.3311355311355313,300.197932702881,0.0476662199172541,0.29112522580269184,-0.19917254239263396,1342.1245421245421,-1.0,80.75245410112129,3.232852800364498,
2023-08-09 09:55:33.633000,6.542168674698796,0.6144578313253012,-7.506024096385542,0.703862660944206,7.153280196198651,-7.060698957694665,2.0,3.3326007326007323,300.0659485601231,-0.2424101159606085,0.6575374395431498,-0.5503175805605729,1384.6153846153845,-1.0,80.75245410112129,3.233783207250548,
2023-08-09 09:55:33.641000,6.518072289156627,0.6144578313253012,-7.518072289156627,0.7406499080318822,7.143470263641937,-7.028816676885346,2.0,3.3326007326007323,300.0659485601231,-0.013402482372822228,0.7949420196958216,-0.2907755958277485,1421.245421245421,-1.0,80.75245410112129,3.234730186846021,
2023-08-09 09:55:33.649000,6.530120481927711,0.6144578313253012,-7.530120481927711,0.6523605150214592,7.236664622930717,-7.043531575720417,2.0,3.3326007326007323,300.0659485601231,0.07820057106229227,0.48959850824543993,0.06036944234019045,1450.5494505494505,-1.0,80.75245410112129,3.2356932212054326,
2023-08-09 09:55:33.656000,6.530120481927711,0.6024096385542169,-7.493975903614459,0.7357449417535254,7.175352544451257,-7.021459227467811,2.0,3.3340659340659338,299.9340804218853,0.06293339548977318,1.0239496532836079,-0.3976458248353821,1466.6666666666665,-1.0,80.75245410112129,3.236671780531062,
2023-08-09 09:55:33.664000,6.542168674698796,0.6024096385542169,-7.493975903614459,0.7112201103617413,7.217044757817289,-7.011649294911097,2.0,3.3340659340659338,299.9340804218853,0.0018646931996968547,0.7491404929782643,-0.2602412446827103,1471.062271062271,-1.0,80.75245410112129,3.237665324360725,
2023-08-09 09:55:33.672000,6.530120481927711,0.6144578313253012,-7.530120481927711,0.7136725935009196,7.212139791538933,-7.097486204782342,2.0,3.3340659340659338,299.9340804218853,-0.18134141367053214,1.0086824777110888,-0.1686381912475958,1466.6666666666665,-1.0,80.75245410112129,3.238673302773267,
2023-08-09 09:55:33.679000,6.542168674698796,0.6144578313253012,-7.530120481927711,0.733292458614347,7.202329858982219,-7.05334150827713,2.0,3.3340659340659338,299.9340804218853,-0.05920400909037948,0.8865450731309361,-0.30604277140026753,1453.4798534798533,-1.0,80.75245410112129,3.2396951561346383,
2023-08-09 09:55:33.687000,6.542168674698796,0.5903614457831325,-7.506024096385542,0.7406499080318822,7.158185162477007,-7.058246474555487,2.0,3.3340659340659338,299.9340804218853,-0.2271429403880894,1.5430336227492567,-0.3976458248353821,1432.9670329670328,-1.0,80.75245410112129,3.2407303158411747,
2023-08-09 09:55:33.695000,6.542168674698796,0.6265060240963856,-7.506024096385542,0.7161250766400981,7.182709993868792,-7.014101778050276,2.0,3.3340659340659338,299.9340804218853,0.03239904434473502,1.2987588135889514,-0.04650078666744314,1406.5934065934066,-1.0,80.75245410112129,3.241778205038195,
2023-08-09 09:55:33.702000,6.542168674698796,0.6506024096385542,-7.530120481927711,0.7234825260576333,7.148375229920294,-6.994481912936848,2.0,3.3340659340659338,299.9340804218853,0.1545364489248877,1.6957053784744476,-0.12283666453003855,1375.091575091575,-1.0,80.75245410112129,3.2428382393816952,
2023-08-09 09:55:33.710000,6.530120481927711,0.6385542168674699,-7.46987951807229,0.7234825260576333,7.241569589209074,-7.009196811771918,2.0,3.3340659340659338,299.9340804218853,-0.028669657945341313,1.3292931647339896,-0.10756948895751947,1338.4615384615383,-1.0,80.75245410112129,3.243909828229666,
2023-08-09 09:55:33.718000,6.530120481927711,0.6265060240963856,-7.46987951807229,0.745554874310239,7.1287553648068664,-6.979767014101777,2.0,3.3355311355311352,299.80232813529545,-0.043936833517860395,0.9781481265660505,0.16723967134782403,1300.3663003663003,-1.0,80.75245410112129,3.244992374889891,
2023-08-09 09:55:33.725000,6.518072289156627,0.6385542168674699,-7.506024096385542,0.7406499080318822,7.258736971183323,-7.001839362354383,2.0,3.3355311355311352,299.80232813529545,-0.1355398869529749,1.1918885845813179,-6.992599498858867E-4,1263.003663003663,-1.0,80.75245410112129,3.2460852778904985,
2023-08-09 09:55:33.733000,6.530120481927711,0.6144578313253012,-7.481927710843374,0.6523605150214592,7.221949724095646,-6.952789699570815,2.0,3.3340659340659338,299.9340804218853,-0.05920400909037948,1.1918885845813179,-0.04650078666744314,1226.3736263736264,-1.0,80.75245410112129,3.247187931796112,
2023-08-09 09:55:33.741000,6.55421686746988,0.6144578313253012,-7.506024096385542,0.7553648068669527,7.23175965665236,-6.99202942979767,2.0,3.3355311355311352,299.80232813529545,-0.028669657945341313,0.9781481265660505,0.014567915622633197,1191.9413919413919,-1.0,80.75245410112129,3.2482997265828715,
2023-08-09 09:55:33.748000,6.542168674698796,0.6265060240963856,-7.493975903614459,0.7136725935009196,7.212139791538933,-7.011649294911097,2.0,3.3340659340659338,299.9340804218853,0.0476662199172541,0.9018122487034552,0.045102266767671366,1158.974358974359,-1.0,80.75245410112129,3.249420049330721,
2023-08-09 09:55:33.756000,6.542168674698796,0.6144578313253012,-7.493975903614459,0.7578172900061312,7.1704475781729,-6.969957081545064,2.0,3.3355311355311352,299.80232813529545,-0.08973836023541765,1.237690111298875,-0.12283666453003855,1127.4725274725274,-1.0,80.75245410112129,3.250548285454134,
2023-08-09 09:55:33.763000,6.542168674698796,0.5903614457831325,-7.457831325301205,0.6965052115266707,7.187614960147148,-7.019006744328633,2.0,3.3355311355311352,299.80232813529545,0.09346774663481136,0.5964687372530735,-0.18390536682011488,1100.3663003663003,-1.0,80.75245410112129,3.2516838193676616,
2023-08-09 09:55:33.771000,6.542168674698796,0.6144578313253012,-7.457831325301205,0.7553648068669527,7.244022072348252,-7.00674432863274,2.0,3.3326007326007323,300.0659485601231,0.0476662199172541,0.12318629450498193,-0.10756948895751947,1077.6556776556777,-1.0,80.75245410112129,3.2528260347929954,
2023-08-09 09:55:33.779000,6.530120481927711,0.5783132530120483,-7.518072289156627,0.7651747394236664,7.1704475781729,-7.001839362354383,2.0,3.3340659340659338,299.9340804218853,0.2919410290775594,0.12318629450498193,0.09090379348522862,1060.8058608058607,-1.0,80.75245410112129,3.253974314599318,
2023-08-09 09:55:33.786000,6.542168674698796,0.6024096385542169,-7.481927710843374,0.6989576946658491,7.229307173513182,-7.019006744328633,2.0,3.3340659340659338,299.9340804218853,-0.2271429403880894,-0.18215721694539974,-0.18390536682011488,1051.2820512820513,-1.0,80.75245410112129,3.255128042743947,
2023-08-09 09:55:33.794000,6.55421686746988,0.6024096385542169,-7.493975903614459,0.7578172900061312,7.182709993868792,-7.0705088902513795,2.0,3.3355311355311352,299.80232813529545,-0.2271429403880894,-0.18215721694539974,-0.18390536682011488,1045.4212454212454,-1.0,80.75245410112129,3.256286604968306,
2023-08-09 09:55:33.802000,6.542168674698796,0.6024096385542169,-7.506024096385542,0.703862660944206,7.177805027590435,-7.004291845493562,2.0,3.3355311355311352,299.80232813529545,0.1545364489248877,0.32165957694773,-0.10756948895751947,1044.6886446886447,-1.0,80.75245410112129,3.25744938909387,
2023-08-09 09:55:33.809000,6.55421686746988,0.6024096385542169,-7.506024096385542,0.7381974248927038,7.226854690374004,-7.045984058859595,2.0,3.3355311355311352,299.80232813529545,0.07820057106229227,0.6117359128255926,-0.30604277140026753,1049.084249084249,-1.0,80.75245410112129,3.2586157862882983,
2023-08-09 09:55:33.817000,6.530120481927711,0.6265060240963856,-7.46987951807229,0.7112201103617413,7.244022072348252,-7.026364193746168,2.0,3.3355311355311352,299.80232813529545,-0.07447118466289857,0.504865683817959,0.014567915622633197,1055.6776556776556,-1.0,80.75245410112129,3.259785191263363,
2023-08-09 09:55:33.825000,6.542168674698796,0.6265060240963856,-7.481927710843374,0.7063151440833844,7.212139791538933,-7.058246474555487,2.0,3.3355311355311352,299.80232813529545,0.16980362449740677,0.7949420196958216,-0.12283666453003855,1063.7362637362637,-1.0,80.75245410112129,3.2609570024908097,
2023-08-09 09:55:33.832000,6.55421686746988,0.6385542168674699,-7.481927710843374,0.7259350091968118,7.207234825260576,-7.021459227467811,2.0,3.3355311355311352,299.80232813529545,-0.5019521006934329,1.054484004428646,-0.15337101567507672,1072.5274725274724,-1.0,80.75245410112129,3.262130623348546,
2023-08-09 09:55:33.840000,6.578313253012048,0.6144578313253012,-7.481927710843374,0.7357449417535254,7.244022072348252,-6.99202942979767,2.0,3.3355311355311352,299.80232813529545,0.0018646931996968547,0.6728046151156689,-6.992599498858867E-4,1081.3186813186812,-1.0,80.75245410112129,3.263305462720795,
2023-08-09 09:55:33.848000,6.566265060240964,0.6265060240963856,-7.481927710843374,0.7234825260576333,7.197424892703863,-6.942979767014101,2.0,3.3355311355311352,299.80232813529545,-0.12027271138045581,0.6575374395431498,-0.01596643552240497,1093.040293040293,-1.0,80.75245410112129,3.264480935155632,
2023-08-09 09:55:33.855000,6.55421686746988,0.6024096385542169,-7.481927710843374,0.7676272225628449,7.202329858982219,-6.962599632127529,2.0,3.3355311355311352,299.80232813529545,-0.15080706252549397,1.2987588135889514,0.5031175339432439,1106.9597069597069,-1.0,80.75245410112129,3.2656564619503743,
2023-08-09 09:55:33.863000,6.566265060240964,0.6024096385542169,-7.493975903614459,0.7529123237277743,7.182709993868792,-7.001839362354383,2.0,3.3369963369963367,299.67069154774975,-0.10500553580793673,0.9934153021385697,0.533651885088282,1121.6117216117216,-1.0,80.75245410112129,3.2668314721465705,
2023-08-09 09:55:33.871000,6.530120481927711,0.5903614457831325,-7.457831325301205,0.7234825260576333,7.194972409564683,-6.974862047823421,2.0,3.3355311355311352,299.80232813529545,0.215605151214964,1.0086824777110888,0.5794534118058393,1134.065934065934,-1.0,80.75245410112129,3.2680054030479484,
2023-08-09 09:55:33.878000,6.55421686746988,0.5903614457831325,-7.506024096385542,0.6866952789699571,7.175352544451257,-7.014101778050276,2.0,3.3369963369963367,299.67069154774975,-0.12027271138045581,0.3674611036652873,0.5641862362333202,1145.054945054945,-1.0,80.75245410112129,3.269177699872267,
2023-08-09 09:55:33.886000,6.566265060240964,0.5783132530120483,-7.481927710843374,0.6842427958307786,7.24647455548743,-6.965052115266707,2.0,3.3369963369963367,299.67069154774975,-0.34928034496824206,0.5964687372530735,0.3809801293630912,1154.5787545787546,-1.0,80.75245410112129,3.2703478167170554,
2023-08-09 09:55:33.894000,6.55421686746988,0.5783132530120483,-7.518072289156627,0.7676272225628449,7.256284488044145,-7.0705088902513795,2.0,3.3369963369963367,299.67069154774975,-0.34928034496824206,0.6422702639706308,0.06036944234019045,1163.3699633699632,-1.0,80.75245410112129,3.271515217995133,
2023-08-09 09:55:33.901000,6.542168674698796,0.5783132530120483,-7.506024096385542,0.7112201103617413,7.248927038626609,-7.05334150827713,2.0,3.3369963369963367,299.67069154774975,-0.2576772915331276,1.0086824777110888,0.1977740224928622,1171.4285714285713,-1.0,80.75245410112129,3.272679377915922,
2023-08-09 09:55:33.909000,6.542168674698796,0.5783132530120483,-7.506024096385542,0.7014101778050276,7.209687308399754,-7.092581238503985,2.0,3.3369963369963367,299.67069154774975,0.09346774663481136,0.871277897558417,0.06036944234019045,1179.4871794871794,-1.0,80.75245410112129,3.2738397809284425,
2023-08-09 09:55:33.917000,6.55421686746988,0.5783132530120483,-7.530120481927711,0.7259350091968118,7.224402207234825,-7.016554261189454,2.0,3.3384615384615386,299.53917050691246,-0.33401316939572295,1.2224229357263559,-0.10756948895751947,1186.8131868131868,-1.0,80.75245410112129,3.2749959221056244,
2023-08-09 09:55:33.924000,6.55421686746988,0.5783132530120483,-7.481927710843374,0.6425505824647455,7.23175965665236,-6.957694665849172,2.0,3.3355311355311352,299.80232813529545,-0.07447118466289857,1.5430336227492567,-0.2602412446827103,1194.1391941391942,-1.0,80.75245410112129,3.2761473075740275,
2023-08-09 09:55:33.932000,6.55421686746988,0.5662650602409639,-7.518072289156627,0.7136725935009196,7.219497240956468,-7.036174126302881,2.0,3.3369963369963367,299.67069154774975,0.09346774663481136,1.8636443097721573,-0.48924887827049657,1200.0,-1.0,80.75245410112129,3.2772934549195285,
2023-08-09 09:55:33.940000,6.566265060240964,0.5903614457831325,-7.493975903614459,0.703862660944206,7.204782342121398,-6.987124463519313,2.0,3.3369963369963367,299.67069154774975,0.07820057106229227,2.2147893479400964,-0.2907755958277485,1202.9304029304028,-1.0,80.75245410112129,3.2784338933255235,
2023-08-09 09:55:33.947000,6.55421686746988,0.6144578313253012,-7.481927710843374,0.7210300429184548,7.234212139791539,-6.967504598405886,2.0,3.3369963369963367,299.67069154774975,-0.2118757648155703,2.275858050230173,-0.3671114736903439,1205.128205128205,-1.0,80.75245410112129,3.27956816392975,
2023-08-09 09:55:33.955000,6.55421686746988,0.6144578313253012,-7.493975903614459,0.7725321888412017,7.212139791538933,-6.982219497240956,2.0,3.3384615384615386,299.53917050691246,-0.05920400909037948,2.367461103665287,-0.6113862828506492,1203.6630036630036,-1.0,80.75245410112129,3.2806958196985283,
2023-08-09 09:55:33.963000,6.566265060240964,0.6385542168674699,-7.481927710843374,0.7308399754751685,7.217044757817289,-6.969957081545064,2.0,3.3384615384615386,299.53917050691246,-0.16607423809801306,2.2300565235126153,-0.3365771225453057,1198.5347985347985,-1.0,80.75245410112129,3.281816426682747,
2023-08-09 09:55:33.970000,6.566265060240964,0.6144578313253012,-7.481927710843374,0.7259350091968118,7.224402207234825,-6.987124463519313,2.0,3.3369963369963367,299.67069154774975,-0.2729444671056466,2.2453236990851346,-0.07703513781248131,1189.7435897435896,-1.0,80.75245410112129,3.2829295643020266,
2023-08-09 09:55:33.978000,6.590361445783133,0.6265060240963856,-7.481927710843374,0.7700797057020232,7.214592274678111,-6.996934396076027,2.0,3.3384615384615386,299.53917050691246,0.1545364489248877,2.184254996795058,-0.12283666453003855,1179.4871794871794,-1.0,80.75245410112129,3.2840348241648987,
2023-08-09 09:55:33.986000,6.602409638554217,0.6144578313253012,-7.481927710843374,0.7406499080318822,7.214592274678111,-6.91354996934396,2.0,3.3384615384615386,299.53917050691246,-0.05920400909037948,2.1231862945049818,-0.07703513781248131,1171.4285714285713,-1.0,80.75245410112129,3.285131811185375,
2023-08-09 09:55:33.993000,6.590361445783133,0.6144578313253012,-7.433734939759036,0.733292458614347,7.209687308399754,-6.965052115266707,2.0,3.3384615384615386,299.53917050691246,0.2308723267874831,1.6804382029019285,-0.06176796223996222,1168.4981684981685,-1.0,80.75245410112129,3.2862201442537735,
2023-08-09 09:55:34.001000,6.602409638554217,0.6265060240963856,-7.457831325301205,0.703862660944206,7.253832004904966,-6.996934396076027,2.0,3.3384615384615386,299.53917050691246,-0.07447118466289857,1.4972320960316994,0.13670532020278586,1169.9633699633698,-1.0,80.75245410112129,3.2872994559373034,
2023-08-09 09:55:34.009000,6.578313253012048,0.6024096385542169,-7.445783132530121,0.7381974248927038,7.273451870018393,-6.994481912936848,2.0,3.3369963369963367,299.67069154774975,-0.16607423809801306,1.3598275158790276,0.13670532020278586,1173.6263736263736,-1.0,80.75245410112129,3.288369392582072,
2023-08-09 09:55:34.016000,6.602409638554217,0.6024096385542169,-7.409638554216868,0.7357449417535254,7.270999386879215,-7.011649294911097,2.0,3.3369963369963367,299.67069154774975,0.18507080006992585,0.9323465998484933,0.2741099003554576,1183.8827838827838,-1.0,80.75245410112129,3.289429613477941,
2023-08-09 09:55:34.024000,6.602409638554217,0.5903614457831325,-7.457831325301205,0.7406499080318822,7.251379521765787,-6.967504598405886,2.0,3.3369963369963367,299.67069154774975,0.0476662199172541,0.8865450731309361,0.06036944234019045,1201.4652014652013,-1.0,80.75245410112129,3.2904797909132206,
2023-08-09 09:55:34.032000,6.590361445783133,0.5783132530120483,-7.433734939759036,0.7308399754751685,7.27835683629675,-6.962599632127529,2.0,3.3369963369963367,299.67069154774975,0.3224753802225976,1.1918885845813179,0.1061709690577477,1229.3040293040292,-1.0,80.75245410112129,3.291519611189108,
2023-08-09 09:55:34.039000,6.602409638554217,0.5903614457831325,-7.481927710843374,0.703862660944206,7.317596566523605,-6.989576946658492,2.0,3.3369963369963367,299.67069154774975,-0.043936833517860395,1.0697511800011652,0.07563661791270954,1268.131868131868,-1.0,80.75245410112129,3.2925487746286257,
2023-08-09 09:55:34.047000,6.590361445783133,0.5903614457831325,-7.457831325301205,0.703862660944206,7.251379521765787,-6.967504598405886,2.0,3.3369963369963367,299.67069154774975,0.01713186877221594,1.2834916380164323,-0.07703513781248131,1327.4725274725274,-1.0,80.75245410112129,3.2935669951427045,
2023-08-09 09:55:34.055000,6.578313253012048,0.5662650602409639,-7.457831325301205,0.7087676272225628,7.275904353157571,-6.979767014101777,2.0,3.3369963369963367,299.67069154774975,0.06293339548977318,0.9934153021385697,-0.10756948895751947,1411.7216117216117,-1.0,80.75245410112129,3.29457400026731,
2023-08-09 09:55:34.062000,6.55421686746988,0.5783132530120483,-7.457831325301205,0.6597179644389944,7.256284488044145,-6.974862047823421,2.0,3.3369963369963367,299.67069154774975,-0.2271429403880894,1.1460870578637605,0.33517860264553395,1528.2051282051282,-1.0,80.75245410112129,3.2955695316375966,
2023-08-09 09:55:34.070000,6.542168674698796,0.5783132530120483,-7.445783132530121,0.6768853464132434,7.241569589209074,-6.994481912936848,2.0,3.3369963369963367,299.67069154774975,-0.2271429403880894,1.1460870578637605,0.33517860264553395,1678.3882783882782,-1.0,80.75245410112129,3.2965533449169415,
2023-08-09 09:55:34.078000,6.55421686746988,0.5662650602409639,-7.397590361445784,0.703862660944206,7.253832004904966,-6.920907418761495,2.0,3.3355311355311352,299.80232813529545,-0.10500553580793673,0.7796748441233026,-0.2907755958277485,1853.4798534798533,-1.0,80.75245410112129,3.2975252092855922,
2023-08-09 09:55:34.085000,6.566265060240964,0.5662650602409639,-7.445783132530121,0.6719803801348866,7.192519926425505,-6.950337216431636,2.0,3.3355311355311352,299.80232813529545,-0.15080706252549397,0.5812015616805545,-0.48924887827049657,2045.4212454212452,-1.0,80.75245410112129,3.298484907368127,
2023-08-09 09:55:34.093000,6.55421686746988,0.5542168674698795,-7.421686746987953,0.7357449417535254,7.207234825260576,-6.984671980380135,2.0,3.3355311355311352,299.80232813529545,-0.2729444671056466,0.3369267525202491,-0.7335236874308019,2241.7582417582416,-1.0,80.75245410112129,3.2994322350380156,
2023-08-09 09:55:34.101000,6.566265060240964,0.5662650602409639,-7.445783132530121,0.6965052115266707,7.204782342121398,-6.99202942979767,2.0,3.3355311355311352,299.80232813529545,-0.2271429403880894,0.10791911893246285,-0.93199696987355,2428.5714285714284,-1.0,80.75245410112129,3.300367001308076,
2023-08-09 09:55:34.108000,6.566265060240964,0.5903614457831325,-7.46987951807229,0.7259350091968118,7.239117106069895,-7.016554261189454,2.0,3.3355311355311352,299.80232813529545,-0.18134141367053214,0.1689878212225392,-1.0388671988811835,2594.139194139194,-1.0,80.75245410112129,3.3012890282377976,
2023-08-09 09:55:34.116000,6.55421686746988,0.6024096385542169,-7.457831325301205,0.762722256284488,7.219497240956468,-7.026364193746168,2.0,3.3355311355311352,299.80232813529545,-0.3034788182506848,-0.07528698793776616,-1.1610046034613362,2728.205128205128,-1.0,80.75245410112129,3.3021981508235845,
2023-08-09 09:55:34.123000,6.578313253012048,0.6144578313253012,-7.457831325301205,0.7308399754751685,7.229307173513182,-6.969957081545064,2.0,3.3340659340659338,299.9340804218853,-0.2729444671056466,0.21478934794009644,-1.5426839927743132,2805.8608058608056,-1.0,80.75245410112129,3.303094216872709,
2023-08-09 09:55:34.131000,6.626506024096386,0.6385542168674699,-7.457831325301205,0.7602697731453096,7.24647455548743,-6.982219497240956,2.0,3.3340659340659338,299.9340804218853,-0.3187459938232039,-0.1363556902278425,-1.1915389546063744,2805.8608058608056,-1.0,80.75245410112129,3.303977086369143,
2023-08-09 09:55:34.139000,6.578313253012048,0.6265060240963856,-7.46987951807229,0.733292458614347,7.192519926425505,-7.001839362354383,2.0,3.3340659340659338,299.9340804218853,-0.07447118466289857,0.0010488899248292638,-1.1915389546063744,2805.128205128205,735.3515625,81.59362549800797,3.3048466307873943,
2023-08-09 09:55:34.146000,6.602409638554217,0.6506024096385542,-7.481927710843374,0.7381974248927038,7.297976701410177,-7.011649294911097,2.0,3.3340659340659338,299.9340804218853,-0.4714177495483947,0.2453236990851346,-0.9472641454460691,2805.128205128205,-1.0,81.59362549800797,3.305702733899994,
2023-08-09 09:55:34.154000,6.590361445783133,0.6506024096385542,-7.445783132530121,0.733292458614347,7.280809319435929,-6.982219497240956,2.0,3.3326007326007323,300.0659485601231,-0.3187459938232039,0.35219392809276817,-1.0694015500262217,2753.846153846154,-1.0,81.59362549800797,3.3065452920094973,
2023-08-09 09:55:34.162000,6.578313253012048,0.6506024096385542,-7.421686746987953,0.733292458614347,7.256284488044145,-6.879215205395463,2.0,3.3326007326007323,300.0659485601231,-0.2271429403880894,0.5201328593904782,-0.7793252141483591,2657.142857142857,-1.0,81.59362549800797,3.3073742123040453,
2023-08-09 09:55:34.169000,6.590361445783133,0.6385542168674699,-7.445783132530121,0.7553648068669527,7.219497240956468,-6.957694665849172,2.0,3.3326007326007323,300.0659485601231,-0.16607423809801306,0.2758580502301728,-0.30604277140026753,2530.4029304029305,-1.0,81.59362549800797,3.308189413097029,
2023-08-09 09:55:34.177000,6.590361445783133,0.6385542168674699,-7.445783132530121,0.7529123237277743,7.241569589209074,-6.987124463519313,2.0,3.3326007326007323,300.0659485601231,-0.05920400909037948,0.2453236990851346,-0.3671114736903439,2384.6153846153843,-1.0,81.59362549800797,3.3089908240182413,
2023-08-09 09:55:34.185000,6.590361445783133,0.6385542168674699,-7.457831325301205,0.7136725935009196,7.224402207234825,-6.928264868179031,2.0,3.3326007326007323,300.0659485601231,-0.043936833517860395,0.2453236990851346,-0.24497406911019123,2226.3736263736264,-1.0,81.59362549800797,3.3097783853481113,
2023-08-09 09:55:34.192000,6.578313253012048,0.6506024096385542,-7.433734939759036,0.7480073574494175,7.273451870018393,-7.031269160024524,2.0,3.3311355311355313,300.197932702881,-0.07447118466289857,-0.1210885146553234,-0.07703513781248131,2065.201465201465,-1.0,81.59362549800797,3.3105520482555137,
2023-08-09 09:55:34.200000,6.590361445783133,0.6506024096385542,-7.457831325301205,0.8068669527896996,7.187614960147148,-7.009196811771918,2.0,3.3311355311355313,300.197932702881,-0.07447118466289857,-0.044752636792727986,-0.1686381912475958,1908.4249084249084,-1.0,81.59362549800797,3.3113117740414952,
2023-08-09 09:55:34.208000,6.602409638554217,0.6385542168674699,-7.46987951807229,0.7725321888412017,7.207234825260576,-6.972409564684242,2.0,3.3311355311355313,300.197932702881,-0.2271429403880894,-0.35009614824310964,-0.06176796223996222,1764.8351648351647,-1.0,81.59362549800797,3.3120575337954605,
2023-08-09 09:55:34.215000,6.602409638554217,0.6506024096385542,-7.457831325301205,0.762722256284488,7.293071735131821,-6.928264868179031,2.0,3.3296703296703294,300.33003300330034,-0.2118757648155703,-0.19742439251791882,-6.992599498858867E-4,1633.6996336996335,-1.0,81.59362549800797,3.312789308110736,
2023-08-09 09:55:34.223000,6.602409638554217,0.6265060240963856,-7.481927710843374,0.7234825260576333,7.26364193746168,-6.93071735131821,2.0,3.3296703296703294,300.33003300330034,0.1392692733523686,0.07738476778742467,-0.24497406911019123,1520.8791208791208,-1.0,81.59362549800797,3.3135070863676335,
2023-08-09 09:55:34.231000,6.566265060240964,0.6385542168674699,-7.481927710843374,0.7725321888412017,7.302881667688534,-6.969957081545064,2.0,3.328205128205128,300.46224961479203,-0.15080706252549397,0.4132626303828445,-0.031233611094924053,1427.8388278388277,-1.0,81.59362549800797,3.314210866851721,
2023-08-09 09:55:34.238000,6.590361445783133,0.6385542168674699,-7.481927710843374,0.8289393010423053,7.251379521765787,-6.886572654812998,2.0,3.3296703296703294,300.33003300330034,0.16980362449740677,0.21478934794009644,-0.06176796223996222,1353.113553113553,-1.0,81.59362549800797,3.3149006568641814,
2023-08-09 09:55:34.246000,6.590361445783133,0.6506024096385542,-7.445783132530121,0.7578172900061312,7.234212139791539,-6.93071735131821,2.0,3.3296703296703294,300.33003300330034,0.215605151214964,0.1689878212225392,-0.06176796223996222,1295.2380952380952,-1.0,81.59362549800797,3.3155764722995236,
2023-08-09 09:55:34.254000,6.602409638554217,0.6265060240963856,-7.445783132530121,0.7823421213979154,7.290619251992642,-6.987124463519313,2.0,3.3296703296703294,300.33003300330034,0.12400209777984952,0.29112522580269184,-0.01596643552240497,1249.8168498168498,-1.0,81.59362549800797,3.316238336969367,
2023-08-09 09:55:34.261000,6.602409638554217,0.6265060240963856,-7.433734939759036,0.8264868179031268,7.229307173513182,-7.004291845493562,2.0,3.3296703296703294,300.33003300330034,-0.013402482372822228,-0.07528698793776616,0.1061709690577477,1213.1868131868132,-1.0,81.59362549800797,3.316886281920157,
2023-08-09 09:55:34.269000,6.602409638554217,0.6385542168674699,-7.46987951807229,0.7651747394236664,7.236664622930717,-6.91354996934396,2.0,3.3296703296703294,300.33003300330034,0.06293339548977318,-0.029485461220208904,-0.10756948895751947,1180.952380952381,-1.0,81.59362549800797,3.317520345659678,
2023-08-09 09:55:34.277000,6.602409638554217,0.6144578313253012,-7.457831325301205,0.7161250766400981,7.229307173513182,-6.972409564684242,2.0,3.328205128205128,300.46224961479203,-0.2118757648155703,0.23005652351261552,0.3046442515004958,1152.3809523809523,-1.0,81.59362549800797,3.318140573852775,
2023-08-09 09:55:34.284000,6.578313253012048,0.6144578313253012,-7.433734939759036,0.7946045370938074,7.258736971183323,-6.967504598405886,2.0,3.328205128205128,300.46224961479203,0.16980362449740677,-0.029485461220208904,0.02983509119515228,1126.7399267399267,-1.0,81.59362549800797,3.3187470185568553,
2023-08-09 09:55:34.292000,6.602409638554217,0.6265060240963856,-7.445783132530121,0.7406499080318822,7.266094420600858,-6.967504598405886,2.0,3.326739926739926,300.59458269103726,-0.028669657945341313,-0.24322591923547607,0.12143814463026678,1104.7619047619046,-1.0,81.59362549800797,3.319339738299661,
2023-08-09 09:55:34.300000,6.602409638554217,0.6024096385542169,-7.433734939759036,0.7553648068669527,7.219497240956468,-6.918454935622317,2.0,3.326739926739926,300.59458269103726,-0.3034788182506848,-0.19742439251791882,-0.04650078666744314,1083.5164835164835,-1.0,81.59362549800797,3.31991879724022,
2023-08-09 09:55:34.307000,6.626506024096386,0.6024096385542169,-7.457831325301205,0.6989576946658491,7.236664622930717,-6.979767014101777,2.0,3.325274725274725,300.72703238598814,-0.15080706252549397,-0.18215721694539974,-0.09230231338500039,1065.2014652014652,-1.0,81.59362549800797,3.3204842643616193,
2023-08-09 09:55:34.315000,6.578313253012048,0.5903614457831325,-7.46987951807229,0.7529123237277743,7.202329858982219,-7.00674432863274,2.0,3.325274725274725,300.72703238598814,-0.2424101159606085,-0.3806304993881478,-0.18390536682011488,1049.084249084249,-1.0,81.59362549800797,3.3210362131864715,
2023-08-09 09:55:34.323000,6.578313253012048,0.6144578313253012,-7.457831325301205,0.7381974248927038,7.190067443286327,-6.996934396076027,2.0,3.325274725274725,300.72703238598814,-0.19754093584289967,-0.013285939047841392,0.09999417283375121,1037.3626373626373,-1.0,81.59362549800797,3.3215747214538536,
2023-08-09 09:55:34.330000,6.566265060240964,0.6144578313253012,-7.457831325301205,0.733292458614347,7.214592274678111,-6.994481912936848,2.0,3.323809523809524,300.8595988538682,-0.08903910028553089,0.3683934502651357,-0.2545306217586389,1030.7692307692307,-1.0,81.59362549800797,3.3220998717786485,
2023-08-09 09:55:34.338000,6.542168674698796,0.6024096385542169,-7.457831325301205,0.7259350091968118,7.241569589209074,-6.989576946658492,2.0,3.323809523809524,300.8595988538682,0.01736495542217761,0.21001107161587346,-0.14835965270089163,1032.2344322344322,-1.0,81.59362549800797,3.322611751293788,
2023-08-09 09:55:34.346000,6.578313253012048,0.6024096385542169,-7.481927710843374,0.6989576946658491,7.288166768853464,-6.952789699570815,2.0,3.3223443223443225,300.9922822491731,0.01794767204708353,0.18949944641920805,-0.1504574325505506,1041.0256410256409,-1.0,81.59362549800797,3.3231104503106526,
2023-08-09 09:55:34.353000,6.55421686746988,0.6024096385542169,-7.493975903614459,0.7014101778050276,7.283261802575107,-6.967504598405886,2.0,3.3223443223443225,300.9922822491731,-0.22725948371307023,0.5239787891148526,-0.3084901812248703,1057.8754578754579,-1.0,81.59362549800797,3.3235960620682516,
2023-08-09 09:55:34.361000,6.55421686746988,0.5903614457831325,-7.46987951807229,0.7112201103617413,7.209687308399754,-7.019006744328633,2.0,3.3223443223443225,300.9922822491731,-0.10418973253306914,-0.044752636792727986,0.03787658061884518,1083.5164835164835,-1.0,81.59362549800797,3.3240686828358723,
2023-08-09 09:55:34.369000,6.566265060240964,0.5903614457831325,-7.445783132530121,0.7357449417535254,7.266094420600858,-6.965052115266707,2.0,3.3208791208791206,301.1250827266711,-0.10314084260823987,0.6444845871452719,-0.11922382145562611,1120.14652014652,-1.0,81.59362549800797,3.3245284116304834,
2023-08-09 09:55:34.376000,6.55421686746988,0.5903614457831325,-7.433734939759036,0.7823421213979154,7.177805027590435,-6.928264868179031,2.0,3.3208791208791206,301.1250827266711,-0.08659169046092811,0.5096439601421819,-0.5960025639531493,1161.1721611721612,-1.0,81.59362549800797,3.3249753499379233,
2023-08-09 09:55:34.384000,6.542168674698796,0.6144578313253012,-7.457831325301205,0.7283874923359902,7.217044757817289,-6.923359901900674,2.0,3.3179487179487177,301.39103554868626,0.18961598974418717,0.43866907522871545,-1.0060019812365248,1206.5934065934066,-1.0,81.59362549800797,3.325409600876574,
2023-08-09 09:55:34.392000,6.566265060240964,0.6265060240963856,-7.421686746987953,0.7431023911710607,7.300429184549356,-6.94543225015328,2.0,3.3179487179487177,301.39103554868626,-0.04067362041839003,0.4888992482955532,-0.44985723442689834,1254.9450549450548,-1.0,81.59362549800797,3.325831268925884,
2023-08-09 09:55:34.399000,6.602409638554217,0.6506024096385542,-7.445783132530121,0.7798896382587369,7.192519926425505,-6.984671980380135,2.0,3.3179487179487177,301.39103554868626,0.007225686148825746,-0.08391119398636541,-0.2772565701299458,1300.3663003663003,-1.0,81.59362549800797,3.32624045990731,
2023-08-09 09:55:34.407000,6.614457831325302,0.6626506024096386,-7.457831325301205,0.7406499080318822,7.290619251992642,-6.891477621091354,2.0,3.3179487179487177,301.39103554868626,-0.06759512848901532,0.0055940795990905645,-0.562554629683585,1340.6593406593406,-1.0,81.59362549800797,3.32663728068672,
2023-08-09 09:55:34.415000,6.590361445783133,0.6506024096385542,-7.457831325301205,0.7872470876762722,7.241569589209074,-6.952789699570815,2.0,3.316483516483516,301.5241882041087,0.00827457607365501,0.019579278596816976,-0.20511625196666877,1373.6263736263736,-1.0,81.59362549800797,3.327021838952329,
2023-08-09 09:55:34.422000,6.578313253012048,0.6626506024096386,-7.433734939759036,0.7504598405885959,7.31023911710607,-6.935622317596566,2.0,3.316483516483516,301.5241882041087,0.11537789173125026,0.28937707592797757,0.04335411689295491,1396.3369963369962,-1.0,81.59362549800797,3.3273942420489258,
2023-08-09 09:55:34.430000,6.590361445783133,0.6385542168674699,-7.433734939759036,0.7504598405885959,7.229307173513182,-6.93071735131821,2.0,3.316483516483516,301.5241882041087,0.48179010547170825,0.4348231455043409,-0.060952158965095066,1409.5238095238094,-1.0,81.59362549800797,3.327754596765614,
2023-08-09 09:55:34.438000,6.590361445783133,0.6385542168674699,-7.445783132530121,0.7406499080318822,7.290619251992642,-6.935622317596566,2.0,3.316483516483516,301.5241882041087,0.15616805547462287,-0.04463609346774715,0.3112872210244156,1415.3846153846152,-1.0,81.59362549800797,3.328103010077967,
2023-08-09 09:55:34.445000,6.614457831325302,0.6265060240963856,-7.397590361445784,0.7700797057020232,7.317596566523605,-6.94543225015328,2.0,3.315018315018315,301.65745856353595,0.09300157333488801,-0.0363615173940904,0.46524095332439824,1416.8498168498168,-1.0,81.59362549800797,3.328439589407343,
2023-08-09 09:55:34.453000,6.590361445783133,0.6144578313253012,-7.397590361445784,0.7480073574494175,7.283261802575107,-6.916002452483139,2.0,3.315018315018315,301.65745856353595,-0.16805547462269074,-0.9150981877512966,0.5256103956645882,1410.989010989011,-1.0,81.59362549800797,3.328764441873092,
2023-08-09 09:55:34.461000,6.590361445783133,0.6265060240963856,-7.433734939759036,0.7406499080318822,7.226854690374004,-6.962599632127529,2.0,3.3135531135531133,301.7908467831086,-0.12400209777984952,-1.192937474506147,0.5687314259075811,1396.3369963369962,-1.0,81.59362549800797,3.3290776735557333,
2023-08-09 09:55:34.468000,6.602409638554217,0.6265060240963856,-7.445783132530121,0.7210300429184548,7.24647455548743,-6.923359901900674,2.0,3.3135531135531133,301.7908467831086,-0.03298176096964094,-1.4581900821630447,0.3214264902977683,1375.8241758241757,-1.0,81.59362549800797,3.329379389296417,
2023-08-09 09:55:34.476000,6.614457831325302,0.6144578313253012,-7.433734939759036,0.7651747394236664,7.300429184549356,-6.999386879215205,2.0,3.3120879120879123,301.92435301924354,-0.04848202319212169,-1.4165841151448044,0.194394266068411,1350.9157509157508,-1.0,81.59362549800797,3.3296696924709455,
2023-08-09 09:55:34.484000,6.578313253012048,0.6024096385542169,-7.46987951807229,0.7896995708154506,7.199877375843041,-7.072961373390558,2.0,3.3120879120879123,301.92435301924354,0.2724782938057216,-1.3622749257036304,0.0849600839111938,1321.6117216117216,-1.0,81.59362549800797,3.3299486848083633,
2023-08-09 09:55:34.491000,6.578313253012048,0.5903614457831325,-7.46987951807229,0.7136725935009196,7.275904353157571,-7.031269160024524,2.0,3.3120879120879123,301.92435301924354,-0.004195559699318791,-1.2945632538896343,0.12540061767962216,1292.3076923076922,-1.0,81.59362549800797,3.3302164661849902,
2023-08-09 09:55:34.499000,6.55421686746988,0.6144578313253012,-7.493975903614459,0.6817903126916002,7.224402207234825,-7.023911710606989,2.0,3.3106227106227104,302.0579774286347,0.2421770293106468,-1.1494668142882116,-0.33750946914515456,1263.003663003663,-1.0,81.59362549800797,3.330473134956528,
2023-08-09 09:55:34.506000,6.566265060240964,0.6144578313253012,-7.506024096385542,0.7136725935009196,7.219497240956468,-6.979767014101777,2.0,3.3106227106227104,302.0579774286347,-0.26094050463259794,-0.7774605209486631,-0.5817842783054599,1235.164835164835,-1.0,81.59362549800797,3.330718787353213,
2023-08-09 09:55:34.514000,6.566265060240964,0.6265060240963856,-7.46987951807229,0.7136725935009196,7.26364193746168,-7.045984058859595,2.0,3.309157509157509,302.1917201682533,-0.18308956354524816,-0.34858108501835533,-0.736320727230348,1208.7912087912086,-1.0,81.59362549800797,3.330953517309713,
2023-08-09 09:55:34.522000,6.566265060240964,0.6265060240963856,-7.481927710843374,0.6719803801348866,7.268546903740036,-7.019006744328633,2.0,3.309157509157509,302.1917201682533,-0.08577588718606226,-0.4730493560981299,-0.6571878095682069,1184.6153846153845,-1.0,81.59362549800797,3.33117741634167,
2023-08-09 09:55:34.529000,6.578313253012048,0.6385542168674699,-7.46987951807229,0.7234825260576333,7.258736971183323,-6.996934396076027,2.0,3.3106227106227104,302.0579774286347,-0.08076452421187588,0.013985198997728147,-0.9297826466989102,1164.102564102564,-1.0,81.59362549800797,3.3313905733996494,
2023-08-09 09:55:34.537000,6.590361445783133,0.6385542168674699,-7.481927710843374,0.7112201103617413,7.295524218270999,-6.947884733292458,2.0,3.306227106227106,302.4595612674496,0.19555969931822195,0.23658294971155625,-0.5611561097838119,1142.857142857143,-1.0,81.59362549800797,3.3315930752976515,
2023-08-09 09:55:34.545000,6.590361445783133,0.6626506024096386,-7.445783132530121,0.7798896382587369,7.239117106069895,-7.045984058859595,2.0,3.304761904761905,302.5936599423631,-0.18763475321950945,0.24555678573509626,-0.740516286929666,1124.5421245421244,-1.0,81.59362549800797,3.3317850062412875,
2023-08-09 09:55:34.552000,6.590361445783133,0.674698795180723,-7.433734939759036,0.7602697731453096,7.248927038626609,-7.014101778050276,2.0,3.304761904761905,302.5936599423631,-0.1389196433774261,0.4077850941087348,-0.3399568789697569,1108.4249084249084,-1.0,81.59362549800797,3.3319664465287957,
2023-08-09 09:55:34.560000,6.602409638554217,0.674698795180723,-7.46987951807229,0.762722256284488,7.285714285714286,-6.974862047823421,2.0,3.304761904761905,302.5936599423631,0.48854961832061067,0.3404230522696811,-0.3996270613600606,1093.7728937728937,-1.0,81.59362549800797,3.3321374729113598,
2023-08-09 09:55:34.568000,6.590361445783133,0.6626506024096386,-7.421686746987953,0.851011649294911,7.24647455548743,-6.923359901900674,2.0,3.304761904761905,302.5936599423631,0.15092360585047482,0.22900763358778625,-0.0017481498747160184,1081.3186813186812,-1.0,81.59362549800797,3.3322981595251266,
2023-08-09 09:55:34.575000,6.602409638554217,0.674698795180723,-7.421686746987953,0.8240343347639485,7.241569589209074,-6.99202942979767,2.0,3.304761904761905,302.5936599423631,0.19357846279354426,-5.82716624905918E-4,0.11817493153079642,1068.131868131868,-1.0,81.59362549800797,3.332448577887488,
2023-08-09 09:55:34.583000,6.614457831325302,0.6506024096385542,-7.397590361445784,0.7504598405885959,7.251379521765787,-6.969957081545064,2.0,3.3032967032967027,302.727877578177,0.23576714643668864,-0.32037760037293905,0.15092360585047482,1056.4102564102564,-1.0,81.59362549800797,3.3325887969083916,
2023-08-09 09:55:34.591000,6.578313253012048,0.6385542168674699,-7.445783132530121,0.7798896382587369,7.268546903740036,-6.967504598405886,2.0,3.301831501831502,302.8622143332594,0.049763999766912634,-0.880601363556903,0.5194335994405918,1049.084249084249,-1.0,81.59362549800797,3.332718882424328,
2023-08-09 09:55:34.598000,6.590361445783133,0.6506024096385542,-7.421686746987953,0.6719803801348866,7.212139791538933,-6.967504598405886,2.0,3.301831501831502,302.8622143332594,0.0027970397995452823,-1.0078666744362212,0.6838762309888701,1046.1538461538462,-1.0,81.59362549800797,3.332838896675688,
2023-08-09 09:55:34.606000,6.566265060240964,0.6265060240963856,-7.445783132530121,0.7578172900061312,7.288166768853464,-6.972409564684242,2.0,3.3003663003663,302.9966703662597,0.20208612551716096,-1.2534234601713174,0.5580094400093237,1048.3516483516482,-1.0,81.59362549800797,3.3329488987447964,
2023-08-09 09:55:34.614000,6.578313253012048,0.6024096385542169,-7.433734939759036,0.733292458614347,7.207234825260576,-6.94543225015328,2.0,3.3003663003663,302.9966703662597,-0.025989161470776866,-1.3291766214090086,0.5863294679797216,1052.7472527472528,-1.0,81.59362549800797,3.3330489445831537,
2023-08-09 09:55:34.621000,6.566265060240964,0.6144578313253012,-7.421686746987953,0.7357449417535254,7.241569589209074,-6.99202942979767,2.0,3.3003663003663,302.9966703662597,-0.02447409824602252,-1.3246314317347474,0.5813181050055357,1056.4102564102564,-1.0,81.59362549800797,3.333139086558119,
2023-08-09 09:55:34.629000,6.578313253012048,0.6024096385542169,-7.46987951807229,0.6376456161863887,7.322501532801962,-6.967504598405886,2.0,3.298901098901099,303.13124583610926,0.17329992424683882,-1.9153895460637496,0.6540411397937183,1060.8058608058607,-1.0,81.59362549800797,3.33321937452187,
2023-08-09 09:55:34.637000,6.566265060240964,0.5903614457831325,-7.445783132530121,0.7161250766400981,7.197424892703863,-7.026364193746168,2.0,3.298901098901099,303.13124583610926,0.035429170794241974,-1.6124934444379706,0.29800128197657466,1066.6666666666665,-1.0,81.59362549800797,3.333289855382179,
2023-08-09 09:55:34.644000,6.578313253012048,0.5783132530120483,-7.46987951807229,0.6817903126916002,7.288166768853464,-7.026364193746168,2.0,3.2974358974358973,303.2659409020218,0.20173649554221845,-1.507487908630034,0.1251675310296605,1074.7252747252746,-1.0,81.59362549800797,3.333350572719869,
2023-08-09 09:55:34.652000,6.590361445783133,0.5903614457831325,-7.481927710843374,0.7283874923359902,7.320049049662783,-6.996934396076027,2.0,3.2959706959706963,303.4007557234941,0.07843365771225394,-1.0815220558242522,0.07773439776236805,1084.2490842490843,-1.0,81.59362549800797,3.333401567823957,
2023-08-09 09:55:34.660000,6.55421686746988,0.6144578313253012,-7.481927710843374,0.7112201103617413,7.244022072348252,-6.979767014101777,2.0,3.2959706959706963,303.4007557234941,0.21630441116485077,-0.8442398461628109,0.0027970397995452823,1097.4358974358975,-1.0,81.59362549800797,3.333442878735248,
2023-08-09 09:55:34.667000,6.566265060240964,0.5783132530120483,-7.445783132530121,0.6817903126916002,7.214592274678111,-6.987124463519313,2.0,3.2959706959706963,303.4007557234941,0.09346774663481136,-0.6809626478643448,-0.19719130586795627,1116.4835164835165,-1.0,81.59362549800797,3.3334745403529418,
2023-08-09 09:55:34.675000,6.590361445783133,0.5903614457831325,-7.457831325301205,0.7259350091968118,7.266094420600858,-7.011649294911097,2.0,3.294505494505494,303.5356904603069,0.2611735912825596,-0.749956296253132,-0.455684400675951,1136.9963369963368,-1.0,81.59362549800797,3.333496585992211,
2023-08-09 09:55:34.683000,6.566265060240964,0.6024096385542169,-7.46987951807229,0.6670754138565297,7.234212139791539,-7.033721643163703,2.0,3.294505494505494,303.5356904603069,0.2429928325855144,-0.9843249227900471,-0.4366878387040382,1156.0439560439559,-1.0,81.59362549800797,3.33350904652808,
2023-08-09 09:55:34.690000,6.566265060240964,0.6144578313253012,-7.433734939759036,0.745554874310239,7.204782342121398,-7.011649294911097,2.0,3.2915750915750914,303.80592032049856,-0.07948254763708494,-0.6376085309713904,-0.23565060311170694,1172.8937728937728,-1.0,81.59362549800797,3.333511950076184,
2023-08-09 09:55:34.698000,6.55421686746988,0.6385542168674699,-7.457831325301205,0.7504598405885959,7.305334150827712,-6.974862047823421,2.0,3.2915750915750914,303.80592032049856,-0.23285356331216078,-0.8838645766563716,-0.6169803624497406,1189.7435897435896,-1.0,81.59362549800797,3.333505322595804,
2023-08-09 09:55:34.706000,6.566265060240964,0.6626506024096386,-7.457831325301205,0.762722256284488,7.248927038626609,-6.99202942979767,2.0,3.2915750915750914,303.80592032049856,0.0749373579628219,-1.0689353767262992,-0.16828856127265285,1204.3956043956043,-1.0,81.59362549800797,3.3334891878695325,
2023-08-09 09:55:34.713000,6.602409638554217,0.6626506024096386,-7.493975903614459,0.703862660944206,7.234212139791539,-6.962599632127529,2.0,3.29010989010989,303.94121576486305,0.2897267059029201,-1.1120564069692904,-0.38004778276324236,1215.3846153846152,-1.0,81.59362549800797,3.333463568121795,
2023-08-09 09:55:34.721000,6.566265060240964,0.6385542168674699,-7.46987951807229,0.7357449417535254,7.24647455548743,-7.009196811771918,2.0,3.29010989010989,303.94121576486305,0.1503408892255689,-1.4628518151622867,-0.34578404521881,1221.9780219780218,-1.0,81.59362549800797,3.333428483730531,
2023-08-09 09:55:34.729000,6.578313253012048,0.6385542168674699,-7.481927710843374,0.7259350091968118,7.261189454322501,-6.994481912936848,2.0,3.2886446886446885,304.07663176654046,-0.04918128314200845,-1.0501719014043465,-0.20278538546704727,1221.9780219780218,-1.0,81.59362549800797,3.3333839533679486,
2023-08-09 09:55:34.736000,6.578313253012048,0.6385542168674699,-7.445783132530121,0.7921520539546291,7.192519926425505,-7.038626609442059,2.0,3.2886446886446885,304.07663176654046,0.5154711263912359,-1.0205698968591583,-0.13845347007750144,1219.047619047619,-1.0,81.59362549800797,3.3333299941814136,
2023-08-09 09:55:34.744000,6.578313253012048,0.6506024096385542,-7.481927710843374,0.7725321888412017,7.229307173513182,-6.960147148988351,2.0,3.287179487179487,304.2121684867395,-0.20604859856651633,-1.2506264203717739,-0.21234193811549454,1215.3846153846152,-1.0,81.59362549800797,3.3332666219443707,
2023-08-09 09:55:34.752000,6.578313253012048,0.6385542168674699,-7.481927710843374,0.6891477621091354,7.234212139791539,-6.938074800735745,2.0,3.287179487179487,304.2121684867395,-0.02109434182157132,-0.5338849717382428,-0.300448691801177,1208.7912087912086,-1.0,81.59362549800797,3.3331938517040416,
2023-08-09 09:55:34.759000,6.578313253012048,0.6626506024096386,-7.481927710843374,0.7651747394236664,7.300429184549356,-7.023911710606989,2.0,3.287179487179487,304.2121684867395,0.0867082337859107,-0.4337742555795134,0.23833109958627138,1203.6630036630036,-1.0,81.59362549800797,3.3331116974149744,
2023-08-09 09:55:34.767000,6.590361445783133,0.6506024096385542,-7.46987951807229,0.8264868179031268,7.229307173513182,-7.043531575720417,2.0,3.2857142857142856,304.34782608695656,-0.06689586853912857,-0.19439426606841012,0.09999417283375121,1197.8021978021977,-1.0,81.59362549800797,3.3330201722069397,
2023-08-09 09:55:34.775000,6.602409638554217,0.6385542168674699,-7.506024096385542,0.7798896382587369,7.285714285714286,-6.967504598405886,2.0,3.2842490842490837,304.48360472897616,0.04160596701823846,0.08414428063632708,0.08437736728628875,1191.2087912087911,-1.0,81.59362549800797,3.3329192890783417,
2023-08-09 09:55:34.782000,6.590361445783133,0.6265060240963856,-7.457831325301205,0.7283874923359902,7.229307173513182,-6.965052115266707,2.0,3.2842490842490837,304.48360472897616,0.13367519375327805,0.09743021968416674,0.22213157741390388,1185.3479853479853,-1.0,81.59362549800797,3.332809060504305,
2023-08-09 09:55:34.790000,6.590361445783133,0.6506024096385542,-7.493975903614459,0.7308399754751685,7.217044757817289,-6.938074800735745,2.0,3.2827838827838827,304.6195045748717,0.22690985373812772,-0.19474389604335438,0.19241302954373288,1183.150183150183,-1.0,81.59362549800797,3.3326894985730635,
2023-08-09 09:55:34.798000,6.55421686746988,0.6385542168674699,-7.457831325301205,0.762722256284488,7.244022072348252,-7.001839362354383,2.0,3.281318681318681,304.75552578700604,-0.1119981353068008,0.2152555212400198,0.2829671930540177,1182.4175824175823,-1.0,81.59362549800797,3.3325606151918525,
2023-08-09 09:55:34.805000,6.566265060240964,0.6265060240963856,-7.421686746987953,0.7210300429184548,7.207234825260576,-6.979767014101777,2.0,3.281318681318681,304.75552578700604,0.08600897383602393,-0.09544898315949078,0.14381446302663034,1182.4175824175823,-1.0,81.59362549800797,3.332422421764693,
2023-08-09 09:55:34.813000,6.578313253012048,0.6385542168674699,-7.421686746987953,0.733292458614347,7.251379521765787,-6.965052115266707,2.0,3.2798534798534797,304.8916685280322,0.2396130761610632,-0.6747858516403483,0.6017131868772215,1181.6849816849815,-1.0,81.59362549800797,3.3322749302748176,
2023-08-09 09:55:34.821000,6.578313253012048,0.6024096385542169,-7.445783132530121,0.6940527283874923,7.258736971183323,-7.009196811771918,2.0,3.2798534798534797,304.8916685280322,0.37620185303886733,-0.8505331857117899,0.12330283782996321,1181.6849816849815,-1.0,81.59362549800797,3.332118153416808,
2023-08-09 09:55:34.828000,6.578313253012048,0.6144578313253012,-7.457831325301205,0.7283874923359902,7.207234825260576,-6.950337216431636,2.0,3.2783882783882783,305.02793296089385,0.5258434823145512,-1.1936367344560321,0.24637258900996473,1186.8131868131868,-1.0,81.59362549800797,3.331952104728212,
2023-08-09 09:55:34.836000,6.590361445783133,0.6265060240963856,-7.445783132530121,0.7210300429184548,7.275904353157571,-6.99202942979767,2.0,3.2783882783882783,305.02793296089385,0.5540469669599675,-1.2112347765281748,0.3674611036652877,1195.6043956043954,-1.0,81.59362549800797,3.3317767987198215,
2023-08-09 09:55:34.844000,6.602409638554217,0.6265060240963856,-7.46987951807229,0.7553648068669527,7.192519926425505,-6.967504598405886,2.0,3.2754578754578754,305.30082755535676,0.36314900064098765,-1.1197482664180394,0.41104830720820473,1210.2564102564102,-1.0,81.59362549800797,3.3315922505459685,
2023-08-09 09:55:34.851000,6.566265060240964,0.6265060240963856,-7.46987951807229,0.7798896382587369,7.226854690374004,-7.038626609442059,2.0,3.2754578754578754,305.30082755535676,0.39123594196142475,-0.9096206514771851,0.05850474914049316,1236.6300366300366,-1.0,81.59362549800797,3.331398476620207,
2023-08-09 09:55:34.859000,6.566265060240964,0.6385542168674699,-7.493975903614459,0.7700797057020232,7.248927038626609,-6.999386879215205,2.0,3.2754578754578754,305.30082755535676,0.6166307324747982,-0.44158265835324334,0.5176854495658761,1281.3186813186812,-1.0,81.59362549800797,3.331195494103054,
2023-08-09 09:55:34.867000,6.578313253012048,0.6265060240963856,-7.457831325301205,0.7504598405885959,7.217044757817289,-6.982219497240956,2.0,3.2739926739926735,305.43745804430523,0.45836489715051504,-0.5370316415127324,0.06130178894003844,1352.3809523809523,-1.0,81.59362549800797,3.3309833211187194,
2023-08-09 09:55:34.874000,6.566265060240964,0.6265060240963856,-7.433734939759036,0.7112201103617413,7.244022072348252,-6.982219497240956,2.0,3.272527472527473,305.5742108797851,0.6527591632189269,-0.4660567565992658,-0.0860089738360235,1452.7472527472526,-1.0,81.59362549800797,3.3307619769644448,
2023-08-09 09:55:34.882000,6.566265060240964,0.6024096385542169,-7.457831325301205,0.6793378295524218,7.145922746781116,-6.940527283874923,2.0,3.272527472527473,305.5742108797851,0.03892547054367401,-0.6855078375386061,0.027737311345492885,1586.080586080586,-1.0,81.59362549800797,3.3305314817503344,
2023-08-09 09:55:34.889000,6.578313253012048,0.6144578313253012,-7.481927710843374,0.7823421213979154,7.194972409564683,-6.984671980380135,2.0,3.271062271062271,305.7110862262038,-0.023192121671231584,-0.8928384126799117,-0.18005943709574035,1748.7179487179485,-1.0,81.59362549800797,3.3302918574375306,
2023-08-09 09:55:34.897000,6.566265060240964,0.6144578313253012,-7.46987951807229,0.7504598405885959,7.251379521765787,-6.994481912936848,2.0,3.271062271062271,305.7110862262038,-0.025522988170851784,-0.8830487733815041,-0.17388264087174385,1931.135531135531,-1.0,81.59362549800797,3.3300431279202583,
2023-08-09 09:55:34.905000,6.55421686746988,0.6144578313253012,-7.457831325301205,0.733292458614347,7.224402207234825,-6.957694665849172,2.0,3.26959706959707,305.8480842482635,0.14008507662723618,-0.5064972903676942,-0.13961890332731197,2125.274725274725,-1.0,81.59362549800797,3.329785318644048,
2023-08-09 09:55:34.912000,6.590361445783133,0.6144578313253012,-7.46987951807229,0.7014101778050276,7.204782342121398,-7.004291845493562,2.0,3.268131868131868,305.98520511096166,-0.04603461336751892,-0.7406328302546477,0.17026979779733098,2317.948717948718,750.67138671875,79.92844946743638,3.3295184572006926,
2023-08-09 09:55:34.920000,6.55421686746988,0.6265060240963856,-7.457831325301205,0.7651747394236664,7.236664622930717,-6.942979767014101,2.0,3.268131868131868,305.98520511096166,-0.1364722335528233,-0.9128838645766572,-0.07283957811316338,2495.238095238095,-1.0,79.92844946743638,3.3292425728620807,
2023-08-09 09:55:34.928000,6.530120481927711,0.6144578313253012,-7.46987951807229,0.7381974248927038,7.24647455548743,-6.99202942979767,2.0,3.268131868131868,305.98520511096166,-0.04626770001748233,-0.7757123710739471,0.08158032748674304,2643.9560439560437,-1.0,79.92844946743638,3.3289576970902757,
2023-08-09 09:55:34.935000,6.55421686746988,0.6265060240963856,-7.46987951807229,0.7259350091968118,7.199877375843041,-7.009196811771918,2.0,3.2666666666666666,306.12244897959187,0.12155468795524675,-0.5606899364838873,-0.14801002272594826,2752.3809523809523,-1.0,79.92844946743638,3.3286638640754034,
2023-08-09 09:55:34.943000,6.542168674698796,0.6385542168674699,-7.481927710843374,0.7136725935009196,7.253832004904966,-6.99202942979767,2.0,3.2666666666666666,306.12244897959187,0.2588427247829377,-0.7264145446069579,0.3857584056873142,2805.128205128205,-1.0,79.92844946743638,3.328361110353337,
2023-08-09 09:55:34.951000,6.55421686746988,0.6265060240963856,-7.46987951807229,0.7406499080318822,7.239117106069895,-6.984671980380135,2.0,3.265201465201465,306.2598160197442,0.0896218169104368,-1.0712662432259212,0.3368102091952683,2805.128205128205,-1.0,79.92844946743638,3.3280494752627514,
2023-08-09 09:55:34.958000,6.55421686746988,0.6144578313253012,-7.46987951807229,0.745554874310239,7.236664622930717,-7.033721643163703,2.0,3.2637362637362632,306.3973063973064,0.04160596701823846,-1.0464425150049528,0.19602587261814575,2794.8717948717945,-1.0,79.92844946743638,3.327729000481842,
2023-08-09 09:55:34.966000,6.566265060240964,0.6385542168674699,-7.518072289156627,0.7774371551195585,7.207234825260576,-6.987124463519313,2.0,3.2637362637362632,306.3973063973064,0.04090670706835344,-1.4636676184371542,0.5277081755142472,2729.6703296703295,-1.0,79.92844946743638,3.327399729099986,
2023-08-09 09:55:34.974000,6.590361445783133,0.6265060240963856,-7.481927710843374,0.733292458614347,7.226854690374004,-6.999386879215205,2.0,3.2622710622710622,306.53492027846397,0.17679622399627085,-0.8709282675834727,0.38564186236233333,2627.8388278388275,-1.0,79.92844946743638,3.3270617065784305,
2023-08-09 09:55:34.981000,6.566265060240964,0.6385542168674699,-7.46987951807229,0.7210300429184548,7.290619251992642,-6.999386879215205,2.0,3.2608058608058603,306.6726578297012,0.2802866965794532,-0.8167356214672814,0.4908804848202317,2497.4358974358975,-1.0,79.92844946743638,3.326714981211309,
2023-08-09 09:55:34.989000,6.590361445783133,0.6265060240963856,-7.481927710843374,0.7504598405885959,7.224402207234825,-7.026364193746168,2.0,3.2608058608058603,306.6726578297012,0.11141541868189489,-1.1601888001864678,0.22854146028786204,2349.4505494505493,-1.0,79.92844946743638,3.3263596031041316,
2023-08-09 09:55:34.997000,6.590361445783133,0.6024096385542169,-7.493975903614459,0.7480073574494175,7.229307173513182,-7.014101778050276,2.0,3.2578754578754574,306.94850460984935,0.21700367111473753,-0.8448225627877168,0.441815745003205,2187.5457875457873,-1.0,79.92844946743638,3.325995624162811,
2023-08-09 09:55:35.004000,6.566265060240964,0.6385542168674699,-7.46987951807229,0.7112201103617413,7.236664622930717,-6.955242182709993,2.0,3.2578754578754574,306.94850460984935,0.33925761901987106,-0.32130994697278575,0.5619719130586796,2025.6410256410254,-1.0,79.92844946743638,3.325623098565985,
2023-08-09 09:55:35.012000,6.566265060240964,0.6385542168674699,-7.457831325301205,0.7578172900061312,7.192519926425505,-7.011649294911097,2.0,3.256410256410257,307.0866141732283,-0.04556844006759558,-0.261057047957577,0.5605733931589069,1868.131868131868,-1.0,79.92844946743638,3.325242082564105,
2023-08-09 09:55:35.020000,6.590361445783133,0.6144578313253012,-7.445783132530121,0.7700797057020232,7.26364193746168,-6.972409564684242,2.0,3.256410256410257,307.0866141732283,0.136705320202785,-0.2938057222772563,0.25383136180875215,1720.14652014652,-1.0,79.92844946743638,3.324852633987509,
2023-08-09 09:55:35.027000,6.566265060240964,0.6265060240963856,-7.481927710843374,0.7185775597792765,7.212139791538933,-6.935622317596566,2.0,3.2549450549450545,307.2248480756246,0.21339082804032466,-0.6195443155993242,0.16420954489831577,1586.8131868131868,-1.0,79.92844946743638,3.324454812695844,
2023-08-09 09:55:35.035000,6.566265060240964,0.6385542168674699,-7.445783132530121,0.733292458614347,7.256284488044145,-6.99202942979767,2.0,3.2549450549450545,307.2248480756246,0.013635569022783902,-0.45451896742614045,0.4095332439834508,1469.5970695970695,-1.0,79.92844946743638,3.32404868052868,
2023-08-09 09:55:35.043000,6.542168674698796,0.6506024096385542,-7.433734939759036,0.7529123237277743,7.180257510729613,-6.994481912936848,2.0,3.2534798534798535,307.3632064850259,0.3518442981178257,-0.8379465066138335,0.24112813938581668,1369.230769230769,-1.0,79.92844946743638,3.323634301250467,
2023-08-09 09:55:35.050000,6.542168674698796,0.6265060240963856,-7.457831325301205,0.7112201103617413,7.197424892703863,-6.994481912936848,2.0,3.2520146520146525,307.5016895697229,-0.18553697336985095,-0.9139327545014865,0.4554513140259893,1284.2490842490843,-1.0,79.92844946743638,3.3232117404903962,
2023-08-09 09:55:35.058000,6.542168674698796,0.6385542168674699,-7.493975903614459,0.7357449417535254,7.207234825260576,-7.016554261189454,2.0,3.2520146520146525,307.5016895697229,0.1823903035953614,-1.1555270671872273,0.34636676184371507,1213.1868131868132,-1.0,79.92844946743638,3.322781065185043,
2023-08-09 09:55:35.066000,6.566265060240964,0.6385542168674699,-7.506024096385542,0.7578172900061312,7.197424892703863,-7.001839362354383,2.0,3.2520146520146525,307.5016895697229,0.059320552415360314,-1.0309422527824719,0.5126740865916902,1156.7765567765566,-1.0,79.92844946743638,3.3223423443880544,
2023-08-09 09:55:35.073000,6.542168674698796,0.6506024096385542,-7.493975903614459,0.7749846719803801,7.192519926425505,-6.996934396076027,2.0,3.2505494505494505,307.6402974983097,0.25557951168346904,-1.1197482664180394,0.19252957286871414,1111.3553113553112,-1.0,79.92844946743638,3.3218956496554193,
2023-08-09 09:55:35.081000,6.55421686746988,0.6144578313253012,-7.481927710843374,0.7014101778050276,7.253832004904966,-7.009196811771918,2.0,3.2505494505494505,307.6402974983097,0.0533768428413255,-0.902394965328361,0.3481149117184311,1076.1904761904761,-1.0,79.92844946743638,3.3214410540239134,
2023-08-09 09:55:35.089000,6.55421686746988,0.6265060240963856,-7.481927710843374,0.7578172900061312,7.241569589209074,-7.038626609442059,2.0,3.247619047619047,307.91788856304987,0.14369791970164908,-1.0252316298583988,0.2534817318338096,1046.1538461538462,-1.0,79.92844946743638,3.3209786319374186,
2023-08-09 09:55:35.096000,6.55421686746988,0.6385542168674699,-7.518072289156627,0.7700797057020232,7.258736971183323,-6.982219497240956,2.0,3.247619047619047,307.91788856304987,0.049763999766912634,-0.9500611852456152,0.38704038226210596,1020.5128205128204,-1.0,79.92844946743638,3.3205084586785474,
2023-08-09 09:55:35.104000,6.566265060240964,0.6144578313253012,-7.481927710843374,0.7480073574494175,7.229307173513182,-7.050889025137952,2.0,3.247619047619047,307.91788856304987,0.3525435580677124,-0.7092826758347419,0.27341064040557084,998.5347985347985,-1.0,79.92844946743638,3.3200306102194235,
2023-08-09 09:55:35.112000,6.55421686746988,0.6144578313253012,-7.506024096385542,0.7798896382587369,7.194972409564683,-7.038626609442059,2.0,3.2461538461538466,308.0568720379147,0.02738768137054864,-0.2429928325855144,0.265951867606783,980.2197802197802,-1.0,79.92844946743638,3.3195451645468164,
2023-08-09 09:55:35.119000,6.518072289156627,0.6265060240963856,-7.506024096385542,0.7357449417535254,7.158185162477007,-7.001839362354383,2.0,3.2461538461538466,308.0568720379147,0.19357846279354426,-0.20721403181632816,0.19660858924305122,966.3003663003662,-1.0,79.92844946743638,3.319052200632704,
2023-08-09 09:55:35.127000,6.542168674698796,0.6144578313253012,-7.506024096385542,0.7136725935009196,7.190067443286327,-6.955242182709993,2.0,3.2446886446886447,308.19598103409345,-0.1309946972787136,-0.4330749956296249,0.20313501544199067,961.9047619047618,-1.0,79.92844946743638,3.3185517983554367,
2023-08-09 09:55:35.135000,6.530120481927711,0.6144578313253012,-7.481927710843374,0.762722256284488,7.153280196198651,-6.979767014101777,2.0,3.2446886446886447,308.19598103409345,-0.1628110249985427,-0.22749257036303364,0.2371656663364604,964.8351648351647,-1.0,79.92844946743638,3.3180440388795946,
2023-08-09 09:55:35.142000,6.542168674698796,0.6265060240963856,-7.518072289156627,0.7136725935009196,7.226854690374004,-7.058246474555487,2.0,3.2432234432234432,308.3352157217077,0.2022026688421418,-0.5299224986888892,0.10558825243284178,977.2893772893772,-1.0,79.92844946743638,3.317529004054304,
2023-08-09 09:55:35.150000,6.566265060240964,0.6144578313253012,-7.506024096385542,0.7136725935009196,7.177805027590435,-7.063151440833844,2.0,3.2402930402930408,308.614062853267,-0.013868655672745575,-0.03507954081929947,0.2039508187168578,997.069597069597,-1.0,79.92844946743638,3.317006776375558,
2023-08-09 09:55:35.158000,6.542168674698796,0.6144578313253012,-7.518072289156627,0.7553648068669527,7.175352544451257,-7.028816676885346,2.0,3.241758241758242,308.47457627118644,0.012936309072897147,0.6258376551482998,0.04382029019287913,1024.9084249084249,-1.0,79.92844946743638,3.3164774383539934,
2023-08-09 09:55:35.165000,6.518072289156627,0.6024096385542169,-7.481927710843374,0.7014101778050276,7.221949724095646,-7.033721643163703,2.0,3.2402930402930408,308.614062853267,-0.0051279062991672186,0.8703455509585704,0.4335411689295495,1060.8058608058607,-1.0,79.92844946743638,3.315941073256448,
2023-08-09 09:55:35.173000,6.506024096385542,0.6144578313253012,-7.46987951807229,0.7847946045370937,7.192519926425505,-6.984671980380135,2.0,3.2402930402930408,308.614062853267,-0.0071091428238449095,0.8699959209836261,0.4254996795058562,1101.8315018315018,-1.0,79.92844946743638,3.3153977650759,
2023-08-09 09:55:35.181000,6.518072289156627,0.6144578313253012,-7.46987951807229,0.7234825260576333,7.23175965665236,-7.075413856529736,2.0,3.2402930402930408,308.614062853267,-0.2681661907814237,0.5777052619311224,0.2531321018588658,1145.7875457875457,-1.0,79.92844946743638,3.3148475980144005,
2023-08-09 09:55:35.188000,6.530120481927711,0.6144578313253012,-7.46987951807229,0.7259350091968118,7.190067443286327,-6.969957081545064,2.0,3.2388278388278393,308.7536756389957,-0.083678107336402,0.012586679097954637,0.03577880076918579,1191.9413919413919,-1.0,79.92844946743638,3.3142906573782804,
2023-08-09 09:55:35.196000,6.506024096385542,0.5903614457831325,-7.481927710843374,0.7406499080318822,7.1704475781729,-6.999386879215205,2.0,3.237362637362638,308.8934147997284,-0.06841093176388291,-0.090204533535341,0.06526426198939425,1239.5604395604396,-1.0,79.92844946743638,3.3137270285816425,
2023-08-09 09:55:35.204000,6.518072289156627,0.5903614457831325,-7.493975903614459,0.7234825260576333,7.163090128755364,-6.996934396076027,2.0,3.237362637362638,308.8934147997284,-0.11456208845638441,0.2019695821921801,-0.08740749373579658,1289.3772893772893,-1.0,79.92844946743638,3.3131567966126094,
