Shimmer_F5D4_Timestamp_FormattedUnix_CAL,Shimmer_F5D4_Accel_LN_X_CAL,Shimmer_F5D4_Accel_LN_Y_CAL,Shimmer_F5D4_Accel_LN_Z_CAL,Shimmer_F5D4_Accel_WR_X_CAL,Shimmer_F5D4_Accel_WR_Y_CAL,Shimmer_F5D4_Accel_WR_Z_CAL,Shimmer_F5D4_GSR_Range_CAL,Shimmer_F5D4_GSR_Skin_Conductance_CAL,Shimmer_F5D4_GSR_Skin_Resistance_CAL,Shimmer_F5D4_Gyro_X_CAL,Shimmer_F5D4_Gyro_Y_CAL,Shimmer_F5D4_Gyro_Z_CAL,Shimmer_F5D4_PPG_A13_CAL,Shimmer_F5D4_PPG_IBI_CAL,Shimmer_F5D4_PPGtoHR_CAL,Shimmer_F5D4_GSR_Skin_Conductance_LPF_CAL,
yyyy/mm/dd hh:mm:ss.000,m/(s^2),m/(s^2),m/(s^2),m/(s^2),m/(s^2),m/(s^2),no_units,uS,kOhms,deg/s,deg/s,deg/s,mV,ms,BPM,uS,
2023-08-10 17:00:06.084000,7.373493975903615,0.3734939759036145,-6.686746987951808,0.48313917841814835,8.043531575720417,-6.145922746781116,2.0,2.342124542124542,426.96277760400375,0.2530155585338854,-1.5276499038517586,0.10698677233261486,1378.7545787545787,-1.0,73.89611365857326,2.346076995038146,
2023-08-10 17:00:06.092000,7.373493975903615,0.39759036144578314,-6.674698795180723,0.5027590435315757,8.063151440833844,-6.148375229920294,2.0,2.342124542124542,426.96277760400375,0.23868072956121478,-1.5955946623157162,0.3511450381679389,1378.7545787545787,-1.0,73.89611365857326,2.346041413383754,
2023-08-10 17:00:06.100000,7.385542168674699,0.3855421686746988,-6.698795180722892,0.48313917841814835,8.092581238503985,-6.150827713059472,2.0,2.340659340659341,427.2300469483568,0.14591224287628843,-1.0232503933337211,0.5794534118058389,1375.091575091575,-1.0,73.89611365857326,2.3460055531801696,
2023-08-10 17:00:06.107000,7.385542168674699,0.3734939759036145,-6.674698795180723,0.5076640098099325,8.09993868792152,-6.155732679337829,2.0,2.340659340659341,427.2300469483568,0.083678107336402,-0.9018122487034552,0.6363265543965972,1371.4285714285713,-1.0,73.89611365857326,2.345969418505069,
2023-08-10 17:00:06.115000,7.409638554216868,0.3734939759036145,-6.650602409638554,0.5174739423666462,8.08522378908645,-6.145922746781116,2.0,2.342124542124542,426.96277760400375,-0.13239321717848537,-0.8558941786609189,0.6468154536448929,1366.3003663003662,-1.0,73.89611365857326,2.3459330134986884,
2023-08-10 17:00:06.123000,7.373493975903615,0.3734939759036145,-6.698795180722892,0.46106683016554256,8.092581238503985,-6.101778050275904,2.0,2.342124542124542,426.96277760400375,-0.13309247712837213,-0.9935318454635506,0.5655847561330924,1359.7069597069597,-1.0,73.89611365857326,2.3458963423943517,
2023-08-10 17:00:06.130000,7.385542168674699,0.3493975903614458,-6.674698795180723,0.4537093807480073,8.045984058859595,-6.167995095033722,2.0,2.342124542124542,426.96277760400375,-0.20814637841617661,-0.4407668550783757,0.6343453178719192,1355.3113553113553,-1.0,73.89611365857326,2.3458594100754557,
2023-08-10 17:00:06.138000,7.385542168674699,0.3734939759036145,-6.662650602409639,0.45861434702636417,8.055793991416309,-6.10913549969344,2.0,2.340659340659341,427.2300469483568,0.006293339548977319,-0.4423984616281109,0.5632538896334713,1352.3809523809523,-1.0,73.89611365857326,2.3458222216143683,
2023-08-10 17:00:06.146000,7.373493975903615,0.3493975903614458,-6.674698795180723,0.43654199877375843,8.041079092581239,-6.18516247700797,2.0,2.342124542124542,426.96277760400375,-0.14847619602587203,-0.4716508361983564,0.4003263213099465,1350.18315018315,-1.0,73.89611365857326,2.3457847817762914,
2023-08-10 17:00:06.153000,7.36144578313253,0.3614457831325301,-6.662650602409639,0.47087676272225626,8.03862660944206,-6.143470263641937,2.0,2.342124542124542,426.96277760400375,-0.11747567158091053,-0.34659984849367764,0.46535749664937953,1347.2527472527472,-1.0,73.89611365857326,2.345747095436069,
2023-08-10 17:00:06.161000,7.385542168674699,0.3614457831325301,-6.662650602409639,0.5076640098099325,8.05334150827713,-6.12385039852851,2.0,2.342124542124542,426.96277760400375,-0.2534817318338088,-0.0813472408367818,0.37690111298875323,1345.7875457875457,-1.0,73.89611365857326,2.3457091680989333,
2023-08-10 17:00:06.169000,7.397590361445784,0.3614457831325301,-6.63855421686747,0.5076640098099325,8.001839362354383,-6.082158185162477,2.0,2.342124542124542,426.96277760400375,-0.20290192879202854,-0.6270030883981099,0.5158207563661793,1347.985347985348,-1.0,73.89611365857326,2.3456710049803173,
2023-08-10 17:00:06.176000,7.349397590361447,0.3614457831325301,-6.674698795180723,0.522378908645003,8.058246474555487,-6.148375229920294,2.0,2.342124542124542,426.96277760400375,0.12272012120505858,-0.435289318804266,0.24194394266068384,1352.3809523809523,-1.0,73.89611365857326,2.3456326115265846,
2023-08-10 17:00:06.184000,7.349397590361447,0.3614457831325301,-6.674698795180723,0.43899448191293683,8.065603923973022,-6.1361128142244015,2.0,2.340659340659341,427.2300469483568,-0.04486918011770882,-0.8391119398636436,0.07855020103723521,1356.0439560439559,-1.0,73.89611365857326,2.3455939938318577,
2023-08-10 17:00:06.192000,7.373493975903615,0.3734939759036145,-6.662650602409639,0.4537093807480073,8.028816676885347,-6.126302881667688,2.0,2.340659340659341,427.2300469483568,0.10931763883223636,-0.69156809043762,-0.10011071615873206,1357.5091575091574,-1.0,73.89611365857326,2.345555157191337,
2023-08-10 17:00:06.199000,7.349397590361447,0.3614457831325301,-6.662650602409639,0.5052115266707541,8.033721643163704,-6.138565297363581,2.0,2.340659340659341,427.2300469483568,-0.07109142823844736,-0.9881708525144216,-0.07959909096206491,1358.2417582417581,-1.0,73.89611365857326,2.3455161065509778,
2023-08-10 17:00:06.207000,7.373493975903615,0.3493975903614458,-6.686746987951808,0.5469037400367872,8.08277130594727,-6.094420600858369,2.0,2.340659340659341,427.2300469483568,0.26676767088165015,-0.5201328593904764,-0.16525843482314548,1360.4395604395604,-1.0,73.89611365857326,2.3454768473779675,
2023-08-10 17:00:06.215000,7.385542168674699,0.3614457831325301,-6.650602409638554,0.44880441446965047,8.03862660944206,-6.114040465971796,2.0,2.342124542124542,426.96277760400375,0.19206339956878993,-0.6959967367868988,-0.1118815919818191,1363.3699633699632,-1.0,73.89611365857326,2.3454373851598853,
2023-08-10 17:00:06.222000,7.373493975903615,0.3493975903614458,-6.674698795180723,0.4904966278356836,8.050889025137952,-6.148375229920294,2.0,2.342124542124542,426.96277760400375,0.18914981644426382,-0.6871394440883414,-0.12003962473049327,1365.5677655677655,-1.0,73.89611365857326,2.3453977258890104,
2023-08-10 17:00:06.230000,7.373493975903615,0.3493975903614458,-6.674698795180723,0.48313917841814835,8.03862660944206,-6.190067443286327,2.0,2.340659340659341,427.2300469483568,0.2798205232795299,-0.7842200337975638,-0.24847036885962326,1369.230769230769,-1.0,73.89611365857326,2.345357876126005,
2023-08-10 17:00:06.238000,7.385542168674699,0.3734939759036145,-6.674698795180723,0.48559166155732675,8.065603923973022,-6.192519926425505,2.0,2.340659340659341,427.2300469483568,0.3059262280752876,-0.8648680146844588,-0.311636850999359,1371.4285714285713,-1.0,73.89611365857326,2.345317842046378,
2023-08-10 17:00:06.245000,7.385542168674699,0.3614457831325301,-6.63855421686747,0.463519313304721,8.072961373390557,-6.182709993868792,2.0,2.342124542124542,426.96277760400375,0.16723967134782317,-0.8976166890041382,-0.35988578754151856,1372.8937728937728,-1.0,73.89611365857326,2.345277629365906,
2023-08-10 17:00:06.253000,7.385542168674699,0.3614457831325301,-6.674698795180723,0.5125689760882893,8.080318822808092,-6.1066830165542605,2.0,2.340659340659341,427.2300469483568,0.07540353126274699,-0.45766563720062997,0.03368102091952683,1373.6263736263736,-1.0,73.89611365857326,2.345237243826019,
2023-08-10 17:00:06.261000,7.385542168674699,0.3493975903614458,-6.674698795180723,0.463519313304721,8.065603923973022,-6.160637645616186,2.0,2.340659340659341,427.2300469483568,-0.12318629450498193,-0.32935143639648085,-0.4127964570829205,1373.6263736263736,-1.0,73.89611365857326,2.3451966917491363,
2023-08-10 17:00:06.268000,7.385542168674699,0.3734939759036145,-6.674698795180723,0.4782342121397915,8.019006744328632,-6.158185162477007,2.0,2.340659340659341,427.2300469483568,0.3335469960957979,-0.15535225219975354,-0.20103723559233125,1369.230769230769,-1.0,73.89611365857326,2.3451559794031356,
2023-08-10 17:00:06.276000,7.36144578313253,0.3734939759036145,-6.674698795180723,0.5125689760882893,8.03862660944206,-6.167995095033722,2.0,2.340659340659341,427.2300469483568,0.20802983509119577,-0.17994289377075864,-0.12644950760445187,1363.3699633699632,-1.0,73.89611365857326,2.3451151125398844,
2023-08-10 17:00:06.284000,7.337349397590362,0.3614457831325301,-6.674698795180723,0.510116492949111,8.033721643163704,-6.158185162477007,2.0,2.340659340659341,427.2300469483568,-0.006642969523919828,0.31711438727346697,-0.23506788648680124,1357.5091575091574,-1.0,73.89611365857326,2.3450740968819557,
2023-08-10 17:00:06.291000,7.349397590361447,0.3614457831325301,-6.662650602409639,0.45861434702636417,8.041079092581239,-6.1704475781729,2.0,2.340659340659341,427.2300469483568,0.3448516986189616,0.39927743138511634,-0.4651244099994172,1351.6483516483515,-1.0,73.89611365857326,2.3450329381169843,
2023-08-10 17:00:06.299000,7.36144578313253,0.3855421686746988,-6.674698795180723,0.5248313917841815,8.119558553034947,-6.202329858982219,2.0,2.340659340659341,427.2300469483568,-0.14649495950119434,0.49472641454460714,-0.30883981119981346,1346.5201465201465,-1.0,73.89611365857326,2.3449916418923737,
2023-08-10 17:00:06.307000,7.385542168674699,0.3734939759036145,-6.674698795180723,0.5591661557326794,8.043531575720417,-6.1287553648068664,2.0,2.340659340659341,427.2300469483568,0.006293339548977319,0.38529223238738824,-0.5020686440184138,1342.1245421245421,-1.0,73.89611365857326,2.3449502138103995,
2023-08-10 17:00:06.314000,7.373493975903615,0.3734939759036145,-6.698795180722892,0.47087676272225626,8.072961373390557,-6.163090128755364,2.0,2.340659340659341,427.2300469483568,0.19101450964396066,0.48994813822038247,-0.54227609113688,1336.263736263736,-1.0,73.89611365857326,2.3449086594237882,
2023-08-10 17:00:06.322000,7.421686746987953,0.3734939759036145,-6.650602409638554,0.5125689760882893,8.08522378908645,-6.131207847946045,2.0,2.340659340659341,427.2300469483568,0.053143756191363835,0.6539245964687352,-0.3217761202727113,1333.3333333333333,-1.0,73.89611365857326,2.344866984231783,
2023-08-10 17:00:06.330000,7.385542168674699,0.3855421686746988,-6.650602409638554,0.5003065603923973,8.077866339668914,-6.089515634580012,2.0,2.340659340659341,427.2300469483568,0.037760037293863916,0.6631315191422404,-0.2390303595361577,1331.8681318681317,-1.0,73.89611365857326,2.3448251936767734,
2023-08-10 17:00:06.337000,7.373493975903615,0.3855421686746988,-6.63855421686747,0.5027590435315757,8.014101778050275,-6.082158185162477,2.0,2.340659340659341,427.2300469483568,0.23634986306159284,0.15919818192412982,0.19521006934327859,1333.3333333333333,-1.0,73.89611365857326,2.3447832931415116,
2023-08-10 17:00:06.345000,7.337349397590362,0.39759036144578314,-6.63855421686747,0.47332924586143466,8.045984058859595,-6.104230533415082,2.0,2.340659340659341,427.2300469483568,-0.17912709049589104,0.1938115494435042,0.10745294563253864,1335.5311355311355,-1.0,73.89611365857326,2.3447412879469627,
2023-08-10 17:00:06.353000,7.349397590361447,0.3734939759036145,-6.662650602409639,0.463519313304721,8.072961373390557,-6.114040465971796,2.0,2.340659340659341,427.2300469483568,0.11293048190664923,-0.4110483072082052,0.12878037410407336,1340.6593406593406,-1.0,73.89611365857326,2.3446991833508255,
2023-08-10 17:00:06.360000,7.36144578313253,0.3493975903614458,-6.662650602409639,0.49540159411404044,8.065603923973022,-6.177805027590435,2.0,2.340659340659341,427.2300469483568,-0.07353883806305013,-0.5652351261581486,0.13274284715342918,1344.3223443223442,-1.0,73.89611365857326,2.3446569845467526,
2023-08-10 17:00:06.368000,7.373493975903615,0.3614457831325301,-6.650602409638554,0.5052115266707541,8.065603923973022,-6.175352544451257,2.0,2.340659340659341,427.2300469483568,-0.04405337684284123,-0.7645242118757642,0.3519608414428065,1345.054945054945,-1.0,73.89611365857326,2.344614696664305,
2023-08-10 17:00:06.376000,7.397590361445784,0.3734939759036145,-6.686746987951808,0.4463519313304721,8.050889025137952,-6.150827713059472,2.0,2.340659340659341,427.2300469483568,0.07668550783753793,-1.066837596876639,0.1890332731192821,1343.5897435897434,-1.0,73.89611365857326,2.3445723247696484,
2023-08-10 17:00:06.383000,7.397590361445784,0.3493975903614458,-6.674698795180723,0.4659717964438994,8.087676272225629,-6.199877375843041,2.0,2.340659340659341,427.2300469483568,0.04463609346774715,-0.9061243517277549,0.07144105821339074,1342.1245421245421,-1.0,73.89611365857326,2.344529873867029,
2023-08-10 17:00:06.391000,7.36144578313253,0.3493975903614458,-6.698795180722892,0.42673206621704474,8.036174126302882,-6.155732679337829,2.0,2.340659340659341,427.2300469483568,0.30138103840102626,-0.6196608589243033,-0.3808635860381095,1342.1245421245421,-1.0,73.89611365857326,2.344487348901027,
2023-08-10 17:00:06.399000,7.373493975903615,0.3614457831325301,-6.662650602409639,0.5027590435315757,8.041079092581239,-6.153280196198651,2.0,2.340659340659341,427.2300469483568,0.006526426198938992,-0.7473923431035501,-0.3563894877920865,1342.1245421245421,-1.0,73.89611365857326,2.3444447547596057,
2023-08-10 17:00:06.406000,7.385542168674699,0.3614457831325301,-6.686746987951808,0.4512568976088289,8.095033721643164,-6.155732679337829,2.0,2.3391941391941393,427.49765111180704,0.09346774663481136,-0.3976458248353812,-0.6358603810966726,1342.8571428571427,-1.0,73.89611365857326,2.34440209627796,
2023-08-10 17:00:06.414000,7.385542168674699,0.3493975903614458,-6.650602409638554,0.5150214592274678,8.102391171060699,-6.165542611894543,2.0,2.340659340659341,427.2300469483568,0.16805547462269074,-0.11549443505623284,-0.38004778276324236,1344.3223443223442,-1.0,73.89611365857326,2.3443593782083494,
2023-08-10 17:00:06.422000,7.421686746987953,0.3614457831325301,-6.686746987951808,0.48559166155732675,8.102391171060699,-6.158185162477007,2.0,2.340659340659341,427.2300469483568,-0.0015150632247543454,-0.14486335295145916,-0.0226094050463261,1345.054945054945,-1.0,73.89611365857326,2.344316605120874,
2023-08-10 17:00:06.429000,7.409638554216868,0.3734939759036145,-6.650602409638554,0.5052115266707541,8.090128755364807,-6.126302881667688,2.0,2.340659340659341,427.2300469483568,0.2690985373812721,0.10080997610861968,-0.07878328768719775,1345.054945054945,-1.0,73.89611365857326,2.3442737819709194,
2023-08-10 17:00:06.437000,7.397590361445784,0.3855421686746988,-6.674698795180723,0.48559166155732675,8.03862660944206,-6.153280196198651,2.0,2.340659340659341,427.2300469483568,0.1418332265019522,0.2970689353767267,6.992599498863206E-4,1342.1245421245421,-1.0,73.89611365857326,2.3442309140723796,
2023-08-10 17:00:06.444000,7.373493975903615,0.39759036144578314,-6.686746987951808,0.49540159411404044,8.041079092581239,-6.153280196198651,2.0,2.340659340659341,427.2300469483568,-0.012586679097954637,0.2906590525027685,0.2629217411572752,1336.9963369963368,-1.0,73.89611365857326,2.344188006157841,
2023-08-10 17:00:06.452000,7.373493975903615,0.3855421686746988,-6.650602409638554,0.5076640098099325,8.117106069895769,-6.163090128755364,2.0,2.340659340659341,427.2300469483568,0.04848202319212169,0.26222248120738884,-0.10418973253306914,1332.6007326007325,-1.0,73.89611365857326,2.344145062456675,
2023-08-10 17:00:06.460000,7.397590361445784,0.3855421686746988,-6.686746987951808,0.42918454935622313,8.063151440833844,-6.1361128142244015,2.0,2.340659340659341,427.2300469483568,-0.17761202727113842,0.049297826466989284,0.022026688421420616,1331.135531135531,-1.0,73.89611365857326,2.3441020871943,
2023-08-10 17:00:06.467000,7.385542168674699,0.3734939759036145,-6.686746987951808,0.48313917841814835,8.055793991416309,-6.163090128755364,2.0,2.340659340659341,427.2300469483568,-0.34252083211933965,0.33960724899481354,0.026338791445720242,1332.6007326007325,-1.0,73.89611365857326,2.34405908459949,
2023-08-10 17:00:06.475000,7.385542168674699,0.3855421686746988,-6.674698795180723,0.49294911097486205,8.019006744328632,-6.1361128142244015,2.0,2.340659340659341,427.2300469483568,-0.33925761901987106,0.518967426140668,0.045568440067595146,1335.5311355311355,873.22998046875,68.71042147200671,2.3440160589123673,
2023-08-10 17:00:06.483000,7.385542168674699,0.3614457831325301,-6.686746987951808,0.4782342121397915,8.08277130594727,-6.101778050275904,2.0,2.3391941391941393,427.49765111180704,-0.16910436454752,0.40918361400850656,0.3965969349105532,1338.4615384615383,-1.0,68.71042147200671,2.3439730148509232,
2023-08-10 17:00:06.490000,7.373493975903615,0.3734939759036145,-6.686746987951808,0.5174739423666462,8.026364193746167,-6.18516247700797,2.0,2.340659340659341,427.2300469483568,-0.5340015150632255,0.5437911543616347,0.3956645883107044,1338.4615384615383,-1.0,68.71042147200671,2.343929956602515,
2023-08-10 17:00:06.498000,7.36144578313253,0.3614457831325301,-6.662650602409639,0.5272838749233598,8.05334150827713,-6.1704475781729,2.0,2.3391941391941393,427.49765111180704,-0.5301555853388491,0.5421595478118996,0.39228483188625357,1335.5311355311355,-1.0,68.71042147200671,2.3438868878330976,
2023-08-10 17:00:06.506000,7.337349397590362,0.3493975903614458,-6.662650602409639,0.4316370324954016,8.023911710606988,-6.1361128142244015,2.0,2.3391941391941393,427.49765111180704,-0.3136180875240367,0.4971738243692099,0.5729269856068995,1331.8681318681317,-1.0,68.71042147200671,2.34384381267938,
2023-08-10 17:00:06.513000,7.325301204819278,0.3614457831325301,-6.650602409638554,0.4512568976088289,7.984671980380134,-6.0772532188841195,2.0,2.340659340659341,427.2300469483568,-0.11456208845638441,-0.3706077734397768,0.7313093642561626,1328.937728937729,-1.0,68.71042147200671,2.343800734703322,
2023-08-10 17:00:06.521000,7.349397590361447,0.3493975903614458,-6.674698795180723,0.4757817290006131,8.043531575720417,-6.131207847946045,2.0,2.3391941391941393,427.49765111180704,-0.31350154419905585,-0.7884155934968826,0.30814055124992695,1328.937728937729,-1.0,68.71042147200671,2.3437576574261767,
2023-08-10 17:00:06.529000,7.337349397590362,0.3493975903614458,-6.650602409638554,0.42918454935622313,7.99202942979767,-6.141017780502759,2.0,2.340659340659341,427.2300469483568,-0.3122195676242649,-0.9583357613192702,0.7314259075811433,1333.3333333333333,-1.0,68.71042147200671,2.3437145844044798,
2023-08-10 17:00:06.536000,7.349397590361447,0.3493975903614458,-6.662650602409639,0.46106683016554256,8.016554261189453,-6.143470263641937,2.0,2.340659340659341,427.2300469483568,-0.525960025639532,-1.050288444729329,0.13822038342753934,1341.3919413919414,-1.0,68.71042147200671,2.3436715192018682,
2023-08-10 17:00:06.544000,7.349397590361447,0.3253012048192771,-6.674698795180723,0.45616186388718577,8.070508890251379,-6.182709993868792,2.0,2.340659340659341,427.2300469483568,-0.12679913757939482,-0.9134665812015614,0.25161703863411233,1353.8461538461538,-1.0,68.71042147200671,2.343628465923206,
2023-08-10 17:00:06.552000,7.313253012048193,0.3493975903614458,-6.674698795180723,0.38994481912936846,7.994481912936848,-6.1066830165542605,2.0,2.340659340659341,427.2300469483568,-0.2175863877396417,-0.9127673212516746,0.2415943126857409,1370.6959706959706,-1.0,68.71042147200671,2.3435854287661373,
2023-08-10 17:00:06.559000,7.337349397590362,0.3373493975903615,-6.686746987951808,0.42673206621704474,7.989576946658492,-6.1704475781729,2.0,2.3391941391941393,427.49765111180704,-0.12411864110483035,-0.9901520890390993,-0.18169104364547553,1391.2087912087911,-1.0,68.71042147200671,2.3435424120308834,
2023-08-10 17:00:06.567000,7.373493975903615,0.3493975903614458,-6.710843373493976,0.41692213366033104,8.019006744328632,-6.165542611894543,2.0,2.3391941391941393,427.49765111180704,0.0916030534351145,-1.0541343744537035,-0.21712021443971793,1417.5824175824175,-1.0,68.71042147200671,2.343499420095605,
2023-08-10 17:00:06.575000,7.36144578313253,0.3493975903614458,-6.710843373493976,0.4757817290006131,8.014101778050275,-6.155732679337829,2.0,2.3391941391941393,427.49765111180704,-0.22982343686265383,-0.557193636734457,-0.5245615057397586,1444.6886446886447,-1.0,68.71042147200671,2.3434564572874,
2023-08-10 17:00:06.582000,7.373493975903615,0.3734939759036145,-6.698795180722892,0.45616186388718577,8.031269160024525,-6.182709993868792,2.0,2.3391941391941393,427.49765111180704,-0.04533535341763217,-0.4166423868072957,-0.7539187693024882,1470.3296703296703,-1.0,68.71042147200671,2.3434135278569515,
2023-08-10 17:00:06.590000,7.373493975903615,0.3614457831325301,-6.698795180722892,0.4659717964438994,8.0680564071122,-6.163090128755364,2.0,2.340659340659341,427.2300469483568,0.21374045801526717,0.014684458947613166,-0.32422353009731364,1494.5054945054944,-1.0,68.71042147200671,2.343370635986886,
2023-08-10 17:00:06.598000,7.385542168674699,0.3734939759036145,-6.674698795180723,0.49785407725321884,8.043531575720417,-6.158185162477007,2.0,2.3391941391941393,427.49765111180704,0.27306101043062747,0.2749257036303243,-0.7064856360351962,1514.2857142857142,-1.0,68.71042147200671,2.343327785833868,
2023-08-10 17:00:06.605000,7.385542168674699,0.3734939759036145,-6.686746987951808,0.5125689760882893,8.065603923973022,-6.143470263641937,2.0,2.3391941391941393,427.49765111180704,0.14696113280111944,0.42887943593030786,-0.4605792203251557,1528.2051282051282,-1.0,68.71042147200671,2.343284981639429,
2023-08-10 17:00:06.613000,7.349397590361447,0.3734939759036145,-6.686746987951808,0.5248313917841815,8.087676272225629,-6.116492949110975,2.0,2.3391941391941393,427.49765111180704,0.4197890565817835,0.705203659460404,-0.506380747042713,1536.9963369963368,-1.0,68.71042147200671,2.3432422276316767,
2023-08-10 17:00:06.621000,7.36144578313253,0.3855421686746988,-6.674698795180723,0.48559166155732675,8.028816676885347,-6.165542611894543,2.0,2.3391941391941393,427.49765111180704,0.4000932346599857,0.6308490181224863,-0.5481032573859331,1542.8571428571427,-1.0,68.71042147200671,2.3431995275378723,
2023-08-10 17:00:06.628000,7.36144578313253,0.3734939759036145,-6.674698795180723,0.45616186388718577,8.011649294911097,-6.1361128142244015,2.0,2.3391941391941393,427.49765111180704,0.30499388147543915,0.6208262921741152,-0.331099586271196,1546.5201465201465,-1.0,68.71042147200671,2.343156885113679,
2023-08-10 17:00:06.636000,7.36144578313253,0.3855421686746988,-6.686746987951808,0.5027590435315757,8.001839362354383,-6.148375229920294,2.0,2.3391941391941393,427.49765111180704,0.1496416292756839,0.5495017772857061,-0.3631490006409885,1546.5201465201465,-1.0,68.71042147200671,2.3431143045673175,
2023-08-10 17:00:06.644000,7.36144578313253,0.39759036144578314,-6.72289156626506,0.4904966278356836,8.009196811771918,-6.1361128142244015,2.0,2.3391941391941393,427.49765111180704,0.012353592447992964,0.0651477186644143,-0.37760037293864,1544.3223443223442,-1.0,68.71042147200671,2.3430717900694957,
2023-08-10 17:00:06.651000,7.36144578313253,0.39759036144578314,-6.674698795180723,0.45616186388718577,8.004291845493562,-6.150827713059472,2.0,2.3391941391941393,427.49765111180704,-0.01794767204708353,0.3788823495134318,-0.3763183963638482,1542.1245421245421,-1.0,68.71042147200671,2.343029345297081,
2023-08-10 17:00:06.659000,7.36144578313253,0.39759036144578314,-6.710843373493976,0.463519313304721,7.982219497240956,-6.165542611894543,2.0,2.3391941391941393,427.49765111180704,-0.06048598566517042,0.3401899656197195,-0.2847153429287337,1537.7289377289376,-1.0,68.71042147200671,2.342986973958768,
2023-08-10 17:00:06.667000,7.373493975903615,0.3855421686746988,-6.698795180722892,0.5419987737584304,8.065603923973022,-6.1287553648068664,2.0,2.3391941391941393,427.49765111180704,0.1409008799021038,0.5456558475613316,-0.3614008507662725,1531.8681318681317,-1.0,68.71042147200671,2.3429446802157616,
2023-08-10 17:00:06.674000,7.385542168674699,0.3855421686746988,-6.686746987951808,0.5567136725935009,8.041079092581239,-6.145922746781116,2.0,2.3391941391941393,427.49765111180704,-0.3798146961132802,0.25674494493327915,-0.14835965270089163,1523.0769230769229,-1.0,68.71042147200671,2.342902468188409,
2023-08-10 17:00:06.682000,7.373493975903615,0.39759036144578314,-6.674698795180723,0.5297363580625383,8.048436541998774,-6.192519926425505,2.0,2.3391941391941393,427.49765111180704,-0.1637433715983911,0.3211934036478067,0.1241186411048308,1514.2857142857142,-1.0,68.71042147200671,2.342860341954636,
2023-08-10 17:00:06.690000,7.397590361445784,0.3855421686746988,-6.674698795180723,0.48313917841814835,8.031269160024525,-6.1287553648068664,2.0,2.3391941391941393,427.49765111180704,0.2671173008565927,0.5710622924072025,0.3627993706660451,1502.5641025641025,-1.0,68.71042147200671,2.3428183050897076,
2023-08-10 17:00:06.697000,7.373493975903615,0.3734939759036145,-6.710843373493976,0.4757817290006131,8.058246474555487,-6.143470263641937,2.0,2.3391941391941393,427.49765111180704,-0.1157275217061945,0.4217702931064629,0.12528407435464134,1487.9120879120878,-1.0,68.71042147200671,2.342776360730402,
2023-08-10 17:00:06.705000,7.373493975903615,0.3734939759036145,-6.650602409638554,0.5591661557326794,8.014101778050275,-6.116492949110975,2.0,2.3391941391941393,427.49765111180704,-0.11502826175630776,0.37899889283841265,0.30336227492570356,1473.260073260073,-1.0,68.71042147200671,2.3427345125175068,
2023-08-10 17:00:06.713000,7.36144578313253,0.3855421686746988,-6.674698795180723,0.5419987737584304,8.028816676885347,-6.1287553648068664,2.0,2.3391941391941393,427.49765111180704,-0.0654973486393568,0.2168871277897567,0.1736495542217822,1458.6080586080584,-1.0,68.71042147200671,2.3426927640627415,
2023-08-10 17:00:06.720000,7.349397590361447,0.3614457831325301,-6.674698795180723,0.5027590435315757,8.092581238503985,-6.172900061312078,2.0,2.3391941391941393,427.49765111180704,0.060136355690227905,-0.2510343220092077,0.36757764699026896,1445.4212454212454,-1.0,68.71042147200671,2.3426511189777104,
2023-08-10 17:00:06.728000,7.36144578313253,0.3614457831325301,-6.710843373493976,0.463519313304721,7.987124463519313,-6.160637645616186,2.0,2.337728937728938,427.765590723911,6.992599498867545E-4,-0.24031233611094996,0.10139269273352386,1433.6996336996335,-1.0,68.71042147200671,2.3426095812911263,
2023-08-10 17:00:06.736000,7.36144578313253,0.3493975903614458,-6.674698795180723,0.49294911097486205,8.05334150827713,-6.138565297363581,2.0,2.3391941391941393,427.49765111180704,-0.05908746576539864,0.34951343161820375,0.15791620534933845,1420.5128205128203,-1.0,68.71042147200671,2.3425681544598964,
2023-08-10 17:00:06.743000,7.349397590361447,0.3493975903614458,-6.698795180722892,0.4782342121397915,8.016554261189453,-6.199877375843041,2.0,2.3391941391941393,427.49765111180704,0.04848202319212169,0.11106578870695237,-0.3497465182681663,1408.058608058608,-1.0,68.71042147200671,2.3425268417857876,
2023-08-10 17:00:06.751000,7.349397590361447,0.3493975903614458,-6.674698795180723,0.43654199877375843,8.041079092581239,-6.153280196198651,2.0,2.3391941391941393,427.49765111180704,0.12609987762950806,0.2681661907814237,-0.1329759338033913,1395.6043956043954,-1.0,68.71042147200671,2.3424856469359447,
2023-08-10 17:00:06.759000,7.337349397590362,0.3493975903614458,-6.698795180722892,0.48068669527896996,8.0680564071122,-6.165542611894543,2.0,2.3391941391941393,427.49765111180704,-0.03076743779499984,0.19439426606841012,-0.2523162985839987,1386.8131868131868,-1.0,68.71042147200671,2.3424445734803654,
2023-08-10 17:00:06.766000,7.36144578313253,0.3493975903614458,-6.686746987951808,0.49294911097486205,8.045984058859595,-6.133660331085223,2.0,2.3391941391941393,427.49765111180704,0.04463609346774715,0.15022434590058806,-0.4897150515704216,1381.6849816849815,-1.0,68.71042147200671,2.3424036248872677,
2023-08-10 17:00:06.774000,7.337349397590362,0.3493975903614458,-6.674698795180723,0.5076640098099325,8.033721643163704,-6.141017780502759,2.0,2.3391941391941393,427.49765111180704,0.04451955014276631,0.1499912592506264,-0.4802750422469552,1380.952380952381,-1.0,68.71042147200671,2.342362804518585,
2023-08-10 17:00:06.782000,7.349397590361447,0.3614457831325301,-6.698795180722892,0.5027590435315757,8.045984058859595,-6.141017780502759,2.0,2.3391941391941393,427.49765111180704,0.012586679097954637,0.4542858807761788,-0.04195559699318183,1381.6849816849815,-1.0,68.71042147200671,2.342322115625688,
2023-08-10 17:00:06.789000,7.349397590361447,0.3614457831325301,-6.674698795180723,0.5076640098099325,8.090128755364807,-6.133660331085223,2.0,2.3391941391941393,427.49765111180704,0.2559291416584115,0.905425091777868,-0.14323174640172487,1383.150183150183,-1.0,68.71042147200671,2.3422815608875203,
2023-08-10 17:00:06.797000,7.373493975903615,0.3373493975903615,-6.662650602409639,0.49294911097486205,8.050889025137952,-6.190067443286327,2.0,2.3391941391941393,427.49765111180704,0.16094633179884585,0.9393391993473574,-0.1344909970281452,1383.150183150183,-1.0,68.71042147200671,2.342241142932154,
2023-08-10 17:00:06.804000,7.337349397590362,0.3493975903614458,-6.674698795180723,0.5125689760882893,7.996934396076027,-6.192519926425505,2.0,2.3391941391941393,427.49765111180704,0.053959559466231426,0.8976166890041364,0.07062525493852315,1381.6849816849815,-1.0,68.71042147200671,2.3422008647547945,
2023-08-10 17:00:06.812000,7.337349397590362,0.3734939759036145,-6.686746987951808,0.48068669527896996,8.063151440833844,-6.133660331085223,2.0,2.337728937728938,427.765590723911,0.144280636326555,0.8723267874832463,-0.0778509410873489,1380.2197802197802,-1.0,68.71042147200671,2.3421607292232234,
2023-08-10 17:00:06.820000,7.373493975903615,0.3734939759036145,-6.674698795180723,0.510116492949111,8.028816676885347,-6.148375229920294,2.0,2.3391941391941393,427.49765111180704,0.09696404638424339,0.7109142823844771,-0.3026630149758172,1382.4175824175823,-1.0,68.71042147200671,2.342120738583884,
2023-08-10 17:00:06.827000,7.349397590361447,0.3493975903614458,-6.662650602409639,0.43899448191293683,8.097486204782342,-6.165542611894543,2.0,2.337728937728938,427.765590723911,0.11293048190664923,0.703921682885613,0.033914107569488934,1383.150183150183,-1.0,68.71042147200671,2.342080894881814,
2023-08-10 17:00:06.835000,7.373493975903615,0.3493975903614458,-6.674698795180723,0.47332924586143466,8.03862660944206,-6.214592274678111,2.0,2.337728937728938,427.765590723911,-0.05430918944117393,0.6677932521414843,-0.14835965270089163,1385.3479853479853,-1.0,68.71042147200671,2.3420411999927033,
2023-08-10 17:00:06.843000,7.373493975903615,0.3493975903614458,-6.686746987951808,0.47087676272225626,8.048436541998774,-6.165542611894543,2.0,2.3391941391941393,427.49765111180704,-0.23693257968649875,0.7357380106054421,-0.4679214497989627,1388.278388278388,-1.0,68.71042147200671,2.342001655093275,
2023-08-10 17:00:06.850000,7.36144578313253,0.3493975903614458,-6.710843373493976,0.4438994481912937,8.0680564071122,-6.1361128142244015,2.0,2.3391941391941393,427.49765111180704,-0.14101742322708463,0.6642969523920522,-0.20663131519142225,1394.139194139194,-1.0,68.71042147200671,2.341962261607611,
2023-08-10 17:00:06.858000,7.373493975903615,0.3373493975903615,-6.686746987951808,0.4659717964438994,8.048436541998774,-6.141017780502759,2.0,2.3391941391941393,427.49765111180704,-0.22784220033797614,0.5003204941436977,-0.18716857991958524,1400.0,-1.0,68.71042147200671,2.34192302127548,
2023-08-10 17:00:06.866000,7.385542168674699,0.3734939759036145,-6.662650602409639,0.4880441446965052,8.041079092581239,-6.087063151440834,2.0,2.337728937728938,427.765590723911,-0.2101276149408543,0.6136006060252894,-0.5350504049880542,1403.6630036630036,-1.0,68.71042147200671,2.341883935696584,
2023-08-10 17:00:06.873000,7.373493975903615,0.3373493975903615,-6.686746987951808,0.4414469650521152,8.036174126302882,-6.150827713059472,2.0,2.337728937728938,427.765590723911,-0.17609696404638409,0.604393683351786,-0.26991434065613884,1407.3260073260071,-1.0,68.71042147200671,2.3418450062989784,
2023-08-10 17:00:06.881000,7.373493975903615,0.3493975903614458,-6.674698795180723,0.4071122011036174,8.023911710606988,-6.1066830165542605,2.0,2.337728937728938,427.765590723911,0.08565934386107969,0.6279354349979601,-0.7238505914573743,1410.2564102564102,-1.0,68.71042147200671,2.3418062342040122,
2023-08-10 17:00:06.889000,7.36144578313253,0.3614457831325301,-6.698795180722892,0.4880441446965052,8.014101778050275,-6.1287553648068664,2.0,2.337728937728938,427.765590723911,0.28238447642911174,0.4531204475263687,-0.7332906007808402,1414.6520146520145,-1.0,68.71042147200671,2.3417676197379187,
2023-08-10 17:00:06.896000,7.373493975903615,0.3614457831325301,-6.686746987951808,0.47332924586143466,7.984671980380134,-6.141017780502759,2.0,2.337728937728938,427.765590723911,-0.010022725948371029,0.12936309072897842,-0.6676767088165025,1417.5824175824175,-1.0,68.71042147200671,2.3417291625032846,
2023-08-10 17:00:06.904000,7.373493975903615,0.3614457831325301,-6.674698795180723,0.4512568976088289,8.03862660944206,-6.145922746781116,2.0,2.337728937728938,427.765590723911,0.2308723267874831,-0.05768894586562513,-0.6330633412971274,1420.5128205128203,-1.0,68.71042147200671,2.341690861871618,
2023-08-10 17:00:06.912000,7.36144578313253,0.3855421686746988,-6.662650602409639,0.5640711220110362,8.077866339668914,-6.087063151440834,2.0,2.337728937728938,427.765590723911,0.3944991550608934,-0.1157275217061945,-0.9959792552881533,1421.9780219780218,-1.0,68.71042147200671,2.3416527169839525,
2023-08-10 17:00:06.919000,7.36144578313253,0.3734939759036145,-6.686746987951808,0.463519313304721,8.016554261189453,-6.172900061312078,2.0,2.337728937728938,427.765590723911,0.21886836431443438,-0.2518501252840736,-1.293980537264728,1423.4432234432234,-1.0,68.71042147200671,2.3416147267521756,
2023-08-10 17:00:06.927000,7.349397590361447,0.3855421686746988,-6.674698795180723,0.5052115266707541,7.989576946658492,-6.163090128755364,2.0,2.337728937728938,427.765590723911,-0.09032107686032356,-0.33902453236990765,-0.9350270963230582,1421.9780219780218,-1.0,68.71042147200671,2.3415768898611495,
2023-08-10 17:00:06.935000,7.36144578313253,0.3614457831325301,-6.686746987951808,0.5174739423666462,7.989576946658492,-6.160637645616186,2.0,2.337728937728938,427.765590723911,0.03123361109492492,-0.24054542276091162,-1.0964396014218287,1416.117216117216,-1.0,68.71042147200671,2.3415392052295587,
2023-08-10 17:00:06.942000,7.36144578313253,0.3855421686746988,-6.650602409638554,0.47087676272225626,8.060698957694665,-6.153280196198651,2.0,2.337728937728938,427.765590723911,0.30697511800011684,-0.47887652234718214,-1.0445778218052562,1412.4542124542124,-1.0,68.71042147200671,2.3415016719464936,
2023-08-10 17:00:06.950000,7.349397590361447,0.39759036144578314,-6.710843373493976,0.5150214592274678,8.050889025137952,-6.121397915389331,2.0,2.337728937728938,427.765590723911,0.05990326904026623,-0.43913524852864055,-1.0498222714294039,1410.2564102564102,-1.0,68.71042147200671,2.3414642887878307,
2023-08-10 17:00:06.958000,7.325301204819278,0.3734939759036145,-6.72289156626506,0.5370938074800735,8.050889025137952,-6.145922746781116,2.0,2.337728937728938,427.765590723911,0.13530680030301323,-0.5217644659402133,-1.0396830021560513,1408.7912087912086,-1.0,68.71042147200671,2.341427053767717,
2023-08-10 17:00:06.965000,7.349397590361447,0.39759036144578314,-6.674698795180723,0.5076640098099325,8.016554261189453,-6.177805027590435,2.0,2.337728937728938,427.765590723911,-0.1548860788998302,-0.38948779208670875,-0.8603228250101975,1408.7912087912086,-1.0,68.71042147200671,2.34138996467336,
2023-08-10 17:00:06.973000,7.349397590361447,0.39759036144578314,-6.72289156626506,0.510116492949111,8.070508890251379,-6.190067443286327,2.0,2.337728937728938,427.765590723911,0.13693840685274666,-0.06351611211467911,-0.6217586387739645,1410.2564102564102,-1.0,68.71042147200671,2.3413530194961742,
2023-08-10 17:00:06.981000,7.373493975903615,0.39759036144578314,-6.698795180722892,0.522378908645003,8.004291845493562,-6.167995095033722,2.0,2.337728937728938,427.765590723911,0.1964920459180704,0.0621175922149056,-0.4774780024474095,1410.2564102564102,-1.0,68.71042147200671,2.341316215950174,
2023-08-10 17:00:06.988000,7.373493975903615,0.39759036144578314,-6.686746987951808,0.5665236051502146,8.08277130594727,-6.23175965665236,2.0,2.337728937728938,427.765590723911,0.07423809801293689,0.39636384826059023,-0.28704620942835474,1408.7912087912086,-1.0,68.71042147200671,2.3412795510255555,
2023-08-10 17:00:06.996000,7.36144578313253,0.42168674698795183,-6.710843373493976,0.49785407725321884,8.117106069895769,-6.18516247700797,2.0,2.337728937728938,427.765590723911,0.10430627585804997,0.5742089621816904,-0.14276557310180063,1405.8608058608058,-1.0,68.71042147200671,2.341243021525737,
2023-08-10 17:00:07.004000,7.337349397590362,0.39759036144578314,-6.698795180722892,0.4463519313304721,8.028816676885347,-6.165542611894543,2.0,2.337728937728938,427.765590723911,0.07155760153837244,1.0251150865334198,-0.458248353825535,1401.4652014652013,-1.0,68.71042147200671,2.341206624500832,
2023-08-10 17:00:07.011000,7.349397590361447,0.3734939759036145,-6.686746987951808,0.5125689760882893,8.023911710606988,-6.158185162477007,2.0,2.337728937728938,427.765590723911,-0.06782821513897873,0.9057747217528123,0.05127906299166698,1395.6043956043954,-1.0,68.71042147200671,2.341170356768476,
2023-08-10 17:00:07.019000,7.337349397590362,0.3855421686746988,-6.686746987951808,0.49294911097486205,8.055793991416309,-6.18516247700797,2.0,2.3362637362637364,428.0338664158043,-0.28483188625371453,0.9676592273177544,0.06806130178893954,1387.5457875457876,-1.0,68.71042147200671,2.341134214469939,
2023-08-10 17:00:07.027000,7.349397590361447,0.3855421686746988,-6.674698795180723,0.5272838749233598,8.045984058859595,-6.167995095033722,2.0,2.3362637362637364,428.0338664158043,-0.24019579278596737,0.8324689703397239,-0.3615173940912538,1380.952380952381,-1.0,68.71042147200671,2.3410981931171073,
2023-08-10 17:00:07.034000,7.36144578313253,0.3855421686746988,-6.698795180722892,0.46842427958307786,8.041079092581239,-6.192519926425505,2.0,2.337728937728938,427.765590723911,-0.01281976574791631,0.7886486801468443,-0.12749839752928155,1373.6263736263736,-1.0,68.71042147200671,2.341062288414315,
2023-08-10 17:00:07.042000,7.349397590361447,0.3734939759036145,-6.698795180722892,0.5174739423666462,8.016554261189453,-6.18516247700797,2.0,2.337728937728938,427.765590723911,0.04720004661733076,0.638540877571237,-0.20220266884214222,1367.7655677655678,-1.0,68.71042147200671,2.3410264962017604,
2023-08-10 17:00:07.050000,7.337349397590362,0.3734939759036145,-6.698795180722892,0.5469037400367872,8.031269160024525,-6.153280196198651,2.0,2.337728937728938,427.765590723911,0.047433133267292434,0.6256045684983399,-0.20161995221723716,1363.3699633699632,-1.0,68.71042147200671,2.3409908121171754,
2023-08-10 17:00:07.057000,7.337349397590362,0.39759036144578314,-6.662650602409639,0.5591661557326794,8.009196811771918,-6.167995095033722,2.0,2.337728937728938,427.765590723911,-0.08892255696055006,0.5506672105355163,-0.2917079424275969,1361.904761904762,-1.0,68.71042147200671,2.340955231646099,
2023-08-10 17:00:07.065000,7.349397590361447,0.39759036144578314,-6.686746987951808,0.5027590435315757,7.977314530962599,-6.155732679337829,2.0,2.337728937728938,427.765590723911,0.06538080531437596,0.24485752578521125,-0.4407668550783749,1364.102564102564,-1.0,68.71042147200671,2.340919750137967,
2023-08-10 17:00:07.073000,7.349397590361447,0.3855421686746988,-6.698795180722892,0.5199264255058246,8.063151440833844,-6.126302881667688,2.0,2.337728937728938,427.765590723911,0.18786783986947114,0.5386632480624676,-0.2851815162286588,1367.7655677655678,-1.0,68.71042147200671,2.3408843628228295,
2023-08-10 17:00:07.080000,7.373493975903615,0.3855421686746988,-6.662650602409639,0.5321888412017167,8.009196811771918,-6.180257510729613,2.0,2.337728937728938,427.765590723911,0.1438144630266299,0.46232737019987213,-0.37247246663947275,1372.161172161172,-1.0,68.71042147200671,2.3408490648286966,
2023-08-10 17:00:07.088000,7.373493975903615,0.4096385542168675,-6.686746987951808,0.4757817290006131,8.033721643163704,-6.143470263641937,2.0,2.337728937728938,427.765590723911,0.14672804615115603,0.7698852048248932,0.2271429403880894,1375.091575091575,-1.0,68.71042147200671,2.3408138511995196,
2023-08-10 17:00:07.096000,7.385542168674699,0.39759036144578314,-6.72289156626506,0.5076640098099325,8.028816676885347,-6.175352544451257,2.0,2.337728937728938,427.765590723911,0.26944816735621463,0.7857350970223181,0.19614241594312615,1373.6263736263736,-1.0,68.71042147200671,2.340778716913823,
2023-08-10 17:00:07.103000,7.397590361445784,0.3855421686746988,-6.686746987951808,0.5346413243408952,8.041079092581239,-6.204782342121398,2.0,2.337728937728938,427.765590723911,0.10104306275858134,0.46489132334945577,0.22830837363790035,1369.9633699633698,-1.0,68.71042147200671,2.3407436569039723,
2023-08-10 17:00:07.111000,7.373493975903615,0.3855421686746988,-6.674698795180723,0.4414469650521152,8.028816676885347,-6.167995095033722,2.0,2.337728937728938,427.765590723911,-0.0973136763591859,0.6239729619486047,0.4604626770001744,1367.7655677655678,-1.0,68.71042147200671,2.3407086660760683,
2023-08-10 17:00:07.119000,7.373493975903615,0.3855421686746988,-6.686746987951808,0.5052115266707541,8.036174126302882,-6.165542611894543,2.0,2.3362637362637364,428.0338664158043,0.0870578637608532,0.736903443855254,0.18751820989452775,1366.3003663003662,-1.0,68.71042147200671,2.340673739330462,
2023-08-10 17:00:07.126000,7.373493975903615,0.3734939759036145,-6.698795180722892,0.49540159411404044,8.058246474555487,-6.143470263641937,2.0,2.337728937728938,427.765590723911,-0.09801293630907265,0.7576481557018828,0.2068644018413848,1364.8351648351647,-1.0,68.71042147200671,2.340638871090205,
2023-08-10 17:00:07.134000,7.36144578313253,0.3734939759036145,-6.674698795180723,0.49294911097486205,8.033721643163704,-6.199877375843041,2.0,2.337728937728938,427.765590723911,0.14579569955130758,0.6702406619660853,0.21024415826583512,1363.3699633699632,-1.0,68.71042147200671,2.340604055743213,
2023-08-10 17:00:07.142000,7.36144578313253,0.3734939759036145,-6.674698795180723,0.510116492949111,8.045984058859595,-6.190067443286327,2.0,2.337728937728938,427.765590723911,-0.05559116601596661,1.0608938873026041,0.427947089330459,1364.102564102564,-1.0,68.71042147200671,2.3405692881889886,
2023-08-10 17:00:07.149000,7.36144578313253,0.3734939759036145,-6.674698795180723,0.45616186388718577,7.984671980380134,-6.163090128755364,2.0,2.337728937728938,427.765590723911,-0.39123594196142475,0.7767612609987764,0.24660567565992683,1363.3699633699632,-1.0,68.71042147200671,2.3405345634028847,
2023-08-10 17:00:07.157000,7.337349397590362,0.3855421686746988,-6.686746987951808,0.48313917841814835,8.031269160024525,-6.126302881667688,2.0,2.3362637362637364,428.0338664158043,0.16001398519899743,0.49449332789464545,0.3708408600897385,1362.6373626373625,-1.0,68.71042147200671,2.3404998764587224,
2023-08-10 17:00:07.165000,7.349397590361447,0.3614457831325301,-6.710843373493976,0.4880441446965052,8.001839362354383,-6.138565297363581,2.0,2.337728937728938,427.765590723911,0.020278538546705464,0.5511333838354413,0.18938290309422548,1361.904761904762,-1.0,68.71042147200671,2.3404652220592057,
2023-08-10 17:00:07.172000,7.36144578313253,0.3614457831325301,-6.674698795180723,0.44880441446965047,8.031269160024525,-6.114040465971796,2.0,2.3362637362637364,428.0338664158043,0.20115377891731254,0.30394499155060817,0.19194685624380822,1360.4395604395604,-1.0,68.71042147200671,2.340430594979865,
2023-08-10 17:00:07.180000,7.373493975903615,0.3734939759036145,-6.662650602409639,0.4659717964438994,8.095033721643164,-6.172900061312078,2.0,2.3362637362637364,428.0338664158043,0.18250684692034225,0.512440999941729,-0.03333139094458345,1359.7069597069597,-1.0,68.71042147200671,2.340395990582598,
2023-08-10 17:00:07.187000,7.36144578313253,0.3855421686746988,-6.674698795180723,0.4782342121397915,8.08277130594727,-6.114040465971796,2.0,2.3362637362637364,428.0338664158043,-0.0015150632247543454,0.7054367461103673,0.33657712254530614,1356.0439560439559,-1.0,68.71042147200671,2.3403614042418646,
2023-08-10 17:00:07.195000,7.36144578313253,0.3614457831325301,-6.674698795180723,0.47332924586143466,7.999386879215205,-6.1361128142244015,2.0,2.3362637362637364,428.0338664158043,0.08938873026047514,0.3594196142415939,0.1834391935201911,1349.4505494505493,-1.0,68.71042147200671,2.34032683133237,
2023-08-10 17:00:07.203000,7.349397590361447,0.3734939759036145,-6.674698795180723,0.510116492949111,8.077866339668914,-6.141017780502759,2.0,2.337728937728938,427.765590723911,0.08915564361051173,0.551366470485403,-0.046151156692500195,1341.3919413919414,-1.0,68.71042147200671,2.3402922672504936,
2023-08-10 17:00:07.210000,7.36144578313253,0.3734939759036145,-6.674698795180723,0.5003065603923973,8.063151440833844,-6.145922746781116,2.0,2.3362637362637364,428.0338664158043,0.22492861721344828,0.29671930540178243,0.21478934794009685,1337.7289377289376,-1.0,68.71042147200671,2.3402577074693824,
2023-08-10 17:00:07.218000,7.373493975903615,0.3734939759036145,-6.686746987951808,0.49540159411404044,8.045984058859595,-6.155732679337829,2.0,2.3362637362637364,428.0338664158043,0.14847619602587203,0.20010488899248327,0.030417807820056895,1337.7289377289376,-1.0,68.71042147200671,2.340223147662763,
2023-08-10 17:00:07.226000,7.36144578313253,0.3734939759036145,-6.686746987951808,0.48313917841814835,8.033721643163704,-6.138565297363581,2.0,2.3362637362637364,428.0338664158043,0.02622224812073854,0.34706602179360097,5.827166249050502E-4,1339.194139194139,-1.0,68.71042147200671,2.3401885836195695,
2023-08-10 17:00:07.233000,7.349397590361447,0.3614457831325301,-6.662650602409639,0.48559166155732675,7.987124463519313,-6.10913549969344,2.0,2.337728937728938,427.765590723911,-0.06456500203950837,0.27912126332964315,-0.12062234135539919,1342.1245421245421,-1.0,68.71042147200671,2.3401540112272206,
2023-08-10 17:00:07.241000,7.36144578313253,0.3734939759036145,-6.698795180722892,0.49294911097486205,8.0680564071122,-6.177805027590435,2.0,2.3362637362637364,428.0338664158043,0.38039741273818617,0.012353592447992964,-0.31816327719829884,1344.3223443223442,-1.0,68.71042147200671,2.34011942698117,
2023-08-10 17:00:07.249000,7.373493975903615,0.3493975903614458,-6.662650602409639,0.43654199877375843,8.011649294911097,-6.187614960147148,2.0,2.337728937728938,427.765590723911,-0.002214323174639364,-0.23786492628634717,-0.6367927276965211,1347.2527472527472,-1.0,68.71042147200671,2.3400848271221903,
2023-08-10 17:00:07.256000,7.385542168674699,0.3734939759036145,-6.686746987951808,0.5027590435315757,8.048436541998774,-6.172900061312078,2.0,2.3362637362637364,428.0338664158043,0.10558825243284264,-0.05908746576539864,-0.3426373754443214,1350.9157509157508,-1.0,68.71042147200671,2.3400502081441013,
2023-08-10 17:00:07.264000,7.385542168674699,0.3855421686746988,-6.662650602409639,0.5199264255058246,8.0680564071122,-6.167995095033722,2.0,2.3362637362637364,428.0338664158043,0.08973836023541765,-0.031117067769944086,-0.30720820465007853,1355.3113553113553,-1.0,68.71042147200671,2.340015567266108,
2023-08-10 17:00:07.272000,7.36144578313253,0.3855421686746988,-6.662650602409639,0.4659717964438994,8.045984058859595,-6.158185162477007,2.0,2.337728937728938,427.765590723911,0.2098945282908926,0.15022434590058806,-0.3211934036478058,1359.7069597069597,-1.0,68.71042147200671,2.3399809009709984,
2023-08-10 17:00:07.279000,7.397590361445784,0.3855421686746988,-6.674698795180723,0.5150214592274678,8.117106069895769,-6.207234825260576,2.0,2.3362637362637364,428.0338664158043,-0.003263213099470364,0.1177087582308722,-0.33343045277081795,1364.8351648351647,-1.0,68.71042147200671,2.3399462064934404,
2023-08-10 17:00:07.287000,7.409638554216868,0.3855421686746988,-6.698795180722892,0.4537093807480073,8.09993868792152,-6.175352544451257,2.0,2.3362637362637364,428.0338664158043,0.1048889924829559,0.573742788881767,-0.268632364081347,1368.4981684981683,-1.0,68.71042147200671,2.339911481832031,
2023-08-10 17:00:07.295000,7.397590361445784,0.4096385542168675,-6.698795180722892,0.5125689760882893,8.063151440833844,-6.126302881667688,2.0,2.3362637362637364,428.0338664158043,-0.14055124992716128,0.8773381504574327,0.10022725948371289,1371.4285714285713,-1.0,68.71042147200671,2.339876724742981,
2023-08-10 17:00:07.302000,7.385542168674699,0.39759036144578314,-6.626506024096386,0.4904966278356836,8.050889025137952,-6.10913549969344,2.0,2.3362637362637364,428.0338664158043,0.03076743779499984,0.6753685682652525,0.052327952916496674,1373.6263736263736,-1.0,68.71042147200671,2.339841933208225,
2023-08-10 17:00:07.310000,7.373493975903615,0.4096385542168675,-6.662650602409639,0.510116492949111,8.019006744328632,-6.131207847946045,2.0,2.337728937728938,427.765590723911,0.13600606025289824,0.7198881184080188,-0.05512499271604239,1376.5567765567764,-1.0,68.71042147200671,2.339807105444487,
2023-08-10 17:00:07.318000,7.36144578313253,0.39759036144578314,-6.698795180722892,0.5003065603923973,8.055793991416309,-6.143470263641937,2.0,2.337728937728938,427.765590723911,-0.5064972903676942,0.16782238797272908,-0.102208496008391,1376.5567765567764,-1.0,68.71042147200671,2.3397722404038293,
2023-08-10 17:00:07.325000,7.373493975903615,0.39759036144578314,-6.662650602409639,0.5542611894543225,7.982219497240956,-6.172900061312078,2.0,2.334798534798535,428.30247882020706,-0.5014859273935078,0.17038634112231268,-0.10349047258318282,1370.6959706959706,-1.0,68.71042147200671,2.3397373378525614,
2023-08-10 17:00:07.333000,7.373493975903615,0.3855421686746988,-6.650602409638554,0.5346413243408952,8.065603923973022,-6.131207847946045,2.0,2.3362637362637364,428.0338664158043,-0.07004253831361809,0.12843074412913,-0.11840801818075852,1361.1721611721612,-1.0,68.71042147200671,2.3397023973970645,
2023-08-10 17:00:07.341000,7.385542168674699,0.39759036144578314,-6.674698795180723,0.5297363580625383,8.097486204782342,-6.126302881667688,2.0,2.3362637362637364,428.0338664158043,-0.405337684284132,-0.09626478643435664,-0.20896218169104333,1353.8461538461538,-1.0,68.71042147200671,2.339667418317665,
2023-08-10 17:00:07.348000,7.385542168674699,0.3855421686746988,-6.662650602409639,0.5297363580625383,8.058246474555487,-6.209687308399754,2.0,2.3362637362637364,428.0338664158043,-0.12586679097954637,0.028086941320435394,-0.2955538721519723,1350.18315018315,-1.0,68.71042147200671,2.3396324001345414,
2023-08-10 17:00:07.356000,7.349397590361447,0.3855421686746988,-6.686746987951808,0.4537093807480073,8.02145922746781,-6.116492949110975,2.0,2.3362637362637364,428.0338664158043,-0.18751820989452864,-0.24520715576015376,-0.21420663131519183,1348.7179487179487,-1.0,68.71042147200671,2.339597342644869,
2023-08-10 17:00:07.364000,7.36144578313253,0.3855421686746988,-6.698795180722892,0.522378908645003,8.043531575720417,-6.1361128142244015,2.0,2.3362637362637364,428.0338664158043,-0.27702348347998285,-0.12411864110483035,-0.17912709049589193,1349.4505494505493,-1.0,68.71042147200671,2.339562245924188,
2023-08-10 17:00:07.371000,7.349397590361447,0.3855421686746988,-6.686746987951808,0.47087676272225626,8.060698957694665,-6.182709993868792,2.0,2.3362637362637364,428.0338664158043,-0.016082978847386676,-0.17318338092185798,0.1152613484062703,1353.113553113553,-1.0,68.71042147200671,2.339527110326825,
2023-08-10 17:00:07.379000,7.36144578313253,0.3855421686746988,-6.662650602409639,0.49540159411404044,7.969957081545064,-6.145922746781116,2.0,2.3362637362637364,428.0338664158043,-0.0011654332498101003,-0.6052094866266536,0.19532661266825943,1356.7765567765566,-1.0,68.71042147200671,2.339491936485446,
2023-08-10 17:00:07.387000,7.349397590361447,0.3855421686746988,-6.698795180722892,0.4880441446965052,8.077866339668914,-6.177805027590435,2.0,2.3362637362637364,428.0338664158043,-0.229706893537673,-0.5936716974535282,0.04451955014276544,1360.4395604395604,-1.0,68.71042147200671,2.3394567253097995,
2023-08-10 17:00:07.394000,7.373493975903615,0.3855421686746988,-6.674698795180723,0.5272838749233598,8.058246474555487,-6.1361128142244015,2.0,2.3362637362637364,428.0338664158043,0.12341938115494361,-0.2758580502301728,-0.09078725016024691,1364.102564102564,-1.0,68.71042147200671,2.3394214779847045,
2023-08-10 17:00:07.402000,7.373493975903615,0.3855421686746988,-6.698795180722892,0.510116492949111,8.122011036174126,-6.131207847946045,2.0,2.3362637362637364,428.0338664158043,-0.012703222422935475,-0.2943884389021622,0.015733348872443296,1369.9633699633698,-1.0,68.71042147200671,2.339386195967359,
2023-08-10 17:00:07.410000,7.373493975903615,0.3734939759036145,-6.674698795180723,0.48313917841814835,8.11465358675659,-6.165542611894543,2.0,2.3362637362637364,428.0338664158043,0.20115377891731254,0.2814521298292633,0.4268981994056293,1381.6849816849815,-1.0,68.71042147200671,2.3393508809840364,
2023-08-10 17:00:07.417000,7.385542168674699,0.3734939759036145,-6.674698795180723,0.5444512568976088,8.014101778050275,-6.177805027590435,2.0,2.3362637362637364,428.0338664158043,-0.028669657945341313,0.3820290192879196,0.46628984324922795,1398.5347985347985,896.209716796875,66.94861579323731,2.3393155350262327,
2023-08-10 17:00:07.425000,7.349397590361447,0.3734939759036145,-6.698795180722892,0.4463519313304721,8.08522378908645,-6.148375229920294,2.0,2.334798534798535,428.30247882020706,-0.31723093059844953,0.4074354641337923,0.12551716100460344,1416.8498168498168,-1.0,66.94861579323731,2.339280160346331,
2023-08-10 17:00:07.433000,7.349397590361447,0.3734939759036145,-6.698795180722892,0.48559166155732675,8.031269160024525,-6.1287553648068664,2.0,2.3362637362637364,428.0338664158043,-0.4521881009265203,0.40172484120971913,0.27853854670473766,1437.3626373626373,-1.0,66.94861579323731,2.3392447589601866,
2023-08-10 17:00:07.440000,7.349397590361447,0.3493975903614458,-6.686746987951808,0.45616186388718577,8.02145922746781,-6.1066830165542605,2.0,2.3362637362637364,428.0338664158043,-0.2481207388846799,0.21455626129013475,0.03298176096964007,1456.4102564102564,-1.0,66.94861579323731,2.3392093330625174,
2023-08-10 17:00:07.448000,7.373493975903615,0.3734939759036145,-6.662650602409639,0.4904966278356836,8.092581238503985,-6.116492949110975,2.0,2.3362637362637364,428.0338664158043,-0.10756948895752033,0.1828564768952865,0.14101742322708463,1477.6556776556777,-1.0,66.94861579323731,2.339173886003893,
2023-08-10 17:00:07.456000,7.373493975903615,0.3855421686746988,-6.686746987951808,0.49785407725321884,7.923359901900674,-6.160637645616186,2.0,2.3362637362637364,428.0338664158043,0.09183614008507618,0.27341064040557,-0.23833109958627138,1498.168498168498,-1.0,66.94861579323731,2.339138421301543,
2023-08-10 17:00:07.463000,7.373493975903615,0.39759036144578314,-6.674698795180723,0.49294911097486205,8.075413856529735,-6.160637645616186,2.0,2.334798534798535,428.30247882020706,-0.4120971971330344,0.48516986189615946,-0.037410407318920536,1516.4835164835163,-1.0,66.94861579323731,2.3391029426697636,
2023-08-10 17:00:07.471000,7.373493975903615,0.3855421686746988,-6.698795180722892,0.4512568976088289,8.151440833844267,-6.158185162477007,2.0,2.3362637362637364,428.0338664158043,0.3837771691626356,0.43412388555445414,-0.06608006526426229,1531.135531135531,-1.0,66.94861579323731,2.339067453945629,
2023-08-10 17:00:07.479000,7.385542168674699,0.39759036144578314,-6.686746987951808,0.49785407725321884,8.070508890251379,-6.1287553648068664,2.0,2.334798534798535,428.30247882020706,0.45475205407610214,0.7520540761027905,-0.3235242701474273,1538.4615384615383,-1.0,66.94861579323731,2.3390319585561645,
2023-08-10 17:00:07.486000,7.409638554216868,0.39759036144578314,-6.686746987951808,0.5321888412017167,8.095033721643164,-6.1361128142244015,2.0,2.334798534798535,428.30247882020706,0.3419381154944355,0.7635918652759158,-0.6857409241885669,1543.5897435897434,-1.0,66.94861579323731,2.338996460529822,
2023-08-10 17:00:07.494000,7.385542168674699,0.3855421686746988,-6.650602409638554,0.5616186388718577,8.026364193746167,-6.138565297363581,2.0,2.334798534798535,428.30247882020706,0.2617563079074638,0.7131286055591165,-0.050113629741856444,1547.2527472527472,-1.0,66.94861579323731,2.338960963857934,
2023-08-10 17:00:07.502000,7.36144578313253,0.39759036144578314,-6.662650602409639,0.5076640098099325,8.11465358675659,-6.131207847946045,2.0,2.334798534798535,428.30247882020706,0.33203193287104527,0.49612493444437894,-0.10628751238272853,1550.18315018315,-1.0,66.94861579323731,2.3389254720289445,
2023-08-10 17:00:07.509000,7.36144578313253,0.4096385542168675,-6.662650602409639,0.49785407725321884,7.989576946658492,-6.084610668301655,2.0,2.334798534798535,428.30247882020706,0.40172484120971913,0.3723559233144928,0.15861546529922477,1551.6483516483515,-1.0,66.94861579323731,2.338889988051754,
2023-08-10 17:00:07.517000,7.36144578313253,0.4096385542168675,-6.686746987951808,0.5665236051502146,8.070508890251379,-6.1704475781729,2.0,2.3362637362637364,428.0338664158043,0.15185595245032324,-0.330983042946216,-0.0961482431093758,1549.4505494505493,-1.0,66.94861579323731,2.3388545149685003,
2023-08-10 17:00:07.525000,7.36144578313253,0.42168674698795183,-6.626506024096386,0.551808706315144,8.065603923973022,-6.160637645616186,2.0,2.334798534798535,428.30247882020706,0.21071033156576022,-0.30277955830079806,-0.2407785094108733,1544.3223443223442,-1.0,66.94861579323731,2.3388190567552454,
2023-08-10 17:00:07.532000,7.385542168674699,0.4096385542168675,-6.686746987951808,0.5346413243408952,8.023911710606988,-6.12385039852851,2.0,2.334798534798535,428.30247882020706,-0.2515004953091311,0.01200396247304872,0.23856418623623307,1535.5311355311355,-1.0,66.94861579323731,2.338783617395749,
2023-08-10 17:00:07.540000,7.397590361445784,0.39759036144578314,-6.662650602409639,0.5174739423666462,8.075413856529735,-6.1287553648068664,2.0,2.334798534798535,428.30247882020706,-0.08426082396130792,-0.1503408892255689,0.42748091603053434,1525.2747252747251,-1.0,66.94861579323731,2.3387482003433457,
2023-08-10 17:00:07.548000,7.397590361445784,0.39759036144578314,-6.686746987951808,0.539546290619252,8.08522378908645,-6.160637645616186,2.0,2.334798534798535,428.30247882020706,-0.25581259833343073,0.038808927218693175,0.42736437270555305,1510.6227106227104,-1.0,66.94861579323731,2.3387128089654365,
2023-08-10 17:00:07.555000,7.397590361445784,0.3855421686746988,-6.674698795180723,0.5076640098099325,8.03862660944206,-6.167995095033722,2.0,2.3362637362637364,428.0338664158043,-0.27038051395606305,0.04416992016782207,0.4129130004079016,1495.2380952380952,-1.0,66.94861579323731,2.3386774465298013,
2023-08-10 17:00:07.563000,7.397590361445784,0.3855421686746988,-6.686746987951808,0.5542611894543225,8.060698957694665,-6.150827713059472,2.0,2.334798534798535,428.30247882020706,-0.11759221490589136,0.18670240661966103,0.8871277897558416,1477.6556776556777,-1.0,66.94861579323731,2.3386421166834017,
2023-08-10 17:00:07.570000,7.397590361445784,0.3734939759036145,-6.686746987951808,0.5297363580625383,8.08522378908645,-6.133660331085223,2.0,2.334798534798535,428.30247882020706,-0.2858807761785438,0.4953091311695131,0.9423693257968648,1460.07326007326,-1.0,66.94861579323731,2.3386068230180297,
2023-08-10 17:00:07.578000,7.385542168674699,0.3614457831325301,-6.698795180722892,0.5052115266707541,8.117106069895769,-6.131207847946045,2.0,2.334798534798535,428.30247882020706,-0.1611794184488075,0.5108093933919938,0.5999650370025056,1444.6886446886447,-1.0,66.94861579323731,2.3385715685320023,
2023-08-10 17:00:07.586000,7.373493975903615,0.3734939759036145,-6.686746987951808,0.5469037400367872,8.063151440833844,-6.150827713059472,2.0,2.334798534798535,428.30247882020706,-0.22306392401375144,0.4687372530738303,0.48680146844589467,1433.6996336996335,-1.0,66.94861579323731,2.3385363560750787,
2023-08-10 17:00:07.593000,7.36144578313253,0.39759036144578314,-6.686746987951808,0.5199264255058246,8.058246474555487,-6.12385039852851,2.0,2.334798534798535,428.30247882020706,0.022259775071383155,0.7790921274983983,0.845987996037527,1425.6410256410256,-1.0,66.94861579323731,2.338501188335827,
2023-08-10 17:00:07.601000,7.409638554216868,0.3855421686746988,-6.698795180722892,0.5052115266707541,8.072961373390557,-6.150827713059472,2.0,2.334798534798535,428.30247882020706,0.023425208321193255,0.7696521181749315,0.8392284831886254,1418.3150183150183,-1.0,66.94861579323731,2.3384660678294553,
2023-08-10 17:00:07.609000,7.385542168674699,0.3855421686746988,-6.686746987951808,0.4537093807480073,8.02145922746781,-6.143470263641937,2.0,2.334798534798535,428.30247882020706,0.04032399044344752,0.8537963988112586,0.38680729561214344,1410.989010989011,-1.0,66.94861579323731,2.338430996886223,
2023-08-10 17:00:07.616000,7.36144578313253,0.3734939759036145,-6.662650602409639,0.5027590435315757,8.107296137339056,-6.1287553648068664,2.0,2.334798534798535,428.30247882020706,-0.14229939980187556,1.0147427306101044,0.672454985140726,1402.9304029304028,-1.0,66.94861579323731,2.338395977640541,
2023-08-10 17:00:07.624000,7.373493975903615,0.3614457831325301,-6.662650602409639,0.4880441446965052,8.070508890251379,-6.165542611894543,2.0,2.334798534798535,428.30247882020706,-0.07715168113746301,0.7490239496532836,0.7265310879319387,1394.8717948717947,-1.0,66.94861579323731,2.3383610120209233,
2023-08-10 17:00:07.632000,7.385542168674699,0.3734939759036145,-6.63855421686747,0.5248313917841815,8.026364193746167,-6.163090128755364,2.0,2.334798534798535,428.30247882020706,-0.10418973253306914,0.3472991084435644,0.3370432958452308,1388.278388278388,-1.0,66.94861579323731,2.338326101740851,
2023-08-10 17:00:07.639000,7.373493975903615,0.39759036144578314,-6.662650602409639,0.46106683016554256,8.087676272225629,-6.167995095033722,2.0,2.334798534798535,428.30247882020706,-0.11642678165608127,0.4828389953965393,0.3185129071732414,1386.8131868131868,-1.0,66.94861579323731,2.3382912487485705,
2023-08-10 17:00:07.647000,7.373493975903615,0.3614457831325301,-6.662650602409639,0.5248313917841815,8.026364193746167,-6.111587982832618,2.0,2.334798534798535,428.30247882020706,-0.4197890565817835,-0.1313443272536561,0.10139269273352386,1388.278388278388,-1.0,66.94861579323731,2.3382564551529184,
2023-08-10 17:00:07.655000,7.36144578313253,0.3855421686746988,-6.662650602409639,0.5003065603923973,8.075413856529735,-6.133660331085223,2.0,2.334798534798535,428.30247882020706,-0.20278538546704772,-0.10337392925820155,0.13006235067886474,1389.7435897435896,-1.0,66.94861579323731,2.338221722271395,
2023-08-10 17:00:07.662000,7.385542168674699,0.3855421686746988,-6.674698795180723,0.47087676272225626,8.139178418148374,-6.172900061312078,2.0,2.334798534798535,428.30247882020706,-0.27772274342986963,-0.027504224695531213,0.05162869296661036,1389.7435897435896,-1.0,66.94861579323731,2.338187050696735,
2023-08-10 17:00:07.670000,7.385542168674699,0.3855421686746988,-6.686746987951808,0.5321888412017167,8.036174126302882,-6.133660331085223,2.0,2.334798534798535,428.30247882020706,-0.047083503292348186,-0.18157450032049383,0.03554571411922368,1387.5457875457876,-1.0,66.94861579323731,2.338152440785362,
2023-08-10 17:00:07.678000,7.385542168674699,0.3855421686746988,-6.650602409638554,0.5199264255058246,8.060698957694665,-6.172900061312078,2.0,2.334798534798535,428.30247882020706,-0.03041780782005733,0.33879144571994596,0.049530913116951396,1384.6153846153845,-1.0,66.94861579323731,2.338117893112567,
2023-08-10 17:00:07.685000,7.373493975903615,0.3855421686746988,-6.674698795180723,0.510116492949111,8.033721643163704,-6.116492949110975,2.0,2.334798534798535,428.30247882020706,0.11957345143056906,0.6545073130936429,0.15663422877454708,1380.952380952381,-1.0,66.94861579323731,2.3380834079462796,
2023-08-10 17:00:07.693000,7.373493975903615,0.4096385542168675,-6.662650602409639,0.510116492949111,8.08522378908645,-6.118945432250153,2.0,2.334798534798535,428.30247882020706,-0.12691568090437563,0.20488316531670625,0.24975234543441507,1378.7545787545787,-1.0,66.94861579323731,2.3380489848264836,
2023-08-10 17:00:07.701000,7.373493975903615,0.39759036144578314,-6.650602409638554,0.5935009196811771,8.048436541998774,-6.141017780502759,2.0,2.334798534798535,428.30247882020706,0.10500553580793673,-0.1020919526834106,0.3745702464891322,1380.2197802197802,-1.0,66.94861579323731,2.3380146230595122,
2023-08-10 17:00:07.708000,7.397590361445784,0.3855421686746988,-6.662650602409639,0.5027590435315757,8.08277130594727,-6.1066830165542605,2.0,2.334798534798535,428.30247882020706,-0.32422353009731364,-0.17889400384592938,0.40510459763417034,1383.150183150183,-1.0,66.94861579323731,2.337980321721436,
2023-08-10 17:00:07.716000,7.385542168674699,0.3855421686746988,-6.650602409638554,0.551808706315144,8.065603923973022,-6.1287553648068664,2.0,2.3333333333333335,428.57142857142856,0.10477244915797505,-0.0417225103432193,-0.17388264087174385,1388.278388278388,-1.0,66.94861579323731,2.33794607966325,
2023-08-10 17:00:07.724000,7.421686746987953,0.3614457831325301,-6.686746987951808,0.46106683016554256,8.136725935009196,-6.1361128142244015,2.0,2.334798534798535,428.30247882020706,-0.1256337043295847,0.306858574675136,0.4414661150282616,1393.4065934065934,-1.0,66.94861579323731,2.3379118954831255,
2023-08-10 17:00:07.731000,7.409638554216868,0.3734939759036145,-6.674698795180723,0.49294911097486205,8.09993868792152,-6.116492949110975,2.0,2.334798534798535,428.30247882020706,-0.09381737660975387,0.05372647281626975,0.4124468271079778,1397.8021978021977,-1.0,66.94861579323731,2.337877767888541,
2023-08-10 17:00:07.739000,7.397590361445784,0.3855421686746988,-6.662650602409639,0.5321888412017167,8.041079092581239,-6.104230533415082,2.0,2.334798534798535,428.30247882020706,-0.1695705378474451,0.09253540003496293,0.6106870229007634,1403.6630036630036,-1.0,66.94861579323731,2.33784369574316,
2023-08-10 17:00:07.747000,7.397590361445784,0.3734939759036145,-6.63855421686747,0.522378908645003,8.092581238503985,-6.118945432250153,2.0,2.334798534798535,428.30247882020706,-0.2146728046151156,0.028553114620360476,0.6094050463259711,1408.7912087912086,-1.0,66.94861579323731,2.3378096776246315,
2023-08-10 17:00:07.754000,7.385542168674699,0.3734939759036145,-6.614457831325302,0.5150214592274678,8.070508890251379,-6.153280196198651,2.0,2.334798534798535,428.30247882020706,-0.1364722335528233,0.10057688945865627,0.5890099644542857,1412.4542124542124,-1.0,66.94861579323731,2.3377757113835855,
2023-08-10 17:00:07.762000,7.385542168674699,0.3614457831325301,-6.63855421686747,0.48068669527896996,8.072961373390557,-6.175352544451257,2.0,2.334798534798535,428.30247882020706,-0.21094341821572188,0.08158032748674347,0.3260882232970105,1413.9194139194137,-1.0,66.94861579323731,2.3377417942289744,
2023-08-10 17:00:07.770000,7.373493975903615,0.3614457831325301,-6.63855421686747,0.46842427958307786,8.075413856529735,-6.0993255671367255,2.0,2.334798534798535,428.30247882020706,-0.026455334770700212,-0.16689004137288066,0.5985665171027333,1413.1868131868132,-1.0,66.94861579323731,2.3377079236935634,
2023-08-10 17:00:07.777000,7.373493975903615,0.3734939759036145,-6.650602409638554,0.44880441446965047,8.00674432863274,-6.150827713059472,2.0,2.334798534798535,428.30247882020706,-0.056523512615815036,-0.3833109958627123,0.39379989511100705,1410.2564102564102,-1.0,66.94861579323731,2.337674097583448,
2023-08-10 17:00:07.785000,7.373493975903615,0.3614457831325301,-6.63855421686747,0.539546290619252,8.080318822808092,-6.138565297363581,2.0,2.3333333333333335,428.57142857142856,0.06631315191422439,-0.10955072548219803,0.190548336344036,1408.7912087912086,-1.0,66.94861579323731,2.3376403130503025,
2023-08-10 17:00:07.793000,7.373493975903615,0.3493975903614458,-6.650602409638554,0.4782342121397915,7.984671980380134,-6.143470263641937,2.0,2.3333333333333335,428.57142857142856,-0.3158324106986778,-0.2019695821921801,0.4042887943593032,1410.989010989011,-1.0,66.94861579323731,2.337606566647705,
2023-08-10 17:00:07.800000,7.385542168674699,0.3614457831325301,-6.662650602409639,0.48313917841814835,7.960147148988351,-6.172900061312078,2.0,2.3333333333333335,428.57142857142856,-0.20465007866674456,-0.3207272303478816,0.08123069751179966,1410.989010989011,-1.0,66.94861579323731,2.337572854704911,
2023-08-10 17:00:07.808000,7.373493975903615,0.3734939759036145,-6.650602409638554,0.5272838749233598,8.0680564071122,-6.138565297363581,2.0,2.3333333333333335,428.57142857142856,-0.21712021443971838,-0.5450731309364257,-0.20884563836606293,1410.989010989011,-1.0,66.94861579323731,2.337539173312909,
2023-08-10 17:00:07.816000,7.373493975903615,0.3855421686746988,-6.674698795180723,0.48313917841814835,8.09993868792152,-6.126302881667688,2.0,2.3333333333333335,428.57142857142856,0.07505390128780448,-0.43202610570479566,-0.23565060311170738,1413.1868131868132,-1.0,66.94861579323731,2.337505518345495,
2023-08-10 17:00:07.823000,7.385542168674699,0.3855421686746988,-6.650602409638554,0.522378908645003,8.065603923973022,-6.0993255671367255,2.0,2.3333333333333335,428.57142857142856,0.09090379348522774,-0.28937707592797585,-0.24812073888468075,1414.6520146520145,-1.0,66.94861579323731,2.3374718854805265,
2023-08-10 17:00:07.831000,7.397590361445784,0.42168674698795183,-6.710843373493976,0.5003065603923973,8.109748620478234,-6.111587982832618,2.0,2.3333333333333335,428.57142857142856,0.12155468795524675,0.0037293863993937094,-0.1553522521997553,1412.4542124542124,-1.0,66.94861579323731,2.3374382702212815,
2023-08-10 17:00:07.839000,7.397590361445784,0.3855421686746988,-6.674698795180723,0.5297363580625383,8.050889025137952,-6.121397915389331,2.0,2.3333333333333335,428.57142857142856,0.09102033681020859,0.3862245789872384,0.3667618437154005,1411.7216117216117,-1.0,66.94861579323731,2.3374046679178884,
2023-08-10 17:00:07.846000,7.397590361445784,0.3734939759036145,-6.686746987951808,0.4904966278356836,8.102391171060699,-6.148375229920294,2.0,2.3333333333333335,428.57142857142856,0.33424625604568464,0.07855020103723478,0.24229357263562679,1413.1868131868132,-1.0,66.94861579323731,2.337371073788737,
2023-08-10 17:00:07.854000,7.373493975903615,0.3855421686746988,-6.650602409638554,0.522378908645003,7.982219497240956,-6.131207847946045,2.0,2.3333333333333335,428.57142857142856,0.024590641571003356,0.03333139094458345,0.009440009323465543,1416.117216117216,-1.0,66.94861579323731,2.337337482941879,
2023-08-10 17:00:07.862000,7.36144578313253,0.39759036144578314,-6.662650602409639,0.5248313917841815,8.016554261189453,-6.155732679337829,2.0,2.3333333333333335,428.57142857142856,0.11491171843132691,0.0643319153895467,-0.0059437095740335075,1416.8498168498168,-1.0,66.94861579323731,2.3373038903963,
2023-08-10 17:00:07.869000,7.385542168674699,0.4096385542168675,-6.662650602409639,0.48313917841814835,8.102391171060699,-6.10913549969344,2.0,2.334798534798535,428.30247882020706,0.020628168521647974,-0.45568440067595056,-0.03636151739409171,1416.117216117216,-1.0,66.94861579323731,2.3372702911030765,
2023-08-10 17:00:07.877000,7.373493975903615,0.3855421686746988,-6.662650602409639,0.5591661557326794,8.043531575720417,-6.153280196198651,2.0,2.334798534798535,428.30247882020706,0.01876347532195112,-0.4517219276265952,-0.03869238389371234,1413.9194139194137,-1.0,66.94861579323731,2.3372366804590134,
2023-08-10 17:00:07.885000,7.397590361445784,0.3734939759036145,-6.674698795180723,0.5272838749233598,8.048436541998774,-6.131207847946045,2.0,2.3333333333333335,428.57142857142856,-0.08973836023541765,-0.3561564011421253,-0.054309189441175236,1411.7216117216117,-1.0,66.94861579323731,2.3372030543995854,
2023-08-10 17:00:07.892000,7.397590361445784,0.3855421686746988,-6.650602409638554,0.48068669527896996,8.045984058859595,-6.148375229920294,2.0,2.3333333333333335,428.57142857142856,0.1557018821746978,-0.16945399452246426,0.10990035545714141,1405.8608058608058,-1.0,66.94861579323731,2.3371694084744585,
2023-08-10 17:00:07.900000,7.385542168674699,0.39759036144578314,-6.662650602409639,0.5125689760882893,8.063151440833844,-6.096873083997547,2.0,2.3333333333333335,428.57142857142856,0.09544898315948905,-0.2449740691101921,0.02843657129537877,1398.5347985347985,-1.0,66.94861579323731,2.337135737801676,
2023-08-10 17:00:07.908000,7.397590361445784,0.39759036144578314,-6.662650602409639,0.49540159411404044,8.090128755364807,-6.1287553648068664,2.0,2.3333333333333335,428.57142857142856,-0.21082687489074106,-0.368160363615174,0.024357554921041684,1390.4761904761904,-1.0,66.94861579323731,2.337102037546608,
2023-08-10 17:00:07.915000,7.433734939759036,0.4096385542168675,-6.674698795180723,0.48313917841814835,8.03862660944206,-6.1066830165542605,2.0,2.3333333333333335,428.57142857142856,0.15884855194918732,0.01200396247304872,0.1121146786317812,1382.4175824175823,-1.0,66.94861579323731,2.3370683029426083,
2023-08-10 17:00:07.923000,7.421686746987953,0.4096385542168675,-6.650602409638554,0.5150214592274678,8.08522378908645,-6.104230533415082,2.0,2.3333333333333335,428.57142857142856,0.2063982285414606,0.2971854787017075,0.07423809801293602,1375.091575091575,-1.0,66.94861579323731,2.3370345293112162,
2023-08-10 17:00:07.931000,7.421686746987953,0.3855421686746988,-6.63855421686747,0.5248313917841815,8.119558553034947,-6.114040465971796,2.0,2.334798534798535,428.30247882020706,0.05384301614125059,0.16689004137288066,0.522813355865043,1369.230769230769,-1.0,66.94861579323731,2.3370007120818657,
2023-08-10 17:00:07.938000,7.409638554216868,0.39759036144578314,-6.650602409638554,0.5321888412017167,8.031269160024525,-6.143470263641937,2.0,2.3333333333333335,428.57142857142856,0.4039391643843602,0.2047666219917254,0.10034380280869372,1362.6373626373625,-1.0,66.94861579323731,2.33696684730375,
2023-08-10 17:00:07.946000,7.385542168674699,0.3855421686746988,-6.63855421686747,0.551808706315144,8.087676272225629,-6.096873083997547,2.0,2.3333333333333335,428.57142857142856,0.15686731542450963,-0.5661674727579971,0.03088398111998111,1358.974358974359,-1.0,66.94861579323731,2.3369329317018357,
2023-08-10 17:00:07.953000,7.385542168674699,0.39759036144578314,-6.63855421686747,0.4414469650521152,8.119558553034947,-6.145922746781116,2.0,2.3333333333333335,428.57142857142856,0.09696404638424339,-0.2949711555270664,0.3286521764465941,1356.0439560439559,-1.0,66.94861579323731,2.3368989616452933,
2023-08-10 17:00:07.961000,7.36144578313253,0.3734939759036145,-6.650602409638554,0.5542611894543225,8.072961373390557,-6.150827713059472,2.0,2.3333333333333335,428.57142857142856,-0.02540644484587095,-0.6210593788240786,0.6087057863760852,1351.6483516483515,-1.0,66.94861579323731,2.336864933202296,
2023-08-10 17:00:07.969000,7.397590361445784,0.3734939759036145,-6.63855421686747,0.5174739423666462,8.048436541998774,-6.111587982832618,2.0,2.3333333333333335,428.57142857142856,-0.23786492628634717,-1.0522696812540067,0.4437969815278831,1349.4505494505493,-1.0,66.94861579323731,2.3368308426494235,
2023-08-10 17:00:07.976000,7.397590361445784,0.3855421686746988,-6.662650602409639,0.5076640098099325,8.095033721643164,-6.104230533415082,2.0,2.3333333333333335,428.57142857142856,-0.11502826175630776,-0.8380630499388144,0.3576714643668788,1348.7179487179487,-1.0,66.94861579323731,2.3367966864877054,
2023-08-10 17:00:07.984000,7.397590361445784,0.3734939759036145,-6.662650602409639,0.4659717964438994,8.050889025137952,-6.138565297363581,2.0,2.3333333333333335,428.57142857142856,0.054891906066079854,-0.5314375619136418,0.3196783404230523,1348.7179487179487,-1.0,66.94861579323731,2.336762461457977,
2023-08-10 17:00:07.992000,7.397590361445784,0.3734939759036145,-6.650602409638554,0.5199264255058246,8.050889025137952,-6.094420600858369,2.0,2.3333333333333335,428.57142857142856,-0.0813472408367818,-0.5620884563836608,0.023425208321193255,1350.18315018315,-1.0,66.94861579323731,2.3367281645555105,
2023-08-10 17:00:07.999000,7.385542168674699,0.3734939759036145,-6.662650602409639,0.522378908645003,8.087676272225629,-6.153280196198651,2.0,2.3333333333333335,428.57142857142856,-0.40067595128488986,-0.4220033797564246,0.6620826292174116,1352.3809523809523,-1.0,66.94861579323731,2.3366937930439136,
2023-08-10 17:00:08.007000,7.421686746987953,0.3855421686746988,-6.686746987951808,0.49540159411404044,8.0680564071122,-6.177805027590435,2.0,2.3333333333333335,428.57142857142856,-0.4119806538080536,-0.3579045510168413,0.3655964104655904,1355.3113553113553,-1.0,66.94861579323731,2.336659344468304,
2023-08-10 17:00:08.015000,7.373493975903615,0.3614457831325301,-6.662650602409639,0.539546290619252,8.02145922746781,-6.158185162477007,2.0,2.3333333333333335,428.57142857142856,-0.22492861721344828,-0.2907755958277493,0.11467863178136438,1358.2417582417581,-1.0,66.94861579323731,2.3366248166677384,
2023-08-10 17:00:08.022000,7.373493975903615,0.3734939759036145,-6.674698795180723,0.463519313304721,8.033721643163704,-6.182709993868792,2.0,2.3333333333333335,428.57142857142856,-0.4372705553289437,0.12621642095449062,-0.17633005069634664,1360.4395604395604,-1.0,66.94861579323731,2.336590208244756,
2023-08-10 17:00:08.030000,7.36144578313253,0.3614457831325301,-6.662650602409639,0.4880441446965052,8.041079092581239,-6.114040465971796,2.0,2.3333333333333335,428.57142857142856,-0.2832002797039794,-0.024241011596060846,-0.12913000407901631,1361.904761904762,-1.0,66.94861579323731,2.3365555180511968,
2023-08-10 17:00:08.038000,7.397590361445784,0.3493975903614458,-6.674698795180723,0.510116492949111,8.00674432863274,-6.148375229920294,2.0,2.3333333333333335,428.57142857142856,-0.17574733407144158,0.23774838296136636,-0.2840160829788474,1364.102564102564,-1.0,66.94861579323731,2.3365207452351116,
2023-08-10 17:00:08.045000,7.337349397590362,0.3855421686746988,-6.686746987951808,0.48313917841814835,8.014101778050275,-6.143470263641937,2.0,2.3333333333333335,428.57142857142856,-0.2200337975642445,0.604393683351786,-0.43598857875415187,1367.032967032967,-1.0,66.94861579323731,2.3364858896749716,
2023-08-10 17:00:08.053000,7.36144578313253,0.3734939759036145,-6.686746987951808,0.48559166155732675,8.075413856529735,-6.121397915389331,2.0,2.3333333333333335,428.57142857142856,-0.5230464425150042,1.0587961074529457,-0.4957753044694364,1368.4981684981683,-1.0,66.94861579323731,2.3364509510414275,
2023-08-10 17:00:08.061000,7.385542168674699,0.3855421686746988,-6.650602409638554,0.510116492949111,8.05334150827713,-6.104230533415082,2.0,2.3333333333333335,428.57142857142856,-0.09090379348522774,1.4333663539420778,-0.26501952100693416,1369.9633699633698,-1.0,66.94861579323731,2.336415929333374,
2023-08-10 17:00:08.068000,7.385542168674699,0.39759036144578314,-6.63855421686747,0.4782342121397915,7.979767014101777,-6.1066830165542605,2.0,2.3333333333333335,428.57142857142856,0.2453236990851346,1.1786026455334764,-0.5405279412621644,1370.6959706959706,-1.0,66.94861579323731,2.3363808248507425,
2023-08-10 17:00:08.076000,7.385542168674699,0.3855421686746988,-6.626506024096386,0.5567136725935009,8.05334150827713,-6.148375229920294,2.0,2.3333333333333335,428.57142857142856,0.061068702290076333,0.9082221315774134,-0.11281393858166752,1372.8937728937728,-1.0,66.94861579323731,2.3363456377779257,
2023-08-10 17:00:08.084000,7.397590361445784,0.39759036144578314,-6.626506024096386,0.463519313304721,8.102391171060699,-6.145922746781116,2.0,2.3333333333333335,428.57142857142856,0.26082396130761537,0.7490239496532836,0.17539770409649777,1371.4285714285713,-1.0,66.94861579323731,2.336310368679653,
2023-08-10 17:00:08.091000,7.397590361445784,0.39759036144578314,-6.650602409638554,0.4782342121397915,8.090128755364807,-6.0993255671367255,2.0,2.331868131868132,428.84071630537227,0.47398170269797835,0.5294563253889641,-0.027853854670473722,1367.7655677655678,-1.0,66.94861579323731,2.3362750185035552,
2023-08-10 17:00:08.099000,7.385542168674699,0.4096385542168675,-6.614457831325302,0.4782342121397915,8.033721643163704,-6.10913549969344,2.0,2.3333333333333335,428.57142857142856,0.18169104364547464,0.22236466406386643,0.15663422877454708,1364.102564102564,-1.0,66.94861579323731,2.336239588547303,
2023-08-10 17:00:08.107000,7.397590361445784,0.39759036144578314,-6.614457831325302,0.5076640098099325,8.092581238503985,-6.116492949110975,2.0,2.3333333333333335,428.57142857142856,-0.15325447235009676,-0.14323174640172398,0.003612843074412873,1361.1721611721612,-1.0,66.94861579323731,2.3362040808131743,
2023-08-10 17:00:08.114000,7.397590361445784,0.3734939759036145,-6.63855421686747,0.539546290619252,8.12936848559166,-6.072348252605763,2.0,2.3333333333333335,428.57142857142856,0.1695705378474451,-0.2793543499796048,-0.22434590058854367,1360.4395604395604,-1.0,66.94861579323731,2.33616849804497,
2023-08-10 17:00:08.122000,7.385542168674699,0.4096385542168675,-6.650602409638554,0.4414469650521152,8.122011036174126,-6.0919681177191904,2.0,2.3333333333333335,428.57142857142856,0.2288910902628054,-0.7795583007983217,0.11607715168113746,1358.2417582417581,-1.0,66.94861579323731,2.336132843273429,
2023-08-10 17:00:08.130000,7.385542168674699,0.3734939759036145,-6.63855421686747,0.5150214592274678,8.048436541998774,-6.118945432250153,2.0,2.3333333333333335,428.57142857142856,-0.01619952217236751,-0.6795641279645713,-0.25045160538430183,1354.5787545787546,-1.0,66.94861579323731,2.3360971193605224,
2023-08-10 17:00:08.137000,7.397590361445784,0.4096385542168675,-6.63855421686747,0.49540159411404044,8.09993868792152,-6.0698957694665845,2.0,2.3333333333333335,428.57142857142856,0.349863061593148,-0.8701124643086069,-0.18658586329467977,1348.7179487179487,-1.0,66.94861579323731,2.336061329525662,
2023-08-10 17:00:08.145000,7.409638554216868,0.3855421686746988,-6.63855421686747,0.5199264255058246,8.134273451870017,-6.0919681177191904,2.0,2.3333333333333335,428.57142857142856,0.3333139094458362,-1.044461278480275,0.48750072839578096,1341.3919413919414,-1.0,66.94861579323731,2.3360254777668805,
2023-08-10 17:00:08.153000,7.421686746987953,0.3855421686746988,-6.662650602409639,0.48313917841814835,8.112201103617412,-6.126302881667688,2.0,2.3333333333333335,428.57142857142856,0.3306334129712718,-1.0311753394324337,0.48633529514597046,1336.9963369963368,-1.0,66.94861579323731,2.335989568367863,
2023-08-10 17:00:08.160000,7.445783132530121,0.3855421686746988,-6.63855421686747,0.4782342121397915,8.092581238503985,-6.18516247700797,2.0,2.3333333333333335,428.57142857142856,0.187984383194452,-0.9131169512266188,0.19369500611852425,1334.7985347985348,-1.0,66.94861579323731,2.3359536058967327,
2023-08-10 17:00:08.168000,7.421686746987953,0.3734939759036145,-6.63855421686747,0.4904966278356836,8.126916002452482,-6.150827713059472,2.0,2.3333333333333335,428.57142857142856,0.17271720762193288,-0.7216362682827349,0.08740749373579658,1338.4615384615383,-1.0,66.94861579323731,2.335917595203926,
2023-08-10 17:00:08.176000,7.409638554216868,0.3855421686746988,-6.662650602409639,0.5052115266707541,8.060698957694665,-6.1066830165542605,2.0,2.3333333333333335,428.57142857142856,-0.14882582600081629,-0.9280344968241937,0.3927510051861782,1343.5897435897434,-1.0,66.94861579323731,2.335881541419252,
2023-08-10 17:00:08.183000,7.397590361445784,0.3734939759036145,-6.626506024096386,0.47087676272225626,7.972409564684242,-6.133660331085223,2.0,2.3333333333333335,428.57142857142856,0.037293863993940565,-0.7071848959850816,0.6652292989919002,1345.7875457875457,-1.0,66.94861579323731,2.3358454499481525,
2023-08-10 17:00:08.191000,7.373493975903615,0.3734939759036145,-6.662650602409639,0.48068669527896996,8.092581238503985,-6.167995095033722,2.0,2.3333333333333335,428.57142857142856,-0.22084960083911206,-0.6848085775887194,0.5521822737602702,1347.985347985348,-1.0,66.94861579323731,2.335809326467241,
2023-08-10 17:00:08.199000,7.373493975903615,0.3614457831325301,-6.674698795180723,0.4438994481912937,8.058246474555487,-6.111587982832618,2.0,2.3333333333333335,428.57142857142856,-0.24940271545947254,-0.7679039683002155,0.1984732824427481,1348.7179487179487,-1.0,66.94861579323731,2.33577317691918,
2023-08-10 17:00:08.206000,7.36144578313253,0.3734939759036145,-6.686746987951808,0.48068669527896996,8.014101778050275,-6.167995095033722,2.0,2.3333333333333335,428.57142857142856,-0.307557834625021,-0.639123594196143,-0.0010488899248296977,1350.9157509157508,-1.0,66.94861579323731,2.335737007506922,
2023-08-10 17:00:08.214000,7.36144578313253,0.3855421686746988,-6.674698795180723,0.5199264255058246,8.05334150827713,-6.194972409564684,2.0,2.3333333333333335,428.57142857142856,-0.029368917895228067,-0.14334828972670657,0.05873783579045483,1352.3809523809523,-1.0,66.94861579323731,2.335700824687424,
2023-08-10 17:00:08.222000,7.397590361445784,0.3734939759036145,-6.698795180722892,0.5052115266707541,8.009196811771918,-6.143470263641937,2.0,2.3333333333333335,428.57142857142856,-0.21024415826583512,-0.06538080531437596,-0.0937008332847739,1354.5787545787546,-1.0,66.94861579323731,2.33566463516484,
2023-08-10 17:00:08.229000,7.36144578313253,0.3855421686746988,-6.686746987951808,0.48313917841814835,8.148988350705089,-6.101778050275904,2.0,2.3333333333333335,428.57142857142856,-0.008624206048599255,0.22504516053843088,-0.26163976458248384,1352.3809523809523,-1.0,66.94861579323731,2.335628445883287,
2023-08-10 17:00:08.237000,7.349397590361447,0.3855421686746988,-6.63855421686747,0.5027590435315757,8.004291845493562,-6.1066830165542605,2.0,2.3333333333333335,428.57142857142856,-0.099527999533827,0.11747567158091053,-0.04685041664238695,1349.4505494505493,-1.0,66.94861579323731,2.3355922640192213,
2023-08-10 17:00:08.245000,7.36144578313253,0.3734939759036145,-6.662650602409639,0.5616186388718577,8.065603923973022,-6.096873083997547,2.0,2.331868131868132,428.84071630537227,-0.1446302663014975,-0.06608006526426272,0.07377192471301224,1347.2527472527472,-1.0,66.94861579323731,2.3355560969734874,
2023-08-10 17:00:08.252000,7.36144578313253,0.3855421686746988,-6.650602409638554,0.43654199877375843,8.00674432863274,-6.087063151440834,2.0,2.331868131868132,428.84071630537227,0.07353883806305013,-0.08227958743663023,0.06980945166365599,1350.18315018315,-1.0,66.94861579323731,2.3355199518704257,
2023-08-10 17:00:08.260000,7.385542168674699,0.3734939759036145,-6.650602409638554,0.4757817290006131,8.080318822808092,-6.155732679337829,2.0,2.3333333333333335,428.57142857142856,0.027620768020512047,-0.16129596177379008,0.3534759046675604,1357.5091575091574,-1.0,66.94861579323731,2.335483835477223,
2023-08-10 17:00:08.268000,7.385542168674699,0.3614457831325301,-6.674698795180723,0.5150214592274678,8.117106069895769,-6.101778050275904,2.0,2.3333333333333335,428.57142857142856,0.3034788182506848,0.15861546529922566,0.42340189965619723,1367.7655677655678,-1.0,66.94861579323731,2.3354477555981368,
2023-08-10 17:00:08.275000,7.409638554216868,0.3734939759036145,-6.662650602409639,0.4904966278356836,8.031269160024525,-6.057633353770693,2.0,2.3333333333333335,428.57142857142856,0.2259775071382793,0.552648447060194,0.40137521123477665,1380.952380952381,-1.0,66.94861579323731,2.3354117206066123,
2023-08-10 17:00:08.283000,7.397590361445784,0.3734939759036145,-6.686746987951808,0.5321888412017167,8.048436541998774,-6.150827713059472,2.0,2.331868131868132,428.84071630537227,0.08892255696055006,0.8229124176912762,0.3946156983858751,1396.3369963369962,942.169189453125,63.68282965698183,2.3353757385562512,
2023-08-10 17:00:08.291000,7.385542168674699,0.3734939759036145,-6.662650602409639,0.463519313304721,8.033721643163704,-6.116492949110975,2.0,2.331868131868132,428.84071630537227,-0.033447934269564286,0.6022959035021275,0.44880834450206863,1419.047619047619,-1.0,63.68282965698183,2.335339817170134,
2023-08-10 17:00:08.298000,7.397590361445784,0.3493975903614458,-6.662650602409639,0.5297363580625383,8.072961373390557,-6.121397915389331,2.0,2.3333333333333335,428.57142857142856,-0.10826874890740709,0.6158149291999305,0.15185595245032324,1443.956043956044,-1.0,63.68282965698183,2.3353039637580104,
2023-08-10 17:00:08.306000,7.385542168674699,0.3493975903614458,-6.63855421686747,0.48068669527896996,8.08277130594727,-6.1066830165542605,2.0,2.3333333333333335,428.57142857142856,-0.32177612027271085,0.4025406444845867,-0.06374919876464077,1467.3992673992673,-1.0,63.68282965698183,2.3352681861507896,
2023-08-10 17:00:08.314000,7.409638554216868,0.3493975903614458,-6.662650602409639,0.4659717964438994,8.097486204782342,-6.082158185162477,2.0,2.331868131868132,428.84071630537227,-0.0896218169104368,0.38785618553697354,-0.4765456558475611,1492.3076923076922,-1.0,63.68282965698183,2.335232492756218,
2023-08-10 17:00:08.321000,7.409638554216868,0.3493975903614458,-6.626506024096386,0.5444512568976088,8.122011036174126,-6.153280196198651,2.0,2.331868131868132,428.84071630537227,0.09579861313443329,-0.16071324514888416,-0.4595303304003264,1515.018315018315,-1.0,63.68282965698183,2.335196891597031,
2023-08-10 17:00:08.329000,7.409638554216868,0.3493975903614458,-6.662650602409639,0.45861434702636417,8.048436541998774,-6.116492949110975,2.0,2.331868131868132,428.84071630537227,0.16805547462269074,0.05407610279121226,-0.8399277431385117,1536.263736263736,-1.0,63.68282965698183,2.3351613902277726,
2023-08-10 17:00:08.336000,7.409638554216868,0.3734939759036145,-6.614457831325302,0.4512568976088289,8.109748620478234,-6.1361128142244015,2.0,2.3333333333333335,428.57142857142856,0.3771341996387158,-0.03810966726880642,-0.7899306567216361,1555.311355311355,-1.0,63.68282965698183,2.3351259961764645,
2023-08-10 17:00:08.344000,7.409638554216868,0.3855421686746988,-6.662650602409639,0.49294911097486205,8.048436541998774,-6.079705702023298,2.0,2.331868131868132,428.84071630537227,0.06876056173882716,-0.1604801584989225,-0.45032340772682256,1571.4285714285713,-1.0,63.68282965698183,2.3350907174208726,
2023-08-10 17:00:08.352000,7.409638554216868,0.3734939759036145,-6.662650602409639,0.522378908645003,8.055793991416309,-6.138565297363581,2.0,2.331868131868132,428.84071630537227,0.38610803566225754,0.35755492104189707,-0.6330633412971274,1585.3479853479853,-1.0,63.68282965698183,2.3350555624093507,
2023-08-10 17:00:08.359000,7.385542168674699,0.3855421686746988,-6.650602409638554,0.5272838749233598,8.043531575720417,-6.104230533415082,2.0,2.331868131868132,428.84071630537227,0.6115028261756309,0.2771400268049654,-0.7387681370549499,1595.6043956043954,-1.0,63.68282965698183,2.3350205389946024,
2023-08-10 17:00:08.367000,7.385542168674699,0.3855421686746988,-6.626506024096386,0.4757817290006131,8.11465358675659,-6.111587982832618,2.0,2.331868131868132,428.84071630537227,0.17819474389604262,0.36314900064098765,-0.5682652526076568,1601.4652014652013,-1.0,63.68282965698183,2.3349856549122783,
2023-08-10 17:00:08.375000,7.409638554216868,0.39759036144578314,-6.650602409638554,0.48068669527896996,8.075413856529735,-6.0404659717964435,2.0,2.331868131868132,428.84071630537227,0.4039391643843602,-0.008624206048599255,-0.41407843365771213,1599.2673992673992,-1.0,63.68282965698183,2.334950918189749,
2023-08-10 17:00:08.382000,7.385542168674699,0.3855421686746988,-6.650602409638554,0.4904966278356836,8.05334150827713,-6.138565297363581,2.0,2.331868131868132,428.84071630537227,0.21770293106462255,-0.3321484761960261,-0.36571295379057167,1593.4065934065934,-1.0,63.68282965698183,2.334916336183307,
2023-08-10 17:00:08.390000,7.36144578313253,0.3855421686746988,-6.63855421686747,0.46106683016554256,8.166155732679337,-6.116492949110975,2.0,2.3333333333333335,428.57142857142856,0.3535924479925417,-0.6259541984732824,-0.16444263154827787,1583.150183150183,-1.0,63.68282965698183,2.3348819156326672,
2023-08-10 17:00:08.398000,7.397590361445784,0.39759036144578314,-6.602409638554217,0.5665236051502146,8.055793991416309,-6.10913549969344,2.0,2.331868131868132,428.84071630537227,0.08973836023541765,-0.6426198939455751,-0.042188683643144376,1567.032967032967,-1.0,63.68282965698183,2.334847663628842,
2023-08-10 17:00:08.405000,7.385542168674699,0.39759036144578314,-6.626506024096386,0.5052115266707541,8.08277130594727,-6.084610668301655,2.0,2.331868131868132,428.84071630537227,-0.1389196433774261,-0.5345842316881296,0.1086183788823496,1549.4505494505493,-1.0,63.68282965698183,2.33481358763437,
2023-08-10 17:00:08.413000,7.397590361445784,0.4096385542168675,-6.650602409638554,0.48068669527896996,8.060698957694665,-6.121397915389331,2.0,2.331868131868132,428.84071630537227,-0.3363440358953449,-0.5954198473282443,0.13693840685274752,1529.6703296703295,-1.0,63.68282965698183,2.3347796948747925,
2023-08-10 17:00:08.421000,7.397590361445784,0.4096385542168675,-6.662650602409639,0.5027590435315757,8.109748620478234,-6.114040465971796,2.0,2.3304029304029306,429.110342659541,-0.484820231921217,-0.6513606433191533,0.4735155293980537,1507.6923076923076,-1.0,63.68282965698183,2.3347459922924525,
2023-08-10 17:00:08.428000,7.433734939759036,0.39759036144578314,-6.650602409638554,0.49294911097486205,8.09993868792152,-6.114040465971796,2.0,2.331868131868132,428.84071630537227,-0.4812073888468041,-0.6449507604451952,0.47200046617329977,1484.9816849816848,-1.0,63.68282965698183,2.3347124860422745,
2023-08-10 17:00:08.436000,7.409638554216868,0.3855421686746988,-6.662650602409639,0.5321888412017167,8.055793991416309,-6.104230533415082,2.0,2.331868131868132,428.84071630537227,-0.22026688421420615,-0.4398345084785273,0.6358603810966726,1463.7362637362637,-1.0,63.68282965698183,2.3346791819006403,
2023-08-10 17:00:08.444000,7.397590361445784,0.3734939759036145,-6.63855421686747,0.5959534028203556,8.109748620478234,-6.114040465971796,2.0,2.331868131868132,428.84071630537227,-0.46617329992424666,0.008041489423693338,0.7843365771225451,1446.153846153846,-1.0,63.68282965698183,2.3346460857782665,
2023-08-10 17:00:08.451000,7.373493975903615,0.3855421686746988,-6.650602409638554,0.49294911097486205,8.080318822808092,-6.118945432250153,2.0,2.331868131868132,428.84071630537227,-0.22015034088922533,-0.006876056173883237,0.6091719596760095,1433.6996336996335,-1.0,63.68282965698183,2.3346132032502123,
2023-08-10 17:00:08.459000,7.397590361445784,0.3734939759036145,-6.63855421686747,0.5174739423666462,8.019006744328632,-6.060085836909871,2.0,2.331868131868132,428.84071630537227,-0.09708058970922423,-0.35778800769185876,0.665112755666919,1426.3736263736262,-1.0,63.68282965698183,2.334580539543945,
2023-08-10 17:00:08.467000,7.373493975903615,0.3855421686746988,-6.63855421686747,0.5469037400367872,8.031269160024525,-6.160637645616186,2.0,2.331868131868132,428.84071630537227,-0.06503117533943172,-0.17096905774721688,0.6566050929433018,1421.9780219780218,-1.0,63.68282965698183,2.3345480995276935,
2023-08-10 17:00:08.474000,7.385542168674699,0.3734939759036145,-6.674698795180723,0.5272838749233598,8.070508890251379,-6.148375229920294,2.0,2.331868131868132,428.84071630537227,0.05454227609113734,-0.289260532602995,0.43587203542917063,1419.047619047619,-1.0,63.68282965698183,2.334515887699216,
2023-08-10 17:00:08.482000,7.397590361445784,0.3734939759036145,-6.662650602409639,0.49540159411404044,8.112201103617412,-6.079705702023298,2.0,2.331868131868132,428.84071630537227,-0.03449682419439355,-0.30009906182623364,0.03333139094458345,1415.3846153846152,-1.0,63.68282965698183,2.3344839081750153,
2023-08-10 17:00:08.490000,7.385542168674699,0.3734939759036145,-6.674698795180723,0.539546290619252,8.119558553034947,-6.111587982832618,2.0,2.331868131868132,428.84071630537227,-0.1222539479051335,-0.36944234018996497,-0.0017481498747160184,1410.989010989011,-1.0,63.68282965698183,2.334452164680175,
2023-08-10 17:00:08.497000,7.36144578313253,0.3734939759036145,-6.63855421686747,0.45616186388718577,8.065603923973022,-6.104230533415082,2.0,2.331868131868132,428.84071630537227,-0.2559291416584115,-0.22434590058854412,-0.23786492628634676,1406.5934065934066,-1.0,63.68282965698183,2.334420660538865,
2023-08-10 17:00:08.505000,7.349397590361447,0.39759036144578314,-6.662650602409639,0.47332924586143466,8.153893316983446,-6.131207847946045,2.0,2.331868131868132,428.84071630537227,0.22154886078899882,-0.27912126332964315,-0.20791329176621406,1401.4652014652013,-1.0,63.68282965698183,2.33438939866563,
2023-08-10 17:00:08.513000,7.409638554216868,0.39759036144578314,-6.674698795180723,0.4463519313304721,8.075413856529735,-6.096873083997547,2.0,2.331868131868132,428.84071630537227,0.11584406503117535,-0.3808635860381095,-0.20919526834100588,1397.069597069597,-1.0,63.68282965698183,2.33435838155758,
2023-08-10 17:00:08.520000,7.409638554216868,0.3855421686746988,-6.662650602409639,0.47087676272225626,8.023911710606988,-6.084610668301655,2.0,2.331868131868132,428.84071630537227,0.04207214031816354,-0.055241536041024095,-0.11689295495600505,1393.4065934065934,-1.0,63.68282965698183,2.3343276112875455,
2023-08-10 17:00:08.528000,7.397590361445784,0.3855421686746988,-6.650602409638554,0.5321888412017167,8.045984058859595,-6.072348252605763,2.0,2.331868131868132,428.84071630537227,-0.20092069226735085,-0.19544315599324114,-0.16467571819824042,1391.9413919413919,-1.0,63.68282965698183,2.3342970894983246,
2023-08-10 17:00:08.536000,7.421686746987953,0.3855421686746988,-6.626506024096386,0.49785407725321884,8.092581238503985,-6.126302881667688,2.0,2.331868131868132,428.84071630537227,-0.0904376201853044,-0.1358895169279174,0.061534875590000544,1391.9413919413919,-1.0,63.68282965698183,2.334266817398089,
2023-08-10 17:00:08.543000,7.409638554216868,0.3614457831325301,-6.662650602409639,0.48559166155732675,8.131820968730839,-6.10913549969344,2.0,2.331868131868132,428.84071630537227,0.19893945574267316,0.12411864110483035,0.21327428471534296,1394.139194139194,-1.0,63.68282965698183,2.3342367957570525,
2023-08-10 17:00:08.551000,7.433734939759036,0.39759036144578314,-6.626506024096386,0.5297363580625383,8.072961373390557,-6.114040465971796,2.0,2.3304029304029306,429.110342659541,-0.0927684866849246,0.2283083736378995,-0.06223413553988687,1397.069597069597,-1.0,63.68282965698183,2.3342070249054783,
2023-08-10 17:00:08.559000,7.397590361445784,0.3855421686746988,-6.614457831325302,0.5321888412017167,8.092581238503985,-6.1704475781729,2.0,2.3304029304029306,429.110342659541,-0.1392692733523686,0.2415943126857409,-0.06083561564011423,1399.2673992673992,-1.0,63.68282965698183,2.334177504698308,
2023-08-10 17:00:08.566000,7.421686746987953,0.3855421686746988,-6.626506024096386,0.4757817290006131,8.09993868792152,-6.104230533415082,2.0,2.3304029304029306,429.110342659541,-0.2771400268049654,0.19381154944350595,0.6122020861255173,1400.7326007326005,-1.0,63.68282965698183,2.334148234376625,
2023-08-10 17:00:08.574000,7.421686746987953,0.3614457831325301,-6.63855421686747,0.4757817290006131,8.11465358675659,-6.072348252605763,2.0,2.331868131868132,428.84071630537227,-0.3669949303653639,0.8803682769069396,0.39822854146028797,1400.7326007326005,-1.0,63.68282965698183,2.33411921207618,
2023-08-10 17:00:08.582000,7.409638554216868,0.3614457831325301,-6.650602409638554,0.4904966278356836,8.107296137339056,-6.0919681177191904,2.0,2.331868131868132,428.84071630537227,-0.6864401841384529,0.7244333080822801,0.17108560107219858,1401.4652014652013,-1.0,63.68282965698183,2.334090435388853,
2023-08-10 17:00:08.589000,7.421686746987953,0.3734939759036145,-6.662650602409639,0.49540159411404044,8.075413856529735,-6.0919681177191904,2.0,2.331868131868132,428.84071630537227,-0.5139560631664816,0.3714235767146444,0.37060777343977636,1402.9304029304028,-1.0,63.68282965698183,2.3340619019251796,
2023-08-10 17:00:08.597000,7.385542168674699,0.3734939759036145,-6.626506024096386,0.46842427958307786,8.107296137339056,-6.072348252605763,2.0,2.331868131868132,428.84071630537227,-0.5111590233669363,0.051395606316647816,0.17085251442223648,1405.128205128205,-1.0,63.68282965698183,2.334033608860895,
2023-08-10 17:00:08.605000,7.373493975903615,0.3734939759036145,-6.650602409638554,0.463519313304721,8.05334150827713,-6.10913549969344,2.0,2.331868131868132,428.84071630537227,-0.12481790105471711,0.04160596701823846,0.005943709574033941,1408.058608058608,-1.0,63.68282965698183,2.3340055529432133,
2023-08-10 17:00:08.612000,7.36144578313253,0.3493975903614458,-6.626506024096386,0.48313917841814835,8.070508890251379,-6.0919681177191904,2.0,2.331868131868132,428.84071630537227,-0.26047433133267284,-0.19707476254297457,-0.12714876755433818,1412.4542124542124,-1.0,63.68282965698183,2.333977730499012,
2023-08-10 17:00:08.620000,7.36144578313253,0.3734939759036145,-6.650602409638554,0.46842427958307786,8.036174126302882,-6.094420600858369,2.0,2.3304029304029306,429.110342659541,0.0019812365246776914,-0.7080006992599492,0.13437445370316392,1416.8498168498168,-1.0,63.68282965698183,2.3339501374450204,
2023-08-10 17:00:08.628000,7.349397590361447,0.3734939759036145,-6.662650602409639,0.48313917841814835,8.070508890251379,-6.101778050275904,2.0,2.3304029304029306,429.110342659541,-0.21222539479051283,-0.9541402016199514,-0.260357788007692,1420.5128205128203,-1.0,63.68282965698183,2.333922768807317,
2023-08-10 17:00:08.635000,7.373493975903615,0.3614457831325301,-6.650602409638554,0.49540159411404044,8.05334150827713,-6.153280196198651,2.0,2.3304029304029306,429.110342659541,-0.2563953149583349,-1.2918827574150697,-0.25464716508361973,1422.7106227106226,-1.0,63.68282965698183,2.333895618663353,
2023-08-10 17:00:08.643000,7.385542168674699,0.3734939759036145,-6.650602409638554,0.47332924586143466,7.989576946658492,-6.150827713059472,2.0,2.3304029304029306,429.110342659541,0.08123069751179923,-1.5231047141774954,-0.2671173008565935,1424.9084249084249,-1.0,63.68282965698183,2.3338686806105033,
2023-08-10 17:00:08.651000,7.385542168674699,0.3614457831325301,-6.650602409638554,0.44880441446965047,8.045984058859595,-6.104230533415082,2.0,2.3304029304029306,429.110342659541,-0.22504516053843088,-1.3391993473573798,-0.2795874366295669,1422.7106227106226,-1.0,63.68282965698183,2.3338419477781853,
2023-08-10 17:00:08.658000,7.409638554216868,0.3855421686746988,-6.662650602409639,0.46842427958307786,8.08522378908645,-6.187614960147148,2.0,2.331868131868132,428.84071630537227,0.14043470660217872,-1.4513140259891613,-0.1256337043295847,1418.3150183150183,-1.0,63.68282965698183,2.333815413299295,
2023-08-10 17:00:08.666000,7.385542168674699,0.3855421686746988,-6.662650602409639,0.4880441446965052,8.033721643163704,-6.163090128755364,2.0,2.3304029304029306,429.110342659541,0.06200104888992476,-1.5011945690810566,0.04265485694306859,1412.4542124542124,-1.0,63.68282965698183,2.3337890702927653,
2023-08-10 17:00:08.674000,7.373493975903615,0.3734939759036145,-6.650602409638554,0.5640711220110362,8.08277130594727,-6.118945432250153,2.0,2.3304029304029306,429.110342659541,0.029368917895228067,-1.763766680263388,0.3159489540236582,1409.5238095238094,-1.0,63.68282965698183,2.3337629110384417,
2023-08-10 17:00:08.681000,7.349397590361447,0.39759036144578314,-6.662650602409639,0.510116492949111,8.050889025137952,-6.172900061312078,2.0,2.331868131868132,428.84071630537227,0.18192413029543805,-2.1017423227084664,0.2816852164792263,1409.5238095238094,-1.0,63.68282965698183,2.3337369269625357,
2023-08-10 17:00:08.689000,7.325301204819278,0.39759036144578314,-6.650602409638554,0.4512568976088289,7.977314530962599,-6.1361128142244015,2.0,2.3304029304029306,429.110342659541,-0.12458481440475544,-1.6239146902861135,0.01876347532195112,1411.7216117216117,-1.0,63.68282965698183,2.3337111096075116,
2023-08-10 17:00:08.696000,7.385542168674699,0.3855421686746988,-6.686746987951808,0.5370938074800735,8.05334150827713,-6.096873083997547,2.0,2.331868131868132,428.84071630537227,0.03041780782005733,-1.8341588485519484,0.20138686556727464,1413.9194139194137,-1.0,63.68282965698183,2.333685450690224,
2023-08-10 17:00:08.704000,7.385542168674699,0.3855421686746988,-6.662650602409639,0.5125689760882893,8.063151440833844,-6.153280196198651,2.0,2.328937728937729,429.3803082730418,0.029718547870170576,-1.8170269797797325,0.20010488899248283,1414.6520146520145,-1.0,63.68282965698183,2.3336599415670998,
2023-08-10 17:00:08.712000,7.373493975903615,0.3734939759036145,-6.662650602409639,0.510116492949111,8.097486204782342,-6.175352544451257,2.0,2.3304029304029306,429.110342659541,0.10710331565759526,-1.710622924072024,0.4592972437503643,1416.8498168498168,-1.0,63.68282965698183,2.3336345728397014,
2023-08-10 17:00:08.719000,7.373493975903615,0.39759036144578314,-6.650602409638554,0.5003065603923973,8.045984058859595,-6.114040465971796,2.0,2.3304029304029306,429.110342659541,0.48598566517102704,-1.513897791503992,0.289260532602995,1419.7802197802198,-1.0,63.68282965698183,2.333609334700867,
2023-08-10 17:00:08.727000,7.397590361445784,0.39759036144578314,-6.674698795180723,0.43408951563458,8.095033721643164,-6.1361128142244015,2.0,2.3304029304029306,429.110342659541,0.33086649962123343,-1.241186411048307,0.6046267700017481,1422.7106227106226,-1.0,63.68282965698183,2.33358421745526,
2023-08-10 17:00:08.735000,7.409638554216868,0.3734939759036145,-6.662650602409639,0.47332924586143466,8.060698957694665,-6.160637645616186,2.0,2.3304029304029306,429.110342659541,0.801118815919818,-1.7006001981236532,0.5863294679797216,1422.7106227106226,-1.0,63.68282965698183,2.333559211092265,
2023-08-10 17:00:08.742000,7.397590361445784,0.3493975903614458,-6.698795180722892,0.510116492949111,8.095033721643164,-6.155732679337829,2.0,2.3304029304029306,429.110342659541,0.5962356506031118,-1.5017772857059608,0.6289843249227902,1420.5128205128203,-1.0,63.68282965698183,2.3335343048593313,
2023-08-10 17:00:08.750000,7.409638554216868,0.3614457831325301,-6.698795180722892,0.45861434702636417,8.048436541998774,-6.143470263641937,2.0,2.3304029304029306,429.110342659541,0.45335353417633034,-0.3574383777169162,1.1918885845813183,1417.5824175824175,-1.0,63.68282965698183,2.333509487818732,
2023-08-10 17:00:08.758000,7.397590361445784,0.3493975903614458,-6.698795180722892,0.49540159411404044,8.09993868792152,-6.141017780502759,2.0,2.3304029304029306,429.110342659541,0.524911135714701,-0.7336402307557836,0.7886486801468447,1414.6520146520145,-1.0,63.68282965698183,2.3334847493006685,
2023-08-10 17:00:08.765000,7.349397590361447,0.3614457831325301,-6.63855421686747,0.49294911097486205,8.026364193746167,-6.12385039852851,2.0,2.3304029304029306,429.110342659541,0.8254763708408598,-0.34298700541926475,0.8921391527300275,1410.2564102564102,-1.0,63.68282965698183,2.333460078443531,
2023-08-10 17:00:08.773000,7.349397590361447,0.3734939759036145,-6.63855421686747,0.42427958307786634,8.08277130594727,-6.138565297363581,2.0,2.3304029304029306,429.110342659541,0.29870054192646184,-0.30650894470019174,0.9622982343686265,1407.3260073260071,-1.0,63.68282965698183,2.3334354637691983,
2023-08-10 17:00:08.781000,7.373493975903615,0.3734939759036145,-6.662650602409639,0.48559166155732675,8.014101778050275,-6.163090128755364,2.0,2.3304029304029306,429.110342659541,-0.05477536274109902,-0.8828156867315424,1.1103082570945753,1404.3956043956043,-1.0,63.68282965698183,2.3334108937414975,
2023-08-10 17:00:08.788000,7.385542168674699,0.3614457831325301,-6.674698795180723,0.46106683016554256,8.028816676885347,-6.133660331085223,2.0,2.3304029304029306,429.110342659541,-0.0393916438435991,-0.4792261523221264,0.7823553405978674,1402.9304029304028,-1.0,63.68282965698183,2.3333863567629307,
2023-08-10 17:00:08.796000,7.397590361445784,0.3373493975903615,-6.710843373493976,0.44880441446965047,8.075413856529735,-6.126302881667688,2.0,2.3304029304029306,429.110342659541,-0.26746693083153694,-0.42771400268049603,0.4095332439834508,1398.5347985347985,-1.0,63.68282965698183,2.3333618412412993,
2023-08-10 17:00:08.804000,7.421686746987953,0.3253012048192771,-6.686746987951808,0.4904966278356836,8.063151440833844,-6.182709993868792,2.0,2.3304029304029306,429.110342659541,-0.29823436862653674,-0.46885379639881114,0.1632771982984669,1391.9413919413919,-1.0,63.68282965698183,2.333337336044984,
2023-08-10 17:00:08.811000,7.373493975903615,0.3493975903614458,-6.686746987951808,0.45616186388718577,8.070508890251379,-6.172900061312078,2.0,2.3304029304029306,429.110342659541,-0.2516170386341119,-0.26630149758172683,0.28285064972903684,1385.3479853479853,-1.0,63.68282965698183,2.3333128295871544,
2023-08-10 17:00:08.819000,7.36144578313253,0.3734939759036145,-6.710843373493976,0.41201716738197425,8.055793991416309,-6.190067443286327,2.0,2.3304029304029306,429.110342659541,-0.0680613017889404,0.13146087057863695,0.21607132451488867,1376.5567765567764,-1.0,63.68282965698183,2.3332883103855004,
2023-08-10 17:00:08.827000,7.36144578313253,0.3493975903614458,-6.698795180722892,0.4880441446965052,8.058246474555487,-6.114040465971796,2.0,2.3304029304029306,429.110342659541,-0.09743021968416674,0.32853563312161327,0.42433424625604543,1368.4981684981683,-1.0,63.68282965698183,2.333263767517751,
2023-08-10 17:00:08.834000,7.373493975903615,0.3614457831325301,-6.662650602409639,0.46842427958307786,8.058246474555487,-6.10913549969344,2.0,2.3304029304029306,429.110342659541,-0.03484645416933779,-0.024474098246024256,0.03542917079424241,1362.6373626373625,-1.0,63.68282965698183,2.333239190163775,
2023-08-10 17:00:08.842000,7.385542168674699,0.3614457831325301,-6.686746987951808,0.48559166155732675,8.03862660944206,-6.234212139791539,2.0,2.3304029304029306,429.110342659541,-0.10990035545714054,0.3297010663714234,-0.1666569547229181,1357.5091575091574,-1.0,63.68282965698183,2.333214567639987,
2023-08-10 17:00:08.850000,7.397590361445784,0.3493975903614458,-6.662650602409639,0.539546290619252,8.05334150827713,-6.165542611894543,2.0,2.3304029304029306,429.110342659541,0.28867781597808906,0.21082687489074106,-0.4090670706835264,1355.3113553113553,-1.0,63.68282965698183,2.333189888975462,
2023-08-10 17:00:08.857000,7.397590361445784,0.3614457831325301,-6.686746987951808,0.48068669527896996,8.050889025137952,-6.145922746781116,2.0,2.3304029304029306,429.110342659541,0.2433424625604569,0.2890274459530333,-0.5131402598916147,1356.0439560439559,-1.0,63.68282965698183,2.333165143012677,
2023-08-10 17:00:08.865000,7.385542168674699,0.3734939759036145,-6.662650602409639,0.49294911097486205,8.043531575720417,-6.167995095033722,2.0,2.3304029304029306,429.110342659541,-0.002447409824602773,0.534234601713187,-0.49600839111939893,1357.5091575091574,-1.0,63.68282965698183,2.3331403198445195,
2023-08-10 17:00:08.873000,7.373493975903615,0.3734939759036145,-6.698795180722892,0.463519313304721,8.063151440833844,-6.150827713059472,2.0,2.3304029304029306,429.110342659541,-0.001398519899773509,0.7014742730610103,-0.47910960899714466,1359.7069597069597,-1.0,63.68282965698183,2.3331154102505396,
2023-08-10 17:00:08.880000,7.373493975903615,0.3855421686746988,-6.674698795180723,0.48068669527896996,8.055793991416309,-6.165542611894543,2.0,2.3304029304029306,429.110342659541,0.18215721694539974,0.6955305634869754,-0.24881999883456662,1359.7069597069597,-1.0,63.68282965698183,2.3330904048159846,
2023-08-10 17:00:08.888000,7.397590361445784,0.3855421686746988,-6.674698795180723,0.48559166155732675,8.092581238503985,-6.145922746781116,2.0,2.3304029304029306,429.110342659541,0.10477244915797505,0.9338616630732477,-0.020278538546704816,1360.4395604395604,-1.0,63.68282965698183,2.333065294455852,
2023-08-10 17:00:08.896000,7.397590361445784,0.3855421686746988,-6.63855421686747,0.5027590435315757,8.058246474555487,-6.1361128142244015,2.0,2.3304029304029306,429.110342659541,-0.3545247945923901,0.5145387797913875,-0.14474680962647876,1361.904761904762,-1.0,63.68282965698183,2.333040070445419,
2023-08-10 17:00:08.903000,7.385542168674699,0.3855421686746988,-6.674698795180723,0.49785407725321884,8.019006744328632,-6.138565297363581,2.0,2.3304029304029306,429.110342659541,-0.15197249577530408,0.6799137579395138,0.4047549676592272,1359.7069597069597,-1.0,63.68282965698183,2.333014724449787,
2023-08-10 17:00:08.911000,7.397590361445784,0.3855421686746988,-6.674698795180723,0.46106683016554256,8.043531575720417,-6.1287553648068664,2.0,2.3304029304029306,429.110342659541,0.0027970397995452823,0.2632713711322181,0.3387914457199466,1358.974358974359,-1.0,63.68282965698183,2.3329892485524386,
2023-08-10 17:00:08.919000,7.385542168674699,0.39759036144578314,-6.650602409638554,0.4438994481912937,8.026364193746167,-6.0698957694665845,2.0,2.3304029304029306,429.110342659541,-0.22760911368801273,0.16945399452246251,0.5175689062408949,1356.0439560439559,-1.0,63.68282965698183,2.3329636352827037,
2023-08-10 17:00:08.926000,7.385542168674699,0.39759036144578314,-6.626506024096386,0.539546290619252,8.016554261189453,-6.175352544451257,2.0,2.3304029304029306,429.110342659541,-0.43820290192879213,0.1250509877046788,0.5277081755142474,1353.8461538461538,-1.0,63.68282965698183,2.3329378776420686,
2023-08-10 17:00:08.934000,7.373493975903615,0.3614457831325301,-6.650602409638554,0.4463519313304721,8.08522378908645,-6.153280196198651,2.0,2.3304029304029306,429.110342659541,-0.4025406444845867,-0.03892547054367401,0.5222306392401377,1348.7179487179487,-1.0,63.68282965698183,2.332911969129288,
2023-08-10 17:00:08.942000,7.373493975903615,0.3493975903614458,-6.63855421686747,0.4757817290006131,8.028816676885347,-6.133660331085223,2.0,2.3304029304029306,429.110342659541,-0.2919410290775594,0.1333255637783338,0.7034555095856886,1344.3223443223442,-1.0,63.68282965698183,2.3328859037642373,
2023-08-10 17:00:08.949000,7.373493975903615,0.3493975903614458,-6.662650602409639,0.49294911097486205,8.070508890251379,-6.133660331085223,2.0,2.3304029304029306,429.110342659541,-0.4390187052036597,-0.12283666453003943,0.40685274750888634,1341.3919413919414,-1.0,63.68282965698183,2.332859676110426,
2023-08-10 17:00:08.957000,7.385542168674699,0.3493975903614458,-6.662650602409639,0.49540159411404044,8.050889025137952,-6.116492949110975,2.0,2.3304029304029306,429.110342659541,-0.15931472524911067,-0.2759745935551536,0.6158149291999299,1342.1245421245421,-1.0,63.68282965698183,2.332833281296156,
2023-08-10 17:00:08.965000,7.385542168674699,0.3493975903614458,-6.63855421686747,0.4414469650521152,8.02145922746781,-6.101778050275904,2.0,2.3304029304029306,429.110342659541,-0.08064798088689504,-0.4716508361983564,0.6270030883981121,1344.3223443223442,-1.0,63.68282965698183,2.3328067154921284,
2023-08-10 17:00:08.972000,7.36144578313253,0.3493975903614458,-6.674698795180723,0.48313917841814835,8.041079092581239,-6.202329858982219,2.0,2.3304029304029306,429.110342659541,-0.17143523104714195,-0.912534234601713,0.48761727172076225,1348.7179487179487,-1.0,63.68282965698183,2.3327799754045797,
2023-08-10 17:00:08.980000,7.373493975903615,0.3734939759036145,-6.63855421686747,0.4414469650521152,8.050889025137952,-6.111587982832618,2.0,2.3304029304029306,429.110342659541,-0.1715517743721228,-0.9105529980770353,0.4855194918711028,1352.3809523809523,-1.0,63.68282965698183,2.3327530578709235,
2023-08-10 17:00:08.988000,7.36144578313253,0.3734939759036145,-6.662650602409639,0.4880441446965052,8.026364193746167,-6.160637645616186,2.0,2.3304029304029306,429.110342659541,-0.03333139094458345,-1.2733523687430803,0.34543441524386664,1353.113553113553,-1.0,63.68282965698183,2.3327259603669708,
2023-08-10 17:00:08.995000,7.349397590361447,0.3614457831325301,-6.674698795180723,0.48559166155732675,8.03862660944206,-6.150827713059472,2.0,2.3304029304029306,429.110342659541,-0.2765573101800595,-1.402016199522172,0.26723384418157436,1353.8461538461538,-1.0,63.68282965698183,2.3326986810199184,
2023-08-10 17:00:09.003000,7.36144578313253,0.3493975903614458,-6.674698795180723,0.48068669527896996,7.999386879215205,-6.199877375843041,2.0,2.3304029304029306,429.110342659541,0.04591807004253809,-1.5756657537439533,0.34007342229473797,1353.8461538461538,-1.0,63.68282965698183,2.332671219077599,
2023-08-10 17:00:09.011000,7.36144578313253,0.3253012048192771,-6.686746987951808,0.46106683016554256,8.031269160024525,-6.182709993868792,2.0,2.328937728937729,429.3803082730418,0.027620768020512047,-1.838470951576248,0.279820523279529,1351.6483516483515,-1.0,63.68282965698183,2.3326435743930958,
2023-08-10 17:00:09.018000,7.373493975903615,0.3493975903614458,-6.698795180722892,0.4880441446965052,8.026364193746167,-6.143470263641937,2.0,2.3304029304029306,429.110342659541,0.08565934386107969,-1.5490938756482724,0.40102558125983306,1351.6483516483515,-1.0,63.68282965698183,2.3326157469769417,
2023-08-10 17:00:09.026000,7.36144578313253,0.3493975903614458,-6.686746987951808,0.4537093807480073,8.109748620478234,-6.1704475781729,2.0,2.3304029304029306,429.110342659541,-0.08437736728628875,-1.4292873375677415,0.3209603169978441,1354.5787545787546,-1.0,63.68282965698183,2.332587737848806,
2023-08-10 17:00:09.034000,7.349397590361447,0.3614457831325301,-6.686746987951808,0.48559166155732675,8.070508890251379,-6.138565297363581,2.0,2.3304029304029306,429.110342659541,-0.23949653283608235,-1.0476079482547644,0.269797797331158,1356.0439560439559,-1.0,63.68282965698183,2.332559549077746,
2023-08-10 17:00:09.041000,7.397590361445784,0.3614457831325301,-6.686746987951808,0.5027590435315757,8.09993868792152,-6.160637645616186,2.0,2.3304029304029306,429.110342659541,-0.31594895402365863,-0.7462269098537382,0.4788765223471828,1356.7765567765566,-1.0,63.68282965698183,2.332531183329835,
2023-08-10 17:00:09.049000,7.385542168674699,0.3493975903614458,-6.686746987951808,0.4414469650521152,8.009196811771918,-6.177805027590435,2.0,2.3304029304029306,429.110342659541,-0.2688654507313087,-0.4450789581026736,0.42561622283083705,1358.2417582417581,-1.0,63.68282965698183,2.332502643871364,
2023-08-10 17:00:09.057000,7.373493975903615,0.3734939759036145,-6.674698795180723,0.4880441446965052,8.016554261189453,-6.1287553648068664,2.0,2.3304029304029306,429.110342659541,-0.4514888409766335,-0.1128139385816684,0.37154012003962433,1360.4395604395604,-1.0,63.68282965698183,2.332473934111926,
2023-08-10 17:00:09.064000,7.373493975903615,0.3373493975903615,-6.674698795180723,0.5469037400367872,8.063151440833844,-6.1287553648068664,2.0,2.3304029304029306,429.110342659541,-0.5587086999592096,-0.1611794184488075,0.83643144338908,1363.3699633699632,-1.0,63.68282965698183,2.332445058128247,
2023-08-10 17:00:09.072000,7.373493975903615,0.3493975903614458,-6.686746987951808,0.48313917841814835,8.043531575720417,-6.133660331085223,2.0,2.3304029304029306,429.110342659541,-0.5397121379872968,-0.1908979663189781,0.6429695239205175,1367.032967032967,-1.0,63.68282965698183,2.3324160210818405,
2023-08-10 17:00:09.079000,7.36144578313253,0.3493975903614458,-6.674698795180723,0.5125689760882893,8.028816676885347,-6.121397915389331,2.0,2.3304029304029306,429.110342659541,-0.4419322883281858,-0.3900705087116147,0.32667093992191576,1369.230769230769,-1.0,63.68282965698183,2.3323868287213725,
2023-08-10 17:00:09.087000,7.36144578313253,0.3493975903614458,-6.698795180722892,0.5125689760882893,8.036174126302882,-6.148375229920294,2.0,2.3304029304029306,429.110342659541,-0.6363265543965977,-1.0781422993998027,0.4434473515529395,1370.6959706959706,-1.0,63.68282965698183,2.3323574873756097,
2023-08-10 17:00:09.095000,7.349397590361447,0.3373493975903615,-6.686746987951808,0.4071122011036174,8.05334150827713,-6.148375229920294,2.0,2.3304029304029306,429.110342659541,-0.7513548161529054,-1.0291941029077558,0.45463551075112196,1365.5677655677655,-1.0,63.68282965698183,2.332328003486483,
2023-08-10 17:00:09.102000,7.36144578313253,0.3493975903614458,-6.674698795180723,0.4757817290006131,8.045984058859595,-6.160637645616186,2.0,2.3304029304029306,429.110342659541,-0.36000233086649985,-1.0126449507604458,0.09777984965911055,1358.974358974359,-1.0,63.68282965698183,2.332298384123194,
2023-08-10 17:00:09.110000,7.373493975903615,0.3493975903614458,-6.686746987951808,0.48068669527896996,8.045984058859595,-6.160637645616186,2.0,2.3304029304029306,429.110342659541,-0.18751820989452864,-0.998426665112756,0.23355282326204754,1353.113553113553,-1.0,63.68282965698183,2.3322686373904404,
