Shimmer_F5D4_Timestamp_FormattedUnix_CAL,Shimmer_F5D4_Accel_LN_X_CAL,Shimmer_F5D4_Accel_LN_Y_CAL,Shimmer_F5D4_Accel_LN_Z_CAL,Shimmer_F5D4_Accel_WR_X_CAL,Shimmer_F5D4_Accel_WR_Y_CAL,Shimmer_F5D4_Accel_WR_Z_CAL,Shimmer_F5D4_GSR_Range_CAL,Shimmer_F5D4_GSR_Skin_Conductance_CAL,Shimmer_F5D4_GSR_Skin_Resistance_CAL,Shimmer_F5D4_Gyro_X_CAL,Shimmer_F5D4_Gyro_Y_CAL,Shimmer_F5D4_Gyro_Z_CAL,Shimmer_F5D4_PPG_A13_CAL,Shimmer_F5D4_PPG_IBI_CAL,Shimmer_F5D4_PPGtoHR_CAL,Shimmer_F5D4_GSR_Skin_Conductance_LPF_CAL,
yyyy/mm/dd hh:mm:ss.000,m/(s^2),m/(s^2),m/(s^2),m/(s^2),m/(s^2),m/(s^2),no_units,uS,kOhms,deg/s,deg/s,deg/s,mV,ms,BPM,uS,
2023-08-11 19:56:41.894000,-8.855421686746988,-0.5180722891566265,-4.132530120481928,-0.39975475168608215,-8.743715511955855,-3.715511955855303,3.0,0.8358308358308358,1196.414342629482,0.191480682943884,-0.5125575432667099,-0.13938581667734987,1337.7289377289376,-1.0,100.42292368985596,0.8384031866321647,
2023-08-11 19:56:41.902000,-8.855421686746988,-0.5180722891566265,-4.120481927710844,-0.43899448191293683,-8.716738197424892,-3.784181483752299,3.0,0.8358308358308358,1196.414342629482,0.29485461220208553,-0.4774780024474104,-0.13728803682769047,1342.1245421245421,-1.0,100.42292368985596,0.8383759898556359,
2023-08-11 19:56:41.910000,-8.843373493975903,-0.5301204819277109,-4.132530120481928,-0.4904966278356836,-8.773145309625995,-3.76701410177805,3.0,0.8358308358308358,1196.414342629482,0.07715168113746301,-0.24439135248528618,-0.28739583940329816,1345.7875457875457,-1.0,100.42292368985596,0.8383487626146764,
2023-08-11 19:56:41.917000,-8.891566265060241,-0.5301204819277109,-4.144578313253012,-0.5076640098099325,-8.73635806253832,-3.808706315144083,3.0,0.8358308358308358,1196.414342629482,0.1499912592506264,-0.3636151739409127,-0.13099469727871316,1346.5201465201465,-1.0,100.42292368985596,0.8383215075363867,
2023-08-11 19:56:41.925000,-8.843373493975903,-0.5421686746987953,-4.1084337349397595,-0.42673206621704474,-8.795217657878602,-3.7204169221336603,3.0,0.8358308358308358,1196.414342629482,0.24147776936076004,-0.16269448167356187,0.023425208321193255,1342.1245421245421,-1.0,100.42292368985596,0.8382942272962993,
2023-08-11 19:56:41.933000,-8.879518072289157,-0.5421686746987953,-4.144578313253012,-0.43654199877375843,-8.738810545677499,-3.7424892703862658,3.0,0.8358308358308358,1196.414342629482,0.011188159198181129,-0.2234135539886957,-0.2519666686090553,1335.5311355311355,-1.0,100.42292368985596,0.8382669247516733,
2023-08-11 19:56:41.940000,-8.879518072289157,-0.5301204819277109,-4.144578313253012,-0.4537093807480073,-8.738810545677499,-3.8234212139791537,3.0,0.8358308358308358,1196.414342629482,0.2546471650836206,-0.22026688421420615,0.05675659926577714,1329.6703296703297,-1.0,100.42292368985596,0.8382396029159377,
2023-08-11 19:56:41.948000,-8.867469879518072,-0.5301204819277109,-4.096385542168675,-0.4316370324954016,-8.76578786020846,-3.6909871244635193,3.0,0.8358308358308358,1196.414342629482,0.1911310529689415,0.08577588718606226,0.2861138628285063,1326.007326007326,-1.0,100.42292368985596,0.8382122648058659,
2023-08-11 19:56:41.956000,-8.855421686746988,-0.5301204819277109,-4.096385542168675,-0.41201716738197425,-8.716738197424892,-3.7302268546903736,3.0,0.8353868353868353,1197.0502258836036,0.06619660858924355,-0.09766330633413015,0.10127614940854258,1325.2747252747251,-1.0,100.42292368985596,0.8381849134382363,
2023-08-11 19:56:41.963000,-8.867469879518072,-0.5421686746987953,-4.1084337349397595,-0.49785407725321884,-8.741263028816677,-3.7743715511955855,3.0,0.8353868353868353,1197.0502258836036,0.033447934269564286,-0.20290192879202854,0.041372880368276785,1324.5421245421244,-1.0,100.42292368985596,0.8381575516774413,
2023-08-11 19:56:41.971000,-8.855421686746988,-0.5180722891566265,-4.1084337349397595,-0.43408951563458,-8.782955242182709,-3.747394236664623,3.0,0.8353868353868353,1197.0502258836036,0.24509061243517294,0.12015616805547498,-0.032515587669716295,1326.007326007326,-1.0,100.42292368985596,0.8381301822108079,
2023-08-11 19:56:41.979000,-8.855421686746988,-0.5180722891566265,-4.1084337349397595,-0.42427958307786634,-8.670141017780502,-3.7522992029429796,3.0,0.8353868353868353,1197.0502258836036,0.21036070159081596,0.14835965270089121,-0.09405046325971683,1331.135531135531,-1.0,100.42292368985596,0.8381028076831889,
2023-08-11 19:56:41.986000,-8.855421686746988,-0.5180722891566265,-4.132530120481928,-0.4659717964438994,-8.782955242182709,-3.7498467198038012,3.0,0.8353868353868353,1197.0502258836036,0.34322009206922643,0.054891906066079854,-0.1844880834450208,1339.194139194139,-1.0,100.42292368985596,0.8380754306929966,
2023-08-11 19:56:41.994000,-8.867469879518072,-0.5301204819277109,-4.132530120481928,-0.49294911097486205,-8.753525444512569,-3.7277743715511953,3.0,0.8353868353868353,1197.0502258836036,-0.015150632247538248,0.15908163859914898,-0.1687547345725775,1347.2527472527472,-1.0,100.42292368985596,0.8380480537884807,
2023-08-11 19:56:42.002000,-8.891566265060241,-0.5180722891566265,-4.144578313253012,-0.45616186388718577,-8.743715511955855,-3.8111587982832615,3.0,0.8349428349428349,1197.686785429407,0.07610279121263375,-0.28797855602820405,0.001981236524678125,1351.6483516483515,-1.0,100.42292368985596,0.8380206794642866,
2023-08-11 19:56:42.009000,-8.867469879518072,-0.5180722891566265,-4.096385542168675,-0.49540159411404044,-8.79767014101778,-3.7351318209687308,3.0,0.8349428349428349,1197.686785429407,0.01503408892255741,0.08123069751179923,0.001631606549734748,1353.8461538461538,-1.0,100.42292368985596,0.8379933101478056,
2023-08-11 19:56:42.017000,-8.879518072289157,-0.5180722891566265,-4.132530120481928,-0.4193746167995095,-8.738810545677499,-3.7596566523605146,3.0,0.8353868353868353,1197.0502258836036,0.1505739758755323,-0.23786492628634717,-0.0578054891906064,1353.113553113553,-1.0,100.42292368985596,0.8379659481541865,
2023-08-11 19:56:42.025000,-8.879518072289157,-0.5301204819277109,-4.132530120481928,-0.42918454935622313,-8.726548129981605,-3.7572041692213363,3.0,0.8353868353868353,1197.0502258836036,0.36221665404113923,-0.12994580735388434,-0.4206048598566515,1352.3809523809523,-1.0,100.42292368985596,0.8379385958223807,
2023-08-11 19:56:42.032000,-8.879518072289157,-0.5421686746987953,-4.096385542168675,-0.4463519313304721,-8.758430410790925,-3.725321888412017,3.0,0.8353868353868353,1197.0502258836036,0.35953615756657475,0.1335586504282972,0.010488899248295677,1350.9157509157508,-1.0,100.42292368985596,0.8379112553956358,
2023-08-11 19:56:42.040000,-8.843373493975903,-0.5421686746987953,-4.096385542168675,-0.4414469650521152,-8.795217657878602,-3.76701410177805,3.0,0.8353868353868353,1197.0502258836036,0.05209486626653457,-0.13717149350271007,0.03985781714352331,1347.985347985348,-1.0,100.42292368985596,0.8378839290410451,
2023-08-11 19:56:42.048000,-8.855421686746988,-0.5301204819277109,-4.120481927710844,-0.47087676272225626,-8.71919068056407,-3.7351318209687308,3.0,0.8353868353868353,1197.0502258836036,-0.08507662723617551,-0.2836664530039044,-0.053143756191364265,1344.3223443223442,-1.0,100.42292368985596,0.8378566189766765,
2023-08-11 19:56:42.055000,-8.855421686746988,-0.5301204819277109,-4.132530120481928,-0.41692213366033104,-8.706928264868179,-3.7817290006131206,3.0,0.8353868353868353,1197.0502258836036,0.23436862653691515,-0.0340306508944702,-0.0689936483887884,1342.1245421245421,-1.0,100.42292368985596,0.8378293273223744,
2023-08-11 19:56:42.063000,-8.867469879518072,-0.5421686746987953,-4.1084337349397595,-0.4537093807480073,-8.660331085223788,-3.744941753525444,3.0,0.8353868353868353,1197.0502258836036,0.1409008799021038,0.2581434648330509,-0.16094633179884626,1338.4615384615383,-1.0,100.42292368985596,0.8378020561002754,
2023-08-11 19:56:42.071000,-8.867469879518072,-0.5301204819277109,-4.132530120481928,-0.3973022685469037,-8.768240343347639,-3.7915389331698344,3.0,0.8353868353868353,1197.0502258836036,0.26303828448225647,0.3336635394207805,-0.1745819008216306,1335.5311355311355,-1.0,100.42292368985596,0.8377748072357718,
2023-08-11 19:56:42.078000,-8.855421686746988,-0.5301204819277109,-4.1084337349397595,-0.5003065603923973,-8.741263028816677,-3.796443899448191,3.0,0.8353868353868353,1197.0502258836036,0.24718839228483144,0.13460754035312647,-0.17329992424683882,1335.5311355311355,-1.0,100.42292368985596,0.8377475825589564,
2023-08-11 19:56:42.086000,-8.867469879518072,-0.5301204819277109,-4.1084337349397595,-0.41201716738197425,-8.795217657878602,-3.7351318209687308,3.0,0.8349428349428349,1197.686785429407,0.1826233902453231,0.016082978847386676,0.16222830837363808,1336.9963369963368,-1.0,100.42292368985596,0.8377203838065715,
2023-08-11 19:56:42.094000,-8.867469879518072,-0.5180722891566265,-4.072289156626506,-0.42427958307786634,-8.741263028816677,-3.7204169221336603,3.0,0.8353868353868353,1197.0502258836036,0.016082978847386676,0.1874016665695478,0.006293339548977319,1336.9963369963368,-1.0,100.42292368985596,0.837693212475195,
2023-08-11 19:56:42.101000,-8.867469879518072,-0.5421686746987953,-4.1084337349397595,-0.463519313304721,-8.78050275904353,-3.7596566523605146,3.0,0.8349428349428349,1197.686785429407,0.15407027562496434,0.14299865975176232,-0.19392809276848677,1336.9963369963368,-1.0,100.42292368985596,0.8376660699516868,
2023-08-11 19:56:42.109000,-8.891566265060241,-0.5662650602409639,-4.096385542168675,-0.47087676272225626,-8.785407725321887,-3.7743715511955855,3.0,0.8353868353868353,1197.0502258836036,-0.07470427131286024,0.09964454285880783,0.11199813530680036,1336.9963369963368,-1.0,100.42292368985596,0.8376389575264287,
2023-08-11 19:56:42.117000,-8.891566265060241,-0.5421686746987953,-4.096385542168675,-0.3825873697118332,-8.733905579399142,-3.7204169221336603,3.0,0.8353868353868353,1197.0502258836036,0.2483538255346433,0.268632364081347,0.12609987762950892,1336.263736263736,-1.0,100.42292368985596,0.8376118763859822,
2023-08-11 19:56:42.124000,-8.867469879518072,-0.5301204819277109,-4.1084337349397595,-0.47087676272225626,-8.721643163703249,-3.776824034334764,3.0,0.8349428349428349,1197.686785429407,-0.04230522696812521,-0.11048307208204645,-0.1636268282734107,1334.7985347985348,-1.0,100.42292368985596,0.8375848277766214,
2023-08-11 19:56:42.132000,-8.855421686746988,-0.5301204819277109,-4.1084337349397595,-0.41201716738197425,-8.731453096259962,-3.776824034334764,3.0,0.8349428349428349,1197.686785429407,-0.0734222947380693,0.22819183031291865,-0.1786609171959677,1331.8681318681317,-1.0,100.42292368985596,0.8375578127212983,
2023-08-11 19:56:42.139000,-8.855421686746988,-0.5301204819277109,-4.120481927710844,-0.4757817290006131,-8.760882893930104,-3.8038013488657265,3.0,0.8349428349428349,1197.686785429407,-0.07283957811316338,0.22842491696288034,-0.17609696404638409,1328.2051282051282,-1.0,100.42292368985596,0.8375308320034006,
2023-08-11 19:56:42.147000,-8.819277108433736,-0.5301204819277109,-4.1084337349397595,-0.4316370324954016,-8.697118332311465,-3.7522992029429796,3.0,0.8349428349428349,1197.686785429407,0.18413845347007743,-0.22935726356272876,-0.32900180642153704,1325.2747252747251,-1.0,100.42292368985596,0.8375038863100668,
2023-08-11 19:56:42.155000,-8.843373493975903,-0.5421686746987953,-4.132530120481928,-0.4218270999386879,-8.729000613120784,-3.754751686082158,3.0,0.8340548340548339,1198.961937716263,-0.3369267525202491,-0.05733931589068263,-0.006293339548977319,1323.8095238095236,-1.0,100.42292368985596,0.8374769762371845,
2023-08-11 19:56:42.162000,-8.843373493975903,-0.5301204819277109,-4.1084337349397595,-0.4659717964438994,-8.738810545677499,-3.7621091354996934,3.0,0.8344988344988344,1198.3240223463688,0.16828856127265243,0.313385000874075,-0.23541751646174483,1322.3443223443223,-1.0,100.42292368985596,0.8374501022737358,
2023-08-11 19:56:42.170000,-8.867469879518072,-0.5421686746987953,-4.0843373493975905,-0.48313917841814835,-8.795217657878602,-3.737584304107909,3.0,0.8349428349428349,1197.686785429407,0.025989161470776866,-0.26758347415651773,-0.15768311869937635,1323.8095238095236,-1.0,100.42292368985596,0.8374232647336984,
2023-08-11 19:56:42.178000,-8.891566265060241,-0.5421686746987953,-4.1084337349397595,-0.45861434702636417,-8.778050275904352,-3.7572041692213363,3.0,0.8349428349428349,1197.686785429407,-0.007342229473806583,-0.2308723267874831,-0.3107045043995106,1326.7399267399267,-1.0,100.42292368985596,0.837396463932031,
2023-08-11 19:56:42.185000,-8.891566265060241,-0.5542168674698795,-4.096385542168675,-0.44880441446965047,-8.748620478234212,-3.683629675045984,3.0,0.8349428349428349,1197.686785429407,0.16059670182390334,-0.05908746576539864,-0.18670240661966103,1328.2051282051282,-1.0,100.42292368985596,0.8373697000839133,
2023-08-11 19:56:42.193000,-8.903614457831326,-0.5542168674698795,-4.1084337349397595,-0.42918454935622313,-8.78050275904353,-3.8013488657265477,3.0,0.8349428349428349,1197.686785429407,0.005011362974186382,0.18821746984441537,-0.15465299224986895,1329.6703296703297,-1.0,100.42292368985596,0.8373429733324355,
2023-08-11 19:56:42.201000,-8.867469879518072,-0.5542168674698795,-4.1084337349397595,-0.4512568976088289,-8.76578786020846,-3.7498467198038012,3.0,0.8349428349428349,1197.686785429407,0.11164850533185655,-0.14626187285123268,-0.4735155293980537,1330.4029304029302,-1.0,100.42292368985596,0.8373162838837638,
2023-08-11 19:56:42.208000,-8.879518072289157,-0.5542168674698795,-4.096385542168675,-0.463519313304721,-8.768240343347639,-3.7915389331698344,3.0,0.8349428349428349,1197.686785429407,0.41407843365771213,0.5267758289143997,-0.10465590583299335,1329.6703296703297,-1.0,100.42292368985596,0.8372896317270863,
2023-08-11 19:56:42.216000,-8.879518072289157,-0.5662650602409639,-4.1084337349397595,-0.4193746167995095,-8.721643163703249,-3.796443899448191,3.0,0.8344988344988344,1198.3240223463688,0.31862945049822305,0.7232678748324683,0.11176504865683826,1330.4029304029302,-1.0,100.42292368985596,0.8372630168019704,
2023-08-11 19:56:42.224000,-8.855421686746988,-0.5421686746987953,-4.1084337349397595,-0.43654199877375843,-8.748620478234212,-3.7866339668914772,3.0,0.8349428349428349,1197.686785429407,0.3630324573160068,0.6899364838878849,0.020278538546704597,1332.6007326007325,-1.0,100.42292368985596,0.8372364389851473,
2023-08-11 19:56:42.231000,-8.831325301204819,-0.5301204819277109,-4.096385542168675,-0.48313917841814835,-8.724095646842427,-3.7326793378295524,3.0,0.8344988344988344,1198.3240223463688,0.20488316531670625,0.5034671639181872,0.06736204183905366,1336.263736263736,-1.0,100.42292368985596,0.8372098980775233,
2023-08-11 19:56:42.239000,-8.855421686746988,-0.5180722891566265,-4.096385542168675,-0.46106683016554256,-8.760882893930104,-3.7424892703862658,3.0,0.8349428349428349,1197.686785429407,0.1276149408542624,0.6532253365188502,0.09847910960899688,1339.9267399267399,-1.0,100.42292368985596,0.8371833938229334,
2023-08-11 19:56:42.247000,-8.855421686746988,-0.5060240963855422,-4.1084337349397595,-0.41201716738197425,-8.738810545677499,-3.835683629675046,3.0,0.8344988344988344,1198.3240223463688,0.35300973136763575,0.4365712953790569,-0.11409591515645932,1343.5897435897434,-1.0,100.42292368985596,0.8371569259059438,
2023-08-11 19:56:42.254000,-8.855421686746988,-0.5301204819277109,-4.120481927710844,-0.43408951563458,-8.746167995095034,-3.7645616186388717,3.0,0.8344988344988344,1198.3240223463688,0.2424101159606085,0.8455218227376018,-0.1448633529514596,1349.4505494505493,-1.0,100.42292368985596,0.837130493970836,
2023-08-11 19:56:42.262000,-8.855421686746988,-0.5180722891566265,-4.132530120481928,-0.463519313304721,-8.682403433476395,-3.7694665849172284,3.0,0.8344988344988344,1198.3240223463688,-0.04848202319212169,0.4134957170328062,-0.09661441640930002,1361.904761904762,-1.0,100.42292368985596,0.8371040974703339,
2023-08-11 19:56:42.270000,-8.843373493975903,-0.5421686746987953,-4.144578313253012,-0.44880441446965047,-8.731453096259962,-3.784181483752299,3.0,0.8344988344988344,1198.3240223463688,0.38237864926286386,-0.16700658469786148,0.05955363906532242,1380.2197802197802,-1.0,100.42292368985596,0.8370777358122056,
2023-08-11 19:56:42.277000,-8.843373493975903,-0.5180722891566265,-4.1084337349397595,-0.463519313304721,-8.817290006131207,-3.7939914163090127,3.0,0.8344988344988344,1198.3240223463688,-0.017248412097196776,0.2172367577646992,-0.2771400268049646,1402.197802197802,-1.0,100.42292368985596,0.8370514083671173,
2023-08-11 19:56:42.285000,-8.867469879518072,-0.5542168674698795,-4.096385542168675,-0.5076640098099325,-8.75107296137339,-3.8283261802575104,3.0,0.8344988344988344,1198.3240223463688,0.18087524037060707,-0.21059378824077765,-0.2595419847328244,1423.4432234432234,-1.0,100.42292368985596,0.8370251144764715,
2023-08-11 19:56:42.293000,-8.843373493975903,-0.5542168674698795,-4.120481927710844,-0.43654199877375843,-8.76578786020846,-3.7204169221336603,3.0,0.8344988344988344,1198.3240223463688,-0.0658469786142993,-0.006876056173883237,0.003030126449507823,1441.7582417582416,-1.0,100.42292368985596,0.8369988534602357,
2023-08-11 19:56:42.300000,-8.867469879518072,-0.5421686746987953,-4.120481927710844,-0.44880441446965047,-8.721643163703249,-3.7522992029429796,3.0,0.8344988344988344,1198.3240223463688,0.27177903385583657,0.3321484761960261,0.1086183788823496,1454.9450549450548,-1.0,100.42292368985596,0.8369726246247524,
2023-08-11 19:56:42.308000,-8.855421686746988,-0.5421686746987953,-4.1084337349397595,-0.4414469650521152,-8.770692826486817,-3.7302268546903736,3.0,0.8340548340548339,1198.961937716263,-0.0374104073189214,-0.049880543091895206,-0.059320552415360314,1462.2710622710622,-1.0,100.42292368985596,0.8369464272705288,
2023-08-11 19:56:42.316000,-8.843373493975903,-0.5662650602409639,-4.1084337349397595,-0.5052115266707541,-8.741263028816677,-3.7204169221336603,3.0,0.8340548340548339,1198.961937716263,-0.3272536565468206,0.10418973253306914,-0.149641629275683,1466.6666666666665,-1.0,100.42292368985596,0.8369202606894606,
2023-08-11 19:56:42.323000,-8.819277108433736,-0.5662650602409639,-4.096385542168675,-0.4316370324954016,-8.68976088289393,-3.725321888412017,3.0,0.8344988344988344,1198.3240223463688,-0.15686731542450963,0.24182739933570255,0.09661441640930002,1465.9340659340658,-1.0,100.42292368985596,0.8368941241303133,
2023-08-11 19:56:42.331000,-8.867469879518072,-0.5421686746987953,-4.132530120481928,-0.539546290619252,-8.790312691600246,-3.7645616186388717,3.0,0.8340548340548339,1198.961937716263,0.04428646349280291,0.31979488374803317,-0.05675659926577714,1457.8754578754579,-1.0,100.42292368985596,0.8368680169448017,
2023-08-11 19:56:42.339000,-8.855421686746988,-0.5421686746987953,-4.1084337349397595,-0.4659717964438994,-8.787860208461066,-3.754751686082158,3.0,0.8344988344988344,1198.3240223463688,-0.1256337043295847,-0.09288503000990543,-0.13134432725365655,1446.153846153846,-1.0,100.42292368985596,0.8368419384670794,
2023-08-11 19:56:42.346000,-8.855421686746988,-0.5542168674698795,-4.096385542168675,-0.46842427958307786,-8.768240343347639,-3.744941753525444,3.0,0.8344988344988344,1198.3240223463688,-0.050929433016724465,-0.01538371889749992,-0.17528116077151693,1432.9670329670328,-1.0,100.42292368985596,0.8368158880105989,
2023-08-11 19:56:42.354000,-8.879518072289157,-0.5301204819277109,-4.132530120481928,-0.48068669527896996,-8.711833231146535,-3.744941753525444,3.0,0.8344988344988344,1198.3240223463688,0.20849600839111912,-0.25732766155818504,-0.03379756424450766,1419.7802197802198,-1.0,100.42292368985596,0.8367898650350245,
2023-08-11 19:56:42.362000,-8.879518072289157,-0.5542168674698795,-4.132530120481928,-0.4537093807480073,-8.770692826486817,-3.7743715511955855,3.0,0.8340548340548339,1198.961937716263,0.05127906299166698,-0.008624206048599255,0.10395664588310703,1406.5934065934066,-1.0,100.42292368985596,0.8367638688763198,
2023-08-11 19:56:42.369000,-8.867469879518072,-0.5180722891566265,-4.096385542168675,-0.4438994481912937,-8.787860208461066,-3.7351318209687308,3.0,0.8340548340548339,1198.961937716263,0.2631548278072373,-0.2075636617912707,-0.07994872093700829,1394.8717948717947,-1.0,100.42292368985596,0.8367378987639715,
2023-08-11 19:56:42.377000,-8.843373493975903,-0.5301204819277109,-4.120481927710844,-0.39975475168608215,-8.733905579399142,-3.789086450030656,3.0,0.8340548340548339,1198.961937716263,-0.10465590583299422,-0.020045451896742058,-0.0031466697744886593,1383.8827838827838,-1.0,100.42292368985596,0.8367119539339392,
2023-08-11 19:56:42.385000,-8.855421686746988,-0.5301204819277109,-4.096385542168675,-0.4095646842427958,-8.75107296137339,-3.744941753525444,3.0,0.8340548340548339,1198.961937716263,-0.13530680030301323,0.10080997610861794,0.11922382145562611,1373.6263736263736,-1.0,100.42292368985596,0.8366860336236581,
2023-08-11 19:56:42.392000,-8.843373493975903,-0.5301204819277109,-4.1084337349397595,-0.42918454935622313,-8.726548129981605,-3.779276517473942,3.0,0.8340548340548339,1198.961937716263,0.26047433133267284,0.1906648796690164,-0.30825709457490824,1365.5677655677655,-1.0,100.42292368985596,0.8366601370772456,
2023-08-11 19:56:42.400000,-8.855421686746988,-0.5301204819277109,-4.132530120481928,-0.4782342121397915,-8.71919068056407,-3.7400367872470874,3.0,0.8340548340548339,1198.961937716263,-0.24777110890973736,0.6018297302022024,0.12132160130528508,1361.904761904762,643.4326171875,93.2498577120091,0.8366342635503818,
2023-08-11 19:56:42.408000,-8.843373493975903,-0.5421686746987953,-4.096385542168675,-0.5052115266707541,-8.748620478234212,-3.7522992029429796,3.0,0.8340548340548339,1198.961937716263,0.1962589592681087,-0.090204533535341,-0.04545189674261387,1360.4395604395604,-1.0,93.2498577120091,0.8366084123148917,
2023-08-11 19:56:42.415000,-8.843373493975903,-0.5421686746987953,-4.120481927710844,-0.48068669527896996,-8.741263028816677,-3.7498467198038012,3.0,0.8340548340548339,1198.961937716263,0.19241302954373243,-0.08950527358545597,-0.043470660217936184,1361.1721611721612,-1.0,93.2498577120091,0.8365825826630463,
2023-08-11 19:56:42.423000,-8.867469879518072,-0.5301204819277109,-4.1084337349397595,-0.46842427958307786,-8.748620478234212,-3.7400367872470874,3.0,0.8340548340548339,1198.961937716263,0.06573043528931848,-0.028086941320435394,0.1712021443971794,1364.102564102564,-1.0,93.2498577120091,0.8365567739116183,
2023-08-11 19:56:42.431000,-8.855421686746988,-0.5301204819277109,-4.1084337349397595,-0.4218270999386879,-8.699570815450643,-3.7596566523605146,3.0,0.8340548340548339,1198.961937716263,0.24707184895985063,0.17015325447234927,0.2636210011071615,1366.3003663003662,-1.0,93.2498577120091,0.8365309854057124,
2023-08-11 19:56:42.438000,-8.855421686746988,-0.5301204819277109,-4.096385542168675,-0.4757817290006131,-8.721643163703249,-3.8013488657265477,3.0,0.8340548340548339,1198.961937716263,0.19777402249286133,-0.16607423809801306,0.14171668317697095,1369.230769230769,-1.0,93.2498577120091,0.8365052165224026,
2023-08-11 19:56:42.446000,-8.867469879518072,-0.5301204819277109,-4.096385542168675,-0.43654199877375843,-8.679950950337217,-3.7277743715511953,3.0,0.8336108336108337,1199.600532623169,0.39414952508595086,-0.422469553056348,0.29287337567740784,1370.6959706959706,-1.0,93.2498577120091,0.8364794666742114,
2023-08-11 19:56:42.454000,-8.855421686746988,-0.5180722891566265,-4.0602409638554215,-0.4193746167995095,-8.785407725321887,-3.744941753525444,3.0,0.8340548340548339,1198.961937716263,0.11456208845638441,-0.3735213565643029,0.2149058912650777,1371.4285714285713,-1.0,93.2498577120091,0.8364537351631621,
2023-08-11 19:56:42.461000,-8.867469879518072,-0.5301204819277109,-4.096385542168675,-0.463519313304721,-8.76578786020846,-3.7302268546903736,3.0,0.8331668331668332,1200.2398081534773,0.24975234543441507,-0.5073130936425618,0.247421478934794,1368.4981684981683,-1.0,93.2498577120091,0.8364280213114488,
2023-08-11 19:56:42.469000,-8.867469879518072,-0.5180722891566265,-4.096385542168675,-0.43654199877375843,-8.753525444512569,-3.713059472716125,3.0,0.8331668331668332,1200.2398081534773,0.07948254763708494,-0.6548569430685854,0.20068760561738833,1362.6373626373625,-1.0,93.2498577120091,0.8364023246024658,
2023-08-11 19:56:42.477000,-8.855421686746988,-0.5421686746987953,-4.1084337349397595,-0.49540159411404044,-8.724095646842427,-3.725321888412017,3.0,0.8336108336108337,1199.600532623169,0.2607074179826345,-0.5144222364664067,0.10908455218227382,1353.8461538461538,-1.0,93.2498577120091,0.8363766443217673,
2023-08-11 19:56:42.484000,-8.867469879518072,-0.5542168674698795,-4.0843373493975905,-0.46842427958307786,-8.773145309625995,-3.737584304107909,3.0,0.8336108336108337,1199.600532623169,0.3499796049181288,-0.11607715168113703,-0.10512207913291756,1343.5897435897434,-1.0,93.2498577120091,0.8363509797078469,
2023-08-11 19:56:42.492000,-8.879518072289157,-0.5301204819277109,-4.096385542168675,-0.45616186388718577,-8.706928264868179,-3.8013488657265477,3.0,0.8336108336108337,1199.600532623169,0.4361051220791336,0.18728512324456695,0.2633879144571994,1335.5311355311355,-1.0,93.2498577120091,0.836325330123481,
2023-08-11 19:56:42.500000,-8.855421686746988,-0.5421686746987953,-4.1084337349397595,-0.45861434702636417,-8.738810545677499,-3.754751686082158,3.0,0.8336108336108337,1199.600532623169,0.5690810558825249,0.5792203251558767,0.09148651011013323,1331.8681318681317,-1.0,93.2498577120091,0.836299694918358,
2023-08-11 19:56:42.507000,-8.879518072289157,-0.5542168674698795,-4.132530120481928,-0.48313917841814835,-8.778050275904352,-3.7302268546903736,3.0,0.8336108336108337,1199.600532623169,0.7597459355515412,0.7873667035720533,0.045568440067595146,1330.4029304029302,-1.0,93.2498577120091,0.836274073430224,
2023-08-11 19:56:42.515000,-8.867469879518072,-0.5662650602409639,-4.132530120481928,-0.49540159411404044,-8.73635806253832,-3.7596566523605146,3.0,0.8336108336108337,1199.600532623169,0.6612668259425436,1.1467863178136473,0.16479226152322127,1329.6703296703297,-1.0,93.2498577120091,0.8362484648470888,
2023-08-11 19:56:42.522000,-8.891566265060241,-0.5421686746987953,-4.156626506024097,-0.4512568976088289,-8.711833231146535,-3.789086450030656,3.0,0.8336108336108337,1199.600532623169,0.4877338150457431,0.9998251850125278,-0.1065205990326902,1328.937728937729,-1.0,93.2498577120091,0.8362228683671817,
2023-08-11 19:56:42.530000,-8.867469879518072,-0.5542168674698795,-4.168674698795181,-0.40465971796443895,-8.758430410790925,-3.808706315144083,3.0,0.8336108336108337,1199.600532623169,0.4971738243692099,0.9463317988462215,0.27702348347998373,1331.135531135531,-1.0,93.2498577120091,0.8361972833273159,
2023-08-11 19:56:42.538000,-8.843373493975903,-0.5542168674698795,-4.1807228915662655,-0.4414469650521152,-8.758430410790925,-3.7817290006131206,3.0,0.8336108336108337,1199.600532623169,0.27795583007983304,0.3142008041489426,0.2899597925528813,1335.5311355311355,-1.0,93.2498577120091,0.8361717090545222,
2023-08-11 19:56:42.545000,-8.843373493975903,-0.5542168674698795,-4.144578313253012,-0.5052115266707541,-8.702023298589822,-3.789086450030656,3.0,0.8336108336108337,1199.600532623169,-0.07528698793776616,-0.2366994930365371,0.30511042480041956,1339.194139194139,-1.0,93.2498577120091,0.8361461448670109,
2023-08-11 19:56:42.553000,-8.831325301204819,-0.5662650602409639,-4.096385542168675,-0.4757817290006131,-8.675045984058858,-3.7743715511955855,3.0,0.8336108336108337,1199.600532623169,0.19835673911776724,-0.5851640347299115,-0.22865800361284289,1341.3919413919414,-1.0,93.2498577120091,0.8361205900752283,
2023-08-11 19:56:42.561000,-8.843373493975903,-0.5662650602409639,-4.120481927710844,-0.44880441446965047,-8.716738197424892,-3.806253832004905,3.0,0.8336108336108337,1199.600532623169,0.13250976050346794,-0.5352834916380164,-0.04207214031816311,1343.5897435897434,-1.0,93.2498577120091,0.8360950441217992,
2023-08-11 19:56:42.568000,-8.843373493975903,-0.5783132530120483,-4.1084337349397595,-0.5272838749233598,-8.687308399754752,-3.7915389331698344,3.0,0.8336108336108337,1199.600532623169,-0.09999417283375035,-0.39438261173591255,0.06712895518909155,1347.2527472527472,-1.0,93.2498577120091,0.8360695064237902,
2023-08-11 19:56:42.576000,-8.843373493975903,-0.5783132530120483,-4.120481927710844,-0.4782342121397915,-8.743715511955855,-3.7326793378295524,3.0,0.8336108336108337,1199.600532623169,-0.20837946506613828,-0.5777052619311224,-0.0870578637608532,1352.3809523809523,-1.0,93.2498577120091,0.83604397624673,
2023-08-11 19:56:42.584000,-8.855421686746988,-0.5662650602409639,-4.1084337349397595,-0.5027590435315757,-8.741263028816677,-3.7719190680564068,3.0,0.8336108336108337,1199.600532623169,-0.008507662723616683,-0.17889400384592938,-0.269797797331158,1355.3113553113553,-1.0,93.2498577120091,0.8360184528556346,
2023-08-11 19:56:42.591000,-8.831325301204819,-0.5903614457831325,-4.1084337349397595,-0.463519313304721,-8.76578786020846,-3.7694665849172284,3.0,0.8336108336108337,1199.600532623169,-0.17609696404638409,-0.028320027970398804,-0.07039216828856147,1355.3113553113553,-1.0,93.2498577120091,0.8359929355170769,
2023-08-11 19:56:42.599000,-8.855421686746988,-0.5662650602409639,-4.1084337349397595,-0.48313917841814835,-8.775597792765174,-3.7621091354996934,3.0,0.8336108336108337,1199.600532623169,-0.5408775712371069,-0.016316065497348348,-0.08624206048598561,1354.5787545787546,-1.0,93.2498577120091,0.8359674235016362,
2023-08-11 19:56:42.607000,-8.867469879518072,-0.5542168674698795,-4.156626506024097,-0.5027590435315757,-8.743715511955855,-3.808706315144083,3.0,0.8336108336108337,1199.600532623169,-0.4302779558300796,0.17796165724608096,0.05221140959151584,1351.6483516483515,-1.0,93.2498577120091,0.8359419162255243,
2023-08-11 19:56:42.614000,-8.855421686746988,-0.5662650602409639,-4.144578313253012,-0.5027590435315757,-8.75107296137339,-3.7743715511955855,3.0,0.8331668331668332,1200.2398081534773,-0.36652875706543886,0.29671930540178243,-0.0860089738360235,1344.3223443223442,-1.0,93.2498577120091,0.8359164130947921,
2023-08-11 19:56:42.622000,-8.867469879518072,-0.5783132530120483,-4.144578313253012,-0.48559166155732675,-8.773145309625995,-3.7572041692213363,3.0,0.8331668331668332,1200.2398081534773,-0.548336344035896,0.01759804207214102,0.5428588077617855,1336.263736263736,-1.0,93.2498577120091,0.8358909135097519,
2023-08-11 19:56:42.630000,-8.903614457831326,-0.5783132530120483,-4.120481927710844,-0.4537093807480073,-8.768240343347639,-3.784181483752299,3.0,0.8331668331668332,1200.2398081534773,-0.5309713886137167,-0.15045743255055147,0.12924654740399757,1330.4029304029302,-1.0,93.2498577120091,0.8358654168170397,
2023-08-11 19:56:42.637000,-8.867469879518072,-0.5783132530120483,-4.144578313253012,-0.45861434702636417,-8.770692826486817,-3.784181483752299,3.0,0.8331668331668332,1200.2398081534773,-0.6042771400268052,-0.5306217586387743,0.2670007575316123,1326.007326007326,-1.0,93.2498577120091,0.8358399221757687,
2023-08-11 19:56:42.645000,-8.843373493975903,-0.5903614457831325,-4.0602409638554215,-0.5199264255058246,-8.81238503985285,-3.7424892703862658,3.0,0.8331668331668332,1200.2398081534773,-0.5704795757822967,-0.41897325330691765,0.16048015849892205,1322.3443223443223,-1.0,93.2498577120091,0.8358144287111234,
2023-08-11 19:56:42.653000,-8.831325301204819,-0.5783132530120483,-4.096385542168675,-0.49785407725321884,-8.78050275904353,-3.7400367872470874,3.0,0.8331668331668332,1200.2398081534773,-0.7344560340306512,-0.4609288503000986,0.007225686148825746,1323.076923076923,-1.0,93.2498577120091,0.8357889355188596,
2023-08-11 19:56:42.660000,-8.867469879518072,-0.5542168674698795,-4.1084337349397595,-0.522378908645003,-8.706928264868179,-3.7572041692213363,3.0,0.8331668331668332,1200.2398081534773,-0.5770060019812356,0.06176796223996309,0.06759512848901576,1326.007326007326,-1.0,93.2498577120091,0.8357634416700438,
2023-08-11 19:56:42.668000,-8.879518072289157,-0.5783132530120483,-4.072289156626506,-0.43408951563458,-8.84671980380135,-3.7326793378295524,3.0,0.8331668331668332,1200.2398081534773,-0.421187576481557,-0.30499388147543915,0.2651360643319154,1328.937728937729,-1.0,93.2498577120091,0.8357379462160399,
2023-08-11 19:56:42.676000,-8.891566265060241,-0.5542168674698795,-4.0843373493975905,-0.43654199877375843,-8.763335377069282,-3.7351318209687308,3.0,0.8331668331668332,1200.2398081534773,-0.31152030767437816,-0.25802692150807005,0.049297826466989284,1329.6703296703297,-1.0,93.2498577120091,0.8357124481937764,
2023-08-11 19:56:42.683000,-8.891566265060241,-0.5662650602409639,-4.096385542168675,-0.47332924586143466,-8.702023298589822,-3.708154506437768,3.0,0.8331668331668332,1200.2398081534773,-0.4604626770001753,0.12295320785502026,0.2319212167123128,1326.007326007326,-1.0,93.2498577120091,0.8356869466313062,
2023-08-11 19:56:42.691000,-8.867469879518072,-0.5421686746987953,-4.0843373493975905,-0.45861434702636417,-8.78050275904353,-3.816063764561618,3.0,0.8331668331668332,1200.2398081534773,-0.45964687372530766,0.11712604160596629,0.23028961016257807,1323.076923076923,-1.0,93.2498577120091,0.8356614405536751,
2023-08-11 19:56:42.699000,-8.855421686746988,-0.5421686746987953,-4.096385542168675,-0.4463519313304721,-8.79767014101778,-3.7007970570202326,3.0,0.8331668331668332,1200.2398081534773,-0.12038925470543665,-0.10046034613367542,0.16887127789755835,1321.6117216117216,-1.0,93.2498577120091,0.8356359291278691,
2023-08-11 19:56:42.706000,-8.855421686746988,-0.5301204819277109,-4.1084337349397595,-0.47087676272225626,-8.741263028816677,-3.725321888412017,3.0,0.8331668331668332,1200.2398081534773,-0.4281801759804211,-0.19509352601829688,0.12470135772973584,1322.3443223443223,-1.0,93.2498577120091,0.835610411648963,
2023-08-11 19:56:42.714000,-8.855421686746988,-0.5301204819277109,-4.096385542168675,-0.42427958307786634,-8.758430410790925,-3.7277743715511953,3.0,0.8331668331668332,1200.2398081534773,-0.45615057397587566,-0.10477244915797505,0.4134957170328071,1323.8095238095236,-1.0,93.2498577120091,0.835584887260254,
2023-08-11 19:56:42.722000,-8.867469879518072,-0.5301204819277109,-4.072289156626506,-0.4880441446965052,-8.800122624156959,-3.7572041692213363,3.0,0.8331668331668332,1200.2398081534773,-0.2556960550084499,-0.12353592447992617,0.2580269215080705,1326.7399267399267,-1.0,93.2498577120091,0.8355593551207137,
2023-08-11 19:56:42.729000,-8.891566265060241,-0.5421686746987953,-4.096385542168675,-0.46106683016554256,-8.662783568362967,-3.717964438994482,3.0,0.8327228327228327,1200.8797653958945,-0.5759571120564064,0.10302429928325904,0.30254647165083637,1331.8681318681317,-1.0,93.2498577120091,0.8355338145410773,
2023-08-11 19:56:42.737000,-8.867469879518072,-0.5301204819277109,-4.1084337349397595,-0.42673206621704474,-8.675045984058858,-3.7228694052728386,3.0,0.8327228327228327,1200.8797653958945,-0.2999825185012528,-0.09591515645941413,0.16071324514888416,1337.7289377289376,-1.0,93.2498577120091,0.8355082646940816,
2023-08-11 19:56:42.745000,-8.855421686746988,-0.5662650602409639,-4.096385542168675,-0.48559166155732675,-8.743715511955855,-3.784181483752299,3.0,0.8327228327228327,1200.8797653958945,-0.14567915622632677,0.4699026863236404,0.03810966726880729,1342.1245421245421,-1.0,93.2498577120091,0.8354827046015599,
2023-08-11 19:56:42.752000,-8.855421686746988,-0.5542168674698795,-4.1084337349397595,-0.4659717964438994,-8.73635806253832,-3.6934396076026976,3.0,0.8327228327228327,1200.8797653958945,-0.28331682302896016,0.45137229765165265,0.3267874832468972,1344.3223443223442,-1.0,93.2498577120091,0.8354571332806232,
2023-08-11 19:56:42.760000,-8.891566265060241,-0.5542168674698795,-4.0843373493975905,-0.46106683016554256,-8.711833231146535,-3.7326793378295524,3.0,0.8331668331668332,1200.2398081534773,0.008391119398635847,0.20255229881708603,0.20068760561738833,1346.5201465201465,-1.0,93.2498577120091,0.8354315497510407,
2023-08-11 19:56:42.768000,-8.843373493975903,-0.5421686746987953,-4.072289156626506,-0.4757817290006131,-8.711833231146535,-3.715511955855303,3.0,0.8322788322788324,1201.520405441451,-0.12889691742905507,0.1695705378474451,0.05897092244041694,1345.054945054945,-1.0,93.2498577120091,0.8354059531918689,
2023-08-11 19:56:42.775000,-8.855421686746988,-0.5301204819277109,-4.0843373493975905,-0.4659717964438994,-8.800122624156959,-3.7498467198038012,3.0,0.8322788322788324,1201.520405441451,-0.15943126857409323,0.18087524037060707,0.36454752054076117,1342.8571428571427,-1.0,93.2498577120091,0.8353803428107736,
2023-08-11 19:56:42.783000,-8.855421686746988,-0.5180722891566265,-4.096385542168675,-0.45616186388718577,-8.782955242182709,-3.6885346413243405,3.0,0.8327228327228327,1200.8797653958945,-0.20278538546704772,-0.01934619194685704,0.3787658061884505,1341.3919413919414,-1.0,93.2498577120091,0.8353547176500776,
2023-08-11 19:56:42.791000,-8.843373493975903,-0.5301204819277109,-4.1084337349397595,-0.42427958307786634,-8.763335377069282,-3.7351318209687308,3.0,0.8327228327228327,1200.8797653958945,0.0870578637608532,-0.3889050754618028,0.22201503408892262,1342.1245421245421,-1.0,93.2498577120091,0.8353290767325017,
2023-08-11 19:56:42.798000,-8.879518072289157,-0.5180722891566265,-4.1084337349397595,-0.42673206621704474,-8.775597792765174,-3.8038013488657265,3.0,0.8327228327228327,1200.8797653958945,0.0071091428238449095,-0.388788532136822,0.4334246256045683,1339.9267399267399,-1.0,93.2498577120091,0.8353034191099759,
2023-08-11 19:56:42.806000,-8.879518072289157,-0.5421686746987953,-4.120481927710844,-0.4880441446965052,-8.721643163703249,-3.7057020232985898,3.0,0.8327228327228327,1200.8797653958945,-0.29695239205174584,-0.7844531204475255,0.20220266884214222,1336.263736263736,-1.0,93.2498577120091,0.835277743880698,
2023-08-11 19:56:42.814000,-8.891566265060241,-0.5542168674698795,-4.1084337349397595,-0.46106683016554256,-8.724095646842427,-3.796443899448191,3.0,0.8327228327228327,1200.8797653958945,-0.5239787891148526,-0.9322300565235125,0.2151389779150398,1331.135531135531,-1.0,93.2498577120091,0.8352520501956148,
2023-08-11 19:56:42.821000,-8.891566265060241,-0.5662650602409639,-4.096385542168675,-0.47332924586143466,-8.763335377069282,-3.76701410177805,3.0,0.8327228327228327,1200.8797653958945,-0.3060427714002684,-0.710448109084552,0.2425266592855893,1327.4725274725274,-1.0,93.2498577120091,0.8352263372648736,
2023-08-11 19:56:42.829000,-8.867469879518072,-0.5421686746987953,-4.120481927710844,-0.5248313917841815,-8.76578786020846,-3.725321888412017,3.0,0.8327228327228327,1200.8797653958945,-0.21036070159081596,-0.3545247945923901,0.02797039799545499,1321.6117216117216,-1.0,93.2498577120091,0.8352006043642553,
2023-08-11 19:56:42.837000,-8.855421686746988,-0.5542168674698795,-4.120481927710844,-0.44880441446965047,-8.775597792765174,-3.7277743715511953,3.0,0.8327228327228327,1200.8797653958945,0.11071615873200813,-0.41116485053318597,0.01165433249810621,1314.2857142857142,-1.0,93.2498577120091,0.8351748508415925,
2023-08-11 19:56:42.844000,-8.855421686746988,-0.5542168674698795,-4.120481927710844,-0.4218270999386879,-8.753525444512569,-3.776824034334764,3.0,0.8327228327228327,1200.8797653958945,-0.04160596701823846,-0.07039216828856061,0.13320902045335384,1309.89010989011,-1.0,93.2498577120091,0.8351490761231755,
2023-08-11 19:56:42.852000,-8.843373493975903,-0.5662650602409639,-4.120481927710844,-0.46842427958307786,-8.773145309625995,-3.7106069895769465,3.0,0.8327228327228327,1200.8797653958945,-0.1307616106287519,0.40685274750888634,0.19124759629392235,1307.6923076923076,-1.0,93.2498577120091,0.8351232798589036,
2023-08-11 19:56:42.860000,-8.831325301204819,-0.5662650602409639,-4.132530120481928,-0.46106683016554256,-8.738810545677499,-3.754751686082158,3.0,0.8327228327228327,1200.8797653958945,-0.09766330633413015,0.4392517918536214,0.06771167181399702,1307.6923076923076,-1.0,93.2498577120091,0.8350974619082988,
2023-08-11 19:56:42.867000,-8.831325301204819,-0.5542168674698795,-4.120481927710844,-0.42918454935622313,-8.760882893930104,-3.830778663396689,3.0,0.8322788322788324,1201.520405441451,0.19497698269331604,0.36175048074121585,0.34217120214439717,1306.227106227106,-1.0,93.2498577120091,0.8350716221989081,
2023-08-11 19:56:42.875000,-8.855421686746988,-0.5301204819277109,-4.120481927710844,-0.43408951563458,-8.721643163703249,-3.796443899448191,3.0,0.8322788322788324,1201.520405441451,-0.5222306392401384,0.4833051686964626,0.24812073888468075,1306.9597069597069,-1.0,93.2498577120091,0.8350457605844996,
2023-08-11 19:56:42.883000,-8.867469879518072,-0.5662650602409639,-4.144578313253012,-0.48559166155732675,-8.770692826486817,-3.808706315144083,3.0,0.8327228327228327,1200.8797653958945,-0.10628751238272767,0.14229939980187556,0.07563661791270909,1305.4945054945053,-1.0,93.2498577120091,0.8350198768304751,
2023-08-11 19:56:42.890000,-8.855421686746988,-0.5421686746987953,-4.1084337349397595,-0.4414469650521152,-8.760882893930104,-3.7596566523605146,3.0,0.8322788322788324,1201.520405441451,-0.3634986306159319,0.2320377600372932,-0.19928908571761567,1306.9597069597069,-1.0,93.2498577120091,0.8349939709073106,
2023-08-11 19:56:42.898000,-8.867469879518072,-0.5542168674698795,-4.132530120481928,-0.47332924586143466,-8.729000613120784,-3.7915389331698344,3.0,0.8327228327228327,1200.8797653958945,0.1741157275217064,0.24229357263562765,-0.048365479867140425,1315.7509157509157,-1.0,93.2498577120091,0.8349680428681482,
2023-08-11 19:56:42.905000,-8.855421686746988,-0.5421686746987953,-4.120481927710844,-0.4218270999386879,-8.778050275904352,-3.737584304107909,3.0,0.8327228327228327,1200.8797653958945,-0.13192704387856202,-0.08379465066138284,0.02738768137054951,1329.6703296703297,-1.0,93.2498577120091,0.8349420928437762,
2023-08-11 19:56:42.913000,-8.831325301204819,-0.5542168674698795,-4.0843373493975905,-0.4512568976088289,-8.758430410790925,-3.6909871244635193,3.0,0.8327228327228327,1200.8797653958945,0.0079249460987125,0.3866907522871635,-0.004312103024299194,1345.7875457875457,-1.0,93.2498577120091,0.8349161212076989,
2023-08-11 19:56:42.921000,-8.855421686746988,-0.5662650602409639,-4.1084337349397595,-0.46842427958307786,-8.790312691600246,-3.7498467198038012,3.0,0.8318348318348319,1202.1617293835068,-0.511392110016898,0.13775421012761427,-0.0980129363090731,1360.4395604395604,-1.0,93.2498577120091,0.8348901284431526,
2023-08-11 19:56:42.928000,-8.879518072289157,-0.5783132530120483,-4.132530120481928,-0.5272838749233598,-8.802575107296137,-3.7743715511955855,3.0,0.8322788322788324,1201.520405441451,-0.4307441291300047,0.011887419148067882,0.4666394732241709,1370.6959706959706,-1.0,93.2498577120091,0.8348641149888628,
2023-08-11 19:56:42.936000,-8.867469879518072,-0.5421686746987953,-4.0843373493975905,-0.4659717964438994,-8.726548129981605,-3.725321888412017,3.0,0.8322788322788324,1201.520405441451,0.12330283782996276,-0.2642037177320666,0.005244449624147621,1378.021978021978,-1.0,93.2498577120091,0.8348380813296479,
2023-08-11 19:56:42.944000,-8.855421686746988,-0.5542168674698795,-4.048192771084338,-0.41446965052115264,-8.731453096259962,-3.747394236664623,3.0,0.8322788322788324,1201.520405441451,-0.16828856127265243,-0.09591515645941413,0.15593496882466032,1379.4871794871794,-1.0,93.2498577120091,0.8348120281497081,
2023-08-11 19:56:42.951000,-8.855421686746988,-0.5662650602409639,-4.1084337349397595,-0.510116492949111,-8.839362354383812,-3.7228694052728386,3.0,0.8322788322788324,1201.520405441451,-0.36419789056581864,0.376434939688829,0.0940504632597164,1378.7545787545787,-1.0,93.2498577120091,0.8347859561980574,
2023-08-11 19:56:42.959000,-8.855421686746988,-0.5421686746987953,-4.096385542168675,-0.4414469650521152,-8.709380748007357,-3.7204169221336603,3.0,0.8322788322788324,1201.520405441451,-0.36058504749140574,0.3589534409416706,0.03438028086941358,1375.091575091575,-1.0,93.2498577120091,0.834759866292195,
2023-08-11 19:56:42.967000,-8.891566265060241,-0.5542168674698795,-4.120481927710844,-0.48313917841814835,-8.731453096259962,-3.7621091354996934,3.0,0.8322788322788324,1201.520405441451,-0.3579045510168413,0.35545714119223853,0.03484645416933736,1365.5677655677655,-1.0,93.2498577120091,0.8347337593212913,
2023-08-11 19:56:42.974000,-8.891566265060241,-0.5542168674698795,-4.132530120481928,-0.39975475168608215,-8.81238503985285,-3.808706315144083,3.0,0.8322788322788324,1201.520405441451,-0.35545714119223853,0.3969465648854962,0.1875182098945282,1349.4505494505493,-1.0,93.2498577120091,0.8347076362489014,
2023-08-11 19:56:42.982000,-8.879518072289157,-0.5421686746987953,-4.1084337349397595,-0.5174739423666462,-8.78050275904353,-3.7351318209687308,3.0,0.8322788322788324,1201.520405441451,-0.10710331565759526,0.07412155468795606,0.048365479867140425,1331.135531135531,-1.0,93.2498577120091,0.8346814981152417,
2023-08-11 19:56:42.990000,-8.879518072289157,-0.5542168674698795,-4.0843373493975905,-0.4512568976088289,-8.800122624156959,-3.7522992029429796,3.0,0.8318348318348319,1202.1617293835068,-0.2425266592855893,0.013519025697803066,0.19987180234252072,1312.087912087912,-1.0,93.2498577120091,0.834655346039053,
2023-08-11 19:56:42.997000,-8.879518072289157,-0.5301204819277109,-4.0843373493975905,-0.3850398528510116,-8.755977927651747,-3.7302268546903736,3.0,0.8322788322788324,1201.520405441451,0.0363615173940904,0.029019287920283823,0.15104014917545608,1297.4358974358975,-1.0,93.2498577120091,0.8346291810697885,
2023-08-11 19:56:43.005000,-8.879518072289157,-0.5301204819277109,-4.0843373493975905,-0.42673206621704474,-8.699570815450643,-3.7572041692213363,3.0,0.8322788322788324,1201.520405441451,-0.46815453644892435,0.06048598566517042,-0.09579861313443243,1287.9120879120878,-1.0,93.2498577120091,0.8346030043161622,
2023-08-11 19:56:43.013000,-8.879518072289157,-0.5542168674698795,-4.1084337349397595,-0.42427958307786634,-8.778050275904352,-3.7424892703862658,3.0,0.8322788322788324,1201.520405441451,-0.2200337975642445,0.17994289377075864,0.2101276149408543,1283.5164835164835,-1.0,93.2498577120091,0.8345768171059066,
2023-08-11 19:56:43.020000,-8.855421686746988,-0.5662650602409639,-4.096385542168675,-0.48068669527896996,-8.699570815450643,-3.725321888412017,3.0,0.8322788322788324,1201.520405441451,0.025756074820815194,-0.1414835965270097,0.1778451139211001,1282.7838827838827,-1.0,93.2498577120091,0.8345506208473743,
2023-08-11 19:56:43.028000,-8.855421686746988,-0.5060240963855422,-4.096385542168675,-0.44880441446965047,-8.729000613120784,-3.754751686082158,3.0,0.8322788322788324,1201.520405441451,-0.2330866499621242,0.2699143406561397,-0.17528116077151693,1283.5164835164835,-1.0,93.2498577120091,0.8345244170296616,
2023-08-11 19:56:43.036000,-8.831325301204819,-0.5421686746987953,-4.120481927710844,-0.42673206621704474,-8.753525444512569,-3.7400367872470874,3.0,0.8318348318348319,1202.1617293835068,-0.18297302022026732,0.09882873958394024,-0.009440009323465979,1285.7142857142856,-1.0,93.2498577120091,0.834498207222538,
2023-08-11 19:56:43.043000,-8.843373493975903,-0.5421686746987953,-4.144578313253012,-0.4904966278356836,-8.778050275904352,-3.666462293071735,3.0,0.8318348318348319,1202.1617293835068,-0.31641512732358196,0.22108268748907375,-0.29963288852630937,1289.3772893772893,-1.0,93.2498577120091,0.8344719929269245,
2023-08-11 19:56:43.051000,-8.855421686746988,-0.5421686746987953,-4.120481927710844,-0.47087676272225626,-8.741263028816677,-3.703249540159411,3.0,0.8318348318348319,1202.1617293835068,-0.25266592855894116,0.3250393333721812,-0.1446302663014975,1293.040293040293,-1.0,93.2498577120091,0.8344457755526822,
2023-08-11 19:56:43.059000,-8.867469879518072,-0.5301204819277109,-4.120481927710844,-0.463519313304721,-8.697118332311465,-3.7915389331698344,3.0,0.8318348318348319,1202.1617293835068,-0.4041722510343219,0.2896101625779375,-0.15943126857409237,1295.2380952380952,-1.0,93.2498577120091,0.8344195565552646,
2023-08-11 19:56:43.066000,-8.879518072289157,-0.5542168674698795,-4.120481927710844,-0.510116492949111,-8.73635806253832,-3.7596566523605146,3.0,0.8322788322788324,1201.520405441451,-0.1551191655497936,0.40895052735854487,-0.08262921741157274,1296.7032967032967,-1.0,93.2498577120091,0.8343933374333978,
2023-08-11 19:56:43.074000,-8.867469879518072,-0.5301204819277109,-4.144578313253012,-0.41692213366033104,-8.81238503985285,-3.7939914163090127,3.0,0.8313908313908314,1202.803738317757,-0.1681720179476716,0.04102325039333428,0.31350154419905585,1295.970695970696,-1.0,93.2498577120091,0.8343671198758853,
2023-08-11 19:56:43.082000,-8.879518072289157,-0.5301204819277109,-4.096385542168675,-0.44880441446965047,-8.81238503985285,-3.76701410177805,3.0,0.8318348318348319,1202.1617293835068,-0.4702523162985846,0.27189557718081736,-0.01107161587320116,1298.9010989010987,-1.0,93.2498577120091,0.8343409057597804,
2023-08-11 19:56:43.089000,-8.855421686746988,-0.5301204819277109,-4.0843373493975905,-0.46842427958307786,-8.785407725321887,-3.7326793378295524,3.0,0.8318348318348319,1202.1617293835068,-0.20523279529165048,-0.15698385874949047,-0.027853854670473722,1307.6923076923076,-1.0,93.2498577120091,0.8343146969366598,
2023-08-11 19:56:43.097000,-8.855421686746988,-0.5542168674698795,-4.096385542168675,-0.463519313304721,-8.71919068056407,-3.7400367872470874,3.0,0.8318348318348319,1202.1617293835068,0.10314084260823987,-0.06444845871452753,0.03438028086941358,1315.018315018315,-1.0,93.2498577120091,0.8342884952521674,
2023-08-11 19:56:43.105000,-8.867469879518072,-0.5301204819277109,-4.1084337349397595,-0.4095646842427958,-8.746167995095034,-3.7424892703862658,3.0,0.8318348318348319,1202.1617293835068,0.14835965270089121,-0.2919410290775594,0.033914107569488934,1318.6813186813185,666.412353515625,90.03434537711225,0.834262302554742,
2023-08-11 19:56:43.112000,-8.855421686746988,-0.5421686746987953,-4.096385542168675,-0.48313917841814835,-8.770692826486817,-3.744941753525444,3.0,0.8318348318348319,1202.1617293835068,-0.1874016665695478,-0.27376027038051426,0.15407027562496348,1320.8791208791208,-1.0,90.03434537711225,0.8342361205549199,
2023-08-11 19:56:43.120000,-8.855421686746988,-0.5421686746987953,-4.1084337349397595,-0.4218270999386879,-8.729000613120784,-3.81361128142244,3.0,0.8318348318348319,1202.1617293835068,-0.21700367111473753,-0.17970980712079695,0.15348755900005842,1320.8791208791208,-1.0,90.03434537711225,0.8342099508436709,
2023-08-11 19:56:43.128000,-8.855421686746988,-0.5542168674698795,-4.096385542168675,-0.49294911097486205,-8.770692826486817,-3.7057020232985898,3.0,0.8318348318348319,1202.1617293835068,0.10721985898257609,0.2813355865042825,0.12248703455509605,1320.14652014652,-1.0,90.03434537711225,0.8341837950383196,
2023-08-11 19:56:43.135000,-8.867469879518072,-0.5421686746987953,-4.096385542168675,-0.5297363580625383,-8.778050275904352,-3.7007970570202326,3.0,0.8318348318348319,1202.1617293835068,-0.19917254239263485,0.01841384534700861,0.41011596060835587,1321.6117216117216,-1.0,90.03434537711225,0.8341576549181223,
2023-08-11 19:56:43.143000,-8.843373493975903,-0.5421686746987953,-4.096385542168675,-0.4438994481912937,-8.790312691600246,-3.7621091354996934,3.0,0.8313908313908314,1202.803738317757,-0.04545189674261474,0.3401899656197195,0.19159722626886572,1322.3443223443223,-1.0,90.03434537711225,0.8341315324009831,
2023-08-11 19:56:43.151000,-8.867469879518072,-0.5542168674698795,-4.120481927710844,-0.4904966278356836,-8.75107296137339,-3.7302268546903736,3.0,0.8313908313908314,1202.803738317757,-0.32037760037293905,0.6289843249227893,-0.11689295495600505,1328.937728937729,-1.0,90.03434537711225,0.8341054292435622,
2023-08-11 19:56:43.158000,-8.879518072289157,-0.5662650602409639,-4.132530120481928,-0.4880441446965052,-8.741263028816677,-3.796443899448191,3.0,0.8318348318348319,1202.1617293835068,0.019462735271837873,0.49985432084377435,0.18646931996969848,1336.9963369963368,-1.0,90.03434537711225,0.8340793470182545,
2023-08-11 19:56:43.166000,-8.867469879518072,-0.5301204819277109,-4.120481927710844,-0.463519313304721,-8.792765174739424,-3.7498467198038012,3.0,0.8318348318348319,1202.1617293835068,-0.028902744595302985,0.4645416933745115,-0.029135831245265524,1344.3223443223442,-1.0,90.03434537711225,0.8340532873985924,
2023-08-11 19:56:43.174000,-8.867469879518072,-0.5542168674698795,-4.120481927710844,-0.4218270999386879,-8.79767014101778,-3.747394236664623,3.0,0.8313908313908314,1202.803738317757,-0.3936833517860258,0.23378590991200923,0.1520890391002858,1352.3809523809523,-1.0,90.03434537711225,0.834027252178526,
2023-08-11 19:56:43.181000,-8.843373493975903,-0.5542168674698795,-4.132530120481928,-0.4782342121397915,-8.709380748007357,-3.779276517473942,3.0,0.8313908313908314,1202.803738317757,0.006642969523919828,-0.13705495017772923,0.2866965794534118,1359.7069597069597,-1.0,90.03434537711225,0.834001242983568,
2023-08-11 19:56:43.189000,-8.867469879518072,-0.5421686746987953,-4.120481927710844,-0.4438994481912937,-8.721643163703249,-3.7719190680564068,3.0,0.8313908313908314,1202.803738317757,-0.3138511741739983,-0.39799545481032544,-0.1152613484062703,1365.5677655677655,-1.0,90.03434537711225,0.8339752612484278,
2023-08-11 19:56:43.197000,-8.831325301204819,-0.5421686746987953,-4.096385542168675,-0.4880441446965052,-8.753525444512569,-3.776824034334764,3.0,0.8313908313908314,1202.803738317757,-0.35580677116718107,-0.41139793718314766,-0.1773789406211759,1369.9633699633698,-1.0,90.03434537711225,0.8339493083539432,
2023-08-11 19:56:43.204000,-8.855421686746988,-0.5421686746987953,-4.120481927710844,-0.5003065603923973,-8.75107296137339,-3.784181483752299,3.0,0.8313908313908314,1202.803738317757,-0.36804382029019317,-0.6518268166190785,-0.16246139502360019,1375.091575091575,-1.0,90.03434537711225,0.8339233856254695,
2023-08-11 19:56:43.212000,-8.855421686746988,-0.5421686746987953,-4.1084337349397595,-0.5052115266707541,-8.743715511955855,-3.7988963825873694,3.0,0.8313908313908314,1202.803738317757,-0.516753102966027,-0.25173358195909273,0.13996853330225492,1378.7545787545787,-1.0,90.03434537711225,0.8338974943315176,
2023-08-11 19:56:43.220000,-8.867469879518072,-0.5421686746987953,-4.096385542168675,-0.48068669527896996,-8.726548129981605,-3.7915389331698344,3.0,0.8318348318348319,1202.1617293835068,-0.7688363149000639,-0.5670998193578455,0.2443913524852866,1380.952380952381,-1.0,90.03434537711225,0.8338716358214245,
2023-08-11 19:56:43.227000,-8.867469879518072,-0.5542168674698795,-4.0843373493975905,-0.46842427958307786,-8.738810545677499,-3.6983445738810543,3.0,0.830946830946831,1203.4464333422388,-0.3784161762135067,-0.038808927218693175,0.22749257036303233,1378.021978021978,-1.0,90.03434537711225,0.8338458115147567,
2023-08-11 19:56:43.235000,-8.855421686746988,-0.5662650602409639,-4.0843373493975905,-0.45861434702636417,-8.787860208461066,-3.7400367872470874,3.0,0.8313908313908314,1202.803738317757,-0.005827166249052237,-0.2780723734048139,-0.09533243983450865,1378.7545787545787,-1.0,90.03434537711225,0.8338200227740787,
2023-08-11 19:56:43.243000,-8.879518072289157,-0.5662650602409639,-4.1084337349397595,-0.45861434702636417,-8.758430410790925,-3.7596566523605146,3.0,0.8313908313908314,1202.803738317757,-0.003612843074412873,-0.27259483713070415,-0.09474972320960316,1380.2197802197802,-1.0,90.03434537711225,0.8337942708429955,
2023-08-11 19:56:43.250000,-8.903614457831326,-0.5542168674698795,-4.0843373493975905,-0.4537093807480073,-8.721643163703249,-3.7939914163090127,3.0,0.8313908313908314,1202.803738317757,-0.24625604568498302,-0.08274576073655357,0.22667676708816517,1382.4175824175823,-1.0,90.03434537711225,0.8337685568686134,
2023-08-11 19:56:43.258000,-8.891566265060241,-0.5421686746987953,-4.072289156626506,-0.49785407725321884,-8.770692826486817,-3.6909871244635193,3.0,0.8313908313908314,1202.803738317757,0.11013344210710395,0.10407318920808831,-0.12773148417924365,1383.8827838827838,-1.0,90.03434537711225,0.8337428819136098,
2023-08-11 19:56:43.265000,-8.867469879518072,-0.5421686746987953,-4.096385542168675,-0.43899448191293683,-8.824647455548742,-3.7007970570202326,3.0,0.8313908313908314,1202.803738317757,-0.3155993240487144,0.03309830429462177,-0.082745760736554,1383.8827838827838,-1.0,90.03434537711225,0.8337172469580356,
2023-08-11 19:56:43.273000,-8.891566265060241,-0.5180722891566265,-4.096385542168675,-0.49785407725321884,-8.800122624156959,-3.7817290006131206,3.0,0.8313908313908314,1202.803738317757,-0.022725948371306502,0.1426490297768198,-0.007225686148825746,1381.6849816849815,-1.0,90.03434537711225,0.8336916529013999,
2023-08-11 19:56:43.281000,-8.843373493975903,-0.5421686746987953,-4.120481927710844,-0.4463519313304721,-8.75107296137339,-3.708154506437768,3.0,0.8313908313908314,1202.803738317757,-0.11048307208204645,-0.3026630149758172,0.05360992949128848,1378.021978021978,-1.0,90.03434537711225,0.8336661005650798,
2023-08-11 19:56:43.288000,-8.855421686746988,-0.5180722891566265,-4.096385542168675,-0.4537093807480073,-8.670141017780502,-3.796443899448191,3.0,0.8313908313908314,1202.803738317757,0.05897092244041781,-0.008857292698560929,0.0045451896742613,1372.8937728937728,-1.0,90.03434537711225,0.8336405906950676,
2023-08-11 19:56:43.296000,-8.867469879518072,-0.5301204819277109,-4.072289156626506,-0.4537093807480073,-8.716738197424892,-3.7057020232985898,3.0,0.830946830946831,1203.4464333422388,-0.16828856127265243,-0.1480100227259487,-0.31886253714818474,1368.4981684981683,-1.0,90.03434537711225,0.8336151239650825,
2023-08-11 19:56:43.304000,-8.867469879518072,-0.5301204819277109,-4.072289156626506,-0.45616186388718577,-8.785407725321887,-3.717964438994482,3.0,0.8313908313908314,1202.803738317757,-0.41093176388322433,0.02074471184662881,0.20185303886719885,1363.3699633699632,-1.0,90.03434537711225,0.8335897008307722,
2023-08-11 19:56:43.311000,-8.879518072289157,-0.5542168674698795,-4.0843373493975905,-0.49540159411404044,-8.755977927651747,-3.747394236664623,3.0,0.8313908313908314,1202.803738317757,0.12947963405395924,-0.16036361517394165,0.03239904434473502,1356.0439560439559,-1.0,90.03434537711225,0.833564321661021,
2023-08-11 19:56:43.319000,-8.879518072289157,-0.5301204819277109,-4.1084337349397595,-0.4414469650521152,-8.746167995095034,-3.8013488657265477,3.0,0.8313908313908314,1202.803738317757,-0.2983509119515176,-0.25138395198415026,0.046151156692500625,1349.4505494505493,-1.0,90.03434537711225,0.8335389869011967,
2023-08-11 19:56:43.327000,-8.867469879518072,-0.5301204819277109,-4.096385542168675,-0.4659717964438994,-8.770692826486817,-3.7596566523605146,3.0,0.8313908313908314,1202.803738317757,-0.09917836955888276,-0.09626478643435664,0.28809509935318445,1344.3223443223442,-1.0,90.03434537711225,0.8335136969389484,
2023-08-11 19:56:43.334000,-8.855421686746988,-0.5301204819277109,-4.144578313253012,-0.4218270999386879,-8.763335377069282,-3.7719190680564068,3.0,0.8313908313908314,1202.803738317757,-0.17504807412155482,-0.20080414894237003,-0.23331973661208544,1341.3919413919414,-1.0,90.03434537711225,0.833488452109199,
2023-08-11 19:56:43.342000,-8.867469879518072,-0.5421686746987953,-4.1084337349397595,-0.5052115266707541,-8.76578786020846,-3.7572041692213363,3.0,0.830946830946831,1203.4464333422388,-0.1877512965444903,0.12353592447992617,0.11829147485577769,1340.6593406593406,-1.0,90.03434537711225,0.8334632528383361,
2023-08-11 19:56:43.350000,-8.867469879518072,-0.5180722891566265,-4.132530120481928,-0.45616186388718577,-8.807480073574494,-3.7106069895769465,3.0,0.830946830946831,1203.4464333422388,-0.15581842549968036,-0.22947380688771132,-0.12878037410407336,1342.1245421245421,-1.0,90.03434537711225,0.8334380994804367,
2023-08-11 19:56:43.357000,-8.867469879518072,-0.5542168674698795,-4.120481927710844,-0.4659717964438994,-8.741263028816677,-3.7694665849172284,3.0,0.830946830946831,1203.4464333422388,-0.21513897791504066,0.18413845347007743,0.007342229473807017,1346.5201465201465,-1.0,90.03434537711225,0.8334129921537525,
2023-08-11 19:56:43.365000,-8.855421686746988,-0.5180722891566265,-4.096385542168675,-0.47332924586143466,-8.716738197424892,-3.7498467198038012,3.0,0.830946830946831,1203.4464333422388,-0.11934036478060739,-0.4606957636501369,0.08239613076161063,1350.18315018315,-1.0,90.03434537711225,0.8333879308856845,
2023-08-11 19:56:43.373000,-8.843373493975903,-0.5301204819277109,-4.1084337349397595,-0.47087676272225626,-8.733905579399142,-3.7572041692213363,3.0,0.830946830946831,1203.4464333422388,-0.3612843074412908,-0.48808344502068557,-0.13216013052852413,1354.5787545787546,-1.0,90.03434537711225,0.8333629156190697,
2023-08-11 19:56:43.380000,-8.843373493975903,-0.5421686746987953,-4.0843373493975905,-0.522378908645003,-8.748620478234212,-3.737584304107909,3.0,0.8305028305028306,1204.0898155573375,-0.3859914923372767,-0.547287454111065,-0.13274284715342918,1356.0439560439559,-1.0,90.03434537711225,0.833337946079791,
2023-08-11 19:56:43.388000,-8.867469879518072,-0.5542168674698795,-4.0843373493975905,-0.463519313304721,-8.743715511955855,-3.6909871244635193,3.0,0.8305028305028306,1204.0898155573375,-0.4285298059553636,-0.3450847852689233,-0.08694132043587192,1358.974358974359,-1.0,90.03434537711225,0.8333130219317834,
2023-08-11 19:56:43.396000,-8.867469879518072,-0.5421686746987953,-4.0602409638554215,-0.48068669527896996,-8.795217657878602,-3.695892090741876,3.0,0.830946830946831,1203.4464333422388,-0.1503408892255689,-0.4946098712196263,0.08158032748674304,1361.904761904762,-1.0,90.03434537711225,0.8332881428688907,
2023-08-11 19:56:43.403000,-8.879518072289157,-0.5421686746987953,-4.096385542168675,-0.4438994481912937,-8.741263028816677,-3.7228694052728386,3.0,0.830946830946831,1203.4464333422388,-0.22236466406386643,-0.21478934794009644,0.07761785443738722,1367.032967032967,-1.0,90.03434537711225,0.8332633084719523,
2023-08-11 19:56:43.411000,-8.903614457831326,-0.5783132530120483,-4.120481927710844,-0.49294911097486205,-8.748620478234212,-3.7572041692213363,3.0,0.830946830946831,1203.4464333422388,-0.1602470718489591,0.06608006526426272,-0.0146844589476136,1372.161172161172,-1.0,90.03434537711225,0.8332385182571327,
2023-08-11 19:56:43.419000,-8.891566265060241,-0.5542168674698795,-4.120481927710844,-0.49540159411404044,-8.82709993868792,-3.76701410177805,3.0,0.830946830946831,1203.4464333422388,-0.23262047666219912,0.0953324398345082,0.426781656080648,1378.021978021978,-1.0,90.03434537711225,0.8332137716926327,
2023-08-11 19:56:43.426000,-8.879518072289157,-0.5542168674698795,-4.048192771084338,-0.44880441446965047,-8.792765174739424,-3.754751686082158,3.0,0.830946830946831,1203.4464333422388,-0.02960200454518974,-0.2115261348406278,0.025173358195909275,1380.952380952381,-1.0,90.03434537711225,0.8331890682049605,
2023-08-11 19:56:43.434000,-8.843373493975903,-0.5301204819277109,-4.0602409638554215,-0.4316370324954016,-8.714285714285714,-3.7228694052728386,3.0,0.830946830946831,1203.4464333422388,-0.24124468271079838,-0.08810675368568247,0.1931122894936192,1382.4175824175823,-1.0,90.03434537711225,0.8331644071853062,
2023-08-11 19:56:43.442000,-8.819277108433736,-0.5180722891566265,-4.0843373493975905,-0.4071122011036174,-8.733905579399142,-3.7498467198038012,3.0,0.830946830946831,1203.4464333422388,0.0844939106112696,0.32597167997202964,0.03985781714352331,1385.3479853479853,-1.0,90.03434537711225,0.8331397879960434,
2023-08-11 19:56:43.449000,-8.867469879518072,-0.5180722891566265,-4.1084337349397595,-0.3973022685469037,-8.738810545677499,-3.754751686082158,3.0,0.830946830946831,1203.4464333422388,-0.2490530854845283,0.10838529223238792,0.32958452304644253,1385.3479853479853,-1.0,90.03434537711225,0.8331152099773539,
2023-08-11 19:56:43.457000,-8.891566265060241,-0.5301204819277109,-4.132530120481928,-0.42427958307786634,-8.78050275904353,-3.8234212139791537,3.0,0.830946830946831,1203.4464333422388,-0.7006584697861427,-0.20115377891731254,0.35872035429170807,1382.4175824175823,-1.0,90.03434537711225,0.833090672453989,
2023-08-11 19:56:43.465000,-8.879518072289157,-0.5542168674698795,-4.096385542168675,-0.46106683016554256,-8.790312691600246,-3.747394236664623,3.0,0.830946830946831,1203.4464333422388,-0.44857525785210567,-0.5385467047374867,0.3565060311170678,1380.952380952381,-1.0,90.03434537711225,0.8330661747421751,
2023-08-11 19:56:43.472000,-8.843373493975903,-0.5180722891566265,-4.096385542168675,-0.4071122011036174,-8.748620478234212,-3.686082158185162,3.0,0.830946830946831,1203.4464333422388,-0.12097197133034257,-0.9965619719130592,0.07971563428704619,1379.4871794871794,-1.0,90.03434537711225,0.8330417161566587,
2023-08-11 19:56:43.480000,-8.867469879518072,-0.5421686746987953,-4.096385542168675,-0.46106683016554256,-8.76578786020846,-3.703249540159411,3.0,0.830946830946831,1203.4464333422388,-0.041372880368276785,-0.4293456092302312,0.11001689878212224,1375.8241758241757,-1.0,90.03434537711225,0.8330172960179085,
2023-08-11 19:56:43.488000,-8.903614457831326,-0.5301204819277109,-4.120481927710844,-0.4438994481912937,-8.839362354383812,-3.76701410177805,3.0,0.830946830946831,1203.4464333422388,-0.20523279529165048,0.027737311345492885,-0.4102325039333371,1372.161172161172,-1.0,90.03434537711225,0.8329929136594665,
2023-08-11 19:56:43.495000,-8.903614457831326,-0.5542168674698795,-4.156626506024097,-0.43899448191293683,-8.824647455548742,-3.747394236664623,3.0,0.830946830946831,1203.4464333422388,0.06036944234018958,-0.019462735271837873,0.11001689878212224,1372.161172161172,-1.0,90.03434537711225,0.832968568574198,
2023-08-11 19:56:43.503000,-8.891566265060241,-0.5421686746987953,-4.144578313253012,-0.49540159411404044,-8.778050275904352,-3.76701410177805,3.0,0.830946830946831,1203.4464333422388,0.01934619194685704,-0.0181807586970452,-0.02738768137054951,1373.6263736263736,-1.0,90.03434537711225,0.8329442604015669,
2023-08-11 19:56:43.511000,-8.855421686746988,-0.5301204819277109,-4.0843373493975905,-0.5248313917841815,-8.79767014101778,-3.7204169221336603,3.0,0.830946830946831,1203.4464333422388,-0.0813472408367818,0.23040615348755977,0.0029135831245265527,1375.091575091575,-1.0,90.03434537711225,0.8329199887874408,
2023-08-11 19:56:43.518000,-8.891566265060241,-0.5421686746987953,-4.096385542168675,-0.5125689760882893,-8.75107296137339,-3.7326793378295524,3.0,0.830946830946831,1203.4464333422388,0.15616805547462287,0.2802866965794532,0.017364955422178044,1377.2893772893772,-1.0,90.03434537711225,0.8328957533931317,
2023-08-11 19:56:43.526000,-8.867469879518072,-0.5301204819277109,-4.096385542168675,-0.42673206621704474,-8.748620478234212,-3.676272225628449,3.0,0.830946830946831,1203.4464333422388,0.16222830837363852,0.2868131227783922,0.017364955422178044,1383.150183150183,-1.0,90.03434537711225,0.8328715539043752,
2023-08-11 19:56:43.534000,-8.867469879518072,-0.5542168674698795,-4.072289156626506,-0.4659717964438994,-8.714285714285714,-3.7057020232985898,3.0,0.8305028305028306,1204.0898155573375,0.07540353126274699,0.6434356972204409,0.061068702290076333,1391.9413919413919,-1.0,90.03434537711225,0.8328473900402309,
2023-08-11 19:56:43.541000,-8.867469879518072,-0.5301204819277109,-4.096385542168675,-0.42427958307786634,-8.670141017780502,-3.7302268546903736,3.0,0.8305028305028306,1204.0898155573375,0.18786783986947114,0.7527533360526772,-0.01480100227259487,1405.128205128205,-1.0,90.03434537711225,0.83282326155136,
2023-08-11 19:56:43.549000,-8.867469879518072,-0.5301204819277109,-4.0843373493975905,-0.38749233599019006,-8.714285714285714,-3.7572041692213363,3.0,0.830946830946831,1203.4464333422388,-0.09906182623390192,0.4747975059728459,-0.3342462560456851,1420.5128205128203,-1.0,90.03434537711225,0.8327991681864994,
2023-08-11 19:56:43.557000,-8.855421686746988,-0.5301204819277109,-4.1084337349397595,-0.38994481912936846,-8.800122624156959,-3.7915389331698344,3.0,0.830946830946831,1203.4464333422388,-0.14218285647689471,0.5764232853563315,-0.025173358195909275,1438.8278388278388,-1.0,90.03434537711225,0.8327751097007073,
2023-08-11 19:56:43.564000,-8.879518072289157,-0.5180722891566265,-4.096385542168675,-0.4316370324954016,-8.726548129981605,-3.7498467198038012,3.0,0.830946830946831,1203.4464333422388,-0.09125342346017198,0.5218810092651941,0.21642095448983162,1460.07326007326,-1.0,90.03434537711225,0.8327510859053694,
2023-08-11 19:56:43.572000,-8.867469879518072,-0.5180722891566265,-4.132530120481928,-0.4193746167995095,-8.73635806253832,-3.744941753525444,3.0,0.830946830946831,1203.4464333422388,0.2336693665870284,0.36116776411630996,0.32014451372297653,1480.5860805860805,-1.0,90.03434537711225,0.8327270966863961,
2023-08-11 19:56:43.580000,-8.867469879518072,-0.5301204819277109,-4.120481927710844,-0.5076640098099325,-8.773145309625995,-3.7228694052728386,3.0,0.830946830946831,1203.4464333422388,0.08111415418681839,0.4316764757298531,-0.11048307208204645,1498.168498168498,-1.0,90.03434537711225,0.83270314201176,
2023-08-11 19:56:43.587000,-8.855421686746988,-0.5421686746987953,-4.0843373493975905,-0.4659717964438994,-8.709380748007357,-3.715511955855303,3.0,0.8305028305028306,1204.0898155573375,-0.040557077093409194,-0.04941436979197012,0.025872618145795594,1512.8205128205127,-1.0,90.03434537711225,0.8326792219389337,
2023-08-11 19:56:43.595000,-8.867469879518072,-0.5542168674698795,-4.0602409638554215,-0.43899448191293683,-8.75107296137339,-3.747394236664623,3.0,0.8305028305028306,1204.0898155573375,0.0844939106112696,-0.020045451896742058,-0.008158032748674174,1524.5421245421244,-1.0,90.03434537711225,0.8326553364729187,
2023-08-11 19:56:43.603000,-8.855421686746988,-0.5542168674698795,-4.096385542168675,-0.47332924586143466,-8.716738197424892,-3.7326793378295524,3.0,0.8305028305028306,1204.0898155573375,0.1157275217061945,0.11712604160596629,0.11223122195676248,1532.6007326007325,-1.0,90.03434537711225,0.832631485551575,
2023-08-11 19:56:43.610000,-8.843373493975903,-0.5421686746987953,-4.0843373493975905,-0.44880441446965047,-8.743715511955855,-3.7277743715511953,3.0,0.830946830946831,1203.4464333422388,0.021793601771458074,-0.0825126740865919,0.23157158673736944,1538.4615384615383,-1.0,90.03434537711225,0.8326076691897728,
2023-08-11 19:56:43.618000,-8.843373493975903,-0.5301204819277109,-4.0843373493975905,-0.4757817290006131,-8.785407725321887,-3.754751686082158,3.0,0.8305028305028306,1204.0898155573375,0.036244974069109565,0.4231688130062347,0.12202086125517139,1543.5897435897434,-1.0,90.03434537711225,0.832583887633772,
2023-08-11 19:56:43.626000,-8.855421686746988,-0.5421686746987953,-4.096385542168675,-0.43899448191293683,-8.760882893930104,-3.7400367872470874,3.0,0.8305028305028306,1204.0898155573375,-0.025289901520890112,0.2541809917836955,-0.04883165316706464,1546.5201465201465,-1.0,90.03434537711225,0.8325601413773318,
2023-08-11 19:56:43.633000,-8.879518072289157,-0.5662650602409639,-4.1084337349397595,-0.43408951563458,-8.768240343347639,-3.7572041692213363,3.0,0.8305028305028306,1204.0898155573375,0.01911310529689363,0.14544606957636508,0.07645242118757668,1547.2527472527472,-1.0,90.03434537711225,0.8325364308481106,
2023-08-11 19:56:43.641000,-8.855421686746988,-0.5421686746987953,-4.096385542168675,-0.47332924586143466,-8.729000613120784,-3.713059472716125,3.0,0.8305028305028306,1204.0898155573375,0.07855020103723478,0.1889167297943004,-8.15803274867591E-4,1546.5201465201465,-1.0,90.03434537711225,0.8325127565618989,
2023-08-11 19:56:43.648000,-8.879518072289157,-0.5421686746987953,-4.144578313253012,-0.4463519313304721,-8.758430410790925,-3.7498467198038012,3.0,0.8305028305028306,1204.0898155573375,-0.12260357788007775,0.09171959676009533,0.1983567391177668,1541.3919413919414,-1.0,90.03434537711225,0.8324891191166214,
2023-08-11 19:56:43.656000,-8.879518072289157,-0.5301204819277109,-4.120481927710844,-0.4512568976088289,-8.721643163703249,-3.744941753525444,3.0,0.8305028305028306,1204.0898155573375,-0.3372763824951933,0.2861138628285072,-0.1086183788823496,1531.135531135531,-1.0,90.03434537711225,0.832465519068247,
2023-08-11 19:56:43.664000,-8.855421686746988,-0.5542168674698795,-4.0843373493975905,-0.4512568976088289,-8.726548129981605,-3.725321888412017,3.0,0.8305028305028306,1204.0898155573375,0.013285939047841392,0.11223122195676248,0.08938873026047427,1515.018315018315,-1.0,90.03434537711225,0.8324419572218607,
2023-08-11 19:56:43.671000,-8.879518072289157,-0.5421686746987953,-4.096385542168675,-0.4757817290006131,-8.716738197424892,-3.695892090741876,3.0,0.8305028305028306,1204.0898155573375,-0.09568206980945246,0.34053959559466196,0.10314084260823944,1495.2380952380952,-1.0,90.03434537711225,0.8324184346140018,
2023-08-11 19:56:43.679000,-8.867469879518072,-0.5301204819277109,-4.096385542168675,-0.4904966278356836,-8.741263028816677,-3.7351318209687308,3.0,0.8305028305028306,1204.0898155573375,0.22481207388846747,0.4421653749781475,0.2709632305809685,1478.3882783882782,-1.0,90.03434537711225,0.832394952367102,
2023-08-11 19:56:43.687000,-8.867469879518072,-0.5301204819277109,-4.120481927710844,-0.41692213366033104,-8.746167995095034,-3.7596566523605146,3.0,0.83005883005883,1204.733886065793,-0.1128139385816684,0.11584406503117535,0.023658294971155364,1463.7362637362637,-1.0,90.03434537711225,0.8323715116927296,
2023-08-11 19:56:43.694000,-8.879518072289157,-0.5301204819277109,-4.096385542168675,-0.4537093807480073,-8.829552421827099,-3.7694665849172284,3.0,0.83005883005883,1204.733886065793,-0.12843074412913,0.40557077093409544,0.16129596177378921,1453.4798534798533,-1.0,90.03434537711225,0.832348114022563,
2023-08-11 19:56:43.702000,-8.879518072289157,-0.5301204819277109,-4.0843373493975905,-0.47332924586143466,-8.805027590435316,-3.779276517473942,3.0,0.83005883005883,1204.733886065793,0.11561097838121367,0.3114037643493973,0.37422061651418925,1446.153846153846,-1.0,90.03434537711225,0.8323247608093086,
2023-08-11 19:56:43.710000,-8.867469879518072,-0.5180722891566265,-4.1084337349397595,-0.38749233599019006,-8.768240343347639,-3.7645616186388717,3.0,0.83005883005883,1204.733886065793,-0.28086941320435915,0.12470135772973627,0.38657420896218175,1441.0256410256409,-1.0,90.03434537711225,0.8323014532512504,
2023-08-11 19:56:43.717000,-8.855421686746988,-0.5060240963855422,-4.1084337349397595,-0.4414469650521152,-8.738810545677499,-3.725321888412017,3.0,0.83005883005883,1204.733886065793,-0.3560398578171427,0.06083561564011466,0.13891964337742566,1436.6300366300366,-1.0,90.03434537711225,0.8322781924623638,
2023-08-11 19:56:43.725000,-8.843373493975903,-0.5301204819277109,-4.0843373493975905,-0.43899448191293683,-8.731453096259962,-3.7302268546903736,3.0,0.83005883005883,1204.733886065793,-0.15605151214964202,-0.07820057106229227,-0.19625895926810785,1434.4322344322343,-1.0,90.03434537711225,0.8322549796199454,
2023-08-11 19:56:43.733000,-8.867469879518072,-0.5180722891566265,-4.096385542168675,-0.41446965052115264,-8.692213366033108,-3.7498467198038012,3.0,0.83005883005883,1204.733886065793,0.013402482372822228,0.19590932929316449,0.21805256103956636,1432.2344322344322,-1.0,90.03434537711225,0.8322318159623858,
2023-08-11 19:56:43.740000,-8.855421686746988,-0.5180722891566265,-4.096385542168675,-0.43408951563458,-8.711833231146535,-3.7351318209687308,3.0,0.83005883005883,1204.733886065793,0.17912709049589104,-0.12575024765456555,0.38529223238738997,1430.03663003663,-1.0,90.03434537711225,0.8322087027864047,
2023-08-11 19:56:43.748000,-8.855421686746988,-0.5180722891566265,-4.120481927710844,-0.39975475168608215,-8.714285714285714,-3.713059472716125,3.0,0.83005883005883,1204.733886065793,-0.1276149408542624,-0.2938057222772563,0.015849892197424567,1425.6410256410256,-1.0,90.03434537711225,0.8321856414438094,
2023-08-11 19:56:43.756000,-8.867469879518072,-0.5180722891566265,-4.120481927710844,-0.39239730226854685,-8.731453096259962,-3.7572041692213363,3.0,0.83005883005883,1204.733886065793,-0.033914107569489364,-0.059320552415360314,-0.031117067769943652,1418.3150183150183,-1.0,90.03434537711225,0.8321626334765454,
2023-08-11 19:56:43.763000,-8.879518072289157,-0.5301204819277109,-4.120481927710844,-0.4218270999386879,-8.748620478234212,-3.776824034334764,3.0,0.83005883005883,1204.733886065793,-0.29310646232736953,-0.4526542742264436,0.07715168113746301,1410.989010989011,-1.0,90.03434537711225,0.8321396804534872,
2023-08-11 19:56:43.771000,-8.867469879518072,-0.5180722891566265,-4.0843373493975905,-0.42918454935622313,-8.748620478234212,-3.754751686082158,3.0,0.83005883005883,1204.733886065793,-0.21222539479051283,-0.24940271545947254,-0.10640405570770937,1406.5934065934066,-1.0,90.03434537711225,0.8321167839771356,
2023-08-11 19:56:43.779000,-8.855421686746988,-0.5180722891566265,-4.120481927710844,-0.4071122011036174,-8.758430410790925,-3.7302268546903736,3.0,0.83005883005883,1204.733886065793,-0.01083852922323862,0.013169395722860555,0.07680205116251963,1397.8021978021977,-1.0,90.03434537711225,0.8320939456688561,
2023-08-11 19:56:43.786000,-8.867469879518072,-0.5301204819277109,-4.132530120481928,-0.4537093807480073,-8.79767014101778,-3.7572041692213363,3.0,0.83005883005883,1204.733886065793,-0.024940271545947603,-0.24520715576015376,0.12353592447992531,1389.7435897435896,-1.0,90.03434537711225,0.8320711671748466,
2023-08-11 19:56:43.794000,-8.903614457831326,-0.5421686746987953,-4.096385542168675,-0.47332924586143466,-8.748620478234212,-3.7522992029429796,3.0,0.83005883005883,1204.733886065793,-0.14614532952625184,0.18390536682011577,-0.10477244915797462,1386.8131868131868,-1.0,90.03434537711225,0.8320484502894953,
2023-08-11 19:56:43.802000,-8.879518072289157,-0.5301204819277109,-4.1084337349397595,-0.4880441446965052,-8.726548129981605,-3.744941753525444,3.0,0.8296148296148297,1205.3786459727053,-0.1420663131519139,0.1794767204708353,-0.10349047258318282,1387.5457875457876,-1.0,90.03434537711225,0.832025796801706,
2023-08-11 19:56:43.809000,-8.891566265060241,-0.5301204819277109,-4.072289156626506,-0.47332924586143466,-8.724095646842427,-3.7302268546903736,3.0,0.8296148296148297,1205.3786459727053,-0.19963871569255817,0.1139793718314785,0.311636850999359,1389.0109890109889,-1.0,90.03434537711225,0.8320032083409514,
2023-08-11 19:56:43.817000,-8.855421686746988,-0.5301204819277109,-4.096385542168675,-0.510116492949111,-8.755977927651747,-3.7326793378295524,3.0,0.8296148296148297,1205.3786459727053,4.661732999250815E-4,0.36652875706543886,-0.11782530155585347,1391.2087912087911,-1.0,90.03434537711225,0.8319806863505378,
2023-08-11 19:56:43.825000,-8.867469879518072,-0.5301204819277109,-4.072289156626506,-0.510116492949111,-8.753525444512569,-3.747394236664623,3.0,0.8296148296148297,1205.3786459727053,-0.03169978439484827,0.26478643435697247,0.05151214964162908,1394.139194139194,-1.0,90.03434537711225,0.8319582322196589,
2023-08-11 19:56:43.832000,-8.879518072289157,-0.5180722891566265,-4.096385542168675,-0.44880441446965047,-8.753525444512569,-3.7400367872470874,3.0,0.83005883005883,1204.733886065793,0.09067070683526607,0.34858108501835533,-0.03974127381854204,1397.8021978021977,-1.0,90.03434537711225,0.8319358472764298,
2023-08-11 19:56:43.840000,-8.831325301204819,-0.5180722891566265,-4.132530120481928,-0.43654199877375843,-8.805027590435316,-3.776824034334764,3.0,0.8291708291708292,1206.0240963855422,0.48761727172076225,0.144280636326555,-0.13192704387856202,1400.7326007326005,-1.0,90.03434537711225,0.8319135329300156,
2023-08-11 19:56:43.848000,-8.855421686746988,-0.5180722891566265,-4.096385542168675,-0.4193746167995095,-8.748620478234212,-3.8038013488657265,3.0,0.8291708291708292,1206.0240963855422,0.3954315016607418,0.07843365771225394,-0.37620185303886733,1405.128205128205,-1.0,90.03434537711225,0.8318912905253816,
2023-08-11 19:56:43.855000,-8.867469879518072,-0.5180722891566265,-4.1084337349397595,-0.4757817290006131,-8.729000613120784,-3.784181483752299,3.0,0.8296148296148297,1205.3786459727053,-0.2010372355923317,0.15302138570013335,0.16094633179884626,1408.7912087912086,-1.0,90.03434537711225,0.8318691211347616,
2023-08-11 19:56:43.863000,-8.831325301204819,-0.5180722891566265,-4.120481927710844,-0.38749233599019006,-8.758430410790925,-3.7939914163090127,3.0,0.8296148296148297,1205.3786459727053,0.06130178894003801,-0.212108851465532,-0.023075578346250313,1409.5238095238094,-1.0,90.03434537711225,0.8318470256888993,
2023-08-11 19:56:43.871000,-8.855421686746988,-0.5421686746987953,-4.1084337349397595,-0.4316370324954016,-8.724095646842427,-3.7351318209687308,3.0,0.8296148296148297,1205.3786459727053,-0.10558825243284264,-0.29939980187634685,0.06817784511392125,1408.7912087912086,-1.0,90.03434537711225,0.831825005150261,
2023-08-11 19:56:43.878000,-8.879518072289157,-0.5301204819277109,-4.120481927710844,-0.39975475168608215,-8.763335377069282,-3.695892090741876,3.0,0.8296148296148297,1205.3786459727053,0.005827166249052237,-0.585047491404929,0.0692267350387505,1408.7912087912086,-1.0,90.03434537711225,0.83180306035685,
2023-08-11 19:56:43.886000,-8.855421686746988,-0.5180722891566265,-4.1084337349397595,-0.4880441446965052,-8.729000613120784,-3.7498467198038012,3.0,0.8296148296148297,1205.3786459727053,-0.1333255637783338,-0.5927393508536798,0.03904201386865572,1407.3260073260071,-1.0,90.03434537711225,0.8317811918872657,
2023-08-11 19:56:43.894000,-8.867469879518072,-0.5301204819277109,-4.1084337349397595,-0.42918454935622313,-8.724095646842427,-3.7326793378295524,3.0,0.8296148296148297,1205.3786459727053,-0.11561097838121367,-0.3891381621117645,0.038342753918769394,1405.128205128205,-1.0,90.03434537711225,0.8317594002028369,
2023-08-11 19:56:43.901000,-8.867469879518072,-0.5421686746987953,-4.096385542168675,-0.43899448191293683,-8.714285714285714,-3.747394236664623,3.0,0.8296148296148297,1205.3786459727053,0.17481498747159316,-0.24742147893479485,0.17295029427189543,1402.197802197802,-1.0,90.03434537711225,0.8317376857796486,
2023-08-11 19:56:43.909000,-8.855421686746988,-0.5301204819277109,-4.072289156626506,-0.47332924586143466,-8.748620478234212,-3.7522992029429796,3.0,0.8296148296148297,1205.3786459727053,-0.12831420080414915,-0.30511042480042,0.0023308664996210685,1401.4652014652013,-1.0,90.03434537711225,0.8317160490819704,
2023-08-11 19:56:43.917000,-8.855421686746988,-0.5301204819277109,-4.072289156626506,-0.45616186388718577,-8.773145309625995,-3.737584304107909,3.0,0.8291708291708292,1206.0240963855422,0.19451080939339271,-0.24264320261057015,-0.21222539479051325,1400.0,-1.0,90.03434537711225,0.8316944904086773,
2023-08-11 19:56:43.924000,-8.867469879518072,-0.5421686746987953,-4.1084337349397595,-0.4316370324954016,-8.75107296137339,-3.754751686082158,3.0,0.8296148296148297,1205.3786459727053,-0.2016199522172376,0.18938290309422548,-0.028436571295379204,1394.8717948717947,-1.0,90.03434537711225,0.8316730097401565,
2023-08-11 19:56:43.932000,-8.879518072289157,-0.5301204819277109,-4.096385542168675,-0.49785407725321884,-8.755977927651747,-3.7621091354996934,3.0,0.8296148296148297,1205.3786459727053,0.17994289377075864,0.0666627818891669,-0.02995163452013268,1388.278388278388,-1.0,90.03434537711225,0.8316516068624841,
2023-08-11 19:56:43.940000,-8.867469879518072,-0.5301204819277109,-4.1084337349397595,-0.49540159411404044,-8.75107296137339,-3.754751686082158,3.0,0.8291708291708292,1206.0240963855422,0.2690985373812721,0.3714235767146444,0.1560515121496416,1382.4175824175823,-1.0,90.03434537711225,0.8316302815237553,
2023-08-11 19:56:43.947000,-8.867469879518072,-0.5301204819277109,-4.1084337349397595,-0.4414469650521152,-8.726548129981605,-3.7522992029429796,3.0,0.8291708291708292,1206.0240963855422,0.11747567158091053,0.13740458015267176,-0.21245848144047536,1380.952380952381,-1.0,90.03434537711225,0.8316090331439423,
2023-08-11 19:56:43.955000,-8.867469879518072,-0.5180722891566265,-4.1084337349397595,-0.5150214592274678,-8.770692826486817,-3.7596566523605146,3.0,0.8291708291708292,1206.0240963855422,-0.11153196200687572,0.12015616805547498,-0.02738768137054951,1382.4175824175823,-1.0,90.03434537711225,0.8315878607916948,
2023-08-11 19:56:43.963000,-8.855421686746988,-0.5180722891566265,-4.096385542168675,-0.4193746167995095,-8.748620478234212,-3.7645616186388717,3.0,0.8291708291708292,1206.0240963855422,0.1177087582308722,0.27457607365538184,0.09474972320960316,1386.080586080586,-1.0,90.03434537711225,0.8315667633209113,
2023-08-11 19:56:43.970000,-8.891566265060241,-0.5180722891566265,-4.0843373493975905,-0.44880441446965047,-8.775597792765174,-3.7645616186388717,3.0,0.8291708291708292,1206.0240963855422,-0.08227958743663023,-0.09136996678515283,-0.10512207913291756,1389.7435897435896,-1.0,90.03434537711225,0.8315457393692687,
2023-08-11 19:56:43.978000,-8.867469879518072,-0.5180722891566265,-4.132530120481928,-0.42918454935622313,-8.729000613120784,-3.7326793378295524,3.0,0.8291708291708292,1206.0240963855422,-0.18914981644426382,-0.2407785094108733,0.0018646931996968547,1391.2087912087911,-1.0,90.03434537711225,0.8315247873575237,
2023-08-11 19:56:43.986000,-8.879518072289157,-0.5060240963855422,-4.144578313253012,-0.4463519313304721,-8.775597792765174,-3.7645616186388717,3.0,0.8291708291708292,1206.0240963855422,0.22387972728861905,0.038808927218693175,-0.058737835790455266,1391.9413919413919,-1.0,90.03434537711225,0.8315039056283903,
2023-08-11 19:56:43.993000,-8.855421686746988,-0.5180722891566265,-4.120481927710844,-0.48068669527896996,-8.785407725321887,-3.76701410177805,3.0,0.8287268287268288,1206.670238414144,-0.1582658353242814,0.10011071615873118,0.17015325447235016,1389.0109890109889,-1.0,90.03434537711225,0.8314830922884262,
2023-08-11 19:56:44.001000,-8.891566265060241,-0.5301204819277109,-4.120481927710844,-0.46106683016554256,-8.724095646842427,-3.784181483752299,3.0,0.8287268287268288,1206.670238414144,0.026338791445719375,-0.022725948371306502,-0.166423868072956,1388.278388278388,704.7119140625,85.14117443270396,0.8314623452105706,
2023-08-11 19:56:44.009000,-8.867469879518072,-0.5301204819277109,-4.1084337349397595,-0.4659717964438994,-8.81238503985285,-3.784181483752299,3.0,0.8291708291708292,1206.0240963855422,0.07423809801293689,-0.03764349396888308,-0.16490880484820253,1384.6153846153845,-1.0,85.14117443270396,0.8314416621235359,
2023-08-11 19:56:44.016000,-8.867469879518072,-0.5180722891566265,-4.096385542168675,-0.4193746167995095,-8.746167995095034,-3.725321888412017,3.0,0.8291708291708292,1206.0240963855422,0.4690868830487728,0.2225977507138281,-0.13472408367810731,1382.4175824175823,-1.0,85.14117443270396,0.8314210404671801,
2023-08-11 19:56:44.024000,-8.867469879518072,-0.5060240963855422,-4.1084337349397595,-0.43899448191293683,-8.81238503985285,-3.789086450030656,3.0,0.8291708291708292,1206.0240963855422,0.2368160363615179,0.3443855253190365,-0.19404463609346762,1384.6153846153845,-1.0,85.14117443270396,0.8314004774399081,
2023-08-11 19:56:44.031000,-8.867469879518072,-0.5301204819277109,-4.096385542168675,-0.4537093807480073,-8.763335377069282,-3.776824034334764,3.0,0.8291708291708292,1206.0240963855422,0.14556261290134592,-0.07155760153837244,-0.3600023308664994,1388.278388278388,-1.0,85.14117443270396,0.8313799700152683,
2023-08-11 19:56:44.039000,-8.855421686746988,-0.5301204819277109,-4.096385542168675,-0.42427958307786634,-8.753525444512569,-3.7572041692213363,3.0,0.8291708291708292,1206.0240963855422,0.1446302663014975,0.1905483363440356,0.006992599498863639,1389.7435897435896,-1.0,85.14117443270396,0.8313595149489467,
2023-08-11 19:56:44.047000,-8.867469879518072,-0.5060240963855422,-4.1084337349397595,-0.42427958307786634,-8.775597792765174,-3.806253832004905,3.0,0.8291708291708292,1206.0240963855422,0.08297884738651524,0.03717732066895799,-0.03974127381854204,1391.2087912087911,-1.0,85.14117443270396,0.8313391087867351,
2023-08-11 19:56:44.054000,-8.843373493975903,-0.5180722891566265,-4.096385542168675,-0.5272838749233598,-8.699570815450643,-3.744941753525444,3.0,0.8291708291708292,1206.0240963855422,-0.07085834158848568,-0.28203484645416926,-0.3173474739234308,1392.6739926739926,-1.0,85.14117443270396,0.8313187478734988,
2023-08-11 19:56:44.062000,-8.855421686746988,-0.5180722891566265,-4.120481927710844,-0.46106683016554256,-8.753525444512569,-3.7621091354996934,3.0,0.8287268287268288,1206.670238414144,-0.20779674844123236,-0.10943418215721719,0.17166831769710406,1397.069597069597,-1.0,85.14117443270396,0.8312984283631686,
2023-08-11 19:56:44.070000,-8.855421686746988,-0.5180722891566265,-4.0843373493975905,-0.41446965052115264,-8.758430410790925,-3.7743715511955855,3.0,0.8291708291708292,1206.0240963855422,-0.1616455917487326,-0.029951634520132248,0.01561680554746246,1398.5347985347985,-1.0,85.14117443270396,0.8312781460804719,
2023-08-11 19:56:44.077000,-8.879518072289157,-0.5180722891566265,-4.096385542168675,-0.45616186388718577,-8.76578786020846,-3.789086450030656,3.0,0.8287268287268288,1206.670238414144,-0.15978089854903574,-0.026455334770700212,0.013985198997727278,1400.0,-1.0,85.14117443270396,0.8312578966604237,
2023-08-11 19:56:44.085000,-8.855421686746988,-0.5301204819277109,-4.1084337349397595,-0.4463519313304721,-8.795217657878602,-3.7326793378295524,3.0,0.8287268287268288,1206.670238414144,-0.0816968708117243,0.0658469786142993,1.1654332498127038E-4,1396.3369963369962,-1.0,85.14117443270396,0.831237675571093,
2023-08-11 19:56:44.093000,-8.867469879518072,-0.5542168674698795,-4.120481927710844,-0.49540159411404044,-8.787860208461066,-3.7277743715511953,3.0,0.8291708291708292,1206.0240963855422,-0.006526426198938992,-0.1003438028086946,-0.016082978847386676,1391.2087912087911,-1.0,85.14117443270396,0.8312174779669562,
2023-08-11 19:56:44.100000,-8.867469879518072,-0.5421686746987953,-4.1084337349397595,-0.4512568976088289,-8.729000613120784,-3.7522992029429796,3.0,0.8287268287268288,1206.670238414144,-0.12843074412913,0.021560515121496402,-0.09335120330983052,1386.080586080586,-1.0,85.14117443270396,0.8311972989902808,
2023-08-11 19:56:44.108000,-8.903614457831326,-0.5180722891566265,-4.132530120481928,-0.43408951563458,-8.787860208461066,-3.7866339668914772,3.0,0.8287268287268288,1206.670238414144,0.22621059378824096,0.4943767845696629,-0.230639240137521,1382.4175824175823,-1.0,85.14117443270396,0.8311771336578873,
2023-08-11 19:56:44.116000,-8.843373493975903,-0.5060240963855422,-4.0843373493975905,-0.43408951563458,-8.760882893930104,-3.7866339668914772,3.0,0.8287268287268288,1206.670238414144,-0.016898782122254267,0.41221374045801523,-0.04626770001748146,1380.2197802197802,-1.0,85.14117443270396,0.8311569767172229,
2023-08-11 19:56:44.123000,-8.867469879518072,-0.49397590361445787,-4.120481927710844,-0.3629675045984059,-8.73635806253832,-3.7866339668914772,3.0,0.8287268287268288,1206.670238414144,0.13623914690286165,0.3307499562962526,-0.21350737136530507,1378.7545787545787,-1.0,85.14117443270396,0.8311368228011173,
2023-08-11 19:56:44.131000,-8.843373493975903,-0.5060240963855422,-4.120481927710844,-0.4071122011036174,-8.714285714285714,-3.818516247700797,3.0,0.8287268287268288,1206.670238414144,0.013169395722860555,0.26583532428180173,0.017481498747159315,1375.8241758241757,-1.0,85.14117443270396,0.8311166664445765,
2023-08-11 19:56:44.139000,-8.855421686746988,-0.5060240963855422,-4.132530120481928,-0.43899448191293683,-8.775597792765174,-3.7522992029429796,3.0,0.8287268287268288,1206.670238414144,-0.1828564768952865,-0.16152904842375176,-0.3336635394207796,1371.4285714285713,-1.0,85.14117443270396,0.8310965021023136,
2023-08-11 19:56:44.146000,-8.855421686746988,-0.5421686746987953,-4.120481927710844,-0.4537093807480073,-8.73635806253832,-3.7817290006131206,3.0,0.8287268287268288,1206.670238414144,-0.12015616805547498,-0.3891381621117645,-0.160829788473865,1367.032967032967,-1.0,85.14117443270396,0.8310763241670058,
2023-08-11 19:56:44.154000,-8.879518072289157,-0.5421686746987953,-4.132530120481928,-0.4512568976088289,-8.78050275904353,-3.7498467198038012,3.0,0.8287268287268288,1206.670238414144,-0.07202377483829579,-0.1392692733523686,-0.11304702523163007,1360.4395604395604,-1.0,85.14117443270396,0.8310561271269701,
2023-08-11 19:56:44.162000,-8.903614457831326,-0.5180722891566265,-4.120481927710844,-0.48313917841814835,-8.787860208461066,-3.7719190680564068,3.0,0.8287268287268288,1206.670238414144,0.1721344909970287,-0.545539304236349,0.03892547054367445,1349.4505494505493,-1.0,85.14117443270396,0.8310359055653355,
2023-08-11 19:56:44.169000,-8.879518072289157,-0.5180722891566265,-4.120481927710844,-0.43408951563458,-8.78050275904353,-3.7915389331698344,3.0,0.8287268287268288,1206.670238414144,-0.13262630382844878,-0.01829730202202604,-0.12854728745411126,1339.9267399267399,-1.0,85.14117443270396,0.8310156540321881,
2023-08-11 19:56:44.177000,-8.891566265060241,-0.5180722891566265,-4.096385542168675,-0.47332924586143466,-8.760882893930104,-3.784181483752299,3.0,0.8287268287268288,1206.670238414144,0.14474680962647835,-0.18227376027038059,-0.18949944641920632,1337.7289377289376,-1.0,85.14117443270396,0.8309953670663269,
2023-08-11 19:56:44.185000,-8.867469879518072,-0.5421686746987953,-4.1084337349397595,-0.42427958307786634,-8.73635806253832,-3.7351318209687308,3.0,0.8287268287268288,1206.670238414144,0.3714235767146444,0.44717673795233387,-0.29438843890216176,1339.194139194139,-1.0,85.14117443270396,0.8309750392172964,
2023-08-11 19:56:44.192000,-8.843373493975903,-0.5180722891566265,-4.132530120481928,-0.42673206621704474,-8.706928264868179,-3.808706315144083,3.0,0.8282828282828284,1207.3170731707316,0.3398403356447752,0.5194335994405913,-0.1989394557426723,1343.5897435897434,-1.0,85.14117443270396,0.8309546650676162,
2023-08-11 19:56:44.200000,-8.855421686746988,-0.5301204819277109,-4.120481927710844,-0.41446965052115264,-8.760882893930104,-3.7572041692213363,3.0,0.8287268287268288,1206.670238414144,0.03123361109492492,0.6959967367869005,0.07598624788765204,1349.4505494505493,-1.0,85.14117443270396,0.8309342391058665,
2023-08-11 19:56:44.208000,-8.867469879518072,-0.5060240963855422,-4.120481927710844,-0.47087676272225626,-8.699570815450643,-3.7424892703862658,3.0,0.8287268287268288,1206.670238414144,0.1826233902453231,0.3214264902977683,0.10407318920808831,1356.0439560439559,-1.0,85.14117443270396,0.8309137558765622,
2023-08-11 19:56:44.215000,-8.855421686746988,-0.5060240963855422,-4.120481927710844,-0.4512568976088289,-8.75107296137339,-3.7228694052728386,3.0,0.8282828282828284,1207.3170731707316,-0.06421537206456586,0.4821397354466525,0.009906182623390191,1366.3003663003662,-1.0,85.14117443270396,0.8308932101615605,
2023-08-11 19:56:44.223000,-8.831325301204819,-0.5301204819277109,-4.144578313253012,-0.44880441446965047,-8.76578786020846,-3.7719190680564068,3.0,0.8287268287268288,1206.670238414144,0.23926344618611894,0.3697919701649092,-0.06596352193928101,1379.4871794871794,-1.0,85.14117443270396,0.8308725967142456,
2023-08-11 19:56:44.231000,-8.843373493975903,-0.5301204819277109,-4.144578313253012,-0.4414469650521152,-8.800122624156959,-3.789086450030656,3.0,0.8287268287268288,1206.670238414144,-0.07225686148825747,0.21001107161587346,0.13437445370316436,1397.069597069597,-1.0,85.14117443270396,0.8308519104090638,
2023-08-11 19:56:44.238000,-8.855421686746988,-0.5421686746987953,-4.132530120481928,-0.46842427958307786,-8.782955242182709,-3.713059472716125,3.0,0.8282828282828284,1207.3170731707316,0.06421537206456586,-0.2041839053668195,0.027737311345492885,1418.3150183150183,-1.0,85.14117443270396,0.8308311464223989,
2023-08-11 19:56:44.246000,-8.867469879518072,-0.5421686746987953,-4.1084337349397595,-0.522378908645003,-8.75107296137339,-3.7106069895769465,3.0,0.8282828282828284,1207.3170731707316,-0.08764058038575911,-0.09801293630907265,0.24007924946098697,1441.7582417582416,-1.0,85.14117443270396,0.8308102999660324,
2023-08-11 19:56:44.254000,-8.867469879518072,-0.5301204819277109,-4.132530120481928,-0.41692213366033104,-8.787860208461066,-3.7498467198038012,3.0,0.8282828282828284,1207.3170731707316,-0.11619369500611786,0.037876580618844746,-0.053027212866383,1467.3992673992673,-1.0,85.14117443270396,0.830789366286465,
2023-08-11 19:56:44.261000,-8.867469879518072,-0.5421686746987953,-4.096385542168675,-0.42673206621704474,-8.773145309625995,-3.744941753525444,3.0,0.8282828282828284,1207.3170731707316,0.2047666219917254,-0.024357554921041684,-0.051395606316648246,1490.8424908424906,-1.0,85.14117443270396,0.8307683408228069,
2023-08-11 19:56:44.269000,-8.855421686746988,-0.5060240963855422,-4.0843373493975905,-0.43408951563458,-8.775597792765174,-3.686082158185162,3.0,0.8282828282828284,1207.3170731707316,0.327486743196784,-0.03892547054367401,-0.006642969523920696,1512.087912087912,-1.0,85.14117443270396,0.8307472193640474,
2023-08-11 19:56:44.277000,-8.855421686746988,-0.5301204819277109,-4.072289156626506,-0.522378908645003,-8.75107296137339,-3.7743715511955855,3.0,0.8282828282828284,1207.3170731707316,0.0643319153895467,-0.09976108618378868,0.12971272070392179,1530.4029304029302,-1.0,85.14117443270396,0.8307259980465157,
2023-08-11 19:56:44.284000,-8.831325301204819,-0.5180722891566265,-4.1084337349397595,-0.4537093807480073,-8.746167995095034,-3.776824034334764,3.0,0.8282828282828284,1207.3170731707316,-0.026688421420663622,0.22236466406386643,0.08239613076161063,1545.054945054945,-1.0,85.14117443270396,0.8307046732229989,
2023-08-11 19:56:44.292000,-8.843373493975903,-0.5060240963855422,-4.1084337349397595,-0.4512568976088289,-8.716738197424892,-3.725321888412017,3.0,0.8282828282828284,1207.3170731707316,0.3097721577996621,0.14171668317697136,0.05116251966668614,1557.5091575091574,-1.0,85.14117443270396,0.8306832414801815,
2023-08-11 19:56:44.300000,-8.855421686746988,-0.5180722891566265,-4.1084337349397595,-0.5027590435315757,-8.738810545677499,-3.7988963825873694,3.0,0.8278388278388279,1207.9646017699115,0.17166831769710364,0.323407726822446,-0.3160654973486394,1561.1721611721612,-1.0,85.14117443270396,0.8306616995162994,
2023-08-11 19:56:44.307000,-8.867469879518072,-0.5301204819277109,-4.1084337349397595,-0.39975475168608215,-8.75107296137339,-3.7424892703862658,3.0,0.8278388278388279,1207.9646017699115,-0.18087524037060707,-0.0927684866849246,-0.33179884622108274,1562.6373626373625,-1.0,85.14117443270396,0.8306400443050765,
2023-08-11 19:56:44.315000,-8.867469879518072,-0.5301204819277109,-4.156626506024097,-0.4414469650521152,-8.755977927651747,-3.796443899448191,3.0,0.8282828282828284,1207.3170731707316,0.07808402773731143,0.18250684692034225,-0.2976516520016317,1556.7765567765566,-1.0,85.14117443270396,0.830618273195321,
2023-08-11 19:56:44.323000,-8.879518072289157,-0.5421686746987953,-4.132530120481928,-0.4757817290006131,-8.755977927651747,-3.737584304107909,3.0,0.8282828282828284,1207.3170731707316,-0.1188741914806823,-0.04953091311695096,-0.24975234543441507,1547.2527472527472,-1.0,85.14117443270396,0.8305963837745577,
2023-08-11 19:56:44.330000,-8.879518072289157,-0.5421686746987953,-4.120481927710844,-0.3825873697118332,-8.743715511955855,-3.7228694052728386,3.0,0.8282828282828284,1207.3170731707316,0.01829730202202604,-0.0057106229240714,-0.3547578812423518,1538.4615384615383,-1.0,85.14117443270396,0.8305743739226702,
2023-08-11 19:56:44.338000,-8.879518072289157,-0.5421686746987953,-4.1084337349397595,-0.46842427958307786,-8.731453096259962,-3.784181483752299,3.0,0.8282828282828284,1207.3170731707316,0.3696754268399284,0.19159722626886486,-0.10593788240778515,1531.135531135531,-1.0,85.14117443270396,0.8305522418326668,
2023-08-11 19:56:44.346000,-8.867469879518072,-0.5180722891566265,-4.096385542168675,-0.4316370324954016,-8.775597792765174,-3.784181483752299,3.0,0.8282828282828284,1207.3170731707316,0.2597750713827861,0.21863527766447097,-0.1530213857001342,1524.5421245421244,-1.0,85.14117443270396,0.8305299860197407,
2023-08-11 19:56:44.353000,-8.855421686746988,-0.5301204819277109,-4.1084337349397595,-0.5370938074800735,-8.758430410790925,-3.7498467198038012,3.0,0.8278388278388279,1207.9646017699115,0.2574442048831659,0.21735330108968004,-0.15127323582541818,1517.216117216117,-1.0,85.14117443270396,0.8305076053291559,
2023-08-11 19:56:44.361000,-8.855421686746988,-0.5180722891566265,-4.1084337349397595,-0.3973022685469037,-8.758430410790925,-3.747394236664623,3.0,0.8278388278388279,1207.9646017699115,0.07214031816327662,0.3507954081929964,-0.21245848144047536,1510.6227106227104,-1.0,85.14117443270396,0.8304850987936817,
2023-08-11 19:56:44.369000,-8.867469879518072,-0.5301204819277109,-4.120481927710844,-0.4512568976088289,-8.741263028816677,-3.8013488657265477,3.0,0.8278388278388279,1207.9646017699115,0.07097488491346653,0.18099178369558963,-0.08892255696055006,1504.0293040293038,-1.0,85.14117443270396,0.8304624656172891,
2023-08-11 19:56:44.376000,-8.891566265060241,-0.5301204819277109,-4.120481927710844,-0.3948497854077253,-8.790312691600246,-3.789086450030656,3.0,0.8278388278388279,1207.9646017699115,0.11631023833110044,-0.17563079074646074,-0.16420954489831577,1498.9010989010987,-1.0,85.14117443270396,0.8304397053166526,
2023-08-11 19:56:44.384000,-8.843373493975903,-0.5301204819277109,-4.120481927710844,-0.3850398528510116,-8.763335377069282,-3.7645616186388717,3.0,0.8278388278388279,1207.9646017699115,0.31210302429928405,0.5541635102849483,0.1411339665520659,1493.7728937728937,-1.0,85.14117443270396,0.8304168177225986,
2023-08-11 19:56:44.392000,-8.843373493975903,-0.5060240963855422,-4.132530120481928,-0.45616186388718577,-8.741263028816677,-3.8111587982832615,3.0,0.8278388278388279,1207.9646017699115,-0.028203484645416232,0.1633937416234486,-0.28867781597808995,1486.4468864468863,-1.0,85.14117443270396,0.8303938029802886,
2023-08-11 19:56:44.399000,-8.855421686746988,-0.5301204819277109,-4.1084337349397595,-0.4438994481912937,-8.746167995095034,-3.7596566523605146,3.0,0.8278388278388279,1207.9646017699115,-0.060952158965095496,0.21980071091428283,-0.21105996154070272,1480.5860805860805,-1.0,85.14117443270396,0.830370661548177,
2023-08-11 19:56:44.407000,-8.855421686746988,-0.5301204819277109,-4.096385542168675,-0.5027590435315757,-8.738810545677499,-3.737584304107909,3.0,0.8278388278388279,1207.9646017699115,0.21397354466522883,-0.015500262222480757,0.18786783986947156,1476.923076923077,-1.0,-1.0,0.8303473943345324,
2023-08-11 19:56:44.414000,-8.843373493975903,-0.4819277108433735,-4.1084337349397595,-0.42427958307786634,-8.733905579399142,-3.776824034334764,3.0,0.8278388278388279,1207.9646017699115,0.45568440067595056,-0.0026804964745644456,-0.14905891265077795,1474.7252747252746,-1.0,-1.0,0.8303240026737104,
2023-08-11 19:56:44.422000,-8.867469879518072,-0.5180722891566265,-4.132530120481928,-0.463519313304721,-8.741263028816677,-3.7694665849172284,3.0,0.8278388278388279,1207.9646017699115,-0.08262921741157274,0.21059378824077765,0.27923780665462394,1472.5274725274724,-1.0,-1.0,0.8303004880349832,
2023-08-11 19:56:44.430000,-8.855421686746988,-0.5180722891566265,-4.1084337349397595,-0.4782342121397915,-8.76578786020846,-3.7424892703862658,3.0,0.8278388278388279,1207.9646017699115,0.05430918944117393,0.3155993240487144,-0.20837946506613828,1471.062271062271,-1.0,-1.0,0.8302768521773434,
2023-08-11 19:56:44.437000,-8.855421686746988,-0.5180722891566265,-4.1084337349397595,-0.4414469650521152,-8.648068669527897,-3.7277743715511953,3.0,0.8278388278388279,1207.9646017699115,0.3443855253190365,-0.010022725948371029,-0.054076102791212693,1468.8644688644688,-1.0,-1.0,0.8302530971328961,
2023-08-11 19:56:44.445000,-8.879518072289157,-0.5301204819277109,-4.096385542168675,-0.43899448191293683,-8.782955242182709,-3.7498467198038012,3.0,0.8278388278388279,1207.9646017699115,0.2336693665870284,0.30895635452479453,-0.03706077734397759,1465.9340659340658,-1.0,-1.0,0.8302292250716069,
2023-08-11 19:56:44.453000,-8.891566265060241,-0.5180722891566265,-4.156626506024097,-0.4193746167995095,-8.792765174739424,-3.784181483752299,3.0,0.8273948273948275,1208.6128253286824,-0.07225686148825747,0.3080240079249461,-0.06712895518909155,1459.3406593406592,-1.0,-1.0,0.8302052384419687,
2023-08-11 19:56:44.460000,-8.891566265060241,-0.5301204819277109,-4.1084337349397595,-0.38749233599019006,-8.743715511955855,-3.7743715511955855,3.0,0.8273948273948275,1208.6128253286824,-0.01200396247304872,0.15278829905017166,0.10372355923314493,1452.7472527472526,-1.0,-1.0,0.8301811400898681,
2023-08-11 19:56:44.468000,-8.855421686746988,-0.5180722891566265,-4.120481927710844,-0.43654199877375843,-8.782955242182709,-3.76701410177805,3.0,0.8278388278388279,1207.9646017699115,0.25802692150807005,0.24066196608589246,-0.04708350329234905,1445.4212454212454,-1.0,-1.0,0.8301569330472364,
2023-08-11 19:56:44.476000,-8.891566265060241,-0.5180722891566265,-4.132530120481928,-0.42673206621704474,-8.758430410790925,-3.7743715511955855,3.0,0.8273948273948275,1208.6128253286824,0.14614532952625184,0.11153196200687572,0.0017481498747160184,1439.5604395604394,-1.0,-1.0,0.8301326205322961,
2023-08-11 19:56:44.483000,-8.879518072289157,-0.5421686746987953,-4.120481927710844,-0.45616186388718577,-8.709380748007357,-3.789086450030656,3.0,0.8273948273948275,1208.6128253286824,0.37340481323932206,0.37678456966377327,-0.07400501136297435,1435.164835164835,-1.0,-1.0,0.8301082059595192,
2023-08-11 19:56:44.491000,-8.891566265060241,-0.5421686746987953,-4.132530120481928,-0.4414469650521152,-8.75107296137339,-3.7596566523605146,3.0,0.8273948273948275,1208.6128253286824,0.0651477186644143,0.5068469203426367,-0.2405454227609112,1432.2344322344322,-1.0,-1.0,0.8300836927680316,
2023-08-11 19:56:44.499000,-8.879518072289157,-0.5421686746987953,-4.132530120481928,-0.3973022685469037,-8.738810545677499,-3.8111587982832615,3.0,0.8273948273948275,1208.6128253286824,0.307557834625021,0.8225627877163336,0.09405046325971683,1427.8388278388277,-1.0,-1.0,0.8300590845472576,
2023-08-11 19:56:44.506000,-8.867469879518072,-0.5421686746987953,-4.1084337349397595,-0.4095646842427958,-8.758430410790925,-3.776824034334764,3.0,0.8273948273948275,1208.6128253286824,0.27527533360526857,0.08204650078666682,-0.07377192471301224,1421.245421245421,-1.0,-1.0,0.830034385023284,
2023-08-11 19:56:44.514000,-8.867469879518072,-0.5060240963855422,-4.144578313253012,-0.41446965052115264,-8.716738197424892,-3.816063764561618,3.0,0.8273948273948275,1208.6128253286824,0.10547170910786008,0.03414719421945104,0.0029135831245265527,1419.047619047619,-1.0,-1.0,0.8300095980447889,
2023-08-11 19:56:44.522000,-8.855421686746988,-0.5180722891566265,-4.132530120481928,-0.5272838749233598,-8.721643163703249,-3.816063764561618,3.0,0.8273948273948275,1208.6128253286824,0.13460754035312647,0.03426373754443188,-0.1497581726006643,1419.7802197802198,-1.0,-1.0,0.8299847275686604,
2023-08-11 19:56:44.529000,-8.879518072289157,-0.5180722891566265,-4.1084337349397595,-0.41446965052115264,-8.721643163703249,-3.703249540159411,3.0,0.8273948273948275,1208.6128253286824,0.3179301905483363,0.12633296427947147,-0.05687314259075798,1421.9780219780218,-1.0,-1.0,0.8299597777841475,
2023-08-11 19:56:44.537000,-8.831325301204819,-0.5180722891566265,-4.120481927710844,-0.46106683016554256,-8.726548129981605,-3.8038013488657265,3.0,0.8273948273948275,1208.6128253286824,-0.1719014043470653,-0.24031233611094996,-0.010488899248295677,1424.9084249084249,-1.0,-1.0,0.8299347529390452,
2023-08-11 19:56:44.545000,-8.831325301204819,-0.5180722891566265,-4.120481927710844,-0.48068669527896996,-8.758430410790925,-3.7719190680564068,3.0,0.8273948273948275,1208.6128253286824,0.15045743255055147,-0.37247246663947364,0.12749839752928155,1426.3736263736262,-1.0,-1.0,0.8299096571973978,
2023-08-11 19:56:44.552000,-8.855421686746988,-0.5301204819277109,-4.132530120481928,-0.42673206621704474,-8.782955242182709,-3.8111587982832615,3.0,0.8273948273948275,1208.6128253286824,-0.07843365771225394,-0.10582133908280432,-0.22469553056348707,1427.106227106227,-1.0,-1.0,0.8298844947740441,
2023-08-11 19:56:44.560000,-8.843373493975903,-0.5301204819277109,-4.132530120481928,-0.47332924586143466,-8.758430410790925,-3.7351318209687308,3.0,0.8273948273948275,1208.6128253286824,-0.03298176096964094,0.01934619194685704,-0.04230522696812521,1424.1758241758241,-1.0,-1.0,0.8298592699200937,
2023-08-11 19:56:44.568000,-8.867469879518072,-0.5301204819277109,-4.144578313253012,-0.48559166155732675,-8.758430410790925,-3.816063764561618,3.0,0.8269508269508271,1209.2617449664428,0.3323815628459878,0.08332847736145949,-0.08799021036070162,1420.5128205128203,-1.0,-1.0,0.8298339869087455,
2023-08-11 19:56:44.575000,-8.855421686746988,-0.5301204819277109,-4.1084337349397595,-0.49294911097486205,-8.753525444512569,-3.76701410177805,3.0,0.8273948273948275,1208.6128253286824,-0.05279412621642132,-0.03671114736903465,-0.08565934386108055,1416.117216117216,-1.0,-1.0,0.8298086500110026,
2023-08-11 19:56:44.583000,-8.855421686746988,-0.5421686746987953,-4.096385542168675,-0.42918454935622313,-8.775597792765174,-3.7743715511955855,3.0,0.8273948273948275,1208.6128253286824,0.1475438494260236,0.056756599265776704,-0.11304702523163007,1412.4542124542124,-1.0,-1.0,0.8297832635895152,
2023-08-11 19:56:44.591000,-8.867469879518072,-0.5421686746987953,-4.132530120481928,-0.5027590435315757,-8.822194972409564,-3.725321888412017,3.0,0.8273948273948275,1208.6128253286824,0.22306392401375144,-0.17050288444729353,-0.2045335353417633,1407.3260073260071,-1.0,-1.0,0.82975783209697,
2023-08-11 19:56:44.598000,-8.867469879518072,-0.5421686746987953,-4.120481927710844,-0.4438994481912937,-8.741263028816677,-3.7596566523605146,3.0,0.8273948273948275,1208.6128253286824,-0.023541751646174093,-0.04848202319212169,-0.0652642619893947,1400.0,-1.0,-1.0,0.8297323599264328,
2023-08-11 19:56:44.606000,-8.867469879518072,-0.5421686746987953,-4.120481927710844,-0.48313917841814835,-8.726548129981605,-3.779276517473942,3.0,0.8265068265068265,1209.911361804996,0.23646640638657368,0.21024415826583512,-0.06468154536448921,1392.6739926739926,-1.0,-1.0,0.8297068512623184,
2023-08-11 19:56:44.614000,-8.843373493975903,-0.5421686746987953,-4.132530120481928,-0.48313917841814835,-8.71919068056407,-3.784181483752299,3.0,0.8269508269508271,1209.2617449664428,0.14358137637666823,-0.17318338092185798,0.10477244915797462,1388.278388278388,-1.0,-1.0,0.8296813100701119,
2023-08-11 19:56:44.621000,-8.843373493975903,-0.5301204819277109,-4.144578313253012,-0.5003065603923973,-8.76578786020846,-3.754751686082158,3.0,0.8269508269508271,1209.2617449664428,-0.04090670706835344,-0.051395606316647816,0.07540353126274699,1385.3479853479853,-1.0,-1.0,0.8296557401616119,
2023-08-11 19:56:44.629000,-8.867469879518072,-0.5301204819277109,-4.120481927710844,-0.4512568976088289,-8.763335377069282,-3.779276517473942,3.0,0.8269508269508271,1209.2617449664428,-0.04067362041839003,-0.048831653167064205,0.07598624788765204,1383.8827838827838,-1.0,-1.0,0.8296301452063,
2023-08-11 19:56:44.637000,-8.831325301204819,-0.5060240963855422,-4.1084337349397595,-0.4880441446965052,-8.790312691600246,-3.7498467198038012,3.0,0.8269508269508271,1209.2617449664428,-0.05617388264087252,0.013519025697803066,0.22795874366295654,1386.8131868131868,-1.0,-1.0,0.8296045287328372,
2023-08-11 19:56:44.644000,-8.855421686746988,-0.5060240963855422,-4.132530120481928,-0.45616186388718577,-8.763335377069282,-3.7621091354996934,3.0,0.8269508269508271,1209.2617449664428,-0.1475438494260236,-0.2154886078899832,-0.032515587669716295,1390.4761904761904,-1.0,-1.0,0.8295788941208343,
2023-08-11 19:56:44.652000,-8.879518072289157,-0.5180722891566265,-4.120481927710844,-0.4095646842427958,-8.778050275904352,-3.7522992029429796,3.0,0.8269508269508271,1209.2617449664428,0.4034729910844352,-0.22865800361284375,0.05955363906532242,1391.9413919413919,-1.0,-1.0,0.8295532445935128,
2023-08-11 19:56:44.660000,-8.855421686746988,-0.49397590361445787,-4.120481927710844,-0.4512568976088289,-8.733905579399142,-3.744941753525444,3.0,0.8273948273948275,1208.6128253286824,0.048015849892196615,-0.33401316939572295,-0.13763766680263387,1391.2087912087911,-1.0,-1.0,0.8295275832113164,
2023-08-11 19:56:44.667000,-8.879518072289157,-0.5180722891566265,-4.1084337349397595,-0.5027590435315757,-8.800122624156959,-3.7694665849172284,3.0,0.8269508269508271,1209.2617449664428,-0.09265194335994377,-0.20802983509119577,0.1987063690927102,1391.9413919413919,-1.0,-1.0,0.8295019130158234,
2023-08-11 19:56:44.675000,-8.879518072289157,-0.5301204819277109,-4.120481927710844,-0.46106683016554256,-8.792765174739424,-3.695892090741876,3.0,0.8269508269508271,1209.2617449664428,0.22842491696288034,-0.3438028086941323,-0.19882291241769146,1392.6739926739926,-1.0,-1.0,0.8294762368980078,
2023-08-11 19:56:44.683000,-8.855421686746988,-0.5180722891566265,-4.120481927710844,-0.43899448191293683,-8.785407725321887,-3.7988963825873694,3.0,0.8269508269508271,1209.2617449664428,0.0882232970106633,-0.09509935318454654,-0.1657246081230697,1393.4065934065934,-1.0,-1.0,0.8294505575748341,
2023-08-11 19:56:44.690000,-8.855421686746988,-0.5301204819277109,-4.1084337349397595,-0.4414469650521152,-8.770692826486817,-3.7400367872470874,3.0,0.8269508269508271,1209.2617449664428,0.08892255696055006,-0.397063108210477,0.3111706776994348,1396.3369963369962,-1.0,-1.0,0.8294248777057364,
2023-08-11 19:56:44.698000,-8.855421686746988,-0.5421686746987953,-4.1084337349397595,-0.43654199877375843,-8.729000613120784,-3.7498467198038012,3.0,0.8269508269508271,1209.2617449664428,0.19392809276848677,-0.05792203251558681,0.17190140434706616,1398.5347985347985,-1.0,-1.0,0.8293991996051524,
2023-08-11 19:56:44.706000,-8.867469879518072,-0.5301204819277109,-4.0843373493975905,-0.5003065603923973,-8.731453096259962,-3.7817290006131206,3.0,0.8269508269508271,1209.2617449664428,-0.06841093176388291,-0.055008449391060685,0.04999708641687561,1401.4652014652013,-1.0,-1.0,0.8293735252644668,
2023-08-11 19:56:44.713000,-8.867469879518072,-0.5060240963855422,-4.1084337349397595,-0.4757817290006131,-8.68976088289393,-3.806253832004905,3.0,0.8269508269508271,1209.2617449664428,0.008973836023541765,-0.23600023308665033,0.0375269506439018,1405.128205128205,-1.0,-1.0,0.8293478566413265,
2023-08-11 19:56:44.721000,-8.855421686746988,-0.5180722891566265,-4.156626506024097,-0.47087676272225626,-8.694665849172287,-3.8111587982832615,3.0,0.8265068265068265,1209.911361804996,0.20488316531670625,-0.23378590991200923,0.025289901520890546,1407.3260073260071,-1.0,-1.0,0.8293221956417391,
2023-08-11 19:56:44.729000,-8.879518072289157,-0.5060240963855422,-4.144578313253012,-0.46106683016554256,-8.760882893930104,-3.8405885959534025,3.0,0.8265068265068265,1209.911361804996,0.03228250101975418,-0.2778392867548505,0.1334421071033155,1408.7912087912086,-1.0,-1.0,0.8292965438264867,
2023-08-11 19:56:44.736000,-8.867469879518072,-0.5060240963855422,-4.144578313253012,-0.4193746167995095,-8.81238503985285,-3.776824034334764,3.0,0.8265068265068265,1209.911361804996,0.03041780782005733,-0.3683934502651357,-0.15873200862420606,1408.7912087912086,-1.0,-1.0,0.8292709023952598,
2023-08-11 19:56:44.744000,-8.879518072289157,-0.5180722891566265,-4.132530120481928,-0.41692213366033104,-8.763335377069282,-3.8111587982832615,3.0,0.8265068265068265,1209.911361804996,0.2283083736378995,-0.4103490472583184,0.08880601363556921,1406.5934065934066,-1.0,-1.0,0.8292452723307382,
2023-08-11 19:56:44.752000,-8.855421686746988,-0.5060240963855422,-4.120481927710844,-0.35806253832004903,-8.782955242182709,-3.8038013488657265,3.0,0.8269508269508271,1209.2617449664428,-0.047316589942311596,-0.48493677524619777,-1.1654332498127038E-4,1404.3956043956043,-1.0,-1.0,0.829219654404725,
2023-08-11 19:56:44.759000,-8.855421686746988,-0.5301204819277109,-4.120481927710844,-0.42918454935622313,-8.773145309625995,-3.708154506437768,3.0,0.826062826062826,1210.5616769685569,0.21117650486568357,-0.575490938756483,0.09206922673503871,1399.2673992673992,-1.0,-1.0,0.8291940491956123,
2023-08-11 19:56:44.767000,-8.867469879518072,-0.5180722891566265,-4.1084337349397595,-0.4316370324954016,-8.755977927651747,-3.717964438994482,3.0,0.8265068265068265,1209.911361804996,-0.035429170794241974,-0.34298700541926475,-0.12213740458015267,1394.139194139194,-1.0,-1.0,0.8291684571172462,
2023-08-11 19:56:44.774000,-8.855421686746988,-0.5301204819277109,-4.096385542168675,-0.4537093807480073,-8.822194972409564,-3.7007970570202326,3.0,0.8265068265068265,1209.911361804996,-0.053143756191363835,-0.37480333313909386,0.23098887011246438,1389.7435897435896,-1.0,-1.0,0.8291428783643429,
2023-08-11 19:56:44.782000,-8.855421686746988,-0.5421686746987953,-4.0843373493975905,-0.4218270999386879,-8.82709993868792,-3.7939914163090127,3.0,0.8265068265068265,1209.911361804996,-0.11596060835615618,-0.11479517510634608,-1.1654332498127038E-4,1386.080586080586,-1.0,-1.0,0.8291173129428333,
2023-08-11 19:56:44.790000,-8.855421686746988,-0.5421686746987953,-4.120481927710844,-0.49294911097486205,-8.785407725321887,-3.7694665849172284,3.0,0.8269508269508271,1209.2617449664428,0.02167705844647724,-0.14486335295145916,-0.12120505798030425,1384.6153846153845,-1.0,-1.0,0.8290917606902946,
2023-08-11 19:56:44.797000,-8.891566265060241,-0.5662650602409639,-4.132530120481928,-0.46106683016554256,-8.785407725321887,-3.7694665849172284,3.0,0.8265068265068265,1209.911361804996,0.02074471184662881,-0.22248120738884725,-0.19521006934327814,1384.6153846153845,-1.0,-1.0,0.8290662214357952,
2023-08-11 19:56:44.805000,-8.867469879518072,-0.5542168674698795,-4.1084337349397595,-0.49294911097486205,-8.802575107296137,-3.7743715511955855,3.0,0.8265068265068265,1209.911361804996,0.12575024765456555,-0.09777984965911098,-0.01083852922323862,1386.080586080586,-1.0,-1.0,0.8290406948836782,
2023-08-11 19:56:44.813000,-8.855421686746988,-0.5301204819277109,-4.132530120481928,-0.4512568976088289,-8.782955242182709,-3.8111587982832615,3.0,0.8265068265068265,1209.911361804996,0.13833692675252018,0.0870578637608532,-0.14847619602587248,1388.278388278388,-1.0,-1.0,0.82901518046643,
2023-08-11 19:56:44.820000,-8.843373493975903,-0.5180722891566265,-4.1084337349397595,-0.4193746167995095,-8.778050275904352,-3.7596566523605146,3.0,0.8265068265068265,1209.911361804996,0.2266767670881643,-0.23378590991200923,0.0692267350387505,1391.9413919413919,-1.0,-1.0,0.8289896774959931,
2023-08-11 19:56:44.828000,-8.831325301204819,-0.5180722891566265,-4.096385542168675,-0.3825873697118332,-8.768240343347639,-3.8111587982832615,3.0,0.8265068265068265,1209.911361804996,0.05629042596585336,-0.12272012120505858,0.1446302663014975,1395.6043956043954,-1.0,-1.0,0.8289641851768527,
2023-08-11 19:56:44.836000,-8.855421686746988,-0.49397590361445787,-4.144578313253012,-0.38994481912936846,-8.731453096259962,-3.8234212139791537,3.0,0.8265068265068265,1209.911361804996,0.054891906066079854,-0.3643144338907995,-0.09987762950876994,1399.2673992673992,-1.0,-1.0,0.8289387027583526,
2023-08-11 19:56:44.843000,-8.843373493975903,-0.49397590361445787,-4.096385542168675,-0.45616186388718577,-8.76578786020846,-3.754751686082158,3.0,0.8265068265068265,1209.911361804996,0.03915855719363742,-0.5270089155643614,-0.1142124584814406,1400.7326007326005,-1.0,-1.0,0.8289132293895634,
2023-08-11 19:56:44.851000,-8.843373493975903,-0.5301204819277109,-4.132530120481928,-0.4880441446965052,-8.706928264868179,-3.816063764561618,3.0,0.8265068265068265,1209.911361804996,-0.003962473049355383,-0.537264728162694,-0.12913000407901631,1401.4652014652013,-1.0,-1.0,0.8288877640060546,
2023-08-11 19:56:44.859000,-8.879518072289157,-0.5421686746987953,-4.096385542168675,-0.510116492949111,-8.768240343347639,-3.747394236664623,3.0,0.8265068265068265,1209.911361804996,0.07470427131286024,-0.5784045218810091,-0.3137346308490179,1400.7326007326005,-1.0,-1.0,0.8288623054937064,
2023-08-11 19:56:44.866000,-8.867469879518072,-0.5421686746987953,-4.132530120481928,-0.5125689760882893,-8.81238503985285,-3.7645616186388717,3.0,0.8265068265068265,1209.911361804996,0.16351028494842945,-0.35906998426665143,-0.15698385874949003,1399.2673992673992,-1.0,-1.0,0.8288368527035136,
2023-08-11 19:56:44.874000,-8.891566265060241,-0.5421686746987953,-4.0843373493975905,-0.5272838749233598,-8.770692826486817,-3.713059472716125,3.0,0.8265068265068265,1209.911361804996,0.22306392401375144,-0.4953091311695131,-0.3844764291125224,1397.069597069597,-1.0,-1.0,0.8288114044666206,
