Shimmer_F5D4_Timestamp_FormattedUnix_CAL,Shimmer_F5D4_Accel_LN_X_CAL,Shimmer_F5D4_Accel_LN_Y_CAL,Shimmer_F5D4_Accel_LN_Z_CAL,Shimmer_F5D4_Accel_WR_X_CAL,Shimmer_F5D4_Accel_WR_Y_CAL,Shimmer_F5D4_Accel_WR_Z_CAL,Shimmer_F5D4_GSR_Range_CAL,Shimmer_F5D4_GSR_Skin_Conductance_CAL,Shimmer_F5D4_GSR_Skin_Resistance_CAL,Shimmer_F5D4_Gyro_X_CAL,Shimmer_F5D4_Gyro_Y_CAL,Shimmer_F5D4_Gyro_Z_CAL,Shimmer_F5D4_PPG_A13_CAL,Shimmer_F5D4_PPG_IBI_CAL,Shimmer_F5D4_PPGtoHR_CAL,Shimmer_F5D4_GSR_Skin_Conductance_LPF_CAL,
yyyy/mm/dd hh:mm:ss.000,m/(s^2),m/(s^2),m/(s^2),m/(s^2),m/(s^2),m/(s^2),no_units,uS,kOhms,deg/s,deg/s,deg/s,mV,ms,BPM,uS,
2023-08-09 17:48:41.589000,-9.024096385542169,0.13253012048192772,-3.7469879518072293,0.2452483139178418,-8.910484365419988,-3.4481912936848556,2.0,3.1479853479853483,317.66348615313007,-0.11328011188159173,-0.005477536274109728,0.14870928267583458,1610.989010989011,-1.0,60.253754213913574,3.177274989231873,
2023-08-09 17:48:41.597000,-9.024096385542169,0.12048192771084337,-3.734939759036145,0.2550582464745555,-8.930104230533415,-3.3770692826486814,2.0,3.1465201465201464,317.8114086146682,0.26723384418157525,0.056640055940795866,-0.006176796223996482,1613.186813186813,-1.0,60.253754213913574,3.1769825133677925,
2023-08-09 17:48:41.604000,-9.048192771084338,0.14457831325301207,-3.7108433734939763,0.2820355610055181,-9.008583690987123,-3.421213979153893,2.0,3.1465201465201464,317.8114086146682,0.06526426198939513,0.026804964745644456,0.3288852630965562,1610.989010989011,-1.0,60.253754213913574,3.1766897002594683,
2023-08-09 17:48:41.612000,-9.036144578313253,0.14457831325301207,-3.7469879518072293,0.23053341508277128,-8.939914163090128,-3.3353770692826483,2.0,3.1465201465201464,317.8114086146682,0.06526426198939513,0.028436571295379638,0.32597167997202964,1605.128205128205,-1.0,60.253754213913574,3.176396562665766,
2023-08-09 17:48:41.620000,-9.012048192771084,0.16867469879518074,-3.7590361445783134,0.23053341508277128,-8.981606376456162,-3.413856529736358,2.0,3.1465201465201464,317.8114086146682,0.2787716333546989,0.23005652351261552,-0.013985198997727278,1595.6043956043954,-1.0,60.253754213913574,3.176103113691484,
2023-08-09 17:48:41.627000,-9.024096385542169,0.16867469879518074,-3.7469879518072293,0.29675045984058857,-8.95217657878602,-3.367259350091968,2.0,3.145054945054946,317.95946890286507,-0.057572402540644295,0.138453470077501,0.4286463492803449,1582.4175824175823,-1.0,60.253754213913574,3.175809366776801,
2023-08-09 17:48:41.635000,-9.012048192771084,0.18072289156626506,-3.7469879518072293,0.26486817903126914,-8.979153893316983,-3.421213979153893,2.0,3.145054945054946,317.95946890286507,0.08111415418681839,0.44333080822795934,-0.07645242118757668,1564.102564102564,-1.0,60.253754213913574,3.1755153356518497,
2023-08-09 17:48:41.643000,-9.060240963855422,0.1566265060240964,-3.734939759036145,0.33353770692826484,-8.917841814837523,-3.475168608215818,2.0,3.145054945054946,317.95946890286507,0.14136705320202714,0.38039741273818617,0.09183614008507661,1545.7875457875457,-1.0,60.253754213913574,3.1752210341870564,
2023-08-09 17:48:41.650000,-9.024096385542169,0.18072289156626506,-3.7469879518072293,0.23543838136112813,-8.996321275291232,-3.413856529736358,2.0,3.145054945054946,317.95946890286507,0.24695530563486978,0.30079832177612037,0.15430336227492558,1528.937728937729,-1.0,60.253754213913574,3.174926476347686,
2023-08-09 17:48:41.658000,-9.036144578313253,0.1927710843373494,-3.7831325301204823,0.32127529123237275,-8.981606376456162,-3.4481912936848556,2.0,3.145054945054946,317.95946890286507,-0.01165433249810621,0.3436862653691515,0.2157216945399453,1512.8205128205127,-1.0,60.253754213913574,3.174631676183244,
2023-08-09 17:48:41.666000,-9.048192771084338,0.18072289156626506,-3.734939759036145,0.3678724708767627,-8.942366646229306,-3.404046597179644,2.0,3.143589743589744,318.1076672104404,-0.05885437911543697,-0.06969290833867559,0.0017481498747160184,1500.3663003663003,-1.0,60.253754213913574,3.1743366482752355,
2023-08-09 17:48:41.673000,-9.024096385542169,0.18072289156626506,-3.7469879518072293,0.29675045984058857,-8.961986511342735,-3.4481912936848556,2.0,3.143589743589744,318.1076672104404,-0.19392809276848677,-0.037876580618844746,-0.08973836023541765,1493.7728937728937,-1.0,60.253754213913574,3.1740414071680934,
2023-08-09 17:48:41.681000,-9.024096385542169,0.18072289156626506,-3.7228915662650603,0.2918454935622317,-8.961986511342735,-3.4064990803188224,2.0,3.143589743589744,318.1076672104404,-0.35976924421653816,0.0078084027737316646,-0.24101159606083541,1490.10989010989,-1.0,60.253754213913574,3.1737459668008805,
2023-08-09 17:48:41.689000,-9.024096385542169,0.18072289156626506,-3.734939759036145,0.3114653586756591,-8.942366646229306,-3.404046597179644,2.0,3.142124542124543,318.25600373047325,-0.5870287279296084,0.2835499096789236,0.08262921741157274,1484.2490842490843,-1.0,60.253754213913574,3.1734503409573294,
2023-08-09 17:48:41.696000,-9.024096385542169,0.1927710843373494,-3.771084337349398,0.29675045984058857,-8.939914163090128,-3.350091968117719,2.0,3.143589743589744,318.1076672104404,-0.20092069226735085,-0.4799254122720114,-0.5726938989569373,1479.8534798534797,-1.0,60.253754213913574,3.173154542766369,
2023-08-09 17:48:41.704000,-9.012048192771084,0.1927710843373494,-3.7469879518072293,0.27467811158798283,-8.903126916002453,-3.443286327406499,2.0,3.140659340659341,318.40447865640306,-0.29159139910261694,-0.6280519783229409,-0.06339956878969741,1473.9926739926739,-1.0,60.253754213913574,3.1728585855751,
2023-08-09 17:48:41.711000,-9.012048192771084,0.18072289156626506,-3.734939759036145,0.2599632127529123,-8.912936848559166,-3.3991416309012874,2.0,3.140659340659341,318.40447865640306,-0.3667618437154005,-0.7010080997610869,-0.27702348347998373,1470.3296703296703,-1.0,60.253754213913574,3.1725624824172205,
2023-08-09 17:48:41.719000,-9.0,0.18072289156626506,-3.734939759036145,0.24279583077866337,-8.939914163090128,-3.421213979153893,2.0,3.142124542124543,318.25600373047325,-0.4412330283782991,-0.17598042072140324,-0.1978905658178426,1464.4688644688645,-1.0,60.253754213913574,3.1722662449206114,
2023-08-09 17:48:41.727000,-9.012048192771084,0.1927710843373494,-3.7228915662650603,0.33108522378908645,-8.917841814837523,-3.3942366646229307,2.0,3.142124542124543,318.25600373047325,-0.530738301963755,0.037293863993940565,-0.18122487034555088,1457.8754578754579,-1.0,60.253754213913574,3.171969884709182,
2023-08-09 17:48:41.734000,-9.024096385542169,0.1566265060240964,-3.7228915662650603,0.2599632127529123,-8.996321275291232,-3.3402820355610054,2.0,3.140659340659341,318.40447865640306,-0.14532952625138426,-0.07015908163859894,-0.3481149117184315,1450.5494505494505,-1.0,60.253754213913574,3.1716734134697853,
2023-08-09 17:48:41.742000,-9.024096385542169,0.14457831325301207,-3.7228915662650603,0.2918454935622317,-8.878602084610668,-3.3868792152053953,2.0,3.142124542124543,318.25600373047325,-0.06852747508886375,-0.20791329176621492,-0.16351028494842945,1442.4908424908424,-1.0,60.253754213913574,3.171376842003651,
2023-08-09 17:48:41.750000,-9.012048192771084,0.1566265060240964,-3.6867469879518073,0.2673206621704476,-8.944819129368485,-3.3721643163703248,2.0,3.140659340659341,318.40447865640306,-0.2960200454518974,0.2206165141891504,-0.009556552648447248,1432.2344322344322,-1.0,60.253754213913574,3.1710801811094487,
2023-08-09 17:48:41.757000,-9.012048192771084,0.1566265060240964,-3.698795180722892,0.26241569589209074,-9.003678724708767,-3.3795217657878602,2.0,3.140659340659341,318.40447865640306,0.012470135772973802,0.0057106229240714,-0.254763708408601,1419.047619047619,-1.0,60.253754213913574,3.1707834415557232,
2023-08-09 17:48:41.765000,-9.024096385542169,0.16867469879518074,-3.734939759036145,0.2550582464745555,-8.959534028203556,-3.3991416309012874,2.0,3.140659340659341,318.40447865640306,-0.09370083328477302,0.17469844414661231,-0.007924946098712067,1405.128205128205,-1.0,60.253754213913574,3.1704866330732164,
2023-08-09 17:48:41.773000,-9.036144578313253,0.18072289156626506,-3.734939759036145,0.26241569589209074,-8.961986511342735,-3.4064990803188224,2.0,3.140659340659341,318.40447865640306,-0.19789056581784217,0.323407726822446,0.0847269972612317,1393.4065934065934,-1.0,60.253754213913574,3.17018976528333,
2023-08-09 17:48:41.780000,-9.036144578313253,0.1566265060240964,-3.7469879518072293,0.2599632127529123,-9.011036174126302,-3.367259350091968,2.0,3.140659340659341,318.40447865640306,-0.030534351145038167,0.7332906007808411,0.08332847736145906,1386.8131868131868,-1.0,60.253754213913574,3.169892847646586,
2023-08-09 17:48:41.788000,-9.024096385542169,0.16867469879518074,-3.7590361445783134,0.26241569589209074,-8.95217657878602,-3.396689147762109,2.0,3.1391941391941396,318.5530921820303,-0.09113688013518942,0.2690985373812721,0.0825126740865919,1386.8131868131868,-1.0,60.253754213913574,3.169595888993257,
2023-08-09 17:48:41.796000,-9.024096385542169,0.16867469879518074,-3.7108433734939763,0.2820355610055181,-8.971796443899448,-3.4481912936848556,2.0,3.1391941391941396,318.5530921820303,0.15407027562496434,0.1290134607540359,0.2954373288269915,1389.0109890109889,-1.0,60.253754213913574,3.169298897056991,
2023-08-09 17:48:41.803000,-9.012048192771084,0.16867469879518074,-3.7108433734939763,0.269773145309626,-8.917841814837523,-3.3868792152053953,2.0,3.1391941391941396,318.5530921820303,0.13798729677757768,0.020161995221722892,0.2179360177145855,1393.4065934065934,-1.0,60.253754213913574,3.169001878432198,
2023-08-09 17:48:41.811000,-9.024096385542169,0.16867469879518074,-3.7228915662650603,0.2722256284488044,-8.912936848559166,-3.4187614960147146,2.0,3.1391941391941396,318.5530921820303,0.19998834566750243,-0.02540644484587095,-0.04486918011770882,1397.069597069597,-1.0,60.253754213913574,3.168704839517397,
2023-08-09 17:48:41.819000,-9.012048192771084,0.1927710843373494,-3.7228915662650603,0.3041079092581238,-8.920294297976701,-3.4163090128755362,2.0,3.1391941391941396,318.5530921820303,0.550900297185478,-0.4373870986539245,0.06165141891498182,1402.197802197802,-1.0,60.253754213913574,3.1684077864787943,
2023-08-09 17:48:41.826000,-9.024096385542169,0.1927710843373494,-3.7469879518072293,0.25260576333537704,-8.893316983445738,-3.4285714285714284,2.0,3.137728937728938,318.7018445015176,-0.032632130994696695,-0.03659460404405381,0.15395373229998263,1410.2564102564102,-1.0,60.253754213913574,3.168110724796232,
2023-08-09 17:48:41.834000,-9.024096385542169,0.18072289156626506,-3.7590361445783134,0.29675045984058857,-8.915389331698345,-3.4015941140404657,2.0,3.137728937728938,318.7018445015176,0.3343627993706655,-0.006176796223996482,-0.030883981119981543,1417.5824175824175,-1.0,60.253754213913574,3.1678136588122654,
2023-08-09 17:48:41.842000,-9.024096385542169,0.18072289156626506,-3.7469879518072293,0.3114653586756591,-8.935009196811771,-3.3991416309012874,2.0,3.137728937728938,318.7018445015176,0.14882582600081629,-0.14311520307674316,0.1689878212225396,1423.4432234432234,-1.0,60.253754213913574,3.1675165917050676,
2023-08-09 17:48:41.849000,-9.024096385542169,0.1927710843373494,-3.7228915662650603,0.299202942979767,-8.974248927038627,-3.3721643163703248,2.0,3.137728937728938,318.7018445015176,0.22224812073888384,-0.0045451896742613,0.2605908746576541,1429.3040293040292,-1.0,60.253754213913574,3.167219526447238,
2023-08-09 17:48:41.857000,-9.036144578313253,0.18072289156626506,-3.734939759036145,0.31882280809319435,-8.927651747394236,-3.4064990803188224,2.0,3.134798534798535,318.9997663005375,0.34182157216945463,-0.12889691742905507,0.15290484237515295,1432.2344322344322,-1.0,60.253754213913574,3.1669224653269157,
2023-08-09 17:48:41.865000,-9.024096385542169,0.18072289156626506,-3.7590361445783134,0.2820355610055181,-8.954629061925198,-3.391784181483752,2.0,3.1362637362637362,318.8507358093903,0.33879144571994596,-0.29567041547695316,-0.05908746576539821,1435.164835164835,-1.0,60.253754213913574,3.166625409506637,
2023-08-09 17:48:41.872000,-9.024096385542169,0.16867469879518074,-3.7108433734939763,0.3605150214592274,-8.912936848559166,-3.4187614960147146,2.0,3.1362637362637362,318.8507358093903,0.15208903910028493,-0.01666569547229259,-0.11968999475555032,1438.095238095238,-1.0,60.253754213913574,3.1663283597822467,
2023-08-09 17:48:41.880000,-9.036144578313253,0.16867469879518074,-3.7831325301204823,0.26241569589209074,-8.93746167995095,-3.4064990803188224,2.0,3.1362637362637362,318.8507358093903,-0.30580968475030673,0.33669366587028743,0.033447934269564716,1438.8278388278388,-1.0,60.253754213913574,3.1660313166391214,
2023-08-09 17:48:41.888000,-9.012048192771084,0.16867469879518074,-3.7590361445783134,0.23053341508277128,-8.944819129368485,-3.421213979153893,2.0,3.134798534798535,318.9997663005375,-0.30324573160072316,0.3350620593205522,0.03333139094458345,1438.095238095238,-1.0,60.253754213913574,3.1657342798547874,
2023-08-09 17:48:41.895000,-9.036144578313253,0.1566265060240964,-3.7228915662650603,0.2918454935622317,-8.900674432863273,-3.438381361128142,2.0,3.134798534798535,318.9997663005375,-0.23984616281102486,-0.21735330108968004,0.2313385000874073,1434.4322344322343,-1.0,60.253754213913574,3.1654372476110257,
2023-08-09 17:48:41.903000,-9.036144578313253,0.16867469879518074,-3.7228915662650603,0.27467811158798283,-8.942366646229306,-3.4236664622930717,2.0,3.1362637362637362,318.8507358093903,0.052677582891440485,0.19544315599324114,0.045335353417633034,1429.3040293040292,-1.0,60.253754213913574,3.165140217011712,
2023-08-09 17:48:41.911000,-9.024096385542169,0.18072289156626506,-3.7469879518072293,0.2795830778663397,-8.905579399141631,-3.384426732066217,2.0,3.134798534798535,318.9997663005375,0.006526426198938992,-0.08146378416176263,0.1517394091253424,1423.4432234432234,-1.0,60.253754213913574,3.164843185516255,
2023-08-09 17:48:41.918000,-9.024096385542169,0.1566265060240964,-3.7469879518072293,0.2893930104230533,-8.920294297976701,-3.4408338442673205,2.0,3.134798534798535,318.9997663005375,-0.037760037293863916,0.2713128605559115,-0.09253540003496293,1419.047619047619,-1.0,60.253754213913574,3.164546150090819,
2023-08-09 17:48:41.926000,-9.036144578313253,0.14457831325301207,-3.771084337349398,0.2575107296137339,-9.008583690987123,-3.4580012262415694,2.0,3.1333333333333337,319.1489361702127,0.17877746052094853,0.11549443505623284,-0.19684167589301332,1416.117216117216,-1.0,60.253754213913574,3.164249106750322,
2023-08-09 17:48:41.934000,-9.048192771084338,0.16867469879518074,-3.7469879518072293,0.2452483139178418,-8.925199264255058,-3.4015941140404657,2.0,3.1333333333333337,319.1489361702127,-0.004079016374337954,0.16013052852397824,-0.22737602703805151,1412.4542124542124,-1.0,60.253754213913574,3.163952050592974,
2023-08-09 17:48:41.941000,-9.048192771084338,0.1566265060240964,-3.7469879518072293,0.29429797670141017,-8.893316983445738,-3.3893316983445736,2.0,3.1333333333333337,319.1489361702127,-0.03309830429462177,-0.11805838820581471,-0.13227667385350497,1408.058608058608,-1.0,60.253754213913574,3.163654975799767,
2023-08-09 17:48:41.949000,-9.036144578313253,0.14457831325301207,-3.7228915662650603,0.2722256284488044,-8.971796443899448,-3.4310239117106067,2.0,3.1333333333333337,319.1489361702127,0.13519025697803239,-0.28623040615348805,-0.16152904842375132,1405.8608058608058,-1.0,60.253754213913574,3.1633578766188175,
2023-08-09 17:48:41.957000,-9.036144578313253,0.1566265060240964,-3.7469879518072293,0.2795830778663397,-8.912936848559166,-3.413856529736358,2.0,3.1333333333333337,319.1489361702127,0.14929199930073964,-0.14742730610104277,-0.100460346133675,1404.3956043956043,-1.0,60.253754213913574,3.163060747368585,
2023-08-09 17:48:41.964000,-9.0,0.1566265060240964,-3.7469879518072293,0.24770079705702022,-8.949724095646841,-3.443286327406499,2.0,3.1333333333333337,319.1489361702127,0.11829147485577812,-0.16129596177379008,0.0071091428238449095,1402.197802197802,-1.0,60.253754213913574,3.1627635820220665,
2023-08-09 17:48:41.972000,-9.024096385542169,0.1566265060240964,-3.7469879518072293,0.2158185162477008,-8.935009196811771,-3.3991416309012874,2.0,3.1333333333333337,319.1489361702127,-0.14008507662723618,-0.28285064972903684,0.03717732066895886,1400.0,-1.0,60.253754213913574,3.1624663742851125,
2023-08-09 17:48:41.980000,-9.036144578313253,0.1566265060240964,-3.7469879518072293,0.3359901900674433,-8.883507050889024,-3.374616799509503,2.0,3.1333333333333337,319.1489361702127,0.0749373579628219,-0.06701241186411114,-0.22294738068877104,1397.8021978021977,-1.0,60.253754213913574,3.1621691176762914,
2023-08-09 17:48:41.987000,-9.024096385542169,0.1566265060240964,-3.7108433734939763,0.2722256284488044,-8.900674432863273,-3.3648068669527893,2.0,3.1318681318681323,319.29824561403507,-0.18588660334479346,0.10244158265835313,-0.08461045393625086,1399.2673992673992,-1.0,60.253754213913574,3.16187180560841,
2023-08-09 17:48:41.995000,-9.036144578313253,0.1566265060240964,-3.734939759036145,0.24279583077866337,-8.942366646229306,-3.3819742489270386,2.0,3.1318681318681323,319.29824561403507,0.012353592447992964,0.010955072548219456,-0.07004253831361809,1401.4652014652013,-1.0,60.253754213913574,3.161574430979031,
2023-08-09 17:48:42.003000,-9.048192771084338,0.16867469879518074,-3.7590361445783134,0.3237277743715512,-8.898221949724094,-3.362354383813611,2.0,3.1333333333333337,319.1489361702127,-0.09521589650952737,0.025639531495834356,0.004079016374337087,1400.7326007326005,-1.0,60.253754213913574,3.16127698664109,
2023-08-09 17:48:42.010000,-9.036144578313253,0.16867469879518074,-3.771084337349398,0.2550582464745555,-8.893316983445738,-3.4310239117106067,2.0,3.130402930402931,319.44769482798966,-0.18716857991958438,0.1165433249810621,0.0497639997669135,1401.4652014652013,-1.0,60.253754213913574,3.160979466367304,
2023-08-09 17:48:42.018000,-9.012048192771084,0.16867469879518074,-3.7590361445783134,0.2893930104230533,-8.944819129368485,-3.4163090128755362,2.0,3.130402930402931,319.44769482798966,0.07260649146320171,0.11362974185653599,0.0340306508944702,1404.3956043956043,-1.0,60.253754213913574,3.1606818639888274,
2023-08-09 17:48:42.026000,-9.036144578313253,0.18072289156626506,-3.7469879518072293,0.2452483139178418,-8.866339668914776,-3.3770692826486814,2.0,3.130402930402931,319.44769482798966,-0.019812365246780383,0.09708058970922423,-0.02797039799545499,1407.3260073260071,-1.0,60.253754213913574,3.16038417281843,
2023-08-09 17:48:42.033000,-9.036144578313253,0.18072289156626506,-3.7228915662650603,0.22562844880441446,-8.910484365419988,-3.396689147762109,2.0,3.130402930402931,319.44769482798966,0.07214031816327662,0.09486626653458487,1.1654332498127038E-4,1410.2564102564102,-1.0,60.253754213913574,3.1600863861606165,
2023-08-09 17:48:42.041000,-9.036144578313253,0.18072289156626506,-3.7108433734939763,0.3016554261189454,-8.915389331698345,-3.408951563458001,2.0,3.130402930402931,319.44769482798966,0.19474389604335438,-0.2605908746576537,0.10675368568265231,1416.8498168498168,-1.0,60.253754213913574,3.1597884973979204,
2023-08-09 17:48:42.049000,-9.012048192771084,0.18072289156626506,-3.734939759036145,0.2673206621704476,-8.939914163090128,-3.404046597179644,2.0,3.130402930402931,319.44769482798966,0.10279121263329563,0.0927684866849246,0.12015616805547454,1424.1758241758241,-1.0,60.253754213913574,3.1594905000765063,
2023-08-09 17:48:42.056000,-9.0,0.18072289156626506,-3.7469879518072293,0.27713059472716123,-8.944819129368485,-3.3991416309012874,2.0,3.130402930402931,319.44769482798966,-0.11013344210710395,-0.28797855602820405,0.07447118466289857,1428.5714285714284,-1.0,60.253754213913574,3.1591923879910975,
2023-08-09 17:48:42.064000,-9.024096385542169,0.18072289156626506,-3.7590361445783134,0.33353770692826484,-8.942366646229306,-3.3893316983445736,2.0,3.130402930402931,319.44769482798966,0.07318920808810589,-0.3769011129887541,0.2105937882407785,1430.7692307692307,-1.0,60.253754213913574,3.1588941552692607,
2023-08-09 17:48:42.071000,-9.036144578313253,0.18072289156626506,-3.7228915662650603,0.3237277743715512,-8.927651747394236,-3.391784181483752,2.0,3.1289377289377294,319.5972840084289,-0.08076452421187588,0.0692267350387505,-0.15814929199930056,1430.7692307692307,-1.0,60.253754213913574,3.158595796455086,
2023-08-09 17:48:42.079000,-9.048192771084338,0.18072289156626506,-3.7590361445783134,0.2599632127529123,-8.957081545064376,-3.3721643163703248,2.0,3.1289377289377294,319.5972840084289,0.07260649146320171,-0.08216304411164765,0.012003962473049154,1431.5018315018315,-1.0,60.253754213913574,3.1582973060995942,
2023-08-09 17:48:42.087000,-9.036144578313253,0.1566265060240964,-3.7469879518072293,0.2575107296137339,-8.925199264255058,-3.3697118332311464,2.0,3.1289377289377294,319.5972840084289,0.012586679097954637,-0.23553405978672523,0.04405337684284123,1428.5714285714284,-1.0,60.253754213913574,3.1579986792289967,
2023-08-09 17:48:42.094000,-9.024096385542169,0.18072289156626506,-3.7469879518072293,0.3237277743715512,-8.910484365419988,-3.3525444512568976,2.0,3.1289377289377294,319.5972840084289,0.21105996154070272,-0.09405046325971728,-0.1362391469028612,1423.4432234432234,-1.0,60.253754213913574,3.1576999118117475,
2023-08-09 17:48:42.102000,-9.036144578313253,0.1927710843373494,-3.7228915662650603,0.3114653586756591,-8.912936848559166,-3.4310239117106067,2.0,3.1289377289377294,319.5972840084289,0.10115960608356218,-0.16828856127265243,-0.2559291416584115,1417.5824175824175,-1.0,60.253754213913574,3.157401000345531,
2023-08-09 17:48:42.110000,-9.024096385542169,0.18072289156626506,-3.734939759036145,0.2820355610055181,-8.893316983445738,-3.413856529736358,2.0,3.1289377289377294,319.5972840084289,-0.2505681487092827,0.06304993881475403,-0.08414428063632665,1413.9194139194137,-1.0,60.253754213913574,3.1571019419351867,
2023-08-09 17:48:42.117000,-9.012048192771084,0.16867469879518074,-3.7469879518072293,0.26486817903126914,-8.858982219497241,-3.3648068669527893,2.0,3.1289377289377294,319.5972840084289,-0.2168871277897567,0.15313792902511592,-0.2679331041314607,1409.5238095238094,-1.0,60.253754213913574,3.1568027343689558,
2023-08-09 17:48:42.125000,-9.036144578313253,0.16867469879518074,-3.7228915662650603,0.29675045984058857,-8.930104230533415,-3.3795217657878602,2.0,3.127472527472528,319.74701335207305,0.18215721694539974,0.21409008799020968,-0.100460346133675,1403.6630036630036,-1.0,60.253754213913574,3.1565033766509853,
2023-08-09 17:48:42.133000,-9.024096385542169,0.18072289156626506,-3.734939759036145,0.20600858369098712,-8.944819129368485,-3.4187614960147146,2.0,3.127472527472528,319.74701335207305,0.05850474914049272,0.2130411980653804,-0.31536623739875314,1394.8717948717947,-1.0,60.253754213913574,3.156203868056572,
2023-08-09 17:48:42.140000,-9.036144578313253,0.18072289156626506,-3.734939759036145,0.22808093194359289,-8.964438994481913,-3.3868792152053953,2.0,3.127472527472528,319.74701335207305,-0.32422353009731364,0.08845638366062497,-0.038342753918769394,1386.8131868131868,-1.0,60.253754213913574,3.15590420816825,
2023-08-09 17:48:42.148000,-9.024096385542169,0.18072289156626506,-3.7469879518072293,0.3531575720416922,-8.90803188228081,-3.342734518700184,2.0,3.127472527472528,319.74701335207305,-0.23157158673736986,0.13402482372822055,-0.03799312394382602,1381.6849816849815,-1.0,60.253754213913574,3.155604397822896,
2023-08-09 17:48:42.156000,-9.060240963855422,0.16867469879518074,-3.734939759036145,0.2820355610055181,-8.966891477621092,-3.362354383813611,2.0,3.127472527472528,319.74701335207305,0.30476079482547574,-0.23238739001223746,0.06642969523920522,1379.4871794871794,-1.0,60.253754213913574,3.155304438685152,
2023-08-09 17:48:42.163000,-9.048192771084338,0.18072289156626506,-3.7228915662650603,0.22562844880441446,-8.903126916002453,-3.3942366646229307,2.0,3.1260073260073256,319.8968830560113,0.303362274925704,-0.22982343686265383,0.06514771866441342,1378.7545787545787,-1.0,60.253754213913574,3.1550043333108837,
2023-08-09 17:48:42.171000,-9.048192771084338,0.18072289156626506,-3.734939759036145,0.33108522378908645,-8.959534028203556,-3.391784181483752,2.0,3.1260073260073256,319.8968830560113,0.08682477711089152,-0.22807528698793783,0.34077268224462454,1378.7545787545787,-1.0,60.253754213913574,3.1547040856312063,
2023-08-09 17:48:42.179000,-9.024096385542169,0.1927710843373494,-3.7228915662650603,0.3016554261189454,-8.90803188228081,-3.421213979153893,2.0,3.1260073260073256,319.8968830560113,-0.15756657537439464,0.23250393333721828,0.07994872093700829,1379.4871794871794,-1.0,60.253754213913574,3.154403700346416,
2023-08-09 17:48:42.186000,-9.024096385542169,0.18072289156626506,-3.7469879518072293,0.3016554261189454,-8.947271612507663,-3.3942366646229307,2.0,3.1260073260073256,319.8968830560113,-0.07901637433715986,-0.22702639706310856,0.020628168521647974,1379.4871794871794,-1.0,60.253754213913574,3.1541031825249486,
2023-08-09 17:48:42.194000,-9.036144578313253,0.18072289156626506,-3.7469879518072293,0.269773145309626,-8.920294297976701,-3.443286327406499,2.0,3.1260073260073256,319.8968830560113,0.25756074820814673,-0.2847153429287337,0.08286230406153484,1380.2197802197802,-1.0,60.253754213913574,3.1538025386046464,
2023-08-09 17:48:42.202000,-9.024096385542169,0.18072289156626506,-3.7590361445783134,0.31882280809319435,-8.930104230533415,-3.4408338442673205,2.0,3.1260073260073256,319.8968830560113,0.10395664588310746,0.19078142299399725,0.14532952625138382,1379.4871794871794,-1.0,60.253754213913574,3.153501776372835,
2023-08-09 17:48:42.209000,-9.024096385542169,0.18072289156626506,-3.7228915662650603,0.3114653586756591,-8.966891477621092,-3.4064990803188224,2.0,3.124542124542124,320.04689331770226,0.05722277256570179,-0.10057688945865627,-0.1142124584814406,1376.5567765567764,-1.0,60.253754213913574,3.153200904522052,
2023-08-09 17:48:42.217000,-9.012048192771084,0.1927710843373494,-3.7469879518072293,0.3139178418148375,-8.93746167995095,-3.3893316983445736,2.0,3.124542124542124,320.04689331770226,0.1636268282734103,-0.13041198065380769,0.17749548394615716,1378.7545787545787,-1.0,60.253754213913574,3.1528999322020526,
2023-08-09 17:48:42.225000,-9.012048192771084,0.18072289156626506,-3.7590361445783134,0.34580012262415694,-8.920294297976701,-3.404046597179644,2.0,3.1260073260073256,319.8968830560113,-0.03682769069401549,0.09906182623390192,-0.3568556610920108,1380.952380952381,-1.0,60.253754213913574,3.1525988689887363,
2023-08-09 17:48:42.232000,-9.0,0.1566265060240964,-3.7228915662650603,0.27713059472716123,-8.905579399141631,-3.4187614960147146,2.0,3.124542124542124,320.04689331770226,-0.06852747508886375,0.1105996154070273,-0.12749839752928155,1386.080586080586,-1.0,60.253754213913574,3.1522977263247407,
2023-08-09 17:48:42.240000,-9.024096385542169,0.16867469879518074,-3.7469879518072293,0.24770079705702022,-8.935009196811771,-3.443286327406499,2.0,3.124542124542124,320.04689331770226,0.20779674844123236,0.41477769360759886,0.22446244391352496,1393.4065934065934,-1.0,60.253754213913574,3.1519965166022503,
2023-08-09 17:48:42.248000,-9.048192771084338,0.1566265060240964,-3.734939759036145,0.3016554261189454,-8.957081545064376,-3.4064990803188224,2.0,3.124542124542124,320.04689331770226,-0.15931472524911067,0.3643144338907995,-0.25091777868422604,1398.5347985347985,-1.0,60.253754213913574,3.1516952527001116,
2023-08-09 17:48:42.255000,-9.036144578313253,0.1566265060240964,-3.7228915662650603,0.2673206621704476,-8.98405885959534,-3.421213979153893,2.0,3.124542124542124,320.04689331770226,0.08507662723617551,0.146028786201271,-0.04941436979197012,1400.0,-1.0,60.253754213913574,3.1513939488886495,
2023-08-09 17:48:42.263000,-9.012048192771084,0.1566265060240964,-3.7108433734939763,0.31882280809319435,-8.971796443899448,-3.391784181483752,2.0,3.124542124542124,320.04689331770226,-0.11444554513140184,0.21991725423926364,-0.017598042072140153,1397.8021978021977,-1.0,60.253754213913574,3.1510926203597656,
2023-08-09 17:48:42.271000,-9.012048192771084,0.14457831325301207,-3.734939759036145,0.29675045984058857,-8.87614960147149,-3.3868792152053953,2.0,3.124542124542124,320.04689331770226,-0.06934327836373134,-0.009323465998484274,-0.14043470660217913,1396.3369963369962,-1.0,60.253754213913574,3.150791283704142,
2023-08-09 17:48:42.278000,-9.012048192771084,0.1566265060240964,-3.734939759036145,0.21091354996934394,-8.979153893316983,-3.4163090128755362,2.0,3.1230769230769226,320.19704433497543,-0.10115960608356218,-0.024007924946099175,-0.2741099003554572,1392.6739926739926,-1.0,60.253754213913574,3.1504899568601576,
2023-08-09 17:48:42.286000,-9.012048192771084,0.16867469879518074,-3.7590361445783134,0.27467811158798283,-8.925199264255058,-3.413856529736358,2.0,3.1230769230769226,320.19704433497543,0.03589534409416706,0.40312336110949265,0.13985198997727408,1387.5457875457876,-1.0,60.253754213913574,3.1501886581461367,
2023-08-09 17:48:42.294000,-9.024096385542169,0.1566265060240964,-3.7590361445783134,0.2869405272838749,-8.920294297976701,-3.4064990803188224,2.0,3.1230769230769226,320.19704433497543,0.15698385874949047,0.229706893537673,0.1672396713478236,1383.8827838827838,-1.0,60.253754213913574,3.1498874062025215,
2023-08-09 17:48:42.301000,-9.036144578313253,0.16867469879518074,-3.7469879518072293,0.23789086450030655,-8.93746167995095,-3.3721643163703248,2.0,3.1230769230769226,320.19704433497543,-0.07470427131286024,0.27329409708058916,0.08775712371073952,1378.7545787545787,-1.0,60.253754213913574,3.1495862204556198,
2023-08-09 17:48:42.309000,-9.024096385542169,0.1566265060240964,-3.734939759036145,0.30656039239730226,-8.925199264255058,-3.391784181483752,2.0,3.1230769230769226,320.19704433497543,-0.011537789173125373,0.24392517918536283,0.1786609171959677,1374.3589743589744,-1.0,60.253754213913574,3.149285121578111,
2023-08-09 17:48:42.317000,-9.036144578313253,0.1566265060240964,-3.7469879518072293,0.33353770692826484,-8.991416309012875,-3.421213979153893,2.0,3.1201465201465197,320.49776942944357,0.17225103432200956,0.19660858924305122,0.3298176096964046,1367.7655677655678,-1.0,60.253754213913574,3.148984130963694,
2023-08-09 17:48:42.324000,-9.024096385542169,0.18072289156626506,-3.734939759036145,0.27713059472716123,-8.910484365419988,-3.42611894543225,2.0,3.1201465201465197,320.49776942944357,0.6301497581726012,0.40801818075869645,0.1443971796515354,1364.8351648351647,-1.0,60.253754213913574,3.148683270233601,
2023-08-09 17:48:42.332000,-9.036144578313253,0.1566265060240964,-3.7469879518072293,0.3139178418148375,-8.930104230533415,-3.391784181483752,2.0,3.121611721611721,320.3473363060315,0.48715109842083715,0.00967309597342852,0.28226793310413134,1362.6373626373625,-1.0,60.253754213913574,3.148382560986934,
2023-08-09 17:48:42.340000,-9.024096385542169,0.16867469879518074,-3.734939759036145,0.2869405272838749,-8.942366646229306,-3.455548743102391,2.0,3.121611721611721,320.3473363060315,0.05687314259075754,0.23949653283608235,0.02191014509643978,1364.102564102564,-1.0,60.253754213913574,3.1480820252810737,
2023-08-09 17:48:42.347000,-9.036144578313253,0.16867469879518074,-3.7469879518072293,0.29675045984058857,-8.905579399141631,-3.42611894543225,2.0,3.121611721611721,320.3473363060315,0.19474389604335438,0.05535807936600493,-0.1448633529514596,1368.4981684981683,-1.0,60.253754213913574,3.147781686636244,
2023-08-09 17:48:42.355000,-9.012048192771084,0.18072289156626506,-3.7469879518072293,0.20846106683016552,-8.910484365419988,-3.4187614960147146,2.0,3.1201465201465197,320.49776942944357,0.1956762426432028,-0.1741157275217064,-0.08309539071149695,1375.091575091575,-1.0,60.253754213913574,3.1474815694949383,
2023-08-09 17:48:42.363000,-9.012048192771084,0.18072289156626506,-3.771084337349398,0.2722256284488044,-8.944819129368485,-3.435928877988964,2.0,3.121611721611721,320.3473363060315,0.1497581726006647,0.0397412738185416,0.16024707184895995,1380.952380952381,-1.0,60.253754213913574,3.1471816982236103,
2023-08-09 17:48:42.370000,-9.036144578313253,0.14457831325301207,-3.7469879518072293,0.22808093194359289,-8.898221949724094,-3.4163090128755362,2.0,3.121611721611721,320.3473363060315,-0.12679913757939482,0.5293397820639816,-0.08239613076161063,1385.3479853479853,-1.0,60.253754213913574,3.1468820975181706,
2023-08-09 17:48:42.378000,-9.048192771084338,0.14457831325301207,-3.7590361445783134,0.2722256284488044,-8.944819129368485,-3.384426732066217,2.0,3.121611721611721,320.3473363060315,-0.033914107569489364,-0.02086125517160965,-0.06666278188916733,1387.5457875457876,-1.0,60.253754213913574,3.14658279291191,
2023-08-09 17:48:42.386000,-9.036144578313253,0.1566265060240964,-3.7590361445783134,0.24034334763948498,-8.981606376456162,-3.3819742489270386,2.0,3.1201465201465197,320.49776942944357,-0.15698385874949047,0.24066196608589246,-0.0657304352893189,1389.0109890109889,926.849365234375,64.73543841164269,3.1462838107571804,
2023-08-09 17:48:42.393000,-9.012048192771084,0.13253012048192772,-3.7590361445783134,0.27713059472716123,-8.939914163090128,-3.408951563458001,2.0,3.1201465201465197,320.49776942944357,0.07202377483829579,0.3009148651011012,0.2562787716333545,1387.5457875457876,-1.0,64.73543841164269,3.1459851771886007,
2023-08-09 17:48:42.401000,-9.024096385542169,0.1566265060240964,-3.7831325301204823,0.21336603310852237,-8.927651747394236,-3.404046597179644,2.0,3.1201465201465197,320.49776942944357,-0.2501019754093576,0.11735912825592969,-0.00396247304935625,1388.278388278388,-1.0,64.73543841164269,3.1456869180683813,
2023-08-09 17:48:42.409000,-9.0,0.1566265060240964,-3.7590361445783134,0.3384426732066217,-8.971796443899448,-3.4285714285714284,2.0,3.1201465201465197,320.49776942944357,0.19474389604335438,0.49763999766913325,0.19276265951867624,1389.7435897435896,-1.0,64.73543841164269,3.1453890598443666,
2023-08-09 17:48:42.416000,-8.987951807228916,0.16867469879518074,-3.771084337349398,0.32127529123237275,-8.939914163090128,-3.42611894543225,2.0,3.1201465201465197,320.49776942944357,-0.006992599498864074,-0.0874074937357957,0.022143231746401888,1388.278388278388,-1.0,64.73543841164269,3.1450916290364295,
2023-08-09 17:48:42.424000,-9.012048192771084,0.16867469879518074,-3.7590361445783134,0.29429797670141017,-8.873697118332311,-3.42611894543225,2.0,3.1201465201465197,320.49776942944357,-0.024007924946099175,-0.12050579803041749,0.17528116077151693,1385.3479853479853,-1.0,64.73543841164269,3.144794652215359,
2023-08-09 17:48:42.432000,-8.975903614457831,0.16867469879518074,-3.7590361445783134,0.2844880441446965,-8.954629061925198,-3.4530962599632127,2.0,3.1186813186813183,320.6483439041579,0.11304702523163007,-0.07610279121263375,0.05162869296661036,1381.6849816849815,-1.0,64.73543841164269,3.1444981564398513,
2023-08-09 17:48:42.439000,-9.024096385542169,0.16867469879518074,-3.7469879518072293,0.2575107296137339,-8.944819129368485,-3.4310239117106067,2.0,3.1186813186813183,320.6483439041579,0.11211467863178164,-0.07668550783753793,0.049530913116951396,1376.5567765567764,-1.0,64.73543841164269,3.1442021686764137,
2023-08-09 17:48:42.447000,-9.024096385542169,0.16867469879518074,-3.771084337349398,0.23053341508277128,-8.93746167995095,-3.4064990803188224,2.0,3.1186813186813183,320.6483439041579,-0.011188159198181129,0.3236408134724077,0.0793660043121028,1372.161172161172,-1.0,64.73543841164269,3.1439067147618385,
2023-08-09 17:48:42.454000,-9.036144578313253,0.16867469879518074,-3.771084337349398,0.26486817903126914,-8.96934396076027,-3.4114040465971796,2.0,3.1186813186813183,320.6483439041579,0.29427189557718136,0.39799545481032544,0.215605151214964,1368.4981684981683,-1.0,64.73543841164269,3.1436118203666945,
2023-08-09 17:48:42.462000,-9.048192771084338,0.1566265060240964,-3.771084337349398,0.27713059472716123,-8.966891477621092,-3.4064990803188224,2.0,3.1186813186813183,320.6483439041579,0.23320319328710504,0.2729444671056466,-0.07796748441233016,1368.4981684981683,-1.0,64.73543841164269,3.1433175113975786,
2023-08-09 17:48:42.470000,-9.036144578313253,0.18072289156626506,-3.771084337349398,0.2795830778663397,-8.92274678111588,-3.47271612507664,2.0,3.1172161172161164,320.7990599294948,0.5232795291649677,0.17714585397121335,-0.07796748441233016,1369.9633699633698,-1.0,64.73543841164269,3.1430238134872757,
2023-08-09 17:48:42.477000,-9.036144578313253,0.16867469879518074,-3.7469879518072293,0.24770079705702022,-8.920294297976701,-3.396689147762109,2.0,3.1172161172161164,320.7990599294948,0.4446127848027503,-0.19159722626886486,0.060136355690227905,1372.161172161172,-1.0,64.73543841164269,3.142730752402068,
2023-08-09 17:48:42.485000,-9.024096385542169,0.16867469879518074,-3.7469879518072293,0.24279583077866337,-8.883507050889024,-3.413856529736358,2.0,3.1172161172161164,320.7990599294948,0.4877338150457431,-0.19357846279354426,0.42573276615581834,1375.091575091575,-1.0,64.73543841164269,3.142438353821116,
2023-08-09 17:48:42.493000,-9.024096385542169,0.18072289156626506,-3.7590361445783134,0.2673206621704476,-8.947271612507663,-3.462906192519926,2.0,3.1172161172161164,320.7990599294948,0.4246838762309891,-0.2546471650836206,0.1314608705786378,1377.2893772893772,-1.0,64.73543841164269,3.142146642800209,
2023-08-09 17:48:42.500000,-9.012048192771084,0.18072289156626506,-3.734939759036145,0.2550582464745555,-8.930104230533415,-3.4163090128755362,2.0,3.1172161172161164,320.7990599294948,0.5165200163160653,0.29788473865159426,-0.20523279529164962,1380.2197802197802,-1.0,64.73543841164269,3.1418556437635945,
2023-08-09 17:48:42.508000,-8.987951807228916,0.18072289156626506,-3.7228915662650603,0.2795830778663397,-8.878602084610668,-3.3476394849785405,2.0,3.1172161172161164,320.7990599294948,0.4044053376842836,0.18751820989452864,-0.0801818075869704,1386.080586080586,-1.0,64.73543841164269,3.1415653804967483,
2023-08-09 17:48:42.516000,-9.012048192771084,0.16867469879518074,-3.734939759036145,0.2918454935622317,-8.930104230533415,-3.4506437768240343,2.0,3.1172161172161164,320.7990599294948,0.37002505681487086,0.10908455218227295,-0.23285356331216123,1394.8717948717947,-1.0,64.73543841164269,3.1412758761404063,
2023-08-09 17:48:42.523000,-9.036144578313253,0.16867469879518074,-3.771084337349398,0.3359901900674433,-8.920294297976701,-3.4114040465971796,2.0,3.1157509157509153,320.94991770514935,0.36734456034030644,0.06165141891498225,0.08997144688537975,1408.058608058608,-1.0,64.73543841164269,3.1409871536441076,
2023-08-09 17:48:42.531000,-9.048192771084338,0.18072289156626506,-3.7469879518072293,0.3139178418148375,-8.961986511342735,-3.4015941140404657,2.0,3.1157509157509153,320.94991770514935,-0.2175863877396417,0.13728803682769092,0.10477244915797462,1424.9084249084249,-1.0,64.73543841164269,3.1406992352038987,
2023-08-09 17:48:42.539000,-9.012048192771084,0.18072289156626506,-3.734939759036145,0.2452483139178418,-8.957081545064376,-3.4506437768240343,2.0,3.1157509157509153,320.94991770514935,0.13344210710331636,0.35219392809276817,0.37596876638890525,1444.6886446886447,-1.0,64.73543841164269,3.140412141243767,
2023-08-09 17:48:42.546000,-9.036144578313253,0.16867469879518074,-3.734939759036145,0.27467811158798283,-8.910484365419988,-3.396689147762109,2.0,3.1157509157509153,320.94991770514935,-0.037876580618844746,0.5612726531087933,-0.09976108618378868,1465.9340659340658,-1.0,64.73543841164269,3.1401258913992,
2023-08-09 17:48:42.554000,-9.048192771084338,0.16867469879518074,-3.734939759036145,0.2795830778663397,-8.915389331698345,-3.3770692826486814,2.0,3.1142857142857134,321.1009174311927,0.20581551191655467,-0.024823728220966765,0.14451372297651666,1490.10989010989,-1.0,64.73543841164269,3.1398405049404476,
2023-08-09 17:48:42.562000,-9.012048192771084,0.16867469879518074,-3.7108433734939763,0.19619865113427343,-8.944819129368485,-3.438381361128142,2.0,3.1142857142857134,321.1009174311927,0.0802983509119508,0.08076452421187588,-0.11735912825592926,1514.2857142857142,-1.0,64.73543841164269,3.139555999791886,
2023-08-09 17:48:42.569000,-9.0,0.1566265060240964,-3.734939759036145,0.2550582464745555,-8.957081545064376,-3.435928877988964,2.0,3.1142857142857134,321.1009174311927,-0.1339082804032397,0.14031816327719787,0.05104597634170487,1539.9267399267399,-1.0,64.73543841164269,3.139272392466752,
2023-08-09 17:48:42.577000,-9.012048192771084,0.1566265060240964,-3.734939759036145,0.24034334763948498,-8.878602084610668,-3.4114040465971796,2.0,3.1142857142857134,321.1009174311927,0.12644950760445228,-0.1364722335528233,0.29497115552706726,1565.5677655677655,-1.0,64.73543841164269,3.138989698528854,
2023-08-09 17:48:42.585000,-9.024096385542169,0.13253012048192772,-3.771084337349398,0.26241569589209074,-8.878602084610668,-3.4114040465971796,2.0,3.1142857142857134,321.1009174311927,0.3542917079424284,0.30476079482547574,0.30837363789988903,1586.080586080586,-1.0,64.73543841164269,3.138707933056416,
2023-08-09 17:48:42.592000,-9.012048192771084,0.1566265060240964,-3.771084337349398,0.26241569589209074,-8.935009196811771,-3.4408338442673205,2.0,3.1142857142857134,321.1009174311927,0.16910436454752,0.5454227609113682,0.13822038342753934,1600.7326007326005,-1.0,64.73543841164269,3.138427110583239,
2023-08-09 17:48:42.600000,-9.024096385542169,0.1566265060240964,-3.7590361445783134,0.2599632127529123,-8.957081545064376,-3.4114040465971796,2.0,3.1128205128205124,321.25205930807255,0.5941378707534534,0.31175339432433985,0.4588310704504401,1610.2564102564102,-1.0,64.73543841164269,3.1381472446214183,
2023-08-09 17:48:42.608000,-9.024096385542169,0.14457831325301207,-3.7590361445783134,0.24279583077866337,-8.888412017167381,-3.4114040465971796,2.0,3.1128205128205124,321.25205930807255,0.4081347240836773,0.3703746867898134,0.10407318920808831,1611.7216117216117,-1.0,64.73543841164269,3.137868347644235,
2023-08-09 17:48:42.615000,-9.036144578313253,0.13253012048192772,-3.7469879518072293,0.2207234825260576,-8.900674432863273,-3.396689147762109,2.0,3.1128205128205124,321.25205930807255,0.2067478585164031,0.15348755900005842,0.31944525377309024,1608.7912087912086,-1.0,64.73543841164269,3.1375904305090567,
2023-08-09 17:48:42.623000,-9.024096385542169,0.14457831325301207,-3.771084337349398,0.2452483139178418,-8.885959534028203,-3.4530962599632127,2.0,3.111355311355311,321.4033435366141,0.20534933861663132,0.1214381446302659,0.3347124293456093,1600.7326007326005,-1.0,64.73543841164269,3.137313502969381,
2023-08-09 17:48:42.631000,-9.048192771084338,0.1566265060240964,-3.7228915662650603,0.269773145309626,-8.971796443899448,-3.3770692826486814,2.0,3.111355311355311,321.4033435366141,0.06817784511392125,0.2132742847153421,0.36256628401608304,1588.278388278388,-1.0,64.73543841164269,3.137037574084587,
2023-08-09 17:48:42.638000,-9.024096385542169,0.18072289156626506,-3.6746987951807233,0.25260576333537704,-8.986511342734518,-3.342734518700184,2.0,3.111355311355311,321.4033435366141,0.18903327311928123,0.22737602703805107,0.13402482372822097,1570.6959706959706,-1.0,64.73543841164269,3.1367626516138443,
2023-08-09 17:48:42.646000,-9.012048192771084,0.1566265060240964,-3.7108433734939763,0.29429797670141017,-8.895769466584916,-3.408951563458001,2.0,3.111355311355311,321.4033435366141,1.088631198648097,0.4268981994056284,-0.020278538546704597,1552.3809523809523,-1.0,64.73543841164269,3.13648874200824,
2023-08-09 17:48:42.654000,-9.036144578313253,0.14457831325301207,-3.7951807228915664,0.2893930104230533,-8.95217657878602,-3.507050889025138,2.0,3.111355311355311,321.4033435366141,0.3024299283258555,0.9908513489889861,0.4843540586212923,1531.8681318681317,-1.0,64.73543841164269,3.1362158504388207,
2023-08-09 17:48:42.661000,-9.048192771084338,0.16867469879518074,-3.7951807228915664,0.2869405272838749,-8.964438994481913,-3.475168608215818,2.0,3.1098901098901095,321.55477031802127,-0.04953091311695096,0.25219975525901783,0.10011071615873206,1514.2857142857142,-1.0,64.73543841164269,3.135943980825981,
2023-08-09 17:48:42.669000,-9.024096385542169,0.1566265060240964,-3.7951807228915664,0.2795830778663397,-8.944819129368485,-3.4530962599632127,2.0,3.1098901098901095,321.55477031802127,0.43890216187867886,-0.15989744187401658,0.45207155760153855,1498.9010989010987,-1.0,64.73543841164269,3.1356731353778007,
2023-08-09 17:48:42.677000,-9.012048192771084,0.18072289156626506,-3.771084337349398,0.2575107296137339,-8.935009196811771,-3.467811158798283,2.0,3.1098901098901095,321.55477031802127,0.28203484645416926,0.3745702464891322,0.3722393799895111,1484.2490842490843,-1.0,64.73543841164269,3.13540331455068,
2023-08-09 17:48:42.684000,-9.036144578313253,0.16867469879518074,-3.7469879518072293,0.2599632127529123,-8.96934396076027,-3.455548743102391,2.0,3.1098901098901095,321.55477031802127,0.36955888351494753,0.828856127265311,0.42969523920517455,1470.3296703296703,-1.0,64.73543841164269,3.1351345175365553,
2023-08-09 17:48:42.692000,-9.012048192771084,0.16867469879518074,-3.771084337349398,0.30656039239730226,-8.917841814837523,-3.433476394849785,2.0,3.1098901098901095,321.55477031802127,0.4551016840510464,0.684575490938756,0.4244507895810265,1458.6080586080584,-1.0,64.73543841164269,3.1348667427518104,
2023-08-09 17:48:42.700000,-9.036144578313253,0.20481927710843376,-3.7590361445783134,0.3139178418148375,-8.927651747394236,-3.462906192519926,2.0,3.1098901098901095,321.55477031802127,0.3091894411747562,-0.12831420080414915,0.2842491696288095,1449.8168498168498,-1.0,64.73543841164269,3.1345999878030466,
2023-08-09 17:48:42.707000,-9.024096385542169,0.20481927710843376,-3.7951807228915664,0.3408951563458001,-9.011036174126302,-3.4800735744941753,2.0,3.1098901098901095,321.55477031802127,0.42678165608064755,-0.7576481557018828,0.03321484761960261,1443.956043956044,-1.0,64.73543841164269,3.13433424903393,
2023-08-09 17:48:42.715000,-9.0,0.20481927710843376,-3.7831325301204823,0.2918454935622317,-8.888412017167381,-3.4408338442673205,2.0,3.108424908424908,321.706339853877,0.4206048598566511,-0.7574150690519194,0.032165957694772915,1438.095238095238,-1.0,64.73543841164269,3.1340695215665355,
2023-08-09 17:48:42.723000,-8.987951807228916,0.1927710843373494,-3.807228915662651,0.26486817903126914,-8.900674432863273,-3.4285714285714284,2.0,3.108424908424908,321.706339853877,-0.24264320261057015,-0.4982227142940392,-0.0010488899248296977,1432.9670329670328,-1.0,64.73543841164269,3.1338057993099735,
2023-08-09 17:48:42.730000,-8.963855421686748,0.18072289156626506,-3.7831325301204823,0.31882280809319435,-8.900674432863273,-3.4898835070508887,2.0,3.108424908424908,321.706339853877,0.09090379348522774,0.1446302663014975,-0.17085251442223648,1428.5714285714284,-1.0,64.73543841164269,3.1335430748666804,
2023-08-09 17:48:42.738000,-9.0,0.21686746987951808,-3.771084337349398,0.30901287553648066,-8.942366646229306,-3.4530962599632127,2.0,3.108424908424908,321.706339853877,-0.021560515121496402,0.17353301089680048,-0.2629217411572752,1424.1758241758241,-1.0,64.73543841164269,3.1332813395446206,
2023-08-09 17:48:42.746000,-9.0,0.18072289156626506,-3.7469879518072293,0.23789086450030655,-8.858982219497241,-3.4604537093807477,2.0,3.108424908424908,321.706339853877,-0.0692267350387505,-0.08868947031058838,0.23984616281102486,1419.7802197802198,-1.0,64.73543841164269,3.1330205834058207,
2023-08-09 17:48:42.753000,-9.024096385542169,0.1927710843373494,-3.7831325301204823,0.30901287553648066,-8.905579399141631,-3.4898835070508887,2.0,3.1069597069597066,321.8580523461448,-0.13122778392867526,-0.05990326904026623,-0.13006235067886474,1414.6520146520145,-1.0,64.73543841164269,3.1327607953166687,
2023-08-09 17:48:42.761000,-9.036144578313253,0.1927710843373494,-3.7831325301204823,0.26241569589209074,-8.949724095646841,-3.4114040465971796,2.0,3.1069597069597066,321.8580523461448,-0.011304702523163701,-0.04335411689295448,-0.17539770409649777,1410.2564102564102,-1.0,64.73543841164269,3.1325019629654336,
2023-08-09 17:48:42.769000,-9.024096385542169,0.18072289156626506,-3.807228915662651,0.2893930104230533,-9.01594114040466,-3.484978540772532,2.0,3.108424908424908,321.706339853877,-0.10372355923314405,0.12411864110483035,-0.39018705203659465,1408.058608058608,-1.0,64.73543841164269,3.1322440727773926,
2023-08-09 17:48:42.776000,-9.036144578313253,0.20481927710843376,-3.807228915662651,0.3139178418148375,-8.935009196811771,-3.4506437768240343,2.0,3.105494505494505,322.0099079971692,-0.42526659285589496,0.19998834566750243,-0.26560223763183965,1404.3956043956043,-1.0,64.73543841164269,3.1319871104285326,
2023-08-09 17:48:42.784000,-9.012048192771084,0.1927710843373494,-3.7951807228915664,0.299202942979767,-8.90803188228081,-3.4702636419374615,2.0,3.105494505494505,322.0099079971692,-0.5467047374861609,0.03216595769477335,-0.06491463201445132,1402.9304029304028,-1.0,64.73543841164269,3.1317310604475526,
2023-08-09 17:48:42.792000,-9.036144578313253,0.18072289156626506,-3.7831325301204823,0.299202942979767,-8.915389331698345,-3.4580012262415694,2.0,3.105494505494505,322.0099079971692,-0.223180467338734,-0.45183847095157603,-0.32375735679738943,1404.3956043956043,-1.0,64.73543841164269,3.131475905610933,
2023-08-09 17:48:42.799000,-9.012048192771084,0.18072289156626506,-3.7831325301204823,0.2869405272838749,-8.87614960147149,-3.4506437768240343,2.0,3.105494505494505,322.0099079971692,-0.2384476429112531,-0.26385408775712405,-0.3516112114678631,1406.5934065934066,-1.0,64.73543841164269,3.131221627426359,
2023-08-09 17:48:42.807000,-9.0,0.18072289156626506,-3.7590361445783134,0.25015328019619865,-8.964438994481913,-3.4285714285714284,2.0,3.105494505494505,322.0099079971692,-0.37387098653924544,-0.3683934502651357,-0.4081347240836782,1410.989010989011,-1.0,64.73543841164269,3.130968206193981,
2023-08-09 17:48:42.815000,-9.012048192771084,0.1566265060240964,-3.7831325301204823,0.20600858369098712,-8.878602084610668,-3.445738810545677,2.0,3.105494505494505,322.0099079971692,-0.3556902278422002,-0.12178777460521016,-0.20523279529164962,1413.1868131868132,-1.0,64.73543841164269,3.130715621068874,
2023-08-09 17:48:42.822000,-9.024096385542169,0.1566265060240964,-3.7469879518072293,0.3139178418148375,-8.903126916002453,-3.4064990803188224,2.0,3.105494505494505,322.0099079971692,-0.26082396130761537,-0.35067886486801386,-0.11269739525668669,1415.3846153846152,-1.0,64.73543841164269,3.1304638501249853,
2023-08-09 17:48:42.830000,-9.024096385542169,0.1566265060240964,-3.7590361445783134,0.328632740649908,-8.939914163090128,-3.4481912936848556,2.0,3.105494505494505,322.0099079971692,-0.2861138628285072,-0.33669366587028743,0.11735912825592926,1417.5824175824175,-1.0,64.73543841164269,3.1302128704208134,
2023-08-09 17:48:42.837000,-9.0,0.18072289156626506,-3.771084337349398,0.2795830778663397,-8.979153893316983,-3.3893316983445736,2.0,3.105494505494505,322.0099079971692,-0.0102558125983327,-0.24345900588543773,-0.34065613891964325,1419.7802197802198,-1.0,64.73543841164269,3.12996265806711,
2023-08-09 17:48:42.845000,-9.0,0.16867469879518074,-3.7951807228915664,0.3384426732066217,-8.885959534028203,-3.4285714285714284,2.0,3.104029304029303,322.1619070096767,-0.3596527008915556,-0.2728279237806658,-0.20115377891731254,1420.5128205128203,-1.0,64.73543841164269,3.129713188754731,
2023-08-09 17:48:42.853000,-9.012048192771084,0.1927710843373494,-3.771084337349398,0.3041079092581238,-8.95217657878602,-3.3868792152053953,2.0,3.104029304029303,322.1619070096767,-0.02074471184662881,-0.4251500495309124,0.09148651011013323,1419.047619047619,-1.0,64.73543841164269,3.1294644372672313,
2023-08-09 17:48:42.860000,-9.012048192771084,0.16867469879518074,-3.7469879518072293,0.30901287553648066,-8.925199264255058,-3.438381361128142,2.0,3.104029304029303,322.1619070096767,-0.12656605092943313,-0.19357846279354426,-0.30441116485053327,1416.8498168498168,-1.0,64.73543841164269,3.129216376995592,
2023-08-09 17:48:42.868000,-9.024096385542169,0.18072289156626506,-3.7228915662650603,0.3507050889025138,-8.903126916002453,-3.3991416309012874,2.0,3.104029304029303,322.1619070096767,-0.047433133267292434,-0.361633937416235,-0.2095448983159488,1413.9194139194137,-1.0,64.73543841164269,3.1289689804724845,
2023-08-09 17:48:42.876000,-9.024096385542169,0.16867469879518074,-3.7469879518072293,0.2795830778663397,-8.935009196811771,-3.445738810545677,2.0,3.104029304029303,322.1619070096767,-0.07575316123768949,-0.28541460287862047,-0.3765514830138103,1410.2564102564102,-1.0,64.73543841164269,3.12872221945061,
2023-08-09 17:48:42.883000,-9.0,0.1927710843373494,-3.7469879518072293,0.2329858982219497,-8.917841814837523,-3.408951563458001,2.0,3.102564102564102,322.3140495867769,0.1695705378474451,-0.32981760969640417,0.006876056173882803,1400.7326007326005,-1.0,64.73543841164269,3.128476064983239,
2023-08-09 17:48:42.891000,-8.987951807228916,0.1566265060240964,-3.7469879518072293,0.3163703249540159,-8.971796443899448,-3.404046597179644,2.0,3.102564102564102,322.3140495867769,-0.06374919876464077,0.13262630382844878,-0.22213157741390344,1392.6739926739926,-1.0,64.73543841164269,3.128230487472364,
2023-08-09 17:48:42.899000,-9.012048192771084,0.14457831325301207,-3.7469879518072293,0.2795830778663397,-8.927651747394236,-3.413856529736358,2.0,3.102564102564102,322.3140495867769,0.13216013052852368,-0.09544898315948905,-0.0982460229590352,1389.7435897435896,-1.0,64.73543841164269,3.127985456614815,
2023-08-09 17:48:42.906000,-9.0,0.14457831325301207,-3.7469879518072293,0.299202942979767,-8.92274678111588,-3.3868792152053953,2.0,3.102564102564102,322.3140495867769,-0.1309946972787136,-0.28017015325447236,0.04148942369325806,1389.7435897435896,-1.0,64.73543841164269,3.127740941454537,
2023-08-09 17:48:42.914000,-9.012048192771084,0.16867469879518074,-3.734939759036145,0.25015328019619865,-8.939914163090128,-3.396689147762109,2.0,3.102564102564102,322.3140495867769,0.05279412621642132,-0.06339956878969827,-0.3708408600897385,1390.4761904761904,-1.0,64.73543841164269,3.127496910471371,
2023-08-09 17:48:42.922000,-9.012048192771084,0.16867469879518074,-3.7590361445783134,0.24279583077866337,-8.959534028203556,-3.433476394849785,2.0,3.102564102564102,322.3140495867769,0.14323174640172398,-0.3389079890449268,-0.10745294563253907,1391.9413919413919,-1.0,64.73543841164269,3.1272533316717297,
2023-08-09 17:48:42.929000,-9.024096385542169,0.1566265060240964,-3.771084337349398,0.3016554261189454,-8.912936848559166,-3.421213979153893,2.0,3.0996336996336993,322.6187662491137,0.14101742322708463,-0.25849309480799515,-0.04638424334246274,1393.4065934065934,-1.0,64.73543841164269,3.1270101726812984,
2023-08-09 17:48:42.937000,-9.036144578313253,0.1566265060240964,-3.771084337349398,0.30901287553648066,-8.917841814837523,-3.4506437768240343,2.0,3.1010989010989007,322.46633593196316,0.35417516461744586,0.1713186877221611,-0.09346774663481136,1395.6043956043954,-1.0,64.73543841164269,3.126767400770348,
2023-08-09 17:48:42.945000,-9.024096385542169,0.1566265060240964,-3.7590361445783134,0.2844880441446965,-8.927651747394236,-3.465358675659105,2.0,3.1010989010989007,322.46633593196316,0.06048598566517042,-0.34834799836839364,-0.07936600431210324,1398.5347985347985,-1.0,64.73543841164269,3.126524983164754,
2023-08-09 17:48:42.952000,-9.024096385542169,0.16867469879518074,-3.7951807228915664,0.2673206621704476,-8.873697118332311,-3.4064990803188224,2.0,3.1010989010989007,322.46633593196316,0.07412155468795606,-0.4234018996561964,-0.03414719421945104,1398.5347985347985,-1.0,64.73543841164269,3.126282887145723,
2023-08-09 17:48:42.960000,-9.036144578313253,0.13253012048192772,-3.7590361445783134,0.3114653586756591,-8.917841814837523,-3.462906192519926,2.0,3.1010989010989007,322.46633593196316,-0.0026804964745644456,-0.392284831886254,0.056290425965852924,1397.069597069597,-1.0,64.73543841164269,3.1260410796946227,
2023-08-09 17:48:42.968000,-9.024096385542169,0.1566265060240964,-3.7590361445783134,0.2869405272838749,-8.89086450030656,-3.433476394849785,2.0,3.1010989010989007,322.46633593196316,-0.048248936542160024,-0.46722218984907593,-0.09777984965911098,1395.6043956043954,-1.0,64.73543841164269,3.1257995275964654,
2023-08-09 17:48:42.975000,-9.012048192771084,0.1566265060240964,-3.771084337349398,0.2795830778663397,-8.930104230533415,-3.435928877988964,2.0,3.1010989010989007,322.46633593196316,0.13530680030301323,-0.4653574966493791,-0.2804032399044345,1395.6043956043954,-1.0,64.73543841164269,3.125558197544219,
2023-08-09 17:48:42.983000,-9.012048192771084,0.14457831325301207,-3.7590361445783134,0.2918454935622317,-8.912936848559166,-3.4408338442673205,2.0,3.1010989010989007,322.46633593196316,0.04067362041839003,-0.3728220966144162,-0.20185303886719885,1396.3369963369962,-1.0,64.73543841164269,3.1253170562440995,
2023-08-09 17:48:42.991000,-9.012048192771084,0.14457831325301207,-3.7469879518072293,0.19865113427345185,-8.957081545064376,-3.4114040465971796,2.0,3.0996336996336993,322.6187662491137,0.03997436046850501,-0.3709574034147193,-0.20220266884214222,1395.6043956043954,-1.0,64.73543841164269,3.125076070521885,
2023-08-09 17:48:42.998000,-9.012048192771084,0.1566265060240964,-3.7831325301204823,0.2550582464745555,-8.966891477621092,-3.4580012262415694,2.0,3.0996336996336993,322.6187662491137,-0.023774838296135765,-0.3372763824951933,-0.10990035545714141,1393.4065934065934,-1.0,64.73543841164269,3.124835206937696,
2023-08-09 17:48:43.006000,-9.0,0.16867469879518074,-3.771084337349398,0.29675045984058857,-8.942366646229306,-3.4874310239117103,2.0,3.0996336996336993,322.6187662491137,-0.07027562496357977,8.15803274867591E-4,-0.2471883922848319,1391.2087912087911,-1.0,64.73543841164269,3.1245944322802828,
2023-08-09 17:48:43.014000,-9.0,0.16867469879518074,-3.734939759036145,0.2869405272838749,-8.959534028203556,-3.413856529736358,2.0,3.0996336996336993,322.6187662491137,-0.17831128722102518,0.015849892197425,0.029368917895227633,1387.5457875457876,-1.0,64.73543841164269,3.124353714061925,
2023-08-09 17:48:43.021000,-9.012048192771084,0.16867469879518074,-3.7469879518072293,0.23053341508277128,-8.949724095646841,-3.465358675659105,2.0,3.0996336996336993,322.6187662491137,0.15651768544956537,-0.27387681370549505,-0.15383718897500137,1383.150183150183,-1.0,64.73543841164269,3.1241130201349585,
2023-08-09 17:48:43.029000,-9.024096385542169,0.16867469879518074,-3.7590361445783134,0.3237277743715512,-8.893316983445738,-3.4506437768240343,2.0,3.0996336996336993,322.6187662491137,0.002214323174639364,0.003496299749432037,0.030650894470019438,1378.021978021978,-1.0,64.73543841164269,3.1238723188009847,
2023-08-09 17:48:43.037000,-9.024096385542169,0.16867469879518074,-3.7831325301204823,0.2893930104230533,-8.971796443899448,-3.438381361128142,2.0,3.098168498168498,322.7713407424923,0.0010488899248292638,0.35499096789231344,0.15220558242526663,1372.8937728937728,-1.0,64.73543841164269,3.1236315793780105,
2023-08-09 17:48:43.044000,-9.036144578313253,0.18072289156626506,-3.771084337349398,0.3041079092581238,-8.905579399141631,-3.4923359901900675,2.0,3.098168498168498,322.7713407424923,-0.21315774139036126,-0.04428646349280291,-0.24602295903502136,1370.6959706959706,-1.0,64.73543841164269,3.1233907717498157,
2023-08-09 17:48:43.052000,-9.024096385542169,0.18072289156626506,-3.7228915662650603,0.26241569589209074,-8.917841814837523,-3.3991416309012874,2.0,3.098168498168498,322.7713407424923,-0.2415943126857409,0.2743429870054184,0.03135015441990576,1368.4981684981683,-1.0,64.73543841164269,3.1231498659147294,
2023-08-09 17:48:43.060000,-9.0,0.18072289156626506,-3.7108433734939763,0.25015328019619865,-8.964438994481913,-3.4187614960147146,2.0,3.098168498168498,322.7713407424923,-0.1636268282734103,0.623739875298643,-0.12073888468038002,1367.7655677655678,-1.0,64.73543841164269,3.1229088325509493,
2023-08-09 17:48:43.067000,-9.0,0.18072289156626506,-3.7228915662650603,0.2918454935622317,-8.84426732066217,-3.391784181483752,2.0,3.098168498168498,322.7713407424923,-0.31688130062350706,0.40265718780956755,-0.34834799836839364,1369.230769230769,-1.0,64.73543841164269,3.122667643122727,
2023-08-09 17:48:43.075000,-8.987951807228916,0.16867469879518074,-3.7590361445783134,0.23789086450030655,-8.961986511342735,-3.3795217657878602,2.0,3.098168498168498,322.7713407424923,-0.49810617096905835,0.869529747683701,-0.45102266767670884,1373.6263736263736,-1.0,64.73543841164269,3.1224262704431327,
2023-08-09 17:48:43.083000,-8.975903614457831,0.16867469879518074,-3.7469879518072293,0.2844880441446965,-8.905579399141631,-3.475168608215818,2.0,3.0967032967032964,322.9240596167495,-0.61802925237457,1.2903676941903155,-0.4793426956471068,1377.2893772893772,-1.0,64.73543841164269,3.122184688252557,
2023-08-09 17:48:43.090000,-8.987951807228916,0.1566265060240964,-3.771084337349398,0.27467811158798283,-8.935009196811771,-3.4481912936848556,2.0,3.0967032967032964,322.9240596167495,-0.7205873783579039,1.386166307324747,-0.7046209428354989,1381.6849816849815,-1.0,64.73543841164269,3.1219428713229793,
2023-08-09 17:48:43.098000,-9.024096385542169,0.1927710843373494,-3.734939759036145,0.23789086450030655,-8.893316983445738,-3.3525444512568976,2.0,3.0967032967032964,322.9240596167495,-0.5632538896334709,1.4952508595070217,-0.24089505273585457,1385.3479853479853,-1.0,64.73543841164269,3.121700795844272,
2023-08-09 17:48:43.106000,-8.975903614457831,0.18072289156626506,-3.734939759036145,0.23543838136112813,-8.917841814837523,-3.445738810545677,2.0,3.0967032967032964,322.9240596167495,-1.0773264961249351,1.4670473748616055,-0.6370258143464835,1387.5457875457876,-1.0,64.73543841164269,3.121458438998724,
2023-08-09 17:48:43.113000,-8.987951807228916,0.16867469879518074,-3.7590361445783134,0.2844880441446965,-8.930104230533415,-3.4187614960147146,2.0,3.0967032967032964,322.9240596167495,-1.3287104481090852,1.972728861954432,-0.542509177786842,1389.7435897435896,-1.0,64.73543841164269,3.1212157790597232,
2023-08-09 17:48:43.121000,-9.012048192771084,0.13253012048192772,-3.771084337349398,0.3041079092581238,-8.863887185775598,-3.3942366646229307,2.0,3.0967032967032964,322.9240596167495,-0.8327020569896855,2.292989919002389,-0.47794417574733417,1390.4761904761904,-1.0,64.73543841164269,3.1209727954871207,
2023-08-09 17:48:43.129000,-8.963855421686748,0.16867469879518074,-3.7590361445783134,0.2452483139178418,-8.930104230533415,-3.4408338442673205,2.0,3.095238095238095,323.0769230769231,-0.8134724083678111,2.44344735155294,-0.4915797447701185,1390.4761904761904,-1.0,64.73543841164269,3.1207294690192677,
2023-08-09 17:48:43.136000,-8.987951807228916,0.16867469879518074,-3.7951807228915664,0.25260576333537704,-8.903126916002453,-3.4800735744941753,2.0,3.095238095238095,323.0769230769231,-1.0661383369267523,2.761027912126332,-0.5954198473282443,1390.4761904761904,-1.0,64.73543841164269,3.1204857817269445,
2023-08-09 17:48:43.144000,-9.0,0.16867469879518074,-3.8313253012048194,0.23789086450030655,-8.927651747394236,-3.484978540772532,2.0,3.095238095238095,323.0769230769231,-1.0429462152555207,2.419555969931822,-0.9443505623215429,1391.2087912087911,-1.0,64.73543841164269,3.1202417169593355,
2023-08-09 17:48:43.152000,-9.024096385542169,0.16867469879518074,-3.8192771084337354,0.30656039239730226,-8.961986511342735,-3.507050889025138,2.0,3.095238095238095,323.0769230769231,-1.2059903269040269,2.4002097779849665,-0.6778159780898548,1391.2087912087911,-1.0,64.73543841164269,3.1199972593900953,
2023-08-09 17:48:43.159000,-8.93975903614458,0.18072289156626506,-3.8192771084337354,0.2575107296137339,-8.915389331698345,-3.494788473329246,2.0,3.095238095238095,323.0769230769231,-0.8632364081347237,2.3354116892954946,-0.32165957694773045,1391.9413919413919,-1.0,64.73543841164269,3.119752395093699,
2023-08-09 17:48:43.167000,-8.987951807228916,0.16867469879518074,-3.7951807228915664,0.26241569589209074,-8.898221949724094,-3.455548743102391,2.0,3.095238095238095,323.0769230769231,-1.0075170444612787,2.344502068644019,-0.48645183847095125,1391.9413919413919,-1.0,64.73543841164269,3.119507112075178,
2023-08-09 17:48:43.175000,-9.036144578313253,0.12048192771084337,-3.807228915662651,0.2673206621704476,-8.95217657878602,-3.435928877988964,2.0,3.095238095238095,323.0769230769231,-0.9521589650952738,2.735038750655557,-0.3904201386865563,1391.2087912087911,-1.0,64.73543841164269,3.119261400270371,
2023-08-09 17:48:43.182000,-9.024096385542169,0.1566265060240964,-3.8192771084337354,0.2722256284488044,-8.92274678111588,-3.4310239117106067,2.0,3.095238095238095,323.0769230769231,-0.6087057863760856,2.6338791445719947,-0.8731425907581147,1392.6739926739926,-1.0,64.73543841164269,3.1190152511207376,
2023-08-09 17:48:43.190000,-9.0,0.16867469879518074,-3.855421686746988,0.2795830778663397,-8.829552421827099,-3.465358675659105,2.0,3.095238095238095,323.0769230769231,-0.20861255171609994,2.613134432725366,-0.6365596410465589,1395.6043956043954,-1.0,64.73543841164269,3.1187686576359757,
2023-08-09 17:48:43.198000,-9.0,0.1927710843373494,-3.855421686746988,0.33108522378908645,-8.888412017167381,-3.5904353157572038,2.0,3.095238095238095,323.0769230769231,-0.36058504749140574,1.67286288677816,-0.5243284190897964,1399.2673992673992,-1.0,64.73543841164269,3.118521614451909,
2023-08-09 17:48:43.205000,-9.036144578313253,0.1566265060240964,-3.843373493975904,0.2844880441446965,-8.920294297976701,-3.467811158798283,2.0,3.0937728937728934,323.22993132843953,-0.5088281568673161,1.1971330342054658,-0.21397354466522972,1400.7326007326005,-1.0,64.73543841164269,3.118274118341627,
2023-08-09 17:48:43.213000,-9.060240963855422,0.14457831325301207,-3.7951807228915664,0.2158185162477008,-9.01594114040466,-3.4580012262415694,2.0,3.0937728937728934,323.22993132843953,-0.33646057922032574,0.4079016374337156,-0.012353592447992097,1397.069597069597,-1.0,64.73543841164269,3.118026167704348,
2023-08-09 17:48:43.220000,-9.084337349397591,0.1566265060240964,-3.7831325301204823,0.2918454935622317,-8.961986511342735,-3.4187614960147146,2.0,3.0937728937728934,323.22993132843953,-0.27259483713070415,0.18728512324456695,0.017831128722102258,1394.139194139194,-1.0,64.73543841164269,3.1177777620493172,
2023-08-09 17:48:43.228000,-9.048192771084338,0.18072289156626506,-3.7831325301204823,0.26486817903126914,-8.966891477621092,-3.4702636419374615,2.0,3.0937728937728934,323.22993132843953,-0.11677641163102377,0.7619602587261824,0.1416001398519897,1391.2087912087911,-1.0,64.73543841164269,3.117528902949916,
2023-08-09 17:48:43.236000,-9.036144578313253,0.14457831325301207,-3.7831325301204823,0.24770079705702022,-8.925199264255058,-3.467811158798283,2.0,3.092307692307692,323.38308457711446,-0.03997436046850501,0.8759396305576591,0.04661732999242484,1389.0109890109889,-1.0,64.73543841164269,3.117279593551645,
2023-08-09 17:48:43.243000,-9.024096385542169,0.1566265060240964,-3.7951807228915664,0.3016554261189454,-8.92274678111588,-3.47271612507664,2.0,3.092307692307692,323.38308457711446,0.08181341413670515,0.7142940388089265,-0.04591807004253852,1387.5457875457876,-1.0,64.73543841164269,3.1170298386021478,
2023-08-09 17:48:43.251000,-8.975903614457831,0.18072289156626506,-3.7951807228915664,0.30656039239730226,-8.905579399141631,-3.4776210913549965,2.0,3.092307692307692,323.38308457711446,0.32690402657187806,-0.05454227609113734,-0.11980653808053117,1384.6153846153845,-1.0,64.73543841164269,3.116779644759771,
2023-08-09 17:48:43.259000,-8.963855421686748,0.18072289156626506,-3.807228915662651,0.29429797670141017,-8.920294297976701,-3.504598405885959,2.0,3.092307692307692,323.38308457711446,0.6589359594429234,-0.42095448983159534,0.3986947147602122,1380.952380952381,-1.0,64.73543841164269,3.1165290196292466,
2023-08-09 17:48:43.266000,-8.975903614457831,0.1566265060240964,-3.8192771084337354,0.3237277743715512,-8.893316983445738,-3.475168608215818,2.0,3.092307692307692,323.38308457711446,0.3185129071732422,-0.2823844764291135,0.18192413029543678,1378.7545787545787,-1.0,64.73543841164269,3.11627797184377,
2023-08-09 17:48:43.274000,-8.987951807228916,0.14457831325301207,-3.807228915662651,0.26486817903126914,-8.917841814837523,-3.4580012262415694,2.0,3.092307692307692,323.38308457711446,0.3150166074238102,-0.281685216479225,0.1807586970456271,1378.021978021978,-1.0,64.73543841164269,3.11602651202011,
2023-08-09 17:48:43.282000,-9.0,0.1566265060240964,-3.8192771084337354,0.24034334763948498,-8.942366646229306,-3.4874310239117103,2.0,3.092307692307692,323.38308457711446,0.11339665520657258,0.3279529164967073,0.40766855078375397,1379.4871794871794,-1.0,64.73543841164269,3.115774652233145,
2023-08-09 17:48:43.289000,-9.024096385542169,0.14457831325301207,-3.807228915662651,0.2795830778663397,-8.915389331698345,-3.4996934396076025,2.0,3.092307692307692,323.38308457711446,0.38634112231221923,0.23052269681253887,0.3875065555620306,1382.4175824175823,-1.0,64.73543841164269,3.1155224060476723,
2023-08-09 17:48:43.297000,-9.0,0.16867469879518074,-3.8313253012048194,0.3139178418148375,-8.915389331698345,-3.4923359901900675,2.0,3.092307692307692,323.38308457711446,0.44449624147776945,-0.04615115669249976,0.49274517801992856,1383.8827838827838,-1.0,64.73543841164269,3.1152697889340213,
2023-08-09 17:48:43.305000,-8.987951807228916,0.16867469879518074,-3.8192771084337354,0.2820355610055181,-8.888412017167381,-3.4800735744941753,2.0,3.092307692307692,323.38308457711446,0.3657129537905712,0.18180758697045724,0.3225919235475789,1386.080586080586,-1.0,64.73543841164269,3.115016817766064,
2023-08-09 17:48:43.312000,-8.975903614457831,0.16867469879518074,-3.8313253012048194,0.2795830778663397,-8.900674432863273,-3.4996934396076025,2.0,3.0908424908424905,323.53638302915385,0.10255812598333396,-0.0038459297243762817,0.3058096847503063,1385.3479853479853,-1.0,64.73543841164269,3.1147635108077854,
2023-08-09 17:48:43.320000,-8.975903614457831,0.1566265060240964,-3.8192771084337354,0.27467811158798283,-8.873697118332311,-3.497240956468424,2.0,3.0908424908424905,323.53638302915385,0.2235300973136765,-0.14253248645183897,0.10663714235767105,1381.6849816849815,-1.0,64.73543841164269,3.114509887203548,
2023-08-09 17:48:43.328000,-8.987951807228916,0.1566265060240964,-3.8313253012048194,0.3359901900674433,-8.903126916002453,-3.5830778663396687,2.0,3.0908424908424905,323.53638302915385,0.25336518850882794,0.13169395722860036,0.0017481498747160184,1375.091575091575,-1.0,64.73543841164269,3.114255967343408,
2023-08-09 17:48:43.335000,-8.987951807228916,0.1566265060240964,-3.843373493975904,0.22808093194359289,-8.915389331698345,-3.56591048436542,2.0,3.0908424908424905,323.53638302915385,0.530738301963755,-0.11362974185653599,0.04894819649204591,1369.230769230769,-1.0,64.73543841164269,3.114001773224998,
2023-08-09 17:48:43.343000,-8.975903614457831,0.1566265060240964,-3.8192771084337354,0.2918454935622317,-8.883507050889024,-3.5977927651747392,2.0,3.089377289377289,323.6898268911549,-0.09579861313443329,0.006293339548977319,-0.0710914282384478,1364.8351648351647,-1.0,64.73543841164269,3.113747327933353,
2023-08-09 17:48:43.351000,-9.0,0.14457831325301207,-3.843373493975904,0.21827099938687922,-8.910484365419988,-3.5389331698344573,2.0,3.089377289377289,323.6898268911549,-0.21700367111473753,-0.04090670706835344,0.23530097313676357,1361.904761904762,-1.0,64.73543841164269,3.113492655117535,
2023-08-09 17:48:43.358000,-9.0,0.14457831325301207,-3.843373493975904,0.30656039239730226,-8.959534028203556,-3.5193133047210297,2.0,3.089377289377289,323.6898268911549,-0.061418332265018846,0.5520657304352897,-0.08787366703572036,1359.7069597069597,-1.0,64.73543841164269,3.1132377788849355,
2023-08-09 17:48:43.366000,-9.024096385542169,0.16867469879518074,-3.8313253012048194,0.2869405272838749,-8.920294297976701,-3.531575720416922,2.0,3.089377289377289,323.6898268911549,-0.28867781597808906,-0.2200337975642445,-0.2554629683584873,1359.7069597069597,-1.0,64.73543841164269,3.112982724675653,
2023-08-09 17:48:43.374000,-9.0,0.14457831325301207,-3.8313253012048194,0.3531575720416922,-8.905579399141631,-3.504598405885959,2.0,3.089377289377289,323.6898268911549,-0.13285939047841044,0.05349338616630634,-0.22143231746401756,1361.1721611721612,-1.0,64.73543841164269,3.1127275191513917,
2023-08-09 17:48:43.381000,-9.024096385542169,0.18072289156626506,-3.843373493975904,0.24034334763948498,-8.888412017167381,-3.497240956468424,2.0,3.089377289377289,323.6898268911549,-0.10244158265835313,0.06911019171376967,-0.08262921741157274,1364.8351648351647,-1.0,64.73543841164269,3.1124721896612835,
2023-08-09 17:48:43.389000,-8.987951807228916,0.16867469879518074,-3.8313253012048194,0.29429797670141017,-8.863887185775598,-3.526670754138565,2.0,3.087912087912087,323.8434163701068,0.08111415418681839,-0.17912709049589104,-0.11269739525668669,1367.032967032967,965.14892578125,62.16657180800607,3.112216764198233,
2023-08-09 17:48:43.397000,-8.963855421686748,0.1927710843373494,-3.855421686746988,0.31882280809319435,-8.89086450030656,-3.4776210913549965,2.0,3.087912087912087,323.8434163701068,-0.40941670065846997,-0.3929840918361408,-0.18833401316939535,1370.6959706959706,-1.0,62.16657180800607,3.1119612717767176,
2023-08-09 17:48:43.404000,-8.987951807228916,0.18072289156626506,-3.855421686746988,0.3507050889025138,-8.893316983445738,-3.5095033721643163,2.0,3.087912087912087,323.8434163701068,-0.4059204009090379,-0.6047433133267303,0.10547170910786094,1371.4285714285713,-1.0,62.16657180800607,3.1117057417218126,
2023-08-09 17:48:43.412000,-9.012048192771084,0.16867469879518074,-3.8313253012048194,0.299202942979767,-8.873697118332311,-3.504598405885959,2.0,3.089377289377289,323.6898268911549,-0.3438028086941323,-0.75520074587728,0.3034788182506848,1372.8937728937728,-1.0,62.16657180800607,3.1114502031649374,
2023-08-09 17:48:43.420000,-9.012048192771084,0.16867469879518074,-3.8313253012048194,0.2452483139178418,-8.930104230533415,-3.4898835070508887,2.0,3.087912087912087,323.8434163701068,-0.11083270205698896,-0.62677000174815,0.01293630907289758,1374.3589743589744,-1.0,62.16657180800607,3.1111946859788095,
2023-08-09 17:48:43.427000,-9.024096385542169,0.18072289156626506,-3.8313253012048194,0.3139178418148375,-8.930104230533415,-3.497240956468424,2.0,3.087912087912087,323.8434163701068,-0.01853038867198945,-0.6563720062933397,-0.03239904434473502,1375.091575091575,-1.0,62.16657180800607,3.1109392207635667,
2023-08-09 17:48:43.435000,-9.012048192771084,0.16867469879518074,-3.843373493975904,0.22317596566523604,-8.905579399141631,-3.524218270999387,2.0,3.087912087912087,323.8434163701068,-0.018646931996970283,-0.609638132975934,0.0611852456150576,1375.8241758241757,-1.0,62.16657180800607,3.110683838203377,
2023-08-09 17:48:43.443000,-9.012048192771084,0.1566265060240964,-3.7831325301204823,0.24279583077866337,-8.871244635193133,-3.4825260576333537,2.0,3.087912087912087,323.8434163701068,-0.12458481440475544,-0.41023250393333754,-0.0758697045626712,1376.5567765567764,-1.0,62.16657180800607,3.1104285685271904,
2023-08-09 17:48:43.450000,-9.012048192771084,0.16867469879518074,-3.8313253012048194,0.27713059472716123,-8.84426732066217,-3.5119558553034946,2.0,3.0864468864468866,323.9971516733919,0.0451022667676705,-0.5634869762834326,-0.2576772915331276,1375.8241758241757,-1.0,62.16657180800607,3.110173441987286,
2023-08-09 17:48:43.458000,-8.987951807228916,0.14457831325301207,-3.843373493975904,0.25015328019619865,-8.905579399141631,-3.494788473329246,2.0,3.0864468864468866,323.9971516733919,-0.06223413553988644,-0.9568206980945159,0.09649787308431917,1377.2893772893772,-1.0,62.16657180800607,3.1099184887416436,
2023-08-09 17:48:43.466000,-9.024096385542169,0.1566265060240964,-3.8192771084337354,0.26486817903126914,-8.905579399141631,-3.4825260576333537,2.0,3.087912087912087,323.8434163701068,0.19998834566750243,-0.9801293630907301,-0.08530971388613719,1379.4871794871794,-1.0,62.16657180800607,3.1096637387025328,
2023-08-09 17:48:43.473000,-8.975903614457831,0.1566265060240964,-3.8192771084337354,0.24770079705702022,-8.939914163090128,-3.475168608215818,2.0,3.0864468864468866,323.9971516733919,0.2918244857525786,-0.9888701124643083,0.19008216304411138,1377.2893772893772,-1.0,62.16657180800607,3.1094092223713043,
2023-08-09 17:48:43.481000,-8.975903614457831,0.14457831325301207,-3.8192771084337354,0.2673206621704476,-8.878602084610668,-3.4530962599632127,2.0,3.0864468864468866,323.9971516733919,0.17143523104714195,-0.70811724258493,-0.009906182623390191,1378.021978021978,-1.0,62.16657180800607,3.1091549698823786,
2023-08-09 17:48:43.489000,-8.975903614457831,0.16867469879518074,-3.8192771084337354,0.2673206621704476,-8.871244635193133,-3.47271612507664,2.0,3.0864468864468866,323.9971516733919,0.20406736204183865,-0.37119049006468097,0.23541751646174483,1378.021978021978,-1.0,62.16657180800607,3.1089010104370893,
2023-08-09 17:48:43.496000,-8.975903614457831,0.1566265060240964,-3.807228915662651,0.22808093194359289,-8.888412017167381,-3.4996934396076025,2.0,3.0864468864468866,323.9971516733919,0.3131519142241133,-0.4032399044344735,0.1305285239787894,1380.952380952381,-1.0,62.16657180800607,3.10864737272215,
2023-08-09 17:48:43.504000,-8.975903614457831,0.1566265060240964,-3.8313253012048194,0.30656039239730226,-8.866339668914776,-3.433476394849785,2.0,3.0864468864468866,323.9971516733919,0.23774838296136636,-0.19124759629392235,0.1769127673212517,1386.8131868131868,-1.0,62.16657180800607,3.1083940848723466,
2023-08-09 17:48:43.512000,-8.975903614457831,0.1566265060240964,-3.807228915662651,0.23053341508277128,-8.866339668914776,-3.484978540772532,2.0,3.0864468864468866,323.9971516733919,0.14835965270089121,-0.06829438843890208,0.11351319853155428,1397.069597069597,-1.0,62.16657180800607,3.1081411744357825,
2023-08-09 17:48:43.519000,-8.975903614457831,0.16867469879518074,-3.843373493975904,0.2452483139178418,-8.92274678111588,-3.4996934396076025,2.0,3.0849816849816847,324.15103300878656,0.36419789056581864,-0.11502826175630776,0.21945108093933943,1409.5238095238094,-1.0,62.16657180800607,3.1078886683420768,
2023-08-09 17:48:43.527000,-9.012048192771084,0.16867469879518074,-3.843373493975904,0.27713059472716123,-8.885959534028203,-3.502145922746781,2.0,3.0849816849816847,324.15103300878656,-0.03251558766971586,0.14334828972670657,0.09440009323465978,1430.03663003663,-1.0,62.16657180800607,3.107636592839166,
2023-08-09 17:48:43.535000,-9.012048192771084,0.16867469879518074,-3.843373493975904,0.27467811158798283,-8.917841814837523,-3.502145922746781,2.0,3.0849816849816847,324.15103300878656,0.24555678573509626,-0.1196899947555499,0.2628051978322939,1453.4798534798533,-1.0,62.16657180800607,3.1073849733292214,
2023-08-09 17:48:43.542000,-9.012048192771084,0.16867469879518074,-3.8192771084337354,0.2329858982219497,-8.90803188228081,-3.4996934396076025,2.0,3.083516483516483,324.3050605844619,0.15069051920051313,-0.13588951692791915,0.47584639589767475,1479.120879120879,-1.0,62.16657180800607,3.107133833854224,
2023-08-09 17:48:43.550000,-9.012048192771084,0.1566265060240964,-3.8192771084337354,0.25260576333537704,-8.866339668914776,-3.5119558553034946,2.0,3.083516483516483,324.3050605844619,0.15080706252549397,-0.13507371365305154,0.47561330924771267,1504.0293040293038,-1.0,62.16657180800607,3.106883197567735,
2023-08-09 17:48:43.558000,-9.0,0.16867469879518074,-3.7951807228915664,0.2722256284488044,-8.910484365419988,-3.497240956468424,2.0,3.083516483516483,324.3050605844619,0.4091836140085083,-0.08682477711089152,0.3343627993706664,1528.2051282051282,-1.0,62.16657180800607,3.106633087001593,
2023-08-09 17:48:43.565000,-8.975903614457831,0.1566265060240964,-3.807228915662651,0.20110361741263028,-8.881054567749846,-3.5511955855303494,2.0,3.083516483516483,324.3050605844619,0.010955072548219456,-0.13495717032806898,0.11968999475555077,1549.4505494505493,-1.0,62.16657180800607,3.1063835235267008,
2023-08-09 17:48:43.573000,-9.0,0.16867469879518074,-3.843373493975904,0.24770079705702022,-8.898221949724094,-3.543838136112814,2.0,3.083516483516483,324.3050605844619,0.30184721170094964,-0.349863061593148,0.1489423693257967,1567.7655677655678,-1.0,62.16657180800607,3.1061345273442056,
2023-08-09 17:48:43.580000,-8.975903614457831,0.1566265060240964,-3.843373493975904,0.269773145309626,-8.87614960147149,-3.5291232372777435,2.0,3.083516483516483,324.3050605844619,0.11561097838121367,-0.24206048598566424,0.25557951168346815,1580.9523809523807,-1.0,62.16657180800607,3.105886117479874,
2023-08-09 17:48:43.588000,-9.0,0.1566265060240964,-3.855421686746988,0.2722256284488044,-8.954629061925198,-3.5413856529736356,2.0,3.0820512820512818,324.45923460898507,0.3297010663714234,-0.6867898141133971,0.08845638366062585,1589.0109890109889,-1.0,62.16657180800607,3.1056383117819717,
2023-08-09 17:48:43.596000,-8.987951807228916,0.13253012048192772,-3.855421686746988,0.2673206621704476,-8.878602084610668,-3.5168608215818513,2.0,3.0820512820512818,324.45923460898507,0.05535807936600493,-0.3766680263387907,0.47235009614824314,1591.9413919413919,-1.0,62.16657180800607,3.105391126430243,
2023-08-09 17:48:43.603000,-8.987951807228916,0.14457831325301207,-3.855421686746988,0.2452483139178418,-8.881054567749846,-3.4580012262415694,2.0,3.0820512820512818,324.45923460898507,0.7282792378066547,-0.26548569430685925,0.34823145504341235,1589.7435897435896,-1.0,62.16657180800607,3.105144575869392,
2023-08-09 17:48:43.611000,-9.0,0.14457831325301207,-3.891566265060241,0.3261802575107296,-8.881054567749846,-3.6051502145922747,2.0,3.0820512820512818,324.45923460898507,-0.08158032748674347,-0.6912184604626775,0.1969582192179946,1583.8827838827838,-1.0,62.16657180800607,3.1048986737291937,
2023-08-09 17:48:43.619000,-8.975903614457831,0.16867469879518074,-3.8674698795180724,0.328632740649908,-8.92274678111588,-3.4898835070508887,2.0,3.0820512820512818,324.45923460898507,0.10570479575782349,-0.47200046617330066,0.2884447293281278,1574.3589743589744,-1.0,62.16657180800607,3.1046534327654873,
2023-08-09 17:48:43.626000,-8.963855421686748,0.16867469879518074,-3.8313253012048194,0.2673206621704476,-8.836909871244634,-3.514408338442673,2.0,3.0805860805860803,324.61355529131987,0.366412213740458,-0.1491754559757588,0.24345900588543773,1559.7069597069597,-1.0,62.16657180800607,3.104408864384136,
2023-08-09 17:48:43.634000,-8.951807228915664,0.16867469879518074,-3.843373493975904,0.3629675045984059,-8.905579399141631,-3.4923359901900675,2.0,3.0805860805860803,324.61355529131987,0.15185595245032324,-0.3939164384359875,0.12260357788007688,1541.3919413919414,-1.0,62.16657180800607,3.1041649781686274,
2023-08-09 17:48:43.642000,-8.951807228915664,0.1927710843373494,-3.807228915662651,0.3041079092581238,-8.883507050889024,-3.502145922746781,2.0,3.0805860805860803,324.61355529131987,0.06001981236524707,-0.05594079599090911,-0.10395664588310703,1523.0769230769229,-1.0,62.16657180800607,3.1039217818320086,
2023-08-09 17:48:43.649000,-8.951807228915664,0.16867469879518074,-3.843373493975904,0.30901287553648066,-8.912936848559166,-3.5168608215818513,2.0,3.0805860805860803,324.61355529131987,-0.04545189674261474,-0.544840044286464,0.0816968708117243,1506.227106227106,-1.0,62.16657180800607,3.1036792816973184,
2023-08-09 17:48:43.657000,-8.963855421686748,0.16867469879518074,-3.8192771084337354,0.26486817903126914,-8.888412017167381,-3.524218270999387,2.0,3.079120879120879,324.768022840828,0.024707184895985928,-0.5094108734922204,-0.20849600839111954,1489.3772893772893,-1.0,62.16657180800607,3.1034374827237032,
2023-08-09 17:48:43.665000,-8.975903614457831,0.18072289156626506,-3.807228915662651,0.3016554261189454,-8.87614960147149,-3.4898835070508887,2.0,3.0805860805860803,324.61355529131987,0.13425791037818222,-0.408833984033564,0.11805838820581559,1471.062271062271,-1.0,62.16657180800607,3.1031963885014724,
2023-08-09 17:48:43.672000,-8.963855421686748,0.18072289156626506,-3.807228915662651,0.3114653586756591,-8.89086450030656,-3.438381361128142,2.0,3.0805860805860803,324.61355529131987,0.07237340481324003,0.4182739933570309,-0.09509935318454654,1452.014652014652,-1.0,62.16657180800607,3.102956001639045,
2023-08-09 17:48:43.680000,-8.963855421686748,0.16867469879518074,-3.843373493975904,0.2869405272838749,-8.92274678111588,-3.502145922746781,2.0,3.079120879120879,324.768022840828,-5.82716624905918E-4,0.15197249577530408,-0.21234193811549454,1435.8974358974358,-1.0,62.16657180800607,3.1027163238368374,
2023-08-09 17:48:43.688000,-8.987951807228916,0.16867469879518074,-3.8192771084337354,0.34825260576333533,-8.912936848559166,-3.578172900061312,2.0,3.079120879120879,324.768022840828,-0.1199230814055133,-0.3830779092127506,0.03717732066895886,1424.1758241758241,-1.0,62.16657180800607,3.102477354981646,
2023-08-09 17:48:43.695000,-9.0,0.18072289156626506,-3.843373493975904,0.3531575720416922,-8.893316983445738,-3.4923359901900675,2.0,3.077655677655677,324.92263746726974,-0.008624206048599255,-0.009789639298409356,0.147893479400967,1410.989010989011,-1.0,62.16657180800607,3.102239093123026,
2023-08-09 17:48:43.703000,-9.0,0.18072289156626506,-3.843373493975904,0.24770079705702022,-8.87614960147149,-3.5217657878602084,2.0,3.077655677655677,324.92263746726974,0.08729095041081487,-0.480041955596994,0.04405337684284123,1399.2673992673992,-1.0,62.16657180800607,3.102001534943112,
2023-08-09 17:48:43.711000,-9.0,0.1927710843373494,-3.8313253012048194,0.2795830778663397,-8.881054567749846,-3.524218270999387,2.0,3.077655677655677,324.92263746726974,0.15092360585047482,-0.47957578229706893,-0.12108851465532297,1389.7435897435896,-1.0,62.16657180800607,3.1017646756671264,
2023-08-09 17:48:43.718000,-9.012048192771084,0.16867469879518074,-3.8192771084337354,0.29675045984058857,-8.893316983445738,-3.465358675659105,2.0,3.077655677655677,324.92263746726974,-0.12085542800536173,-0.22434590058854412,0.23227084668725576,1386.080586080586,-1.0,62.16657180800607,3.101528509080583,
2023-08-09 17:48:43.726000,-9.0,0.1566265060240964,-3.8313253012048194,0.30656039239730226,-8.925199264255058,-3.467811158798283,2.0,3.079120879120879,324.768022840828,0.1438144630266299,-0.6733873317405749,0.12493444437969795,1384.6153846153845,-1.0,62.16657180800607,3.101293027583434,
2023-08-09 17:48:43.734000,-9.012048192771084,0.1566265060240964,-3.807228915662651,0.2673206621704476,-8.917841814837523,-3.507050889025138,2.0,3.079120879120879,324.768022840828,0.11141541868189489,-0.994930365363324,0.0029135831245265527,1386.080586080586,-1.0,62.16657180800607,3.1010582227391406,
2023-08-09 17:48:43.741000,-9.0,0.16867469879518074,-3.8313253012048194,0.23789086450030655,-8.96934396076027,-3.5119558553034946,2.0,3.077655677655677,324.92263746726974,0.21921799428937688,-0.6679097954664633,-0.18052561039566456,1387.5457875457876,-1.0,62.16657180800607,3.100824085405646,
2023-08-09 17:48:43.749000,-9.024096385542169,0.16867469879518074,-3.8313253012048194,0.2893930104230533,-8.927651747394236,-3.443286327406499,2.0,3.077655677655677,324.92263746726974,0.14218285647689471,-1.1217295029427188,0.0031466697744886593,1388.278388278388,-1.0,62.16657180800607,3.100590605309525,
2023-08-09 17:48:43.757000,-9.036144578313253,0.16867469879518074,-3.843373493975904,0.3163703249540159,-8.871244635193133,-3.5413856529736356,2.0,3.077655677655677,324.92263746726974,0.12644950760445228,-0.810675368568264,0.14346483305168697,1389.7435897435896,-1.0,62.16657180800607,3.1003577709765677,
2023-08-09 17:48:43.764000,-9.0,0.16867469879518074,-3.8313253012048194,0.18148375229920294,-8.925199264255058,-3.4898835070508887,2.0,3.077655677655677,324.92263746726974,0.01876347532195112,-0.7612609987762956,-0.16281102499854358,1391.2087912087911,-1.0,62.16657180800607,3.100125569311125,
2023-08-09 17:48:43.772000,-9.0,0.1566265060240964,-3.8313253012048194,0.26241569589209074,-8.900674432863273,-3.4800735744941753,2.0,3.077655677655677,324.92263746726974,0.1571004020744713,-0.5441407843365773,0.12831420080414915,1395.6043956043954,-1.0,62.16657180800607,3.099893986195314,
2023-08-09 17:48:43.780000,-9.012048192771084,0.1566265060240964,-3.8313253012048194,0.2550582464745555,-8.888412017167381,-3.4800735744941753,2.0,3.077655677655677,324.92263746726974,0.2631548278072373,-0.480041955596994,0.0033797564244507665,1398.5347985347985,-1.0,62.16657180800607,3.099663006986376,
2023-08-09 17:48:43.787000,-8.951807228915664,0.14457831325301207,-3.8674698795180724,0.30656039239730226,-8.849172286940528,-3.4825260576333537,2.0,3.077655677655677,324.92263746726974,0.3964803915855711,-0.8280403239904434,-0.058621292465474,1400.7326007326005,-1.0,62.16657180800607,3.0994326161030914,
2023-08-09 17:48:43.795000,-8.975903614457831,0.16867469879518074,-3.843373493975904,0.24279583077866337,-8.900674432863273,-3.4996934396076025,2.0,3.077655677655677,324.92263746726974,-0.08286230406153441,-0.7013577297360294,-0.057572402540644295,1401.4652014652013,-1.0,62.16657180800607,3.0992027971071536,
2023-08-09 17:48:43.803000,-8.927710843373495,0.14457831325301207,-3.843373493975904,0.24034334763948498,-8.898221949724094,-3.4874310239117103,2.0,3.076190476190476,325.077399380805,0.32935143639648085,-0.5793368684808575,0.12470135772973584,1400.7326007326005,-1.0,62.16657180800607,3.0989735327868515,
2023-08-09 17:48:43.810000,-8.951807228915664,0.13253012048192772,-3.843373493975904,0.2893930104230533,-8.836909871244634,-3.5511955855303494,2.0,3.076190476190476,325.077399380805,0.4329584523046441,-0.6553231163685105,0.366412213740458,1401.4652014652013,-1.0,62.16657180800607,3.0987448047504733,
2023-08-09 17:48:43.818000,-8.93975903614458,0.1566265060240964,-3.891566265060241,0.2820355610055181,-8.878602084610668,-3.507050889025138,2.0,3.076190476190476,325.077399380805,0.22935726356272876,-0.5788706951809343,0.16304411164850524,1400.7326007326005,-1.0,62.16657180800607,3.098516593900458,
2023-08-09 17:48:43.826000,-8.951807228915664,0.14457831325301207,-3.8674698795180724,0.3359901900674433,-8.881054567749846,-3.5168608215818513,2.0,3.076190476190476,325.077399380805,0.22586096381329673,-0.5774721752811607,0.1611794184488084,1400.0,-1.0,62.16657180800607,3.09828888090933,
2023-08-09 17:48:43.833000,-8.963855421686748,0.14457831325301207,-3.855421686746988,0.2452483139178418,-8.863887185775598,-3.5095033721643163,2.0,3.076190476190476,325.077399380805,0.40627003088398045,-0.5472874541110668,0.3890216187867841,1397.069597069597,-1.0,62.16657180800607,3.098061645818474,
2023-08-09 17:48:43.841000,-8.963855421686748,0.1566265060240964,-3.891566265060241,0.27713059472716123,-8.871244635193133,-3.5413856529736356,2.0,3.076190476190476,325.077399380805,0.24916962880950913,-0.3034788182506848,0.25045160538430183,1393.4065934065934,-1.0,62.16657180800607,3.0978348681307493,
2023-08-09 17:48:43.849000,-8.975903614457831,0.1566265060240964,-3.855421686746988,0.25260576333537704,-8.947271612507663,-3.5389331698344573,2.0,3.073260073260073,325.3873659117998,0.21746984441466088,-0.5341180583882063,0.3689761668900412,1391.2087912087911,-1.0,62.16657180800607,3.0976085269043105,
2023-08-09 17:48:43.856000,-9.012048192771084,0.16867469879518074,-3.855421686746988,0.24279583077866337,-8.991416309012875,-3.5217657878602084,2.0,3.073260073260073,325.3873659117998,0.24439135248528618,-0.07621933453761284,-0.291008682477711,1393.4065934065934,-1.0,62.16657180800607,3.097382600778042,
2023-08-09 17:48:43.864000,-9.012048192771084,0.16867469879518074,-3.891566265060241,0.2452483139178418,-8.912936848559166,-3.5413856529736356,2.0,3.073260073260073,325.3873659117998,-0.04696695996736735,-0.3558067711671828,-0.16514189149816463,1397.8021978021977,-1.0,62.16657180800607,3.097157067788897,
2023-08-09 17:48:43.872000,-9.012048192771084,0.1566265060240964,-3.843373493975904,0.34334763948497854,-8.92274678111588,-3.524218270999387,2.0,3.0747252747252745,325.2323087919943,0.044752636792727986,-0.20406736204183865,0.10943418215721676,1402.9304029304028,-1.0,62.16657180800607,3.096931904939305,
2023-08-09 17:48:43.879000,-9.0,0.18072289156626506,-3.8674698795180724,0.23053341508277128,-8.881054567749846,-3.536480686695279,2.0,3.073260073260073,325.3873659117998,-0.12318629450498193,-0.32958452304644253,-0.18227376027038059,1407.3260073260071,-1.0,62.16657180800607,3.096707088850633,
2023-08-09 17:48:43.887000,-9.0,0.18072289156626506,-3.855421686746988,0.27467811158798283,-8.964438994481913,-3.524218270999387,2.0,3.073260073260073,325.3873659117998,-0.22900763358778625,-0.5451896742614065,-0.5341180583882058,1413.1868131868132,-1.0,62.16657180800607,3.09648259592331,
2023-08-09 17:48:43.895000,-8.987951807228916,0.18072289156626506,-3.855421686746988,0.27467811158798283,-8.917841814837523,-3.5536480686695278,2.0,3.073260073260073,325.3873659117998,-0.2710797739059498,-0.7137113221840207,-0.25441407843365804,1417.5824175824175,-1.0,62.16657180800607,3.0962584023575457,
2023-08-09 17:48:43.902000,-9.0,0.1927710843373494,-3.8313253012048194,0.3384426732066217,-8.89086450030656,-3.5413856529736356,2.0,3.073260073260073,325.3873659117998,-0.3145504341238851,-1.0148592739350852,-0.3297010663714234,1421.9780219780218,-1.0,62.16657180800607,3.0960344841734777,
2023-08-09 17:48:43.910000,-9.012048192771084,0.18072289156626506,-3.855421686746988,0.2844880441446965,-8.839362354383812,-3.455548743102391,2.0,3.073260073260073,325.3873659117998,-0.29508769885204894,-1.0864168754734578,-0.4950760445195501,1423.4432234432234,-1.0,62.16657180800607,3.095810816876981,
2023-08-09 17:48:43.918000,-8.987951807228916,0.16867469879518074,-3.855421686746988,0.29675045984058857,-8.942366646229306,-3.5193133047210297,2.0,3.073260073260073,325.3873659117998,-0.3082570945749078,-1.036652875706545,-0.230639240137521,1424.1758241758241,-1.0,62.16657180800607,3.095587376038162,
2023-08-09 17:48:43.925000,-8.987951807228916,0.16867469879518074,-3.855421686746988,0.29429797670141017,-8.895769466584916,-3.4874310239117103,2.0,3.0717948717948715,325.542570951586,0.09230231338500125,-1.2604160596701814,-0.10873492220733044,1421.245421245421,-1.0,62.16657180800607,3.0953641378347387,
2023-08-09 17:48:43.933000,-8.987951807228916,0.1927710843373494,-3.843373493975904,0.299202942979767,-8.866339668914776,-3.4580012262415694,2.0,3.0717948717948715,325.542570951586,-0.22702639706310856,-1.7288036827690676,-0.01631606549734878,1413.9194139194137,-1.0,62.16657180800607,3.0951410785773312,
2023-08-09 17:48:43.941000,-9.0,0.1566265060240964,-3.843373493975904,0.2673206621704476,-8.917841814837523,-3.4923359901900675,2.0,3.0717948717948715,325.542570951586,-0.16222830837363852,-1.7655148301381023,-0.21420663131519138,1404.3956043956043,-1.0,62.16657180800607,3.094918174233913,
2023-08-09 17:48:43.948000,-8.987951807228916,0.1566265060240964,-3.843373493975904,0.2869405272838749,-8.868792152053954,-3.4923359901900675,2.0,3.0717948717948715,325.542570951586,-0.35580677116718107,-1.523803974127382,0.03181632771982997,1396.3369963369962,-1.0,62.16657180800607,3.0946954009706524,
2023-08-09 17:48:43.956000,-8.975903614457831,0.13253012048192772,-3.843373493975904,0.3703249540159411,-8.89086450030656,-3.4285714285714284,2.0,3.0717948717948715,325.542570951586,-0.27527533360526857,-1.3794067944758464,-0.10558825243284178,1390.4761904761904,-1.0,62.16657180800607,3.094472735233556,
2023-08-09 17:48:43.963000,-8.987951807228916,0.12048192771084337,-3.8313253012048194,0.22808093194359289,-8.858982219497241,-3.5095033721643163,2.0,3.0717948717948715,325.542570951586,0.0643319153895467,-1.5114503816793892,-0.027853854670473722,1384.6153846153845,-1.0,62.16657180800607,3.0942501538288814,
2023-08-09 17:48:43.971000,-8.951807228915664,0.13253012048192772,-3.843373493975904,0.26486817903126914,-8.866339668914776,-3.4874310239117103,2.0,3.0717948717948715,325.542570951586,-0.10302429928325904,-1.260532602995164,0.1416001398519897,1377.2893772893772,-1.0,62.16657180800607,3.0940276344602964,
2023-08-09 17:48:43.979000,-8.987951807228916,0.13253012048192772,-3.8313253012048194,0.20846106683016552,-8.829552421827099,-3.502145922746781,2.0,3.0717948717948715,325.542570951586,-0.3763183963638482,-1.1036652875706527,0.06433191538954583,1372.161172161172,-1.0,62.16657180800607,3.093805155739873,
2023-08-09 17:48:43.986000,-8.951807228915664,0.14457831325301207,-3.807228915662651,0.2452483139178418,-8.90803188228081,-3.47271612507664,2.0,3.0717948717948715,325.542570951586,0.010372355923315273,-0.9784977565409931,0.0015150632247534776,1369.9633699633698,-1.0,62.16657180800607,3.0935826967770317,
2023-08-09 17:48:43.994000,-8.975903614457831,0.1566265060240964,-3.8192771084337354,0.30656039239730226,-8.873697118332311,-3.467811158798283,2.0,3.0717948717948715,325.542570951586,-0.3241069867723328,-0.8993648388788541,0.061884505564943924,1370.6959706959706,-1.0,62.16657180800607,3.093360237258664,
2023-08-09 17:48:44.002000,-8.987951807228916,0.1566265060240964,-3.7951807228915664,0.3114653586756591,-8.873697118332311,-3.4996934396076025,2.0,3.068864468864468,325.8534256385773,-0.07586970456267034,-0.5612726531087949,-3.4962997494294334E-4,1370.6959706959706,-1.0,62.16657180800607,3.0931377575278574,
2023-08-09 17:48:44.009000,-9.0,0.14457831325301207,-3.7951807228915664,0.2599632127529123,-8.910484365419988,-3.467811158798283,2.0,3.068864468864468,325.8534256385773,0.15476953557484935,-0.4697861429986578,-0.19882291241769104,1370.6959706959706,-1.0,62.16657180800607,3.0929152381338545,
2023-08-09 17:48:44.017000,-8.975903614457831,0.13253012048192772,-3.807228915662651,0.21336603310852237,-8.866339668914776,-3.494788473329246,2.0,3.07032967032967,325.697924123121,0.06270030883981152,-0.28483188625371625,-0.04568498339257598,1372.161172161172,-1.0,62.16657180800607,3.0926926596966404,
2023-08-09 17:48:44.025000,-8.987951807228916,0.13253012048192772,-3.8313253012048194,0.3041079092581238,-8.873697118332311,-3.556100551808706,2.0,3.07032967032967,325.697924123121,0.32165957694773,-0.6813122778392874,0.016782238797272562,1374.3589743589744,-1.0,62.16657180800607,3.0924700038909383,
2023-08-09 17:48:44.032000,-8.987951807228916,0.14457831325301207,-3.9036144578313254,0.2575107296137339,-8.905579399141631,-3.5708154506437766,2.0,3.07032967032967,325.697924123121,0.4132626303828445,-1.1380455684400672,0.04685041664238695,1378.7545787545787,-1.0,62.16657180800607,3.0922472535837473,
2023-08-09 17:48:44.040000,-9.024096385542169,0.14457831325301207,-3.91566265060241,0.25260576333537704,-8.991416309012875,-3.578172900061312,2.0,3.07032967032967,325.697924123121,1.0526193112289493,-2.1388031000524435,0.03228250101975418,1383.150183150183,-1.0,62.16657180800607,3.0920243924446167,
2023-08-09 17:48:44.048000,-9.060240963855422,0.16867469879518074,-3.8674698795180724,0.269773145309626,-9.025751072961373,-3.507050889025138,2.0,3.07032967032967,325.697924123121,1.3054017831128728,-3.2818600314666955,0.7057863760853099,1388.278388278388,-1.0,62.16657180800607,3.091801405011779,
2023-08-09 17:48:44.055000,-9.096385542168676,0.1566265060240964,-3.8192771084337354,0.27467811158798283,-9.023298589822195,-3.484978540772532,2.0,3.068864468864468,325.8534256385773,1.8446477478002445,-4.144280636326553,1.0505215313792902,1393.4065934065934,-1.0,62.16657180800607,3.091578276756397,
2023-08-09 17:48:44.063000,-9.084337349397591,0.16867469879518074,-3.807228915662651,0.3041079092581238,-9.006131207847945,-3.475168608215818,2.0,3.068864468864468,325.8534256385773,1.7687780432375744,-3.9287920284365736,1.7763533593613425,1397.8021978021977,-1.0,62.16657180800607,3.091354994110271,
2023-08-09 17:48:44.071000,-9.024096385542169,0.12048192771084337,-3.843373493975904,0.22317596566523604,-8.898221949724094,-3.467811158798283,2.0,3.068864468864468,325.8534256385773,0.9458656255462964,-3.4372122836664523,2.006876056173882,1400.7326007326005,-1.0,62.16657180800607,3.091131544387267,
2023-08-09 17:48:44.078000,-8.975903614457831,0.10843373493975904,-3.771084337349398,0.20846106683016552,-8.917841814837523,-3.3770692826486814,2.0,3.068864468864468,325.8534256385773,1.0287279296078309,-2.782821513897794,1.8063049938814757,1401.4652014652013,-1.0,62.16657180800607,3.090907915806633,
2023-08-09 17:48:44.086000,-8.975903614457831,0.07228915662650603,-3.7228915662650603,0.15450643776824033,-8.888412017167381,-3.374616799509503,2.0,3.068864468864468,325.8534256385773,1.0331565759571113,-2.7250160247071844,1.5147135947788588,1401.4652014652013,-1.0,62.16657180800607,3.090684097548452,
2023-08-09 17:48:44.094000,-8.987951807228916,0.13253012048192772,-3.7469879518072293,0.20846106683016552,-8.883507050889024,-3.374616799509503,2.0,3.0673992673992676,326.0090757105326,2.05605733931589,-2.5723442689819933,0.9040265718780954,1399.2673992673992,-1.0,62.16657180800607,3.0904600802644913,
2023-08-09 17:48:44.101000,-9.024096385542169,0.0963855421686747,-3.698795180722892,0.19619865113427343,-8.95217657878602,-3.4530962599632127,2.0,3.0673992673992676,326.0090757105326,2.05605733931589,-2.5723442689819933,0.9040265718780954,1395.6043956043954,-1.0,62.16657180800607,3.0902358555688916,
2023-08-09 17:48:44.109000,-9.060240963855422,0.10843373493975904,-3.6867469879518073,0.24279583077866337,-8.979153893316983,-3.3648068669527893,2.0,3.0673992673992676,326.0090757105326,1.750713827865508,-2.618145795699551,0.9803624497406909,1391.9413919413919,-1.0,62.16657180800607,3.090011415526017,
2023-08-09 17:48:44.117000,-9.060240963855422,0.13253012048192772,-3.6746987951807233,0.2575107296137339,-9.033108522378908,-3.296137339055794,2.0,3.0673992673992676,326.0090757105326,1.918652759163218,-1.6563137346308485,0.8124235184429809,1387.5457875457876,-1.0,62.16657180800607,3.0897867531527714,
2023-08-09 17:48:44.124000,-9.024096385542169,0.20481927710843376,-3.6867469879518073,0.328632740649908,-8.888412017167381,-3.384426732066217,2.0,3.0673992673992676,326.0090757105326,2.285064972903676,-0.6181457956995507,0.4460113047025229,1381.6849816849815,-1.0,62.16657180800607,3.0895618624598735,
2023-08-09 17:48:44.132000,-8.963855421686748,0.22891566265060243,-3.6867469879518073,0.3654199877375843,-8.836909871244634,-3.350091968117719,2.0,3.0673992673992676,326.0090757105326,1.3708991317522297,-0.781656080647982,0.16770584464774738,1375.8241758241757,-1.0,62.16657180800607,3.0893367384901667,
2023-08-09 17:48:44.140000,-8.927710843373495,0.20481927710843376,-3.6867469879518073,0.3507050889025138,-8.822194972409564,-3.325567136725935,2.0,3.0659340659340657,326.16487455197137,1.323232911834974,-0.007342229473804847,-0.020861255171610516,1368.4981684981683,-1.0,62.16657180800607,3.0891113778120016,
2023-08-09 17:48:44.147000,-8.93975903614458,0.1927710843373494,-3.7590361445783134,0.328632740649908,-8.849172286940528,-3.4604537093807477,2.0,3.0673992673992676,326.0090757105326,1.0142765573101793,0.48901579162053577,0.142299399801876,1361.1721611721612,-1.0,62.16657180800607,3.0888857779922554,
2023-08-09 17:48:44.155000,-8.963855421686748,0.22891566265060243,-3.807228915662651,0.3384426732066217,-8.81238503985285,-3.543838136112814,2.0,3.0644688644688642,326.320822376285,1.4252083211934037,1.3151914224112822,0.6373754443214261,1354.5787545787546,-1.0,62.16657180800607,3.088659937558981,
2023-08-09 17:48:44.163000,-8.987951807228916,0.22891566265060243,-3.807228915662651,0.3139178418148375,-8.883507050889024,-3.462906192519926,2.0,3.0659340659340657,326.16487455197137,0.8392284831886245,1.9977856768253588,0.6115028261756309,1350.9157509157508,-1.0,62.16657180800607,3.0884338560304596,
2023-08-09 17:48:44.170000,-8.987951807228916,0.1927710843373494,-3.7469879518072293,0.2918454935622317,-8.807480073574494,-3.3868792152053953,2.0,3.0659340659340657,326.16487455197137,0.6112697395256692,2.8428413262630374,0.5273585455393047,1354.5787545787546,-1.0,62.16657180800607,3.08820753376715,
2023-08-09 17:48:44.178000,-8.951807228915664,0.18072289156626506,-3.7228915662650603,0.3041079092581238,-8.817290006131207,-3.3574494175352543,2.0,3.0659340659340657,326.16487455197137,0.994464192063399,3.4832468970339714,-0.36664530039042054,1361.1721611721612,-1.0,62.16657180800607,3.0879809724865344,
2023-08-09 17:48:44.186000,-8.975903614457831,0.1927710843373494,-3.771084337349398,0.3016554261189454,-8.959534028203556,-3.5291232372777435,2.0,3.0659340659340657,326.16487455197137,1.3597109725540468,2.8547287454111068,-1.1768544956587612,1367.7655677655678,-1.0,62.16657180800607,3.087754174826333,
2023-08-09 17:48:44.193000,-9.048192771084338,0.16867469879518074,-3.855421686746988,0.2869405272838749,-9.052728387492335,-3.6468424279583074,2.0,3.0644688644688642,326.320822376285,-0.18378882349513492,2.123535924479926,-0.9159139910261638,1376.5567765567764,-1.0,62.16657180800607,3.087527144362487,
2023-08-09 17:48:44.201000,-9.036144578313253,0.1566265060240964,-3.91566265060241,0.2599632127529123,-8.935009196811771,-3.5830778663396687,2.0,3.0659340659340657,326.16487455197137,-0.5981003438028087,1.7490822213157748,-0.6704737486160479,1384.6153846153845,-1.0,62.16657180800607,3.0872998855894664,
2023-08-09 17:48:44.209000,-8.987951807228916,0.18072289156626506,-3.9036144578313254,0.2869405272838749,-8.917841814837523,-3.6394849785407724,2.0,3.0644688644688642,326.320822376285,-0.1554687955247361,2.0881067536856825,-0.5176854495658761,1389.0109890109889,-1.0,62.16657180800607,3.087072404286,
2023-08-09 17:48:44.216000,-9.024096385542169,0.20481927710843376,-3.9036144578313254,0.3139178418148375,-8.905579399141631,-3.62722256284488,2.0,3.0644688644688642,326.320822376285,-0.7555503758522225,2.253132101858866,-0.4095332439834508,1392.6739926739926,-1.0,62.16657180800607,3.086844707068758,
2023-08-09 17:48:44.224000,-9.048192771084338,0.24096385542168675,-3.9397590361445785,0.4537093807480073,-8.912936848559166,-3.595340282035561,2.0,3.0644688644688642,326.320822376285,-1.0902628051978323,1.632305809684751,-0.22434590058854367,1394.8717948717947,-1.0,62.16657180800607,3.086616800873523,
2023-08-09 17:48:44.232000,-9.036144578313253,0.20481927710843376,-3.9397590361445785,0.33108522378908645,-8.920294297976701,-3.548743102391171,2.0,3.0644688644688642,326.320822376285,-1.376143581376376,1.045043995105179,-0.17772857059611927,1397.8021978021977,-1.0,62.16657180800607,3.0863886934164015,
2023-08-09 17:48:44.239000,-9.012048192771084,0.20481927710843376,-3.91566265060241,0.33353770692826484,-8.925199264255058,-3.5585530349478844,2.0,3.0644688644688642,326.320822376285,-1.7197133034205467,0.7414486335295153,-0.46640638657420924,1400.0,-1.0,62.16657180800607,3.086160393194529,
2023-08-09 17:48:44.247000,-9.0,0.16867469879518074,-3.891566265060241,0.26486817903126914,-8.89086450030656,-3.5340282035561,2.0,3.0644688644688642,326.320822376285,-1.9989511100751707,0.7311928209311808,-0.7230347881825067,1403.6630036630036,-1.0,62.16657180800607,3.0859319094844677,
2023-08-09 17:48:44.255000,-8.951807228915664,0.1927710843373494,-3.855421686746988,0.24279583077866337,-8.871244635193133,-3.561005518087063,2.0,3.0644688644688642,326.320822376285,-2.061301788940038,0.7809568206980935,-1.0394499155060895,1405.128205128205,-1.0,62.16657180800607,3.0857032527965313,
2023-08-09 17:48:44.262000,-8.93975903614458,0.18072289156626506,-3.8674698795180724,0.2820355610055181,-8.834457388105456,-3.484978540772532,2.0,3.0644688644688642,326.320822376285,-2.319678340423052,1.099353184546355,-1.002855311462036,1403.6630036630036,-1.0,62.16657180800607,3.085474434802375,
2023-08-09 17:48:44.270000,-8.927710843373495,0.1566265060240964,-3.855421686746988,0.25015328019619865,-8.84671980380135,-3.5217657878602084,2.0,3.0630036630036632,326.4769193972734,-2.3901870520365938,0.40487151098420865,-1.1762717790338557,1400.7326007326005,-1.0,62.16657180800607,3.0852454678402146,
2023-08-09 17:48:44.278000,-8.975903614457831,0.14457831325301207,-3.855421686746988,0.19374616799509503,-8.86143470263642,-3.5193133047210297,2.0,3.0644688644688642,326.320822376285,-2.2182856476895285,0.8159198181924138,-1.1209136996678517,1398.5347985347985,-1.0,62.16657180800607,3.0850163644184883,
2023-08-09 17:48:44.285000,-9.0,0.10843373493975904,-3.843373493975904,0.2550582464745555,-8.900674432863273,-3.5291232372777435,2.0,3.0630036630036632,326.4769193972734,-2.2918244857525787,0.7047374861604806,-0.8521647922615234,1395.6043956043954,-1.0,62.16657180800607,3.084787137631454,
2023-08-09 17:48:44.293000,-9.012048192771084,0.13253012048192772,-3.807228915662651,0.18148375229920294,-8.947271612507663,-3.4506437768240343,2.0,3.0630036630036632,326.4769193972734,-1.7249577530446947,0.6601013926927335,-1.102732940970806,1392.6739926739926,-1.0,62.16657180800607,3.084557801643153,
2023-08-09 17:48:44.301000,-9.048192771084338,0.12048192771084337,-3.7831325301204823,0.22808093194359289,-8.95217657878602,-3.455548743102391,2.0,3.0630036630036632,326.4769193972734,-1.8930132276673854,0.7677874249752347,-1.2445661674727577,1391.9413919413919,-1.0,62.16657180800607,3.08432837108321,
2023-08-09 17:48:44.308000,-9.024096385542169,0.0963855421686747,-3.7831325301204823,0.20846106683016552,-8.917841814837523,-3.4580012262415694,2.0,3.0600732600732603,326.7895618865214,-1.8454635510751123,0.8572926985606889,-1.3844181574500318,1387.5457875457876,-1.0,62.16657180800607,3.0840988605458515,
2023-08-09 17:48:44.316000,-9.012048192771084,0.10843373493975904,-3.7951807228915664,0.19865113427345185,-9.025751072961373,-3.4114040465971796,2.0,3.0615384615384613,326.63316582914575,-1.7681953266126684,0.5967018239030352,-1.3106462327370196,1383.150183150183,-1.0,62.16657180800607,3.083869284578147,
2023-08-09 17:48:44.324000,-9.0,0.0963855421686747,-3.8313253012048194,0.18148375229920294,-8.898221949724094,-3.3819742489270386,2.0,3.0615384615384613,326.63316582914575,-1.433832527242003,-0.014451372297651493,-0.9168463376260126,1379.4871794871794,-1.0,62.16657180800607,3.0836396583720314,
2023-08-09 17:48:44.331000,-8.975903614457831,0.08433734939759037,-3.843373493975904,0.14714898835070508,-8.915389331698345,-3.4481912936848556,2.0,3.0615384615384613,326.63316582914575,-0.3070916613250977,-0.9426024124468277,-0.8633529514597054,1376.5567765567764,-1.0,62.16657180800607,3.0834099977501577,
2023-08-09 17:48:44.339000,-9.0,0.10843373493975904,-3.8192771084337354,0.22562844880441446,-8.99877375843041,-3.4898835070508887,2.0,3.0615384615384613,326.63316582914575,0.5823669949303663,-2.0905541635102853,-0.41407843365771213,1372.8937728937728,-1.0,62.16657180800607,3.083180318694928,
2023-08-09 17:48:44.346000,-9.048192771084338,0.0963855421686747,-3.8192771084337354,0.2869405272838749,-9.020846106683017,-3.445738810545677,2.0,3.0615384615384613,326.63316582914575,0.9793135598158624,-3.0523862245789872,0.7462269098537382,1368.4981684981683,-1.0,62.16657180800607,3.082950637334482,
2023-08-09 17:48:44.354000,-9.072289156626507,0.12048192771084337,-3.843373493975904,0.2820355610055181,-9.055180870631514,-3.362354383813611,2.0,3.0615384615384613,326.63316582914575,1.4983975292815113,-3.098187751296545,1.6775246197774023,1366.3003663003662,-1.0,62.16657180800607,3.0827209699281335,
2023-08-09 17:48:44.362000,-9.096385542168676,0.07228915662650603,-3.7590361445783134,0.1496014714898835,-8.976701410177805,-3.4163090128755362,2.0,3.0615384615384613,326.63316582914575,1.2999242468387633,-1.6020045451896745,2.2271429403880894,1364.8351648351647,-1.0,62.16657180800607,3.082491332851622,
2023-08-09 17:48:44.369000,-9.084337349397591,0.024096385542168676,-3.734939759036145,0.07847946045370938,-8.942366646229306,-3.350091968117719,2.0,3.0600732600732603,326.7895618865214,2.18542043004487,-0.6554396596934913,2.8683643144338906,1364.8351648351647,-1.0,62.16657180800607,3.0822617425825865,
2023-08-09 17:48:44.377000,-9.096385542168676,0.0,-3.6746987951807233,0.15941140404659718,-8.99877375843041,-3.3280196198651133,2.0,3.0600732600732603,326.7895618865214,2.18542043004487,-0.6554396596934913,2.8683643144338906,1362.6373626373625,1003.448486328125,59.793801891669965,3.0820322151939066,
2023-08-09 17:48:44.385000,-9.084337349397591,0.03614457831325302,-3.6506024096385543,0.164316370324954,-8.957081545064376,-3.337829552421827,2.0,3.0600732600732603,326.7895618865214,2.948779208670824,-0.9760503467163921,2.7920284365712953,1358.2417582417581,-1.0,59.793801891669965,3.08180276672636,
2023-08-09 17:48:44.392000,-9.072289156626507,0.0963855421686747,-3.6385542168674703,0.22808093194359289,-9.028203556100552,-3.2691600245248313,2.0,3.0600732600732603,326.7895618865214,3.4067944758463966,-1.8004778276324225,2.3034788182506847,1351.6483516483515,-1.0,59.793801891669965,3.081573413561909,
2023-08-09 17:48:44.400000,-9.060240963855422,0.0963855421686747,-3.6144578313253013,0.19619865113427343,-8.988963825873697,-3.3059472716125073,2.0,3.0586080586080584,326.94610778443115,4.139618903327313,-2.2126915680904378,1.6775246197774023,1344.3223443223442,-1.0,59.793801891669965,3.0813441719190133,
2023-08-09 17:48:44.408000,-9.024096385542169,0.08433734939759037,-3.626506024096386,0.21091354996934394,-8.854077253218884,-3.2716125076640097,2.0,3.0586080586080584,326.94610778443115,2.9793135598158624,-1.6783404230522698,1.3111124060369443,1337.7289377289376,-1.0,59.793801891669965,3.0811150573486463,
2023-08-09 17:48:44.415000,-8.975903614457831,0.08433734939759037,-3.6867469879518073,0.22808093194359289,-8.866339668914776,-3.3721643163703248,2.0,3.0586080586080584,326.94610778443115,3.437328826991435,-0.8844472932812776,1.7538604976399976,1329.6703296703297,-1.0,59.793801891669965,3.0808860846518487,
2023-08-09 17:48:44.423000,-8.903614457831326,0.1566265060240964,-3.7590361445783134,0.2820355610055181,-8.834457388105456,-3.47271612507664,2.0,3.0586080586080584,326.94610778443115,4.246489132334946,-0.7165083619835677,1.8607307266476314,1324.5421245421244,-1.0,59.793801891669965,3.0806572687810374,
2023-08-09 17:48:44.431000,-8.879518072289157,0.2530120481927711,-3.8192771084337354,0.43408951563458,-8.768240343347639,-3.4580012262415694,2.0,3.0586080586080584,326.94610778443115,4.704504399510519,-0.3348289726705906,2.21187576481557,1326.007326007326,-1.0,59.793801891669965,3.080428624759416,
2023-08-09 17:48:44.438000,-8.771084337349398,0.3373493975903615,-3.7108433734939763,0.45616186388718577,-8.591661557326793,-3.354996934396076,2.0,3.0586080586080584,326.94610778443115,4.139618903327313,1.4666977448866612,2.0439368335178605,1333.3333333333333,-1.0,59.793801891669965,3.0802001671806862,
2023-08-09 17:48:44.446000,-8.734939759036145,0.24096385542168675,-3.734939759036145,0.3408951563458001,-8.64316370324954,-3.4874310239117103,2.0,3.0586080586080584,326.94610778443115,5.605267758289145,3.3750946914515465,0.08973836023541765,1347.985347985348,-1.0,59.793801891669965,3.079971910202574,
2023-08-09 17:48:44.454000,-8.855421686746988,0.13253012048192772,-3.807228915662651,0.2207234825260576,-8.863887185775598,-3.502145922746781,2.0,3.0586080586080584,326.94610778443115,3.9411456208845648,4.443796981527883,0.2424101159606085,1366.3003663003662,-1.0,59.793801891669965,3.0797438675417794,
2023-08-09 17:48:44.461000,-8.93975903614458,0.12048192771084337,-3.8313253012048194,0.23789086450030655,-8.856529736358063,-3.4923359901900675,2.0,3.0556776556776555,327.2596499640374,1.5441990559990686,4.214789347940096,1.5706543907697688,1386.8131868131868,-1.0,59.793801891669965,3.0795160524706895,
2023-08-09 17:48:44.469000,-8.951807228915664,0.13253012048192772,-3.879518072289157,0.2329858982219497,-8.858982219497241,-3.5708154506437766,2.0,3.057142857142857,327.1028037383178,2.139618903327313,4.138453470077501,1.4027154594720588,1408.7912087912086,-1.0,59.793801891669965,3.079288477746564,
2023-08-09 17:48:44.477000,-8.951807228915664,0.20481927710843376,-3.891566265060241,0.2869405272838749,-8.863887185775598,-3.614960147148988,2.0,3.057142857142857,327.1028037383178,2.6892372239379996,5.283491638016432,0.4866849251209138,1433.6996336996335,-1.0,59.793801891669965,3.0790611553685716,
2023-08-09 17:48:44.484000,-9.0,0.24096385542168675,-3.927710843373494,0.3727774371551195,-8.888412017167381,-3.5904353157572038,2.0,3.057142857142857,327.1028037383178,1.5136647048540304,5.848377134199638,0.5935551541285474,1459.3406593406592,-1.0,59.793801891669965,3.0788340966488703,
2023-08-09 17:48:44.492000,-9.0,0.21686746987951808,-3.927710843373494,0.33108522378908645,-8.888412017167381,-3.6419374616799507,2.0,3.057142857142857,327.1028037383178,0.6587028727929617,5.64990385175689,-0.03239904434473502,1486.4468864468863,-1.0,59.793801891669965,3.07860731225027,
2023-08-09 17:48:44.500000,-8.987951807228916,0.1927710843373494,-3.987951807228916,0.269773145309626,-8.947271612507663,-3.7326793378295524,2.0,3.057142857142857,327.1028037383178,-0.3489307149932978,5.619369500611852,-0.20033797564244493,1512.087912087912,-1.0,59.793801891669965,3.078380812191062,
2023-08-09 17:48:44.507000,-9.0,0.1927710843373494,-4.0,0.3727774371551195,-8.939914163090128,-3.6640098099325566,2.0,3.0556776556776555,327.2596499640374,-0.3641978905658169,4.871277897558417,-0.35300973136763575,1535.5311355311355,-1.0,59.793801891669965,3.0781546058520517,
2023-08-09 17:48:44.515000,-9.012048192771084,0.21686746987951808,-4.0361445783132535,0.35806253832004903,-8.920294297976701,-3.7351318209687308,2.0,3.0556776556776555,327.2596499640374,-0.8985490356039848,4.0315832410698675,-0.7957578229706892,1556.7765567765566,-1.0,59.793801891669965,3.0779287014934433,
2023-08-09 17:48:44.523000,-8.987951807228916,0.22891566265060243,-4.0120481927710845,0.38749233599019006,-8.932556713672593,-3.6689147762109133,2.0,3.057142857142857,327.1028037383178,-1.295495600489481,4.062117592214905,-0.765223471825651,1571.4285714285713,-1.0,59.793801891669965,3.077703106194947,
2023-08-09 17:48:44.530000,-9.0,0.21686746987951808,-4.048192771084338,0.33108522378908645,-8.932556713672593,-3.683629675045984,2.0,3.0556776556776555,327.2596499640374,-1.493968882932229,3.619369500611852,-0.6125517161004602,1582.4175824175823,-1.0,59.793801891669965,3.0774778272739307,
2023-08-09 17:48:44.538000,-9.048192771084338,0.20481927710843376,-4.0120481927710845,0.29675045984058857,-9.038013488657265,-3.602697731453096,2.0,3.0556776556776555,327.2596499640374,-2.074121554687954,2.9628809509935317,-0.41407843365771213,1589.7435897435896,-1.0,59.793801891669965,3.077252871810038,
2023-08-09 17:48:44.546000,-9.096385542168676,0.20481927710843376,-3.963855421686747,0.2844880441446965,-9.025751072961373,-3.6051502145922747,2.0,3.0556776556776555,327.2596499640374,-1.493968882932229,2.2300565235126153,-0.47514713594778846,1592.6739926739926,-1.0,59.793801891669965,3.077028245647535,
2023-08-09 17:48:44.553000,-9.060240963855422,0.22891566265060243,-3.9397590361445785,0.3678724708767627,-8.991416309012875,-3.607602697731453,2.0,3.0542124542124545,327.4166466778604,-1.7993123943826108,1.7415069051920047,-0.5362158382378648,1591.2087912087911,-1.0,59.793801891669965,3.0768039538757255,
2023-08-09 17:48:44.561000,-9.10843373493976,0.2530120481927711,-3.951807228915663,0.23789086450030655,-9.008583690987123,-3.5830778663396687,2.0,3.0542124542124545,327.4166466778604,-2.1657246081230688,1.1460870578637605,-0.7957578229706892,1584.6153846153845,-1.0,59.793801891669965,3.0765800003614183,
2023-08-09 17:48:44.569000,-9.10843373493976,0.24096385542168675,-3.91566265060241,0.328632740649908,-8.925199264255058,-3.5708154506437766,2.0,3.0542124542124545,327.4166466778604,-2.6542742264436794,0.9628809509935315,-0.7804906473981701,1571.4285714285713,-1.0,59.793801891669965,3.0763563877046862,
2023-08-09 17:48:44.576000,-9.036144578313253,0.20481927710843376,-3.879518072289157,0.3016554261189454,-8.925199264255058,-3.578172900061312,2.0,3.0542124542124545,327.4166466778604,-2.532136821863527,0.504865683817959,-0.933162403123361,1554.5787545787546,-1.0,59.793801891669965,3.0761331181799365,
2023-08-09 17:48:44.584000,-9.036144578313253,0.1927710843373494,-3.9036144578313254,0.2844880441446965,-8.971796443899448,-3.585530349478847,2.0,3.0542124542124545,327.4166466778604,-2.2573276615581834,-0.3042946215255524,-1.1774372122836663,1534.7985347985348,-1.0,59.793801891669965,3.075910193696512,
2023-08-09 17:48:44.592000,-9.048192771084338,0.21686746987951808,-3.8674698795180724,0.34825260576333533,-8.971796443899448,-3.504598405885959,2.0,3.0542124542124545,327.4166466778604,-1.8909154478177252,-0.7317755375560867,-1.0400326321309945,1515.018315018315,-1.0,59.793801891669965,3.0756876153408443,
