Shimmer_F5D4_Timestamp_FormattedUnix_CAL,Shimmer_F5D4_Accel_LN_X_CAL,Shimmer_F5D4_Accel_LN_Y_CAL,Shimmer_F5D4_Accel_LN_Z_CAL,Shimmer_F5D4_Accel_WR_X_CAL,Shimmer_F5D4_Accel_WR_Y_CAL,Shimmer_F5D4_Accel_WR_Z_CAL,Shimmer_F5D4_GSR_Range_CAL,Shimmer_F5D4_GSR_Skin_Conductance_CAL,Shimmer_F5D4_GSR_Skin_Resistance_CAL,Shimmer_F5D4_Gyro_X_CAL,Shimmer_F5D4_Gyro_Y_CAL,Shimmer_F5D4_Gyro_Z_CAL,Shimmer_F5D4_PPG_A13_CAL,Shimmer_F5D4_PPG_IBI_CAL,Shimmer_F5D4_PPGtoHR_CAL,Shimmer_F5D4_GSR_Skin_Conductance_LPF_CAL,
yyyy/mm/dd hh:mm:ss.000,m/(s^2),m/(s^2),m/(s^2),m/(s^2),m/(s^2),m/(s^2),no_units,uS,kOhms,deg/s,deg/s,deg/s,mV,ms,BPM,uS,
2023-08-11 20:28:15.746000,-9.228915662650603,-1.2289156626506024,-3.024096385542169,-1.1722869405272838,-9.13856529736358,-2.5726548129981603,2.0,2.386080586080586,419.09732883021184,0.5331857117883578,0.5447235009614831,0.016782238797272996,1446.153846153846,-1.0,94.37334997359957,2.348609260349829,
2023-08-11 20:28:15.754000,-9.216867469879519,-1.216867469879518,-3.0120481927710845,-1.1820968730839976,-9.172900061312077,-2.5652973635806253,2.0,2.386080586080586,419.09732883021184,0.1177087582308722,0.2771400268049654,0.07796748441233016,1441.0256410256409,-1.0,94.37334997359957,2.3490624660154173,
2023-08-11 20:28:15.762000,-9.204819277108435,-1.2289156626506024,-3.0,-1.1747394236664623,-9.143470263641937,-2.680564071122011,2.0,2.3875457875457875,418.8401350107395,0.1165433249810621,0.5171027329409711,-0.07563661791270909,1434.4322344322343,-1.0,94.37334997359957,2.349514209499543,
2023-08-11 20:28:15.769000,-9.228915662650603,-1.2530120481927711,-3.0,-1.1232372777437154,-9.172900061312077,-2.6020846106683013,2.0,2.386080586080586,419.09732883021184,0.3908863119864805,0.7684866849251214,-0.16455917487325916,1430.03663003663,-1.0,94.37334997359957,2.3499644245934426,
2023-08-11 20:28:15.777000,-9.240963855421688,-1.216867469879518,-3.0120481927710845,-1.155119558553035,-9.111587982832617,-2.629061925199264,2.0,2.3875457875457875,418.8401350107395,0.09649787308431831,0.42048831653167024,-0.07214031816327705,1424.9084249084249,-1.0,94.37334997359957,2.3504130460238875,
2023-08-11 20:28:15.785000,-9.216867469879519,-1.2289156626506024,-3.024096385542169,-1.1477621091354997,-9.09196811771919,-2.5971796443899446,2.0,2.3875457875457875,418.8401350107395,0.17201794767204787,0.36513023716566706,-0.14626187285123224,1423.4432234432234,-1.0,94.37334997359957,2.3508600095844296,
2023-08-11 20:28:15.792000,-9.204819277108435,-1.2289156626506024,-3.0,-1.1354996934396075,-9.172900061312077,-2.6266094420600856,2.0,2.3875457875457875,418.8401350107395,0.2158382378649257,-0.10139269273352386,-0.11106578870695194,1420.5128205128203,-1.0,94.37334997359957,2.351305252858918,
2023-08-11 20:28:15.800000,-9.216867469879519,-1.2409638554216869,-2.9759036144578315,-1.179644389944819,-9.12139791538933,-2.5677498467198037,2.0,2.3875457875457875,418.8401350107395,-0.10838529223238792,0.04451955014276631,-0.21292465474039957,1419.047619047619,-1.0,94.37334997359957,2.351748715379988,
2023-08-11 20:28:15.808000,-9.156626506024097,-1.2409638554216869,-3.0,-1.1673819742489269,-9.084610668301655,-2.6241569589209073,2.0,2.3875457875457875,418.8401350107395,0.21117650486568357,-0.1579162053493389,0.1088514655323117,1419.047619047619,-1.0,94.37334997359957,2.3521903387491356,
2023-08-11 20:28:15.815000,-9.216867469879519,-1.2289156626506024,-2.987951807228916,-1.108522378908645,-9.145922746781116,-2.5849172286940525,2.0,2.3875457875457875,418.8401350107395,-0.12889691742905507,0.05116251966668614,-0.25686148825826,1419.047619047619,-1.0,94.37334997359957,2.3526300662942243,
2023-08-11 20:28:15.823000,-9.204819277108435,-1.2530120481927711,-3.0,-1.125689760882894,-9.09196811771919,-2.6315144083384427,2.0,2.3875457875457875,418.8401350107395,-0.006526426198938992,0.2305226968125406,0.10966726880717886,1419.047619047619,-1.0,94.37334997359957,2.3530678432463437,
2023-08-11 20:28:15.831000,-9.204819277108435,-1.2409638554216869,-3.0,-1.1477621091354997,-9.082158185162477,-2.5677498467198037,2.0,2.3875457875457875,418.8401350107395,-0.14404754967659159,-0.03193287104481168,-0.09020453353534186,1421.245421245421,-1.0,94.37334997359957,2.353503616873114,
2023-08-11 20:28:15.838000,-9.19277108433735,-1.2530120481927711,-2.9759036144578315,-1.2066217044757817,-9.07725321888412,-2.616799509503372,2.0,2.386080586080586,419.09732883021184,-0.1412505098770463,-0.032632130994696695,-0.08927218693549344,1419.7802197802198,-1.0,94.37334997359957,2.3539373366372582,
2023-08-11 20:28:15.846000,-9.19277108433735,-1.2530120481927711,-3.0,-1.20907418761496,-9.18270999386879,-2.562844880441447,2.0,2.3875457875457875,418.8401350107395,-0.12470135772973627,0.21234193811549365,-0.1661907814229939,1417.5824175824175,-1.0,94.37334997359957,2.354368954733367,
2023-08-11 20:28:15.854000,-9.228915662650603,-1.2409638554216869,-2.987951807228916,-1.1894543225015328,-9.131207847946046,-2.5456774984671977,2.0,2.3875457875457875,418.8401350107395,-0.2160713245148891,0.1048889924829559,0.12575024765456555,1413.1868131868132,-1.0,94.37334997359957,2.3547984260537067,
2023-08-11 20:28:15.861000,-9.216867469879519,-1.2409638554216869,-2.987951807228916,-1.1943592887798895,-9.1704475781729,-2.582464745554874,2.0,2.3875457875457875,418.8401350107395,-0.04661732999242484,-0.04778276324223494,-0.3782996328885263,1407.3260073260071,-1.0,94.37334997359957,2.355225707894851,
2023-08-11 20:28:15.869000,-9.228915662650603,-1.2409638554216869,-3.0,-1.1404046597179645,-9.13856529736358,-2.580012262415696,2.0,2.389010989010989,418.5832566697332,0.10500553580793673,0.24392517918536283,0.021560515121496402,1400.7326007326005,-1.0,94.37334997359957,2.3556507601094574,
2023-08-11 20:28:15.877000,-9.228915662650603,-1.2289156626506024,-2.963855421686747,-1.1428571428571428,-9.172900061312077,-2.5162477007970567,2.0,2.389010989010989,418.5832566697332,-0.018996561971912792,-0.06363265543965994,-0.26560223763183965,1394.8717948717947,-1.0,94.37334997359957,2.356073546126102,
2023-08-11 20:28:15.884000,-9.216867469879519,-1.2048192771084338,-2.987951807228916,-1.2017167381974247,-9.141017780502759,-2.575107296137339,2.0,2.389010989010989,418.5832566697332,0.05722277256570179,0.33226501952100695,-0.18565351669483135,1389.7435897435896,-1.0,94.37334997359957,2.3564940330450157,
2023-08-11 20:28:15.892000,-9.240963855421688,-1.2409638554216869,-2.987951807228916,-1.150214592274678,-9.145922746781116,-2.611894543225015,2.0,2.389010989010989,418.5832566697332,0.09976108618378868,0.38785618553697354,-0.12178777460520929,1386.8131868131868,-1.0,94.37334997359957,2.3569121907398265,
2023-08-11 20:28:15.900000,-9.228915662650603,-1.2289156626506024,-2.987951807228916,-1.1673819742489269,-9.064990803188227,-2.582464745554874,2.0,2.389010989010989,418.5832566697332,0.21980071091428283,-0.2424101159606085,0.24648913233494557,1386.080586080586,-1.0,94.37334997359957,2.357327991930674,
2023-08-11 20:28:15.907000,-9.204819277108435,-1.2289156626506024,-3.0,-1.0987124463519313,-9.114040465971796,-2.6388718577559778,2.0,2.389010989010989,418.5832566697332,0.12679913757939482,0.10698677233261442,0.16700658469786148,1387.5457875457876,-1.0,94.37334997359957,2.3577414126663463,
2023-08-11 20:28:15.915000,-9.228915662650603,-1.2650602409638554,-2.987951807228916,-1.184549356223176,-9.143470263641937,-2.621704475781729,2.0,2.389010989010989,418.5832566697332,0.004428646349280464,0.026804964745644456,0.14929199930074008,1387.5457875457876,-1.0,94.37334997359957,2.358152431843869,
2023-08-11 20:28:15.923000,-9.216867469879519,-1.2409638554216869,-2.9759036144578315,-1.103617412630288,-9.116492949110974,-2.6609442060085837,2.0,2.3904761904761904,418.32669322709165,-0.10302429928325904,0.03915855719363742,0.11712604160596715,1387.5457875457876,-1.0,94.37334997359957,2.3585610312408853,
2023-08-11 20:28:15.930000,-9.204819277108435,-1.2289156626506024,-2.987951807228916,-1.1992642550582464,-9.10668301655426,-2.5849172286940525,2.0,2.3904761904761904,418.32669322709165,-0.024357554921041684,-0.26921508070625294,0.09987762950876994,1386.080586080586,-1.0,94.37334997359957,2.358967195991201,
2023-08-11 20:28:15.938000,-9.204819277108435,-1.2289156626506024,-3.0,-1.196811771919068,-9.133660331085224,-2.5898221949724096,2.0,2.3904761904761904,418.32669322709165,0.06911019171376967,-0.1434648330516874,0.3890216187867841,1386.8131868131868,-1.0,94.37334997359957,2.3593709146600133,
2023-08-11 20:28:15.946000,-9.216867469879519,-1.216867469879518,-3.0,-1.1722869405272838,-9.12139791538933,-2.609442060085837,2.0,2.3904761904761904,418.32669322709165,-0.025173358195909275,-0.18926635976924464,0.11083270205698983,1387.5457875457876,-1.0,94.37334997359957,2.359772179203236,
2023-08-11 20:28:15.953000,-9.228915662650603,-1.2289156626506024,-2.987951807228916,-1.120784794604537,-9.143470263641937,-2.5849172286940525,2.0,2.3904761904761904,418.32669322709165,-0.2096614416409292,-0.6584697861429982,0.06561389196433763,1389.0109890109889,-1.0,94.37334997359957,2.3601709848806487,
2023-08-11 20:28:15.961000,-9.228915662650603,-1.2530120481927711,-2.987951807228916,-1.2017167381974247,-9.165542611894542,-2.5947271612507663,2.0,2.3904761904761904,418.32669322709165,-0.2399627061360057,-0.3793485228133551,0.24951925878445297,1387.5457875457876,-1.0,94.37334997359957,2.360567330157594,
2023-08-11 20:28:15.968000,-9.228915662650603,-1.2409638554216869,-3.0120481927710845,-1.1354996934396075,-9.128755364806867,-2.6266094420600856,2.0,2.3904761904761904,418.32669322709165,-0.19136413961890317,-0.5120913699667847,0.2482372822096616,1387.5457875457876,-1.0,94.37334997359957,2.3609612161373303,
2023-08-11 20:28:15.976000,-9.216867469879519,-1.2289156626506024,-3.0,-1.137952176578786,-9.128755364806867,-2.6560392397302266,2.0,2.3904761904761904,418.32669322709165,-0.08239613076161106,-0.3539420779674842,0.5670998193578464,1386.8131868131868,-1.0,94.37334997359957,2.3613526465070835,
2023-08-11 20:28:15.984000,-9.204819277108435,-1.2289156626506024,-3.0120481927710845,-1.1354996934396075,-9.099325567136725,-2.5775597792765175,2.0,2.3904761904761904,418.32669322709165,-0.21828564768952846,-0.455917487325914,0.7297943010314086,1387.5457875457876,-1.0,94.37334997359957,2.36174162743604,
2023-08-11 20:28:15.991000,-9.204819277108435,-1.2289156626506024,-3.0481927710843375,-1.184549356223176,-9.101778050275904,-2.587369711833231,2.0,2.389010989010989,418.5832566697332,-0.5518326437853264,-0.6494959501194565,0.6470485402948546,1385.3479853479853,-1.0,94.37334997359957,2.362128167495304,
2023-08-11 20:28:15.999000,-9.216867469879519,-1.216867469879518,-3.0120481927710845,-1.1526670754138564,-9.12139791538933,-2.629061925199264,2.0,2.3904761904761904,418.32669322709165,-0.3632655439659685,-1.115669250043703,1.0540178311287223,1386.8131868131868,-1.0,94.37334997359957,2.3625122774960987,
2023-08-11 20:28:16.007000,-9.180722891566266,-1.2048192771084338,-2.987951807228916,-1.1477621091354997,-9.10668301655426,-2.6315144083384427,2.0,2.3904761904761904,418.32669322709165,-0.5432084377367289,-1.1957345143056923,0.7693024881999881,1391.2087912087911,-1.0,94.37334997359957,2.3628939707391328,
2023-08-11 20:28:16.014000,-9.228915662650603,-1.2048192771084338,-3.0120481927710845,-1.1232372777437154,-9.079705702023299,-2.6143470263641935,2.0,2.391941391941392,418.07044410413476,-0.7689528582250448,-1.7314841792436337,0.7477419730784917,1397.069597069597,-1.0,94.37334997359957,2.3632732629012128,
2023-08-11 20:28:16.022000,-9.204819277108435,-1.180722891566265,-2.9759036144578315,-1.155119558553035,-9.118945432250152,-2.65113427345187,2.0,2.391941391941392,418.07044410413476,-0.6112697395256692,-1.850824544024241,0.7110308257094575,1401.4652014652013,-1.0,94.37334997359957,2.3636501719481786,
2023-08-11 20:28:16.030000,-9.204819277108435,-1.180722891566265,-2.9759036144578315,-1.1134273451870018,-9.13856529736358,-2.5849172286940525,2.0,2.391941391941392,418.07044410413476,-0.5465881941611801,-1.7402249286172138,0.9462152555212398,1405.128205128205,-1.0,94.37334997359957,2.3640247184983414,
2023-08-11 20:28:16.037000,-9.228915662650603,-1.180722891566265,-2.9759036144578315,-1.1404046597179645,-9.155732679337829,-2.609442060085837,2.0,2.391941391941392,418.07044410413476,-0.5423926344618613,-1.4949012295320792,0.6472816269448167,1408.7912087912086,-1.0,94.37334997359957,2.364396924704067,
2023-08-11 20:28:16.045000,-9.228915662650603,-1.2048192771084338,-2.9759036144578315,-1.1453096259963211,-9.136112814224402,-2.6364193746167994,2.0,2.391941391941392,418.07044410413476,-0.2642037177320666,-1.4657653982868128,0.5182681661907812,1410.2564102564102,-1.0,94.37334997359957,2.3647668141107254,
2023-08-11 20:28:16.053000,-9.240963855421688,-1.2048192771084338,-2.963855421686747,-1.1453096259963211,-9.096873083997547,-2.582464745554874,2.0,2.391941391941392,418.07044410413476,-0.27772274342986963,-1.3465415768311864,0.34718256511858264,1408.7912087912086,-1.0,94.37334997359957,2.365134411931713,
2023-08-11 20:28:16.060000,-9.240963855421688,-1.216867469879518,-2.963855421686747,-1.0938074800735744,-9.123850398528509,-2.528510116492949,2.0,2.391941391941392,418.07044410413476,-0.04720004661733076,-1.2288328186003141,0.4356389487792085,1404.3956043956043,-1.0,94.37334997359957,2.3654997443691506,
2023-08-11 20:28:16.068000,-9.240963855421688,-1.216867469879518,-2.951807228915663,-1.1305947271612506,-9.111587982832617,-2.5849172286940525,2.0,2.391941391941392,418.07044410413476,-0.16922090787250085,-1.080939339199348,0.35487442456733304,1398.5347985347985,-1.0,94.37334997359957,2.3658628384565867,
2023-08-11 20:28:16.076000,-9.204819277108435,-1.180722891566265,-2.963855421686747,-1.1575720416922133,-9.148375229920294,-2.592274678111588,2.0,2.391941391941392,418.07044410413476,0.3185129071732422,-0.49134665812015593,0.4108152205582426,1392.6739926739926,-1.0,94.37334997359957,2.366223722320353,
2023-08-11 20:28:16.083000,-9.216867469879519,-1.1927710843373494,-2.9397590361445785,-1.103617412630288,-9.123850398528509,-2.5947271612507663,2.0,2.391941391941392,418.07044410413476,-0.0012819765747909368,-0.5939047841034899,0.37538604976399975,1384.6153846153845,-1.0,94.37334997359957,2.3665824249471448,
2023-08-11 20:28:16.091000,-9.204819277108435,-1.2048192771084338,-2.963855421686747,-1.0938074800735744,-9.150827713059472,-2.5113427345187,2.0,2.391941391941392,418.07044410413476,0.30650894470019174,-0.35837072431676464,-0.05547462269098533,1377.2893772893772,-1.0,94.37334997359957,2.3669389754932992,
2023-08-11 20:28:16.099000,-9.216867469879519,-1.2048192771084338,-2.927710843373494,-1.0938074800735744,-9.131207847946046,-2.575107296137339,2.0,2.391941391941392,418.07044410413476,0.6416875473457265,-0.5188508828156871,0.23308664996212333,1371.4285714285713,-1.0,94.37334997359957,2.3672934031195116,
2023-08-11 20:28:16.106000,-9.228915662650603,-1.216867469879518,-2.9397590361445785,-1.1722869405272838,-9.158185162477007,-2.528510116492949,2.0,2.391941391941392,418.07044410413476,0.4835382553464243,-0.022609405046325665,-0.07575316123769037,1365.5677655677655,-1.0,94.37334997359957,2.367645737247664,
2023-08-11 20:28:16.114000,-9.228915662650603,-1.2289156626506024,-2.951807228915663,-1.1747394236664623,-9.192519926425506,-2.5849172286940525,2.0,2.391941391941392,418.07044410413476,0.4814404754967658,-0.01829730202202604,-0.07668550783753836,1364.8351648351647,-1.0,94.37334997359957,2.3679960073273776,
2023-08-11 20:28:16.122000,-9.253012048192772,-1.2289156626506024,-2.963855421686747,-1.1870018393623543,-9.180257510729612,-2.582464745554874,2.0,2.391941391941392,418.07044410413476,0.8593904784103491,0.38389371248761817,-0.44671056465240966,1363.3699633699632,-1.0,94.37334997359957,2.368344242147791,
2023-08-11 20:28:16.129000,-9.228915662650603,-1.2409638554216869,-2.987951807228916,-1.125689760882894,-9.16799509503372,-2.5898221949724096,2.0,2.391941391941392,418.07044410413476,0.5780548919060666,0.5856302080298349,-0.5218810092651941,1364.102564102564,-1.0,94.37334997359957,2.3686904696782505,
2023-08-11 20:28:16.137000,-9.216867469879519,-1.2530120481927711,-2.963855421686747,-1.1870018393623543,-9.165542611894542,-2.553034947884733,2.0,2.391941391941392,418.07044410413476,0.4358720354291702,0.8001864693199696,-0.4139618903327313,1364.8351648351647,-1.0,94.37334997359957,2.3690347173346273,
2023-08-11 20:28:16.145000,-9.240963855421688,-1.2409638554216869,-2.987951807228916,-1.1404046597179645,-9.118945432250152,-2.6020846106683013,2.0,2.3904761904761904,418.32669322709165,0.4643086067245498,0.8912068061301782,-0.5960025639531493,1364.102564102564,-1.0,94.37334997359957,2.369377011300925,
2023-08-11 20:28:16.152000,-9.27710843373494,-1.2409638554216869,-2.9759036144578315,-1.1232372777437154,-9.126302881667687,-2.582464745554874,2.0,2.3904761904761904,418.32669322709165,0.5524153604102323,1.2831420080414897,-0.1336751937532776,1368.4981684981683,-1.0,94.37334997359957,2.3697173763476806,
2023-08-11 20:28:16.160000,-9.240963855421688,-1.2409638554216869,-2.9759036144578315,-1.1722869405272838,-9.177805027590434,-2.560392397302268,2.0,2.3904761904761904,418.32669322709165,0.6411048307208207,0.8161529048423755,-0.2375152963114038,1374.3589743589744,-1.0,94.37334997359957,2.3700558355161228,
2023-08-11 20:28:16.168000,-9.240963855421688,-1.2289156626506024,-2.963855421686747,-1.1477621091354997,-9.082158185162477,-2.65113427345187,2.0,2.3904761904761904,418.32669322709165,0.45183847095157603,0.9471476021210891,0.12947963405395968,1386.080586080586,-1.0,94.37334997359957,2.370392409488634,
2023-08-11 20:28:16.175000,-9.228915662650603,-1.216867469879518,-3.0120481927710845,-1.20907418761496,-9.064990803188227,-2.540772532188841,2.0,2.391941391941392,418.07044410413476,0.08297884738651524,0.877804323757356,0.03706077734397759,1398.5347985347985,-1.0,94.37334997359957,2.370727116947972,
2023-08-11 20:28:16.183000,-9.19277108433735,-1.2048192771084338,-3.0120481927710845,-1.1011649294911097,-9.099325567136725,-2.599632127529123,2.0,2.391941391941392,418.07044410413476,0.12843074412913,0.48586912184604625,0.03647806071907211,1417.5824175824175,-1.0,94.37334997359957,2.371059975366531,
2023-08-11 20:28:16.191000,-9.216867469879519,-1.1927710843373494,-2.963855421686747,-1.179644389944819,-9.150827713059472,-2.6192519926425506,2.0,2.3904761904761904,418.32669322709165,0.0813472408367818,0.679331041314608,-0.08589243051104223,1440.2930402930401,-1.0,94.37334997359957,2.3713910004346768,
2023-08-11 20:28:16.198000,-9.240963855421688,-1.180722891566265,-2.963855421686747,-1.1820968730839976,-9.148375229920294,-2.6266094420600856,2.0,2.391941391941392,418.07044410413476,0.006060252899015646,0.2748091603053435,-0.22213157741390388,1468.131868131868,-1.0,94.37334997359957,2.3717202050076662,
2023-08-11 20:28:16.206000,-9.240963855421688,-1.180722891566265,-2.927710843373494,-1.1600245248313916,-9.131207847946046,-2.521152667075414,2.0,2.3904761904761904,418.32669322709165,0.2051162519666679,-0.3703746867898134,0.008973836023541765,1498.9010989010987,-1.0,94.37334997359957,2.372047599856394,
2023-08-11 20:28:16.214000,-9.216867469879519,-1.216867469879518,-2.91566265060241,-1.1305947271612506,-9.13856529736358,-2.5898221949724096,2.0,2.3904761904761904,418.32669322709165,-0.03915855719363742,-0.1064040557077085,-0.3752695064390185,1528.937728937729,-1.0,94.37334997359957,2.3723731935495294,
2023-08-11 20:28:16.221000,-9.240963855421688,-1.2048192771084338,-2.91566265060241,-1.1649294911097485,-9.118945432250152,-2.530962599632127,2.0,2.391941391941392,418.07044410413476,-0.17364955422178133,0.20092069226735085,-0.26560223763183965,1553.8461538461538,-1.0,94.37334997359957,2.372696991786229,
2023-08-11 20:28:16.229000,-9.228915662650603,-1.2048192771084338,-2.927710843373494,-1.1722869405272838,-9.18270999386879,-2.5064377682403434,2.0,2.391941391941392,418.07044410413476,0.04160596701823846,0.20383427539187698,-0.26303828448225647,1572.161172161172,-1.0,94.37334997359957,2.3730189977593588,
2023-08-11 20:28:16.237000,-9.253012048192772,-1.2409638554216869,-2.927710843373494,-1.179644389944819,-9.136112814224402,-2.5383200490496627,2.0,2.391941391941392,418.07044410413476,-0.1857700600198126,0.6951809335120329,-0.10908455218227382,1584.6153846153845,-1.0,94.37334997359957,2.3733392121784735,
2023-08-11 20:28:16.244000,-9.240963855421688,-1.2409638554216869,-2.9397590361445785,-1.196811771919068,-9.172900061312077,-2.5260576333537705,2.0,2.391941391941392,418.07044410413476,-0.31944525377309063,0.4775945457723912,-0.20033797564244493,1588.278388278388,-1.0,94.37334997359957,2.373657632744709,
2023-08-11 20:28:16.252000,-9.216867469879519,-1.216867469879518,-2.951807228915663,-1.1698344573881054,-9.192519926425506,-2.5088902513795217,2.0,2.391941391941392,418.07044410413476,-0.3145504341238851,0.7372530738301964,-0.09113688013519029,1586.8131868131868,-1.0,94.37334997359957,2.373974254130575,
2023-08-11 20:28:16.260000,-9.228915662650603,-1.2289156626506024,-2.951807228915663,-1.1232372777437154,-9.131207847946046,-2.5113427345187,2.0,2.3904761904761904,418.32669322709165,-0.2805197832294149,0.6566050929433014,-0.3493968882932229,1583.150183150183,-1.0,94.37334997359957,2.3742890683954623,
2023-08-11 20:28:16.267000,-9.216867469879519,-1.2048192771084338,-2.9397590361445785,-1.1453096259963211,-9.118945432250152,-2.553034947884733,2.0,2.391941391941392,418.07044410413476,-0.2939222656022371,1.12510925936717,-0.4504399510518034,1577.2893772893772,-1.0,94.37334997359957,2.3746020644311208,
2023-08-11 20:28:16.275000,-9.204819277108435,-1.2289156626506024,-2.9397590361445785,-1.179644389944819,-9.194972409564684,-2.6069895769466584,2.0,2.391941391941392,418.07044410413476,-0.06118524561505717,1.146902861138628,-0.1890332731192821,1570.6959706959706,-1.0,94.37334997359957,2.3749132278775518,
2023-08-11 20:28:16.283000,-9.216867469879519,-1.216867469879518,-2.9759036144578315,-1.1526670754138564,-9.15328019619865,-2.582464745554874,2.0,2.3904761904761904,418.32669322709165,-0.21537206456500235,1.105763067420313,-0.493094807994872,1561.9047619047617,-1.0,94.37334997359957,2.375222541225241,
2023-08-11 20:28:16.290000,-9.228915662650603,-1.2409638554216869,-2.9759036144578315,-1.184549356223176,-9.123850398528509,-2.6437768240343344,2.0,2.391941391941392,418.07044410413476,-0.5497348639356678,0.834100576889459,-0.20161995221723675,1555.311355311355,-1.0,94.37334997359957,2.3755299834028256,
2023-08-11 20:28:16.298000,-9.204819277108435,-1.216867469879518,-2.951807228915663,-1.1428571428571428,-9.160637645616186,-2.5898221949724096,2.0,2.3904761904761904,418.32669322709165,-0.24031233611094996,0.6407552007458764,-0.324573160072257,1547.2527472527472,-1.0,94.37334997359957,2.375835530221597,
2023-08-11 20:28:16.306000,-9.240963855421688,-1.2289156626506024,-2.963855421686747,-1.1305947271612506,-9.177805027590434,-2.609442060085837,2.0,2.3904761904761904,418.32669322709165,-0.5770060019812356,0.6631315191422404,-0.32375735679738943,1540.6593406593406,-1.0,94.37334997359957,2.3761391549372504,
2023-08-11 20:28:16.313000,-9.228915662650603,-1.2289156626506024,-2.987951807228916,-1.1453096259963211,-9.158185162477007,-2.550582464745555,2.0,2.3904761904761904,418.32669322709165,-0.221432317464018,0.3769011129887541,-0.36792727696521194,1534.065934065934,-1.0,94.37334997359957,2.376440828160302,
2023-08-11 20:28:16.321000,-9.216867469879519,-1.1927710843373494,-2.987951807228916,-1.179644389944819,-9.099325567136725,-2.621704475781729,2.0,2.3904761904761904,418.32669322709165,-0.12959617737894008,0.36944234018996497,-0.12097197133034213,1528.2051282051282,-1.0,94.37334997359957,2.3767405173925837,
2023-08-11 20:28:16.329000,-9.216867469879519,-1.1927710843373494,-2.9759036144578315,-1.1477621091354997,-9.136112814224402,-2.5947271612507663,2.0,2.3904761904761904,418.32669322709165,-0.20663131519142225,0.7614940854262573,-0.42573276615581834,1523.0769230769229,-1.0,94.37334997359957,2.3770381871372606,
2023-08-11 20:28:16.336000,-9.216867469879519,-1.216867469879518,-3.0,-1.1526670754138564,-9.096873083997547,-2.562844880441447,2.0,2.3904761904761904,418.32669322709165,-0.05279412621642132,0.23320319328710504,-0.34496824194394243,1519.4139194139193,-1.0,94.37334997359957,2.3773337989851364,
2023-08-11 20:28:16.344000,-9.204819277108435,-1.2048192771084338,-2.963855421686747,-1.1158798283261802,-9.177805027590434,-2.570202329858982,2.0,2.3904761904761904,418.32669322709165,-0.04067362041839003,0.3844764291125224,-0.21991725423926364,1514.2857142857142,-1.0,94.37334997359957,2.3776273117464624,
2023-08-11 20:28:16.351000,-9.204819277108435,-1.2048192771084338,-2.963855421686747,-1.1575720416922133,-9.131207847946046,-2.6266094420600856,2.0,2.3904761904761904,418.32669322709165,-0.1165433249810621,0.41081522055824177,-0.3397237923197948,1507.6923076923076,-1.0,94.37334997359957,2.3779186820163067,
2023-08-11 20:28:16.359000,-9.19277108433735,-1.1927710843373494,-2.987951807228916,-1.184549356223176,-9.09196811771919,-2.6315144083384427,2.0,2.3904761904761904,418.32669322709165,-0.1602470718489591,0.422935726356273,-0.15243866907522874,1500.3663003663003,-1.0,94.37334997359957,2.378207863801724,
2023-08-11 20:28:16.367000,-9.180722891566266,-1.2048192771084338,-2.987951807228916,-1.1992642550582464,-9.052728387492335,-2.6020846106683013,2.0,2.3904761904761904,418.32669322709165,-0.052677582891440485,0.5145387797913875,-0.2446244391352487,1494.5054945054944,-1.0,94.37334997359957,2.378494808685644,
2023-08-11 20:28:16.374000,-9.19277108433735,-1.216867469879518,-3.0,-1.1330472103004292,-9.12139791538933,-2.60453709380748,2.0,2.3904761904761904,418.32669322709165,0.29939980187634685,0.4845871452712553,-0.07342229473806887,1485.7142857142856,628.11279296875,95.52424448547275,2.378779466422718,
2023-08-11 20:28:16.382000,-9.168674698795181,-1.1927710843373494,-2.9759036144578315,-1.1330472103004292,-9.12139791538933,-2.550582464745555,2.0,2.3904761904761904,418.32669322709165,-0.19124759629392235,0.30044869180117784,-0.21105996154070272,1474.7252747252746,-1.0,95.52424448547275,2.3790617845952515,
2023-08-11 20:28:16.390000,-9.19277108433735,-1.2048192771084338,-2.9759036144578315,-1.103617412630288,-9.099325567136725,-2.587369711833231,2.0,2.3904761904761904,418.32669322709165,-0.19089796631897982,0.29916671522638516,-0.2096614416409301,1461.5384615384614,-1.0,95.52424448547275,2.379341708804,
2023-08-11 20:28:16.397000,-9.204819277108435,-1.2048192771084338,-2.9759036144578315,-1.0962599632127528,-9.038013488657265,-2.5383200490496627,2.0,2.3904761904761904,418.32669322709165,0.11444554513140184,0.8186003146669782,-0.20768020511625196,1448.3516483516482,-1.0,95.52424448547275,2.3796191832889946,
2023-08-11 20:28:16.405000,-9.228915662650603,-1.1927710843373494,-3.0120481927710845,-1.1232372777437154,-9.069895769466584,-2.5971796443899446,2.0,2.3904761904761904,418.32669322709165,0.48062467222189814,0.20057106229240662,-0.26583532428180173,1437.3626373626373,-1.0,95.52424448547275,2.3798941506083975,
2023-08-11 20:28:16.413000,-9.204819277108435,-1.180722891566265,-3.0120481927710845,-1.1649294911097485,-9.094420600858369,-2.5726548129981603,2.0,2.3904761904761904,418.32669322709165,0.26163976458248295,0.5778218052561033,-0.27644076685507823,1427.106227106227,-1.0,95.52424448547275,2.3801665518501243,
2023-08-11 20:28:16.420000,-9.216867469879519,-1.216867469879518,-3.024096385542169,-1.1453096259963211,-9.079705702023299,-2.5971796443899446,2.0,2.389010989010989,418.5832566697332,0.7165083619835677,0.31012178777460464,-0.21234193811549454,1421.245421245421,-1.0,95.52424448547275,2.3804363272712745,
2023-08-11 20:28:16.428000,-9.216867469879519,-1.2289156626506024,-3.0,-1.155119558553035,-9.133660331085224,-2.6486817903126916,2.0,2.3904761904761904,418.32669322709165,0.3859914923372767,0.25604568498339236,-0.298350911951518,1417.5824175824175,-1.0,95.52424448547275,2.3807034155006694,
2023-08-11 20:28:16.436000,-9.228915662650603,-1.2289156626506024,-3.0120481927710845,-1.1624770079705702,-9.13856529736358,-2.5677498467198037,2.0,2.3904761904761904,418.32669322709165,0.22854146028786118,0.27865509002971806,-0.21968416758930112,1418.3150183150183,-1.0,95.52424448547275,2.3809677541850145,
2023-08-11 20:28:16.443000,-9.240963855421688,-1.2289156626506024,-3.036144578313253,-1.1870018393623543,-9.145922746781116,-2.65113427345187,2.0,2.3904761904761904,418.32669322709165,0.11910727813064571,0.3179301905483363,-0.21816910436454764,1420.5128205128203,-1.0,95.52424448547275,2.3812292811645235,
2023-08-11 20:28:16.451000,-9.204819277108435,-1.2530120481927711,-3.0,-1.2017167381974247,-9.10668301655426,-2.6069895769466584,2.0,2.3875457875457875,418.8401350107395,-0.020628168521647974,0.6646465823669948,-0.00396247304935625,1419.047619047619,-1.0,95.52424448547275,2.381487934176856,
2023-08-11 20:28:16.459000,-9.228915662650603,-1.216867469879518,-3.0,-1.1722869405272838,-9.099325567136725,-2.5971796443899446,2.0,2.389010989010989,418.5832566697332,0.08775712371073996,0.4758463958976752,-0.2019695821921801,1416.117216117216,-1.0,95.52424448547275,2.381743650036578,
2023-08-11 20:28:16.466000,-9.216867469879519,-1.2289156626506024,-3.0120481927710845,-1.2188841201716738,-9.150827713059472,-2.6462293071735132,2.0,2.389010989010989,418.5832566697332,0.04148942369325762,0.6695414020161986,-0.2471883922848319,1410.989010989011,-1.0,95.52424448547275,2.381996364692352,
2023-08-11 20:28:16.474000,-9.216867469879519,-1.2409638554216869,-3.0120481927710845,-1.213979153893317,-9.13856529736358,-2.609442060085837,2.0,2.389010989010989,418.5832566697332,0.31688130062350706,0.512440999941729,-0.15325447235009587,1407.3260073260071,-1.0,95.52424448547275,2.382246014438744,
2023-08-11 20:28:16.482000,-9.228915662650603,-1.2289156626506024,-3.0,-1.1894543225015328,-9.16799509503372,-2.60453709380748,2.0,2.3904761904761904,418.32669322709165,0.22399627061359986,0.6200104888992476,-0.012703222422935909,1404.3956043956043,-1.0,95.52424448547275,2.3824925356498223,
2023-08-11 20:28:16.489000,-9.180722891566266,-1.216867469879518,-3.0,-1.155119558553035,-9.104230533415082,-2.629061925199264,2.0,2.389010989010989,418.5832566697332,-0.052211409591515406,0.2825010197540926,0.0045451896742613,1400.7326007326005,-1.0,95.52424448547275,2.3827358654948987,
2023-08-11 20:28:16.497000,-9.204819277108435,-1.2289156626506024,-3.0,-1.2066217044757817,-9.104230533415082,-2.609442060085837,2.0,2.389010989010989,418.5832566697332,0.146028786201271,0.32935143639648085,-0.1611794184488084,1401.4652014652013,-1.0,95.52424448547275,2.3829759421604724,
2023-08-11 20:28:16.505000,-9.19277108433735,-1.2289156626506024,-3.0,-1.1183323114653587,-9.094420600858369,-2.65113427345187,2.0,2.389010989010989,418.5832566697332,0.02214323174640232,-0.23553405978672523,-0.03496299749431863,1402.197802197802,-1.0,95.52424448547275,2.3832127040156648,
2023-08-11 20:28:16.512000,-9.204819277108435,-1.2289156626506024,-3.0120481927710845,-1.1232372777437154,-9.118945432250152,-2.6560392397302266,2.0,2.389010989010989,418.5832566697332,0.09871219625895941,-0.15605151214964202,0.13670532020278542,1404.3956043956043,-1.0,95.52424448547275,2.383446090282939,
2023-08-11 20:28:16.520000,-9.216867469879519,-1.2289156626506024,-3.024096385542169,-1.1354996934396075,-9.172900061312077,-2.5971796443899446,2.0,2.389010989010989,418.5832566697332,-0.19264611619369584,-0.3531262746926166,0.21327428471534296,1408.058608058608,-1.0,95.52424448547275,2.3836760412105855,
2023-08-11 20:28:16.528000,-9.204819277108435,-1.216867469879518,-3.0120481927710845,-1.1281422440220723,-9.074800735744942,-2.592274678111588,2.0,2.389010989010989,418.5832566697332,-0.16246139502360019,-0.39974360468504144,-0.35289318804265496,1410.989010989011,-1.0,95.52424448547275,2.3839024987318047,
2023-08-11 20:28:16.535000,-9.228915662650603,-1.216867469879518,-3.024096385542169,-1.1575720416922133,-9.089515634580012,-2.5775597792765175,2.0,2.389010989010989,418.5832566697332,-0.11782530155585304,-0.5831827982052321,0.15337101567507716,1413.9194139194137,-1.0,95.52424448547275,2.384125406557445,
2023-08-11 20:28:16.543000,-9.216867469879519,-1.2289156626506024,-3.0,-1.1771919068056407,-9.111587982832617,-2.5677498467198037,2.0,2.389010989010989,418.5832566697332,-0.05535807936600493,-0.7513548161529054,0.22854146028786204,1415.3846153846152,-1.0,95.52424448547275,2.3843447094177064,
2023-08-11 20:28:16.551000,-9.216867469879519,-1.2289156626506024,-2.9759036144578315,-1.1722869405272838,-9.158185162477007,-2.5677498467198037,2.0,2.3904761904761904,418.32669322709165,-0.17586387739642242,-0.7930773264961247,0.3012644950760446,1416.117216117216,-1.0,95.52424448547275,2.384560353736997,
2023-08-11 20:28:16.558000,-9.216867469879519,-1.2048192771084338,-2.963855421686747,-1.1354996934396075,-9.224402207234824,-2.5775597792765175,2.0,2.389010989010989,418.5832566697332,-0.43552240545422766,-0.34834799836839364,0.3314492162461394,1417.5824175824175,-1.0,95.52424448547275,2.384772288266281,
2023-08-11 20:28:16.566000,-9.216867469879519,-1.2289156626506024,-2.963855421686747,-1.1894543225015328,-9.118945432250152,-2.580012262415696,2.0,2.389010989010989,418.5832566697332,-0.23297010663714163,-0.8957519958044395,0.25336518850882794,1417.5824175824175,-1.0,95.52424448547275,2.384980463829131,
2023-08-11 20:28:16.574000,-9.228915662650603,-1.2289156626506024,-2.963855421686747,-1.2041692213366033,-9.150827713059472,-2.5898221949724096,2.0,2.389010989010989,418.5832566697332,-0.23040615348755977,-0.6450673037701761,0.17586387739642198,1415.3846153846152,-1.0,95.52424448547275,2.385184833378728,
2023-08-11 20:28:16.581000,-9.216867469879519,-1.2289156626506024,-2.963855421686747,-1.120784794604537,-9.082158185162477,-2.5554874310239115,2.0,2.389010989010989,418.5832566697332,-0.16677349804789982,-1.024415826583533,0.52689237223938,1415.3846153846152,-1.0,95.52424448547275,2.38538535208136,
2023-08-11 20:28:16.589000,-9.204819277108435,-1.216867469879518,-2.951807228915663,-1.0717351318209687,-9.15328019619865,-2.592274678111588,2.0,2.3875457875457875,418.8401350107395,-0.17889400384592938,-1.1056465240953322,0.16980362449740677,1413.1868131868132,-1.0,95.52424448547275,2.3855819774607654,
2023-08-11 20:28:16.597000,-9.228915662650603,-1.216867469879518,-2.987951807228916,-1.1747394236664623,-9.141017780502759,-2.562844880441447,2.0,2.389010989010989,418.5832566697332,-0.1936950061185251,-0.806945982168872,0.5355165782879785,1406.5934065934066,-1.0,95.52424448547275,2.38577466900628,
2023-08-11 20:28:16.604000,-9.228915662650603,-1.2048192771084338,-2.951807228915663,-1.1134273451870018,-9.133660331085224,-2.609442060085837,2.0,2.3875457875457875,418.8401350107395,-0.11735912825592969,-0.9685915739176046,0.27084668725598726,1395.6043956043954,-1.0,95.52424448547275,2.3859633887200977,
2023-08-11 20:28:16.612000,-9.204819277108435,-1.216867469879518,-2.951807228915663,-1.1722869405272838,-9.116492949110974,-2.5652973635806253,2.0,2.3875457875457875,418.8401350107395,-0.13157741390361952,-0.9464483421712023,0.31350154419905585,1385.3479853479853,-1.0,95.52424448547275,2.3861481021480793,
2023-08-11 20:28:16.620000,-9.216867469879519,-1.2048192771084338,-2.9759036144578315,-1.1109748620478233,-9.118945432250152,-2.5898221949724096,2.0,2.3875457875457875,418.8401350107395,-0.20663131519142225,-0.8324689703397239,0.23401899656197175,1377.2893772893772,-1.0,95.52424448547275,2.3863287773660056,
2023-08-11 20:28:16.627000,-9.216867469879519,-1.1927710843373494,-2.963855421686747,-1.1673819742489269,-9.128755364806867,-2.5481299816063765,2.0,2.3875457875457875,418.8401350107395,-0.0825126740865919,-0.7644076685507835,0.2760911368801353,1373.6263736263736,-1.0,95.52424448547275,2.3865053845877093,
2023-08-11 20:28:16.635000,-9.216867469879519,-1.2048192771084338,-2.9759036144578315,-1.1428571428571428,-9.094420600858369,-2.5652973635806253,2.0,2.3875457875457875,418.8401350107395,-0.12411864110483035,-0.4667560165491526,0.30231338500087385,1371.4285714285713,-1.0,95.52424448547275,2.386677896288327,
2023-08-11 20:28:16.643000,-9.228915662650603,-1.216867469879518,-2.963855421686747,-1.150214592274678,-9.18761496014715,-2.6315144083384427,2.0,2.3875457875457875,418.8401350107395,0.13728803682769092,-0.3232911834974652,0.31303537089913164,1372.8937728937728,-1.0,95.52424448547275,2.3868462882314843,
2023-08-11 20:28:16.650000,-9.240963855421688,-1.216867469879518,-2.963855421686747,-1.1526670754138564,-9.197424892703863,-2.562844880441447,2.0,2.3875457875457875,418.8401350107395,0.014334828972670657,-0.15092360585047482,0.04859856651710253,1375.8241758241757,-1.0,95.52424448547275,2.3870105394349745,
2023-08-11 20:28:16.658000,-9.228915662650603,-1.216867469879518,-2.9759036144578315,-1.1428571428571428,-9.155732679337829,-2.6486817903126916,2.0,2.3875457875457875,418.8401350107395,0.029835091195151413,-0.28623040615348805,0.2605908746576541,1378.021978021978,-1.0,95.52424448547275,2.3871706312835634,
2023-08-11 20:28:16.666000,-9.228915662650603,-1.1927710843373494,-2.987951807228916,-1.137952176578786,-9.136112814224402,-2.609442060085837,2.0,2.3875457875457875,418.8401350107395,0.02960200454518974,-0.2814521298292633,0.2590758114329002,1379.4871794871794,-1.0,95.52424448547275,2.3873265480737333,
2023-08-11 20:28:16.673000,-9.228915662650603,-1.216867469879518,-2.951807228915663,-1.1134273451870018,-9.172900061312077,-2.570202329858982,2.0,2.3875457875457875,418.8401350107395,0.029368917895228067,-0.34077268224462365,0.42573276615581834,1381.6849816849815,-1.0,95.52424448547275,2.387478277480567,
2023-08-11 20:28:16.681000,-9.228915662650603,-1.2048192771084338,-2.987951807228916,-1.2017167381974247,-9.160637645616186,-2.60453709380748,2.0,2.3875457875457875,418.8401350107395,-0.07843365771225394,-0.49029776819532667,0.1614125050987705,1382.4175824175823,-1.0,95.52424448547275,2.387625810526377,
2023-08-11 20:28:16.689000,-9.216867469879519,-1.216867469879518,-2.987951807228916,-1.125689760882894,-9.101778050275904,-2.616799509503372,2.0,2.3875457875457875,418.8401350107395,-0.049763999766912634,-0.7173241652584352,0.06887710506380756,1380.2197802197802,-1.0,95.52424448547275,2.3877691415438322,
2023-08-11 20:28:16.696000,-9.216867469879519,-1.2048192771084338,-2.951807228915663,-1.1747394236664623,-9.150827713059472,-2.5383200490496627,2.0,2.386080586080586,419.09732883021184,-0.1557018821746978,-0.7733815045743252,0.447409824602296,1378.021978021978,-1.0,95.52424448547275,2.3879082676758197,
2023-08-11 20:28:16.704000,-9.204819277108435,-1.216867469879518,-2.9759036144578315,-1.125689760882894,-9.131207847946046,-2.489270386266094,2.0,2.3875457875457875,418.8401350107395,-0.04813239321717919,-0.736903443855254,0.24427480916030533,1372.161172161172,-1.0,95.52424448547275,2.388043188402508,
2023-08-11 20:28:16.712000,-9.228915662650603,-1.216867469879518,-2.927710843373494,-1.1698344573881054,-9.13856529736358,-2.570202329858982,2.0,2.386080586080586,419.09732883021184,-0.09335120330983052,-0.8999475555037584,0.24322591923547562,1368.4981684981683,-1.0,95.52424448547275,2.3881739063975593,
2023-08-11 20:28:16.719000,-9.19277108433735,-1.2289156626506024,-2.9759036144578315,-1.1232372777437154,-9.131207847946046,-2.523605150214592,2.0,2.3875457875457875,418.8401350107395,0.06048598566517042,-0.724549851407261,0.010488899248295241,1364.8351648351647,-1.0,95.52424448547275,2.388300427040874,
2023-08-11 20:28:16.727000,-9.240963855421688,-1.2289156626506024,-2.9759036144578315,-1.1600245248313916,-9.1704475781729,-2.5775597792765175,2.0,2.3875457875457875,418.8401350107395,-0.10791911893246285,-0.4302779558300796,0.3905366820115376,1362.6373626373625,-1.0,95.52424448547275,2.388422758382509,
2023-08-11 20:28:16.734000,-9.240963855421688,-1.2289156626506024,-3.024096385542169,-1.179644389944819,-9.155732679337829,-2.582464745554874,2.0,2.386080586080586,419.09732883021184,-0.4862187518209887,-0.16828856127265243,0.3418215721694538,1361.1721611721612,-1.0,95.52424448547275,2.388540912085743,
2023-08-11 20:28:16.742000,-9.253012048192772,-1.2289156626506024,-2.9759036144578315,-1.1673819742489269,-9.177805027590434,-2.570202329858982,2.0,2.386080586080586,419.09732883021184,-0.1630441116485061,-0.13600606025289824,-0.15057397587553145,1358.974358974359,-1.0,95.52424448547275,2.3886549023987915,
2023-08-11 20:28:16.750000,-9.240963855421688,-1.2289156626506024,-2.9759036144578315,-1.125689760882894,-9.133660331085224,-2.575107296137339,2.0,2.3875457875457875,418.8401350107395,-0.02249286172134483,-0.25289901520890457,-0.02948546122020847,1358.974358974359,-1.0,95.52424448547275,2.388764745544253,
2023-08-11 20:28:16.757000,-9.228915662650603,-1.2289156626506024,-2.963855421686747,-1.125689760882894,-9.163090128755364,-2.5481299816063765,2.0,2.386080586080586,419.09732883021184,-0.27772274342986963,-0.12435172775479376,0.06200104888992476,1356.7765567765566,-1.0,95.52424448547275,2.3888704606482896,
2023-08-11 20:28:16.765000,-9.240963855421688,-1.2048192771084338,-2.963855421686747,-1.1281422440220723,-9.207234825260576,-2.6020846106683013,2.0,2.386080586080586,419.09732883021184,-0.030301264495076495,-0.04451955014276631,0.0463842433424623,1356.7765567765566,-1.0,95.52424448547275,2.3889720701748836,
2023-08-11 20:28:16.773000,-9.19277108433735,-1.1927710843373494,-2.963855421686747,-1.1354996934396075,-9.192519926425506,-2.5726548129981603,2.0,2.386080586080586,419.09732883021184,-0.19695821921799375,0.051861779616572894,0.31979488374803317,1358.974358974359,-1.0,95.52424448547275,2.3890695987783617,
2023-08-11 20:28:16.780000,-9.216867469879519,-1.1927710843373494,-2.963855421686747,-1.125689760882894,-9.16799509503372,-2.5726548129981603,2.0,2.386080586080586,419.09732883021184,-0.268632364081347,-0.23215430336227405,0.3766680263387916,1362.6373626373625,-1.0,95.52424448547275,2.3891630732411806,
2023-08-11 20:28:16.788000,-9.228915662650603,-1.1927710843373494,-2.963855421686747,-1.1698344573881054,-9.096873083997547,-2.5849172286940525,2.0,2.386080586080586,419.09732883021184,-0.250335062059321,-0.470718489598508,0.2047666219917254,1366.3003663003662,-1.0,95.52424448547275,2.389252522865433,
2023-08-11 20:28:16.796000,-9.216867469879519,-1.216867469879518,-2.951807228915663,-1.1575720416922133,-9.123850398528509,-2.6020846106683013,2.0,2.386080586080586,419.09732883021184,-0.30790746459996526,-0.05127906299166698,0.06409882873958415,1368.4981684981683,-1.0,95.52424448547275,2.3893379793704157,
2023-08-11 20:28:16.803000,-9.216867469879519,-1.2048192771084338,-2.951807228915663,-1.0521152667075413,-9.15328019619865,-2.494175352544451,2.0,2.386080586080586,419.09732883021184,-0.18145795699551298,-0.24916962880950913,0.06211759221490603,1368.4981684981683,-1.0,95.52424448547275,2.3894194763312946,
2023-08-11 20:28:16.811000,-9.19277108433735,-1.2048192771084338,-2.963855421686747,-1.1453096259963211,-9.163090128755364,-2.562844880441447,2.0,2.384615384615384,419.35483870967744,-0.027853854670473722,0.05943709574034115,-0.12388555445486868,1367.7655677655678,-1.0,95.52424448547275,2.389497049142119,
2023-08-11 20:28:16.819000,-9.228915662650603,-1.2289156626506024,-2.963855421686747,-1.0987124463519313,-9.131207847946046,-2.575107296137339,2.0,2.384615384615384,419.35483870967744,-0.025639531495834356,-0.21595478118990652,-0.031233611094924486,1367.032967032967,-1.0,95.52424448547275,2.389570734448876,
2023-08-11 20:28:16.826000,-9.253012048192772,-1.216867469879518,-2.927710843373494,-1.1183323114653587,-9.123850398528509,-2.5726548129981603,2.0,2.384615384615384,419.35483870967744,0.0961482431093758,0.07726822446244384,-0.3390245323699085,1365.5677655677655,-1.0,95.52424448547275,2.3896405700358367,
2023-08-11 20:28:16.834000,-9.253012048192772,-1.216867469879518,-2.987951807228916,-1.1060698957694666,-9.175352544451256,-2.592274678111588,2.0,2.384615384615384,419.35483870967744,0.004195559699318791,0.35440825126740927,0.38121321601305286,1366.3003663003662,-1.0,95.52424448547275,2.3897065956581014,
2023-08-11 20:28:16.842000,-9.240963855421688,-1.216867469879518,-2.963855421686747,-1.150214592274678,-9.160637645616186,-2.592274678111588,2.0,2.384615384615384,419.35483870967744,0.003496299749432037,0.9328127731484185,-0.05057980304178109,1368.4981684981683,-1.0,95.52424448547275,2.3897688529244476,
2023-08-11 20:28:16.849000,-9.240963855421688,-1.216867469879518,-2.9759036144578315,-1.1305947271612506,-9.160637645616186,-2.570202329858982,2.0,2.384615384615384,419.35483870967744,-0.25674494493327915,0.6060252899015212,0.05524153604102323,1375.8241758241757,-1.0,95.52424448547275,2.389827385181255,
2023-08-11 20:28:16.857000,-9.228915662650603,-1.1927710843373494,-2.963855421686747,-1.1404046597179645,-9.143470263641937,-2.5456774984671977,2.0,2.384615384615384,419.35483870967744,-0.25534642503350563,0.48202319212167166,-0.16094633179884626,1387.5457875457876,-1.0,95.52424448547275,2.3898822369398562,
2023-08-11 20:28:16.865000,-9.216867469879519,-1.180722891566265,-2.9759036144578315,-1.103617412630288,-9.10668301655426,-2.533415082771306,2.0,2.384615384615384,419.35483870967744,-0.04090670706835344,0.1596643552240549,0.1305285239787894,1404.3956043956043,-1.0,95.52424448547275,2.3899334538305133,
2023-08-11 20:28:16.872000,-9.216867469879519,-1.1927710843373494,-2.9759036144578315,-1.1771919068056407,-9.089515634580012,-2.562844880441447,2.0,2.383150183150183,419.61266523209343,-0.4222364664063863,0.5256103956645878,0.2174698444146613,1426.3736263736262,-1.0,95.52424448547275,2.389981082979211,
2023-08-11 20:28:16.880000,-9.216867469879519,-1.180722891566265,-2.987951807228916,-1.1232372777437154,-9.180257510729612,-2.5652973635806253,2.0,2.384615384615384,419.35483870967744,-0.0666627818891669,-0.025056814870928437,0.3220092069226734,1449.084249084249,-1.0,95.52424448547275,2.390025172401647,
2023-08-11 20:28:16.888000,-9.204819277108435,-1.1686746987951808,-2.963855421686747,-1.091354996934396,-9.082158185162477,-2.5383200490496627,2.0,2.383150183150183,419.61266523209343,-0.26432026105704737,-0.1616455917487326,-0.12609987762950892,1473.260073260073,-1.0,95.52424448547275,2.390065770855176,
2023-08-11 20:28:16.895000,-9.228915662650603,-1.180722891566265,-2.951807228915663,-1.0839975475168608,-9.15328019619865,-2.592274678111588,2.0,2.383150183150183,419.61266523209343,0.043936833517860395,-0.17201794767204787,0.13204358720354287,1498.168498168498,-1.0,95.52424448547275,2.3901029278300747,
2023-08-11 20:28:16.903000,-9.228915662650603,-1.2048192771084338,-2.951807228915663,-1.1428571428571428,-9.15328019619865,-2.562844880441447,2.0,2.383150183150183,419.61266523209343,0.02960200454518974,-0.3192121671231272,0.0375269506439018,1521.6117216117216,-1.0,95.52424448547275,2.390136693402381,
2023-08-11 20:28:16.911000,-9.228915662650603,-1.2048192771084338,-2.951807228915663,-1.1183323114653587,-9.126302881667687,-2.5260576333537705,2.0,2.3816849816849817,419.8708089818517,0.12318629450498193,-0.2868131227783922,-0.4504399510518034,1541.3919413919414,-1.0,95.52424448547275,2.3901671185801927,
2023-08-11 20:28:16.918000,-9.216867469879519,-1.2048192771084338,-2.9397590361445785,-1.1183323114653587,-9.114040465971796,-2.599632127529123,2.0,2.3816849816849817,419.8708089818517,0.03216595769477335,0.1602470718489591,0.057106229240720084,1555.311355311355,-1.0,95.52424448547275,2.390194255160521,
2023-08-11 20:28:16.926000,-9.240963855421688,-1.216867469879518,-2.91566265060241,-1.1158798283261802,-9.158185162477007,-2.530962599632127,2.0,2.3816849816849817,419.8708089818517,0.12411864110483035,0.25219975525901783,0.05687314259075841,1560.4395604395604,-1.0,95.52424448547275,2.3902181550269543,
2023-08-11 20:28:16.934000,-9.228915662650603,-1.2048192771084338,-2.9397590361445785,-1.1109748620478233,-9.12139791538933,-2.5652973635806253,2.0,2.3816849816849817,419.8708089818517,0.29089213915273016,0.6641804090670714,-0.050463259716799824,1561.9047619047617,-1.0,95.52424448547275,2.390238870079243,
2023-08-11 20:28:16.941000,-9.240963855421688,-1.2048192771084338,-2.951807228915663,-1.1060698957694666,-9.224402207234824,-2.587369711833231,2.0,2.3816849816849817,419.8708089818517,0.2890274459530333,0.6584697861429982,-0.05023017306683771,1560.4395604395604,-1.0,95.52424448547275,2.3902564526210095,
2023-08-11 20:28:16.949000,-9.228915662650603,-1.2048192771084338,-2.951807228915663,-1.125689760882894,-9.185162477007971,-2.60453709380748,2.0,2.3816849816849817,419.8708089818517,0.18099178369558963,0.6384243342462562,0.04382029019287913,1552.3809523809523,-1.0,95.52424448547275,2.3902709552577397,
2023-08-11 20:28:16.957000,-9.204819277108435,-1.216867469879518,-2.963855421686747,-1.1354996934396075,-9.160637645616186,-2.533415082771306,2.0,2.3816849816849817,419.8708089818517,0.17994289377075864,0.43493968882932177,-0.0023308664996210685,1538.4615384615383,-1.0,95.52424448547275,2.390282430339945,
2023-08-11 20:28:16.964000,-9.19277108433735,-1.1927710843373494,-2.927710843373494,-1.137952176578786,-9.13856529736358,-2.580012262415696,2.0,2.3816849816849817,419.8708089818517,-0.3873900122370485,0.22935726356272876,0.11945690810558822,1524.5421245421244,-1.0,95.52424448547275,2.3902909299345523,
2023-08-11 20:28:16.972000,-9.216867469879519,-1.1927710843373494,-2.963855421686747,-1.137952176578786,-9.118945432250152,-2.5947271612507663,2.0,2.3816849816849817,419.8708089818517,-0.2178194743896051,0.6991434065613901,0.07377192471301224,1509.89010989011,-1.0,95.52424448547275,2.3902965062205745,
2023-08-11 20:28:16.980000,-9.216867469879519,-1.180722891566265,-2.951807228915663,-1.1477621091354997,-9.133660331085224,-2.580012262415696,2.0,2.3816849816849817,419.8708089818517,0.21036070159081596,0.3703746867898134,-0.30744129130004105,1495.970695970696,-1.0,95.52424448547275,2.390299211396044,
2023-08-11 20:28:16.987000,-9.240963855421688,-1.1927710843373494,-2.987951807228916,-1.137952176578786,-9.126302881667687,-2.5775597792765175,2.0,2.3816849816849817,419.8708089818517,-0.08146378416176263,0.3352951459705139,-0.19474389604335393,1483.5164835164835,-1.0,95.52424448547275,2.390299097131004,
2023-08-11 20:28:16.995000,-9.240963855421688,-1.1927710843373494,-2.9759036144578315,-1.1477621091354997,-9.114040465971796,-2.5677498467198037,2.0,2.3816849816849817,419.8708089818517,0.11642678165608127,0.0858924305110431,-0.17318338092185753,1474.7252747252746,-1.0,95.52424448547275,2.3902962145496476,
2023-08-11 20:28:17.003000,-9.253012048192772,-1.1927710843373494,-2.9759036144578315,-1.155119558553035,-9.123850398528509,-2.5898221949724096,2.0,2.3816849816849817,419.8708089818517,-0.0867082337859107,0.20325155876697107,-0.41186411048307187,1466.6666666666665,-1.0,95.52424448547275,2.3902906146376446,
2023-08-11 20:28:17.010000,-9.228915662650603,-1.1927710843373494,-2.9759036144578315,-1.1281422440220723,-9.10668301655426,-2.5947271612507663,2.0,2.3816849816849817,419.8708089818517,0.003146669774489527,0.22446244391352496,-0.09591515645941369,1459.3406593406592,-1.0,95.52424448547275,2.3902823481615294,
2023-08-11 20:28:17.018000,-9.253012048192772,-1.216867469879518,-2.987951807228916,-1.1109748620478233,-9.185162477007971,-2.55793991416309,2.0,2.38021978021978,420.129270544783,0.0451022667676705,0.13787075345259683,-0.2424101159606085,1451.2820512820513,-1.0,95.52424448547275,2.3902714655928636,
2023-08-11 20:28:17.026000,-9.240963855421688,-1.2048192771084338,-2.9759036144578315,-1.1060698957694666,-9.13856529736358,-2.5652973635806253,2.0,2.38021978021978,420.129270544783,0.11549443505623284,0.18507080006992585,-0.12831420080414915,1448.3516483516482,-1.0,95.52424448547275,2.3902580165445175,
2023-08-11 20:28:17.033000,-9.204819277108435,-1.2048192771084338,-2.9759036144578315,-1.1011649294911097,-9.155732679337829,-2.5481299816063765,2.0,2.38021978021978,420.129270544783,-0.01200396247304872,0.09335120330983052,-0.21374045801526717,1450.5494505494505,-1.0,95.52424448547275,2.3902420496322194,
2023-08-11 20:28:17.041000,-9.240963855421688,-1.1927710843373494,-2.9397590361445785,-1.1109748620478233,-9.177805027590434,-2.5187001839362355,2.0,2.38021978021978,420.129270544783,-0.18390536682011577,0.17085251442223603,0.2835499096789232,1451.2820512820513,-1.0,95.52424448547275,2.390223612407482,
2023-08-11 20:28:17.049000,-9.228915662650603,-1.1927710843373494,-2.963855421686747,-1.1526670754138564,-9.136112814224402,-2.582464745554874,2.0,2.38021978021978,420.129270544783,-0.43086067245498555,0.0051279062991672186,0.01153778917312494,1452.014652014652,635.772705078125,94.37334997359957,2.3902027513619455,
2023-08-11 20:28:17.056000,-9.228915662650603,-1.1927710843373494,-2.9397590361445785,-1.0815450643776823,-9.096873083997547,-2.5652973635806253,2.0,2.38021978021978,420.129270544783,-0.15476953557484935,0.03915855719363742,-0.06083561564011423,1452.014652014652,-1.0,94.37334997359957,2.390179512356959,
2023-08-11 20:28:17.064000,-9.19277108433735,-1.1686746987951808,-2.951807228915663,-1.1575720416922133,-9.18270999386879,-2.550582464745555,2.0,2.3787545787545787,420.38805050816137,-0.033564477594545124,-0.0026804964745644456,0.01876347532195112,1449.084249084249,-1.0,94.37334997359957,2.3901539405652934,
2023-08-11 20:28:17.072000,-9.19277108433735,-1.1927710843373494,-2.963855421686747,-1.0643776824034334,-9.072348252605764,-2.5726548129981603,2.0,2.3787545787545787,420.38805050816137,0.18005943709573946,-0.0587378357904544,-0.1152613484062703,1445.4212454212454,-1.0,94.37334997359957,2.3901260799249373,
2023-08-11 20:28:17.079000,-9.216867469879519,-1.1686746987951808,-2.963855421686747,-1.0864500306560392,-9.094420600858369,-2.599632127529123,2.0,2.3787545787545787,420.38805050816137,0.024707184895985928,0.13087815395373276,0.0870578637608532,1443.956043956044,-1.0,94.37334997359957,2.3900959730181546,
2023-08-11 20:28:17.087000,-9.228915662650603,-1.1927710843373494,-2.927710843373494,-1.0987124463519313,-9.150827713059472,-2.5775597792765175,2.0,2.3787545787545787,420.38805050816137,-0.37002505681487086,0.018064215372064367,-0.16968708117242592,1442.4908424908424,-1.0,94.37334997359957,2.3900636610218644,
2023-08-11 20:28:17.095000,-9.253012048192772,-1.1927710843373494,-2.951807228915663,-1.1575720416922133,-9.155732679337829,-2.580012262415696,2.0,2.3787545787545787,420.38805050816137,0.09078725016024691,0.04265485694306946,-0.2872792960783173,1438.8278388278388,-1.0,94.37334997359957,2.390029183729402,
2023-08-11 20:28:17.102000,-9.228915662650603,-1.180722891566265,-2.951807228915663,-1.1575720416922133,-9.160637645616186,-2.580012262415696,2.0,2.3787545787545787,420.38805050816137,-0.029718547870170576,0.2825010197540926,-0.010255812598333136,1430.7692307692307,-1.0,94.37334997359957,2.3899925799974535,
2023-08-11 20:28:17.110000,-9.240963855421688,-1.1927710843373494,-2.9397590361445785,-1.1698344573881054,-9.16799509503372,-2.6241569589209073,2.0,2.3787545787545787,420.38805050816137,-0.10092651943359877,0.10698677233261442,-0.0689936483887884,1419.7802197802198,-1.0,94.37334997359957,2.389953887247206,
2023-08-11 20:28:17.117000,-9.253012048192772,-1.2048192771084338,-2.963855421686747,-1.1404046597179645,-9.158185162477007,-2.6388718577559778,2.0,2.3772893772893777,420.64714946070876,-0.020045451896742058,0.05862129246547356,0.3589534409416697,1411.7216117216117,-1.0,94.37334997359957,2.3899131410374688,
2023-08-11 20:28:17.125000,-9.240963855421688,-1.1927710843373494,-2.9397590361445785,-1.1722869405272838,-9.109135499693439,-2.570202329858982,2.0,2.3787545787545787,420.38805050816137,-8.15803274867591E-4,0.17854437387098687,0.005011362974185948,1405.8608058608058,-1.0,94.37334997359957,2.3898703750960815,
2023-08-11 20:28:17.133000,-9.240963855421688,-1.1927710843373494,-2.9397590361445785,-1.1354996934396075,-9.118945432250152,-2.6020846106683013,2.0,2.3787545787545787,420.38805050816137,0.12808111415418746,0.05629042596585336,0.3532428180175983,1397.8021978021977,-1.0,94.37334997359957,2.3898256217404428,
2023-08-11 20:28:17.140000,-9.204819277108435,-1.216867469879518,-2.951807228915663,-1.1109748620478233,-9.155732679337829,-2.587369711833231,2.0,2.3787545787545787,420.38805050816137,-0.3262047666219913,0.16549152147310714,-0.0804148942369325,1389.7435897435896,-1.0,94.37334997359957,2.3897789124404665,
2023-08-11 20:28:17.148000,-9.228915662650603,-1.216867469879518,-2.951807228915663,-1.125689760882894,-9.116492949110974,-2.562844880441447,2.0,2.3772893772893777,420.64714946070876,-0.04521881009265133,0.03123361109492492,-0.21991725423926364,1381.6849816849815,-1.0,94.37334997359957,2.389730277825677,
2023-08-11 20:28:17.156000,-9.240963855421688,-1.180722891566265,-2.9759036144578315,-1.074187614960147,-9.099325567136725,-2.582464745554874,2.0,2.3772893772893777,420.64714946070876,-0.17831128722102518,0.09719713303420506,0.006642969523920696,1373.6263736263736,-1.0,94.37334997359957,2.389679747171414,
2023-08-11 20:28:17.163000,-9.204819277108435,-1.1927710843373494,-3.0120481927710845,-1.0938074800735744,-9.114040465971796,-2.5481299816063765,2.0,2.3787545787545787,420.38805050816137,0.14835965270089121,-0.0022143231746411,-0.3299341530213859,1369.230769230769,-1.0,94.37334997359957,2.3896273483120787,
2023-08-11 20:28:17.171000,-9.19277108433735,-1.1927710843373494,-3.0,-1.120784794604537,-9.158185162477007,-2.592274678111588,2.0,2.3772893772893777,420.64714946070876,0.0916030534351145,0.2010372355923317,-0.5426257211118234,1369.9633699633698,-1.0,94.37334997359957,2.389573108120098,
2023-08-11 20:28:17.179000,-9.204819277108435,-1.2048192771084338,-2.987951807228916,-1.1722869405272838,-9.118945432250152,-2.560392397302268,2.0,2.3772893772893777,420.64714946070876,-0.13402482372822055,0.19008216304411224,-0.3539420779674842,1373.6263736263736,-1.0,94.37334997359957,2.3895170521447406,
2023-08-11 20:28:17.186000,-9.216867469879519,-1.2048192771084338,-2.927710843373494,-1.1281422440220723,-9.15328019619865,-2.5481299816063765,2.0,2.3772893772893777,420.64714946070876,0.23471825651185765,-0.0654973486393568,-0.24369209253540028,1378.021978021978,-1.0,94.37334997359957,2.3894592045736807,
2023-08-11 20:28:17.194000,-9.228915662650603,-1.180722891566265,-2.9759036144578315,-1.1305947271612506,-9.16799509503372,-2.5554874310239115,2.0,2.375824175824176,420.90656799259943,0.08192995746168598,0.1665404113979364,-0.28692966610337395,1381.6849816849815,-1.0,94.37334997359957,2.389399588233155,
2023-08-11 20:28:17.202000,-9.240963855421688,-1.1927710843373494,-2.9759036144578315,-1.1600245248313916,-9.197424892703863,-2.523605150214592,2.0,2.375824175824176,420.90656799259943,0.12843074412913,0.3372763824951933,-0.08647514713594771,1386.080586080586,-1.0,94.37334997359957,2.389338224626585,
2023-08-11 20:28:17.209000,-9.228915662650603,-1.2048192771084338,-2.987951807228916,-1.1281422440220723,-9.118945432250152,-2.5652973635806253,2.0,2.375824175824176,420.90656799259943,0.09766330633413015,0.21362391469028633,-0.04125633704329595,1388.278388278388,-1.0,94.37334997359957,2.389275133837652,
2023-08-11 20:28:17.217000,-9.228915662650603,-1.1927710843373494,-2.987951807228916,-1.1477621091354997,-9.16799509503372,-2.55793991416309,2.0,2.374358974358975,421.16630669546436,0.09917836955888276,0.20814637841617661,-0.040440533768428356,1386.8131868131868,-1.0,94.37334997359957,2.3892103345755165,
2023-08-11 20:28:17.225000,-9.228915662650603,-1.2048192771084338,-2.963855421686747,-1.1453096259963211,-9.141017780502759,-2.5481299816063765,2.0,2.374358974358975,421.16630669546436,0.037760037293863916,0.1741157275217064,0.07959909096206491,1386.080586080586,-1.0,94.37334997359957,2.389143844646014,
2023-08-11 20:28:17.232000,-9.240963855421688,-1.2289156626506024,-2.9759036144578315,-1.1453096259963211,-9.128755364806867,-2.6266094420600856,2.0,2.374358974358975,421.16630669546436,-0.03950818716857993,-0.010022725948371029,-0.3500961482431092,1388.278388278388,-1.0,94.37334997359957,2.3890756803729833,
2023-08-11 20:28:17.240000,-9.228915662650603,-1.2048192771084338,-2.951807228915663,-1.1526670754138564,-9.128755364806867,-2.599632127529123,2.0,2.375824175824176,420.90656799259943,0.1602470718489591,-0.14696113280111944,-0.4253831361808749,1389.7435897435896,-1.0,94.37334997359957,2.389005856653209,
2023-08-11 20:28:17.248000,-9.204819277108435,-1.216867469879518,-2.951807228915663,-1.1404046597179645,-9.158185162477007,-2.6364193746167994,2.0,2.374358974358975,421.16630669546436,0.2498688887593959,0.1636268282734103,-0.14777693607598616,1388.278388278388,-1.0,94.37334997359957,2.3889343875057003,
2023-08-11 20:28:17.255000,-9.204819277108435,-1.216867469879518,-2.9397590361445785,-1.0987124463519313,-9.155732679337829,-2.5947271612507663,2.0,2.374358974358975,421.16630669546436,0.36827690694015486,0.1496416292756839,-0.42258609638132966,1386.080586080586,-1.0,94.37334997359957,2.3888612857443894,
2023-08-11 20:28:17.263000,-9.228915662650603,-1.216867469879518,-2.963855421686747,-1.1330472103004292,-9.145922746781116,-2.55793991416309,2.0,2.374358974358975,421.16630669546436,0.22621059378824096,0.13775421012761427,0.16048015849892205,1386.080586080586,-1.0,94.37334997359957,2.3887865629717986,
2023-08-11 20:28:17.271000,-9.228915662650603,-1.2048192771084338,-2.963855421686747,-1.1649294911097485,-9.172900061312077,-2.5652973635806253,2.0,2.374358974358975,421.16630669546436,0.29916671522638516,0.5070800069926001,-0.01095507254821989,1385.3479853479853,-1.0,94.37334997359957,2.38871023006738,
2023-08-11 20:28:17.278000,-9.228915662650603,-1.216867469879518,-2.9759036144578315,-1.1526670754138564,-9.209687308399754,-2.611894543225015,2.0,2.374358974358975,421.16630669546436,-0.08659169046092811,0.022259775071383155,-0.0903210768603227,1382.4175824175823,-1.0,94.37334997359957,2.3886322967641953,
2023-08-11 20:28:17.286000,-9.228915662650603,-1.1927710843373494,-3.0,-1.1600245248313916,-9.180257510729612,-2.55793991416309,2.0,2.374358974358975,421.16630669546436,0.036128430744128734,0.15208903910028493,-0.04498572344268966,1376.5567765567764,-1.0,94.37334997359957,2.388552771754616,
2023-08-11 20:28:17.294000,-9.240963855421688,-1.216867469879518,-3.0,-1.1575720416922133,-9.141017780502759,-2.60453709380748,2.0,2.374358974358975,421.16630669546436,-0.07225686148825747,0.1128139385816684,-0.07866674436221649,1371.4285714285713,-1.0,94.37334997359957,2.388471663220801,
2023-08-11 20:28:17.301000,-9.240963855421688,-1.216867469879518,-3.0120481927710845,-1.150214592274678,-9.177805027590434,-2.5358675659104843,2.0,2.372893772893773,421.4263661623958,-0.029718547870170576,-0.01969582192179955,-0.33890798904492764,1365.5677655677655,-1.0,94.37334997359957,2.388388978418711,
2023-08-11 20:28:17.309000,-9.240963855421688,-1.2048192771084338,-2.963855421686747,-1.1134273451870018,-9.16799509503372,-2.609442060085837,2.0,2.372893772893773,421.4263661623958,0.030068177845113085,0.2291241769127671,-0.09428354990967895,1354.5787545787546,-1.0,94.37334997359957,2.3883047237562764,
2023-08-11 20:28:17.317000,-9.216867469879519,-1.1927710843373494,-2.9397590361445785,-1.091354996934396,-9.160637645616186,-2.5677498467198037,2.0,2.372893772893773,421.4263661623958,0.42270263970631133,-0.3175805605733938,0.01107161587320116,1342.1245421245421,-1.0,94.37334997359957,2.3882189047337614,
2023-08-11 20:28:17.324000,-9.240963855421688,-1.216867469879518,-2.987951807228916,-1.1453096259963211,-9.185162477007971,-2.5652973635806253,2.0,2.372893772893773,421.4263661623958,0.4943767845696629,-0.02249286172134483,0.05419264611619396,1334.065934065934,-1.0,94.37334997359957,2.3881315260239346,
2023-08-11 20:28:17.332000,-9.228915662650603,-1.216867469879518,-2.987951807228916,-1.1771919068056407,-9.111587982832617,-2.5652973635806253,2.0,2.3714285714285714,421.6867469879518,0.15395373229998177,-0.0654973486393568,0.007225686148825746,1331.135531135531,-1.0,94.37334997359957,2.3880425920105934,
2023-08-11 20:28:17.340000,-9.204819277108435,-1.2048192771084338,-2.9759036144578315,-1.1870018393623543,-9.145922746781116,-2.6143470263641935,2.0,2.3714285714285714,421.6867469879518,0.27352718373055257,-0.2577938348581084,-0.02645533477070108,1331.8681318681317,-1.0,94.37334997359957,2.387952106344602,
2023-08-11 20:28:17.347000,-9.204819277108435,-1.1927710843373494,-2.9397590361445785,-1.0398528510116491,-9.148375229920294,-2.6069895769466584,2.0,2.3714285714285714,421.6867469879518,0.1185245615057398,0.3108210477244914,-0.04405337684284123,1333.3333333333333,-1.0,94.37334997359957,2.3878600719230048,
2023-08-11 20:28:17.355000,-9.216867469879519,-1.2048192771084338,-2.9759036144578315,-1.1060698957694666,-9.09196811771919,-2.5554874310239115,2.0,2.372893772893773,421.4263661623958,-0.2336693665870284,0.08239613076161106,0.15313792902511505,1336.263736263736,-1.0,94.37334997359957,2.387766491394955,
2023-08-11 20:28:17.363000,-9.216867469879519,-1.2048192771084338,-2.963855421686747,-1.1477621091354997,-9.096873083997547,-2.592274678111588,2.0,2.3714285714285714,421.6867469879518,-0.018880018646931958,0.054425732766156504,-0.09486626653458399,1341.3919413919414,-1.0,94.37334997359957,2.3876713677039185,
2023-08-11 20:28:17.370000,-9.204819277108435,-1.1927710843373494,-2.951807228915663,-1.179644389944819,-9.145922746781116,-2.587369711833231,2.0,2.36996336996337,421.94744976816077,-0.26408717440708573,-0.04953091311695096,-0.0037293863993941435,1344.3223443223442,-1.0,94.37334997359957,2.387574703717959,
2023-08-11 20:28:17.378000,-9.216867469879519,-1.2048192771084338,-2.963855421686747,-1.1404046597179645,-9.180257510729612,-2.587369711833231,2.0,2.36996336996337,421.94744976816077,-0.18600314666977427,-0.3046442515004949,-0.31093759104947266,1345.7875457875457,-1.0,94.37334997359957,2.387476501722213,
2023-08-11 20:28:17.386000,-9.228915662650603,-1.2048192771084338,-2.951807228915663,-1.1109748620478233,-9.180257510729612,-2.580012262415696,2.0,2.36996336996337,421.94744976816077,0.18425499679505827,-0.1610628751238267,0.4541693374511971,1347.985347985348,-1.0,94.37334997359957,2.387376763332615,
2023-08-11 20:28:17.393000,-9.240963855421688,-1.2048192771084338,-2.9397590361445785,-1.137952176578786,-9.13856529736358,-2.582464745554874,2.0,2.36996336996337,421.94744976816077,-0.0779674844123306,-0.43214264902977645,0.2047666219917254,1350.18315018315,-1.0,94.37334997359957,2.387275489580808,
2023-08-11 20:28:17.401000,-9.253012048192772,-1.2048192771084338,-2.963855421686747,-1.1060698957694666,-9.148375229920294,-2.553034947884733,2.0,2.36996336996337,421.94744976816077,0.2724782938057216,-0.3041780782005716,0.21677058446477498,1355.3113553113553,-1.0,94.37334997359957,2.38717268145404,
2023-08-11 20:28:17.409000,-9.253012048192772,-1.1927710843373494,-2.963855421686747,-1.049662783568363,-9.199877375843041,-2.560392397302268,2.0,2.36996336996337,421.94744976816077,-0.11024998543208478,-0.29532078550201063,0.1065205990326902,1360.4395604395604,-1.0,94.37334997359957,2.3870683394841055,
2023-08-11 20:28:17.416000,-9.228915662650603,-1.2048192771084338,-2.91566265060241,-1.1232372777437154,-9.180257510729612,-2.5947271612507663,2.0,2.36996336996337,421.94744976816077,-0.02925237457024723,-0.19952217236757736,-0.3697919701649088,1364.102564102564,-1.0,94.37334997359957,2.3869624638608413,
2023-08-11 20:28:17.424000,-9.240963855421688,-1.2048192771084338,-2.963855421686747,-1.0864500306560392,-9.165542611894542,-2.528510116492949,2.0,2.36996336996337,421.94744976816077,-0.1794767204708353,0.24963580210943423,-0.10978381213216014,1367.032967032967,-1.0,94.37334997359957,2.3868550549660466,
2023-08-11 20:28:17.432000,-9.265060240963855,-1.216867469879518,-2.9759036144578315,-1.0668301655426118,-9.18761496014715,-2.6020846106683013,2.0,2.36996336996337,421.94744976816077,-0.17236757764699037,-0.024124468271080012,-0.00396247304935625,1365.5677655677655,-1.0,94.37334997359957,2.3867461134145995,
2023-08-11 20:28:17.439000,-9.253012048192772,-1.2048192771084338,-2.987951807228916,-1.1453096259963211,-9.160637645616186,-2.5554874310239115,2.0,2.36996336996337,421.94744976816077,0.12237049123011434,0.3450847852689233,-0.15919818192413027,1361.1721611721612,-1.0,94.37334997359957,2.386635640095365,
2023-08-11 20:28:17.447000,-9.228915662650603,-1.2289156626506024,-2.9759036144578315,-1.1330472103004292,-9.143470263641937,-2.5726548129981603,2.0,2.36996336996337,421.94744976816077,0.07785094108734976,0.26898199405629125,-0.2058155119165551,1361.1721611721612,-1.0,94.37334997359957,2.386523636211776,
2023-08-11 20:28:17.455000,-9.204819277108435,-1.2048192771084338,-2.951807228915663,-1.1134273451870018,-9.10668301655426,-2.5358675659104843,2.0,2.36996336996337,421.94744976816077,0.13973544665229368,0.4991550608938876,0.02272594837130737,1364.102564102564,-1.0,94.37334997359957,2.3864101033220853,
2023-08-11 20:28:17.462000,-9.19277108433735,-1.2048192771084338,-2.951807228915663,-1.1232372777437154,-9.15328019619865,-2.5137952176578784,2.0,2.36996336996337,421.94744976816077,0.2611735912825596,0.3333139094458362,-0.17633005069634664,1366.3003663003662,-1.0,94.37334997359957,2.3862950429213323,
2023-08-11 20:28:17.470000,-9.204819277108435,-1.1927710843373494,-2.963855421686747,-1.1011649294911097,-9.101778050275904,-2.6069895769466584,2.0,2.368498168498168,422.20847510052585,0.22982343686265383,0.10628751238272767,-0.1769127673212517,1366.3003663003662,-1.0,94.37334997359957,2.3861784565479747,
2023-08-11 20:28:17.478000,-9.19277108433735,-1.180722891566265,-2.9759036144578315,-1.1232372777437154,-9.072348252605764,-2.60453709380748,2.0,2.368498168498168,422.20847510052585,0.19835673911776724,0.01992890857176122,-0.13204358720354287,1363.3699633699632,-1.0,94.37334997359957,2.386060345818526,
2023-08-11 20:28:17.485000,-9.216867469879519,-1.1686746987951808,-2.963855421686747,-1.1624770079705702,-9.143470263641937,-2.5947271612507663,2.0,2.368498168498168,422.20847510052585,0.06235067886486727,0.11631023833110044,-0.6211759221490586,1357.5091575091574,-1.0,94.37334997359957,2.3859407123901417,
2023-08-11 20:28:17.493000,-9.228915662650603,-1.1927710843373494,-2.963855421686747,-1.091354996934396,-9.136112814224402,-2.575107296137339,2.0,2.368498168498168,422.20847510052585,0.0640988287395833,0.12120505798030425,-0.6169803624497406,1349.4505494505493,-1.0,94.37334997359957,2.3858195584478534,
2023-08-11 20:28:17.500000,-9.228915662650603,-1.1927710843373494,-3.0,-1.1281422440220723,-9.163090128755364,-2.5898221949724096,2.0,2.368498168498168,422.20847510052585,0.18588660334479346,0.10826874890740709,-0.6890041372880369,1344.3223443223442,-1.0,94.37334997359957,2.3856968867334643,
2023-08-11 20:28:17.508000,-9.253012048192772,-1.216867469879518,-3.0,-1.1624770079705702,-9.190067443286328,-2.6535867565910483,2.0,2.368498168498168,422.20847510052585,-0.27189557718081736,0.49274517801992945,-0.8838645766563721,1342.1245421245421,-1.0,94.37334997359957,2.3855727005739866,
2023-08-11 20:28:17.516000,-9.265060240963855,-1.2409638554216869,-3.024096385542169,-1.1624770079705702,-9.219497240956468,-2.599632127529123,2.0,2.368498168498168,422.20847510052585,-0.4675718198240202,0.4730493560981299,-0.7556669191772037,1345.054945054945,-1.0,94.37334997359957,2.3854470039096554,
2023-08-11 20:28:17.523000,-9.253012048192772,-1.216867469879518,-3.024096385542169,-1.1428571428571428,-9.214592274678111,-2.6486817903126916,2.0,2.367032967032967,422.4698235840297,-0.27947089330458563,0.34718256511858353,-0.5813181050055362,1344.3223443223442,-1.0,94.37334997359957,2.385319801321544,
2023-08-11 20:28:17.531000,-9.228915662650603,-1.2289156626506024,-3.024096385542169,-1.1232372777437154,-9.160637645616186,-2.6781115879828326,2.0,2.367032967032967,422.4698235840297,-0.2781889167297947,0.6176796223996274,-0.28553114620360126,1347.985347985348,-1.0,94.37334997359957,2.385191098024036,
2023-08-11 20:28:17.539000,-9.228915662650603,-1.2289156626506024,-3.024096385542169,-1.150214592274678,-9.136112814224402,-2.6830165542611892,2.0,2.367032967032967,422.4698235840297,-0.582017364955422,0.8551949187110304,-0.5611561097838119,1356.7765567765566,-1.0,94.37334997359957,2.385060899294446,
2023-08-11 20:28:17.546000,-9.180722891566266,-1.2048192771084338,-3.024096385542169,-1.1011649294911097,-9.172900061312077,-2.6143470263641935,2.0,2.367032967032967,422.4698235840297,-0.6388905075461796,0.5856302080298349,-0.5865625546296838,1368.4981684981683,-1.0,94.37334997359957,2.3849292105308764,
2023-08-11 20:28:17.554000,-9.19277108433735,-1.2289156626506024,-3.036144578313253,-1.1011649294911097,-9.096873083997547,-2.609442060085837,2.0,2.367032967032967,422.4698235840297,-0.6032282501019759,0.48470368859623614,-0.3210768603228254,1383.150183150183,-1.0,94.37334997359957,2.3847960373066392,
2023-08-11 20:28:17.562000,-9.180722891566266,-1.216867469879518,-2.9759036144578315,-1.1600245248313916,-9.087063151440834,-2.533415082771306,2.0,2.367032967032967,422.4698235840297,-0.6756016549152142,-0.01281976574791631,-0.36233319736612135,1400.7326007326005,-1.0,94.37334997359957,2.3846613854563556,
2023-08-11 20:28:17.569000,-9.180722891566266,-1.2048192771084338,-2.951807228915663,-1.125689760882894,-9.10668301655426,-2.5260576333537705,2.0,2.367032967032967,422.4698235840297,-1.0547170910786077,-0.2742264436804376,-0.06712895518909111,1419.047619047619,-1.0,94.37334997359957,2.3845252615825303,
2023-08-11 20:28:17.577000,-9.180722891566266,-1.2048192771084338,-2.951807228915663,-1.125689760882894,-9.148375229920294,-2.530962599632127,2.0,2.367032967032967,422.4698235840297,-1.0782588427247835,-0.6141833226501954,-0.5075461802925239,1437.3626373626373,-1.0,94.37334997359957,2.384387673069545,
2023-08-11 20:28:17.585000,-9.228915662650603,-1.2048192771084338,-2.9397590361445785,-1.155119558553035,-9.126302881667687,-2.523605150214592,2.0,2.367032967032967,422.4698235840297,-0.9794301031408432,-0.8886428529805963,-0.04440300681778504,1457.8754578754579,-1.0,94.37334997359957,2.3842486280978155,
2023-08-11 20:28:17.592000,-9.240963855421688,-1.1927710843373494,-2.91566265060241,-1.1330472103004292,-9.185162477007971,-2.489270386266094,2.0,2.365567765567765,422.73149581913907,-0.8197657479167884,-1.499796049181283,-0.23856418623623307,1476.923076923077,-1.0,94.37334997359957,2.3841081356582485,
2023-08-11 20:28:17.600000,-9.253012048192772,-1.180722891566265,-2.9036144578313254,-1.1281422440220723,-9.126302881667687,-2.5113427345187,2.0,2.365567765567765,422.73149581913907,-0.783520773847677,-1.3436279937066602,-0.3422877454693784,1496.7032967032967,-1.0,94.37334997359957,2.3839662050743966,
2023-08-11 20:28:17.608000,-9.265060240963855,-1.1927710843373494,-2.9036144578313254,-1.091354996934396,-9.116492949110974,-2.5113427345187,2.0,2.365567765567765,422.73149581913907,-0.4117475671580902,-0.6978614299865974,-0.8088106753685684,1513.5531135531135,-1.0,94.37334997359957,2.383822845945549,
2023-08-11 20:28:17.615000,-9.265060240963855,-1.2048192771084338,-2.9036144578313254,-1.179644389944819,-9.18761496014715,-2.5064377682403434,2.0,2.365567765567765,422.73149581913907,-0.17959326379581614,-0.3788823495134318,-0.6630149758172604,1525.2747252747251,-1.0,94.37334997359957,2.383678068614857,
2023-08-11 20:28:17.623000,-9.27710843373494,-1.216867469879518,-2.91566265060241,-1.1281422440220723,-9.244022072348253,-2.530962599632127,2.0,2.365567765567765,422.73149581913907,-0.22411281393858243,0.6095215896509533,-0.365246780490647,1530.4029304029302,-1.0,94.37334997359957,2.3835318841795843,
2023-08-11 20:28:17.631000,-9.240963855421688,-1.216867469879518,-2.91566265060241,-1.1158798283261802,-9.10668301655426,-2.523605150214592,2.0,2.364102564102564,422.99349240780913,0.18914981644426382,0.9652118174931534,-0.2992832585513669,1532.6007326007325,-1.0,94.37334997359957,2.3833843045014387,
2023-08-11 20:28:17.638000,-9.228915662650603,-1.2289156626506024,-2.9397590361445785,-1.1575720416922133,-9.104230533415082,-2.528510116492949,2.0,2.365567765567765,422.73149581913907,0.23378590991200923,1.8223879727288614,-0.5235126158149292,1531.135531135531,-1.0,94.37334997359957,2.3832353417244,
2023-08-11 20:28:17.646000,-9.204819277108435,-1.2289156626506024,-2.9397590361445785,-1.1477621091354997,-9.136112814224402,-2.5088902513795217,2.0,2.364102564102564,422.99349240780913,0.27772274342986963,1.988112580851932,-0.21140959151564567,1526.7399267399267,-1.0,94.37334997359957,2.3830850087059545,
2023-08-11 20:28:17.654000,-9.204819277108435,-1.2530120481927711,-2.963855421686747,-1.213979153893317,-9.15328019619865,-2.5456774984671977,2.0,2.364102564102564,422.99349240780913,0.20115377891731254,1.741273818542043,-0.42060485985665197,1516.4835164835163,-1.0,94.37334997359957,2.382933319059996,
2023-08-11 20:28:17.661000,-9.204819277108435,-1.2289156626506024,-2.9759036144578315,-1.1649294911097485,-9.12139791538933,-2.60453709380748,2.0,2.364102564102564,422.99349240780913,0.15476953557484935,1.2684575490938748,-0.44694365130237135,1506.227106227106,-1.0,94.37334997359957,2.382780286637617,
2023-08-11 20:28:17.669000,-9.204819277108435,-1.2289156626506024,-2.987951807228916,-1.213979153893317,-9.148375229920294,-2.540772532188841,2.0,2.364102564102564,422.99349240780913,0.15465299224986853,0.7980886894703111,-0.5477536274109901,1495.2380952380952,-1.0,94.37334997359957,2.38262592599076,
2023-08-11 20:28:17.677000,-9.204819277108435,-1.2530120481927711,-2.951807228915663,-1.1771919068056407,-9.104230533415082,-2.633966891477621,2.0,2.3626373626373627,423.25581395348837,-0.16607423809801306,0.5602237631839639,-0.5256103956645887,1482.7838827838827,-1.0,94.37334997359957,2.3824702523779266,
2023-08-11 20:28:17.684000,-9.204819277108435,-1.2409638554216869,-3.0120481927710845,-1.1158798283261802,-9.13856529736358,-2.611894543225015,2.0,2.3626373626373627,423.25581395348837,0.15686731542450963,0.09463317988462146,-0.6091719596760099,1471.062271062271,-1.0,94.37334997359957,2.382313281735099,
2023-08-11 20:28:17.692000,-9.216867469879519,-1.2409638554216869,-3.0481927710843375,-1.1477621091354997,-9.15328019619865,-2.6388718577559778,2.0,2.3626373626373627,423.25581395348837,0.033797564244508534,0.3031291882757423,-0.4650078666744357,1460.07326007326,-1.0,94.37334997359957,2.3821550305421213,
2023-08-11 20:28:17.700000,-9.253012048192772,-1.2650602409638554,-3.060240963855422,-1.2458614347026364,-9.123850398528509,-2.6609442060085837,2.0,2.3626373626373627,423.25581395348837,-0.1491754559757588,0.8593904784103491,-0.9790804731658999,1450.5494505494505,-1.0,94.37334997359957,2.3819955157925965,
2023-08-11 20:28:17.707000,-9.228915662650603,-1.2891566265060241,-3.072289156626506,-1.2017167381974247,-9.126302881667687,-2.6903740036787247,2.0,2.3626373626373627,423.25581395348837,-0.08729095041081487,0.9833925761901987,-0.7229182448575258,1440.2930402930401,-1.0,94.37334997359957,2.3818347549975787,
2023-08-11 20:28:17.715000,-9.240963855421688,-1.3012048192771084,-3.060240963855422,-1.2164316370324952,-9.143470263641937,-2.6952789699570814,2.0,2.3626373626373627,423.25581395348837,-0.39146902861138644,1.167647572985257,-1.1724258493094804,1433.6996336996335,-1.0,94.37334997359957,2.3816727657304417,
2023-08-11 20:28:17.723000,-9.216867469879519,-1.2891566265060241,-3.0481927710843375,-1.231146535867566,-9.131207847946046,-2.6388718577559778,2.0,2.3626373626373627,423.25581395348837,-0.5104597634170496,1.01322766738535,-0.9924829555387217,1431.5018315018315,674.072265625,89.0112278160087,2.3815095656960517,
2023-08-11 20:28:17.730000,-9.216867469879519,-1.2891566265060241,-3.0481927710843375,-1.1771919068056407,-9.118945432250152,-2.6486817903126916,2.0,2.3626373626373627,423.25581395348837,-0.4899481382203842,0.9069401550026224,-1.197249577530447,1432.9670329670328,-1.0,89.0112278160087,2.3813451736782283,
2023-08-11 20:28:17.738000,-9.19277108433735,-1.3012048192771084,-3.036144578313253,-1.260576333537707,-9.133660331085224,-2.6069895769466584,2.0,2.3626373626373627,423.25581395348837,-0.6082396130761606,0.5745585921566346,-0.3745702464891322,1431.5018315018315,-1.0,89.0112278160087,2.3811796090115713,
2023-08-11 20:28:17.746000,-9.180722891566266,-1.2530120481927711,-2.987951807228916,-1.2409564684242795,-9.114040465971796,-2.5947271612507663,2.0,2.361172161172161,423.51846106112316,-1.0643901870520363,0.4298117825301563,-0.45918070042538345,1430.7692307692307,-1.0,89.0112278160087,2.3810128916153523,
2023-08-11 20:28:17.753000,-9.168674698795181,-1.216867469879518,-2.9397590361445785,-1.1330472103004292,-9.141017780502759,-2.5064377682403434,2.0,2.361172161172161,423.51846106112316,-1.1481848377134207,-0.17166831769710364,-0.4246838762309891,1426.3736263736262,-1.0,89.0112278160087,2.3808450419230374,
2023-08-11 20:28:17.761000,-9.168674698795181,-1.1927710843373494,-2.927710843373494,-1.1600245248313916,-9.06008583690987,-2.5554874310239115,2.0,2.361172161172161,423.51846106112316,-1.123361109492454,-0.5405279412621644,-0.23681603636151705,1421.9780219780218,-1.0,89.0112278160087,2.3806760798610194,
2023-08-11 20:28:17.769000,-9.180722891566266,-1.1927710843373494,-2.9397590361445785,-1.1575720416922133,-9.13856529736358,-2.481912936848559,2.0,2.361172161172161,423.51846106112316,-1.1159023366936667,-0.5392459646873717,-0.23285356331216167,1419.047619047619,-1.0,89.0112278160087,2.3805060253695265,
2023-08-11 20:28:17.776000,-9.228915662650603,-1.1927710843373494,-2.9036144578313254,-1.1354996934396075,-9.177805027590434,-2.491722869405273,2.0,2.361172161172161,423.51846106112316,-0.9233727638249516,-0.8274576073655374,-0.5190839694656488,1415.3846153846152,-1.0,89.0112278160087,2.3803348988861406,
2023-08-11 20:28:17.784000,-9.253012048192772,-1.1927710843373494,-2.9036144578313254,-1.125689760882894,-9.177805027590434,-2.528510116492949,2.0,2.361172161172161,423.51846106112316,-1.2984091836140088,-0.9295495600489481,-0.15978089854903574,1412.4542124542124,-1.0,89.0112278160087,2.3801627213368093,
2023-08-11 20:28:17.792000,-9.27710843373494,-1.1927710843373494,-2.9397590361445785,-1.1698344573881054,-9.165542611894542,-2.5358675659104843,2.0,2.361172161172161,423.51846106112316,-1.0756948895751999,-0.4528873608764053,-0.6271196317230934,1405.8608058608058,-1.0,89.0112278160087,2.3799895141271676,
2023-08-11 20:28:17.799000,-9.265060240963855,-1.2048192771084338,-2.927710843373494,-1.1526670754138564,-9.165542611894542,-2.5849172286940525,2.0,2.3597069597069598,423.78143433716235,-1.480449857234426,0.44577821805256035,-1.07686032282501,1397.8021978021977,-1.0,89.0112278160087,2.3798152995921718,
2023-08-11 20:28:17.807000,-9.265060240963855,-1.2289156626506024,-2.963855421686747,-1.1477621091354997,-9.160637645616186,-2.5432250153280194,2.0,2.361172161172161,423.51846106112316,-1.0275624963580208,1.1575083037119052,-1.1577413903618672,1390.4761904761904,-1.0,89.0112278160087,2.379640099970655,
2023-08-11 20:28:17.815000,-9.228915662650603,-1.2530120481927711,-3.024096385542169,-1.150214592274678,-9.197424892703863,-2.6315144083384427,2.0,2.361172161172161,423.51846106112316,-1.279412621642096,1.9843831944525383,-1.1463201445137234,1383.150183150183,-1.0,89.0112278160087,2.3794639373977424,
2023-08-11 20:28:17.822000,-9.240963855421688,-1.2650602409638554,-3.024096385542169,-1.1624770079705702,-9.099325567136725,-2.5947271612507663,2.0,2.3597069597069598,423.78143433716235,-1.176971038983743,2.7919118932463145,-1.3653050521531378,1375.8241758241757,-1.0,89.0112278160087,2.3792868353731333,
2023-08-11 20:28:17.830000,-9.204819277108435,-1.2891566265060241,-3.024096385542169,-1.2581238503985284,-9.145922746781116,-2.658491722869405,2.0,2.3582417582417583,424.04473438956194,-1.2126332964279465,3.0872326787483253,-1.4597051453877985,1364.8351648351647,-1.0,89.0112278160087,2.379108817279042,
2023-08-11 20:28:17.838000,-9.19277108433735,-1.2530120481927711,-3.036144578313253,-1.2188841201716738,-9.06008583690987,-2.60453709380748,2.0,2.3582417582417583,424.04473438956194,-1.048540294854613,2.8174348814171664,-1.2655439659693497,1358.2417582417581,-1.0,89.0112278160087,2.3789299058467734,
2023-08-11 20:28:17.845000,-9.168674698795181,-1.2771084337349399,-3.036144578313253,-1.2115266707541386,-9.089515634580012,-2.6879215205395464,2.0,2.3582417582417583,424.04473438956194,-1.512266184954257,2.5515995571353645,-1.5711205640696935,1353.113553113553,-1.0,89.0112278160087,2.3787501239575257,
2023-08-11 20:28:17.853000,-9.120481927710843,-1.2771084337349399,-3.0481927710843375,-1.1747394236664623,-9.084610668301655,-2.582464745554874,2.0,2.3582417582417583,424.04473438956194,-1.7891731251092589,2.047782763242235,-1.4500320494143704,1350.9157509157508,-1.0,89.0112278160087,2.3785694945967286,
2023-08-11 20:28:17.860000,-9.144578313253012,-1.2771084337349399,-3.0481927710843375,-1.1943592887798895,-9.069895769466584,-2.6903740036787247,2.0,2.3582417582417583,424.04473438956194,-1.7299691160188795,1.1024998543208444,-1.4205465881941615,1351.6483516483515,-1.0,89.0112278160087,2.378388040842746,
2023-08-11 20:28:17.868000,-9.168674698795181,-1.2891566265060241,-3.0481927710843375,-1.231146535867566,-9.074800735744942,-2.6560392397302266,2.0,2.3582417582417583,424.04473438956194,-2.327603286521765,0.43820290192879213,-1.270671872268516,1354.5787545787546,-1.0,89.0112278160087,2.378205785855321,
2023-08-11 20:28:17.876000,-9.168674698795181,-1.3012048192771084,-3.0843373493975905,-1.2286940527283874,-9.079705702023299,-2.6437768240343344,2.0,2.3597069597069598,423.78143433716235,-2.4151273235825412,-0.11665986830604294,-1.2570363032457312,1358.2417582417581,-1.0,89.0112278160087,2.378022752863907,
2023-08-11 20:28:17.883000,-9.180722891566266,-1.3012048192771084,-3.072289156626506,-1.1992642550582464,-9.104230533415082,-2.6732066217044754,2.0,2.3582417582417583,424.04473438956194,-2.749023949653285,-0.8172017947672048,-1.5633121612959622,1360.4395604395604,-1.0,89.0112278160087,2.377838965648718,
2023-08-11 20:28:17.891000,-9.19277108433735,-1.313253012048193,-3.036144578313253,-1.2360515021459226,-9.116492949110974,-2.6952789699570814,2.0,2.3582417582417583,424.04473438956194,-3.1691626362100114,-1.1807004253831366,-1.4083095390711498,1358.974358974359,-1.0,89.0112278160087,2.3776544481088773,
2023-08-11 20:28:17.899000,-9.19277108433735,-1.3253012048192772,-3.036144578313253,-1.2188841201716738,-9.143470263641937,-2.6609442060085837,2.0,2.3582417582417583,424.04473438956194,-3.4805664005594084,-0.7485577763533602,-1.5172775479284428,1358.974358974359,-1.0,89.0112278160087,2.377469223726939,
2023-08-11 20:28:17.906000,-9.228915662650603,-1.3253012048192772,-3.072289156626506,-1.331698344573881,-9.145922746781116,-2.6560392397302266,2.0,2.3582417582417583,424.04473438956194,-3.6344035895344096,-0.640405570770934,-1.7302022026688428,1361.1721611721612,-1.0,89.0112278160087,2.3772833160169853,
2023-08-11 20:28:17.914000,-9.204819277108435,-1.313253012048193,-3.036144578313253,-1.2286940527283874,-9.064990803188227,-2.633966891477621,2.0,2.3582417582417583,424.04473438956194,-4.000699259949885,-0.5037002505681489,-1.5145970514538787,1364.102564102564,-1.0,89.0112278160087,2.3770967485155703,
2023-08-11 20:28:17.922000,-9.204819277108435,-1.349397590361446,-3.036144578313253,-1.2434089515634579,-9.177805027590434,-2.6069895769466584,2.0,2.3582417582417583,424.04473438956194,-4.103723559233146,0.10547170910786008,-1.3653050521531374,1367.032967032967,-1.0,89.0112278160087,2.3769095447735795,
2023-08-11 20:28:17.929000,-9.180722891566266,-1.3373493975903614,-3.0481927710843375,-1.2581238503985284,-9.09196811771919,-2.65113427345187,2.0,2.356776556776557,424.30836182778984,-4.557543266709401,-0.3553405978672577,-1.5338267000757542,1367.7655677655678,-1.0,89.0112278160087,2.3767217283491675,
2023-08-11 20:28:17.937000,-9.180722891566266,-1.3253012048192772,-3.036144578313253,-1.1870018393623543,-9.101778050275904,-2.621704475781729,2.0,2.356776556776557,424.30836182778984,-4.838995396538665,-0.4302779558300796,-1.3803391410756958,1369.230769230769,-1.0,89.0112278160087,2.3765333223092453,
2023-08-11 20:28:17.945000,-9.180722891566266,-1.3253012048192772,-3.024096385542169,-1.2826486817903127,-9.064990803188227,-2.611894543225015,2.0,2.3582417582417583,424.04473438956194,-5.040382262105939,-0.5625546296835842,-1.7172658935959435,1369.230769230769,-1.0,89.0112278160087,2.376344349152862,
2023-08-11 20:28:17.952000,-9.180722891566266,-1.3373493975903614,-3.0481927710843375,-1.2826486817903127,-9.047823421213979,-2.6486817903126916,2.0,2.356776556776557,424.30836182778984,-5.087232678748325,-1.0143931006351619,-1.4102907755958272,1366.3003663003662,-1.0,89.0112278160087,2.376154831753301,
2023-08-11 20:28:17.960000,-9.168674698795181,-1.3373493975903614,-3.0120481927710845,-1.2752912323727774,-9.067443286327405,-2.616799509503372,2.0,2.356776556776557,424.30836182778984,-5.103665287570653,-1.5544548685974011,-1.6849833925761906,1360.4395604395604,-1.0,89.0112278160087,2.3759647933881,
2023-08-11 20:28:17.968000,-9.156626506024097,-1.313253012048193,-3.024096385542169,-1.290006131207848,-9.0453709380748,-2.6143470263641935,2.0,2.356776556776557,424.30836182778984,-5.805955363906531,-1.4628518151622867,-1.8223879727288623,1354.5787545787546,-1.0,89.0112278160087,2.3757742566833295,
2023-08-11 20:28:17.975000,-9.168674698795181,-1.3373493975903614,-3.0120481927710845,-1.2581238503985284,-9.10668301655426,-2.722256284488044,2.0,2.356776556776557,424.30836182778984,-6.034962997494317,-1.676592273177554,-1.6391818658586335,1349.4505494505493,-1.0,89.0112278160087,2.3755832436462474,
2023-08-11 20:28:17.983000,-9.19277108433735,-1.3373493975903614,-3.024096385542169,-1.2434089515634579,-9.057633353770692,-2.6192519926425506,2.0,2.353846153846154,424.83660130718954,-5.958627119631721,-1.8445312044752638,-1.730784919293748,1344.3223443223442,-1.0,89.0112278160087,2.37539177615477,
2023-08-11 20:28:17.991000,-9.180722891566266,-1.349397590361446,-3.0481927710843375,-1.2581238503985284,-9.143470263641937,-2.6388718577559778,2.0,2.355311355311355,424.5723172628305,-6.218169104364546,-1.9514014334828973,-1.8834566750189388,1343.5897435897434,-1.0,89.0112278160087,2.3751998758863424,
2023-08-11 20:28:17.998000,-9.204819277108435,-1.349397590361446,-3.0120481927710845,-1.2679337829552422,-9.087063151440834,-2.6560392397302266,2.0,2.355311355311355,424.5723172628305,-6.599848493677523,-1.9055999067653402,-1.6239146902861143,1345.054945054945,-1.0,89.0112278160087,2.3750075640741746,
2023-08-11 20:28:18.006000,-9.19277108433735,-1.3373493975903614,-3.036144578313253,-1.2532188841201717,-9.165542611894542,-2.6437768240343344,2.0,2.355311355311355,424.5723172628305,-7.225802692150805,-2.1956762426432026,-1.7155177437212288,1347.985347985348,-1.0,89.0112278160087,2.3748148615767715,
2023-08-11 20:28:18.014000,-9.228915662650603,-1.3373493975903614,-3.036144578313253,-1.2532188841201717,-9.109135499693439,-2.6609442060085837,2.0,2.355311355311355,424.5723172628305,-7.31740574558592,-1.9208670823378593,-1.8529223238739005,1351.6483516483515,-1.0,89.0112278160087,2.3746217889132755,
2023-08-11 20:28:18.021000,-9.216867469879519,-1.3253012048192772,-3.060240963855422,-1.2409564684242795,-9.13856529736358,-2.6486817903126916,2.0,2.355311355311355,424.5723172628305,-7.424275974593553,-2.088806013635569,-1.8376551483013814,1356.7765567765566,-1.0,89.0112278160087,2.374428365807104,
2023-08-11 20:28:18.029000,-9.204819277108435,-1.3253012048192772,-3.024096385542169,-1.2335990190067443,-9.07725321888412,-2.670754138565297,2.0,2.355311355311355,424.5723172628305,-7.760153837188973,-2.4552182273760272,-1.9292582017364959,1359.7069597069597,-1.0,89.0112278160087,2.374234611713731,
2023-08-11 20:28:18.037000,-9.19277108433735,-1.349397590361446,-3.060240963855422,-1.2507664009809931,-9.123850398528509,-2.658491722869405,2.0,2.353846153846154,424.83660130718954,-8.233436279937065,-2.6536915098187754,-1.761319270438786,1360.4395604395604,-1.0,89.0112278160087,2.374040546245757,
2023-08-11 20:28:18.044000,-9.204819277108435,-1.3253012048192772,-3.0481927710843375,-1.2188841201716738,-9.072348252605764,-2.6781115879828326,2.0,2.355311355311355,424.5723172628305,-8.233436279937065,-2.6536915098187754,-1.761319270438786,1360.4395604395604,-1.0,89.0112278160087,2.373846188193621,
2023-08-11 20:28:18.052000,-9.19277108433735,-1.313253012048193,-3.072289156626506,-1.3218884120171672,-9.055180870631514,-2.670754138565297,2.0,2.353846153846154,424.83660130718954,-8.569314142532484,-2.4857525785210655,-2.295670415476954,1360.4395604395604,-1.0,89.0112278160087,2.37365155595372,
2023-08-11 20:28:18.060000,-9.156626506024097,-1.3373493975903614,-3.060240963855422,-1.2335990190067443,-9.109135499693439,-2.6658491722869404,2.0,2.353846153846154,424.83660130718954,-8.538779791387446,-2.394149525085951,-2.5704795757822976,1359.7069597069597,-1.0,89.0112278160087,2.3734566675696027,
2023-08-11 20:28:18.067000,-9.180722891566266,-1.3373493975903614,-3.072289156626506,-1.3071735131820967,-9.09196811771919,-2.6903740036787247,2.0,2.353846153846154,424.83660130718954,-9.164733989860729,-2.1956762426432026,-2.5399452246372594,1357.5091575091574,-1.0,89.0112278160087,2.3732615402125368,
2023-08-11 20:28:18.075000,-9.180722891566266,-1.3373493975903614,-3.0481927710843375,-1.25567136725935,-9.069895769466584,-2.6854690374003676,2.0,2.353846153846154,424.83660130718954,-9.13419963871569,-1.9819357846279355,-2.7078841559349693,1355.3113553113553,-1.0,89.0112278160087,2.3730661906464467,
2023-08-11 20:28:18.083000,-9.180722891566266,-1.3253012048192772,-3.060240963855422,-1.260576333537707,-9.038013488657265,-2.6952789699570814,2.0,2.353846153846154,424.83660130718954,-9.943359944059202,-2.1651418914981644,-2.6315482780723736,1356.0439560439559,-1.0,89.0112278160087,2.3728706352365143,
2023-08-11 20:28:18.090000,-9.180722891566266,-1.3253012048192772,-3.0481927710843375,-1.2409564684242795,-9.094420600858369,-2.6266094420600856,2.0,2.353846153846154,424.83660130718954,-10.034962997494317,-2.6689586853912943,-2.7536856826525264,1356.0439560439559,-1.0,89.0112278160087,2.372674889501552,
2023-08-11 20:28:18.098000,-9.204819277108435,-1.3012048192771084,-3.024096385542169,-1.2679337829552422,-9.07725321888412,-2.6437768240343344,2.0,2.353846153846154,424.83660130718954,-10.599848493677523,-3.523920517452363,-2.7231513315074882,1358.2417582417581,-1.0,89.0112278160087,2.372478968651181,
2023-08-11 20:28:18.106000,-9.19277108433735,-1.2891566265060241,-3.0120481927710845,-1.2630288166768853,-9.126302881667687,-2.629061925199264,2.0,2.352380952380952,425.1012145748988,-10.844123302837827,-3.752928151040149,-2.845288736087641,1359.7069597069597,-1.0,89.0112278160087,2.372282888020924,
2023-08-11 20:28:18.113000,-9.216867469879519,-1.2891566265060241,-2.951807228915663,-1.226241569589209,-9.207234825260576,-2.5726548129981603,2.0,2.352380952380952,425.1012145748988,-11.271604218868362,-4.134607540353127,-2.8758230872326793,1358.974358974359,-1.0,89.0112278160087,2.3720866621035204,
2023-08-11 20:28:18.121000,-9.216867469879519,-1.3012048192771084,-2.9759036144578315,-1.1870018393623543,-9.160637645616186,-2.5432250153280194,2.0,2.352380952380952,425.1012145748988,-11.47007750131111,-4.684225860963814,-2.9521589650952746,1356.7765567765566,-1.0,89.0112278160087,2.371890304495542,
2023-08-11 20:28:18.129000,-9.240963855421688,-1.3012048192771084,-3.024096385542169,-1.2188841201716738,-9.131207847946046,-2.6020846106683013,2.0,2.352380952380952,425.1012145748988,-11.943359944059202,-4.4857525785210655,-3.1811665986830606,1355.3113553113553,-1.0,89.0112278160087,2.3716938288286067,
2023-08-11 20:28:18.136000,-9.240963855421688,-1.2891566265060241,-3.0,-1.213979153893317,-9.148375229920294,-2.592274678111588,2.0,2.350915750915751,425.3661576815207,-12.187634753219507,-4.287279296078317,-3.1048307208204653,1354.5787545787546,-1.0,89.0112278160087,2.371497248261414,
2023-08-11 20:28:18.144000,-9.216867469879519,-1.313253012048193,-3.0,-1.2679337829552422,-9.136112814224402,-2.560392397302268,2.0,2.350915750915751,425.3661576815207,-11.943359944059202,-3.7834625021851873,-3.6544490414311523,1355.3113553113553,-1.0,89.0112278160087,2.371300575042808,
2023-08-11 20:28:18.152000,-9.204819277108435,-1.2891566265060241,-2.9759036144578315,-1.179644389944819,-9.114040465971796,-2.528510116492949,2.0,2.352380952380952,425.1012145748988,-12.538779791387446,-3.2491113571470196,-3.6391818658586335,1356.0439560439559,-1.0,89.0112278160087,2.3711038208851782,
2023-08-11 20:28:18.159000,-9.204819277108435,-1.2891566265060241,-2.9759036144578315,-1.2703862660944205,-9.12139791538933,-2.553034947884733,2.0,2.350915750915751,425.3661576815207,-12.447176737952331,-2.684225860963813,-3.8834566750189388,1357.5091575091574,-1.0,89.0112278160087,2.3709069974432264,
2023-08-11 20:28:18.167000,-9.204819277108435,-1.2891566265060241,-2.963855421686747,-1.2458614347026364,-9.16799509503372,-2.592274678111588,2.0,2.350915750915751,425.3661576815207,-12.46244391352485,-2.3178136472233555,-3.776586446011305,1358.2417582417581,-1.0,89.0112278160087,2.3707101159151294,
2023-08-11 20:28:18.175000,-9.180722891566266,-1.313253012048193,-2.963855421686747,-1.2507664009809931,-9.07725321888412,-2.570202329858982,2.0,2.350915750915751,425.3661576815207,-12.844123302837827,-2.1498747159256455,-4.158265835324282,1356.7765567765566,-1.0,89.0112278160087,2.370513186540566,
2023-08-11 20:28:18.182000,-9.180722891566266,-1.2891566265060241,-2.963855421686747,-1.2385039852851012,-9.12139791538933,-2.5947271612507663,2.0,2.350915750915751,425.3661576815207,-13.195268341005766,-2.272012120505798,-4.341471942194511,1354.5787545787546,-1.0,89.0112278160087,2.3703162190826967,
2023-08-11 20:28:18.190000,-9.19277108433735,-1.3012048192771084,-2.987951807228916,-1.2115266707541386,-9.111587982832617,-2.592274678111588,2.0,2.3494505494505495,425.6314312441534,-13.378474447875996,-2.058271662490531,-4.402540644484588,1353.113553113553,-1.0,89.0112278160087,2.370119222853272,
2023-08-11 20:28:18.198000,-9.168674698795181,-1.3012048192771084,-2.951807228915663,-1.2286940527283874,-9.10668301655426,-2.560392397302268,2.0,2.350915750915751,425.3661576815207,-13.744886661616453,-2.4552182273760272,-4.814754384942603,1354.5787545787546,-1.0,89.0112278160087,2.369922206246243,
2023-08-11 20:28:18.205000,-9.204819277108435,-1.3012048192771084,-2.951807228915663,-1.2041692213366033,-9.096873083997547,-2.553034947884733,2.0,2.350915750915751,425.3661576815207,-14.050230173066835,-3.0506380747042714,-4.784220033797564,1355.3113553113553,-1.0,89.0112278160087,2.369725177185703,
2023-08-11 20:28:18.213000,-9.228915662650603,-1.3253012048192772,-2.963855421686747,-1.2434089515634579,-9.158185162477007,-2.582464745554874,2.0,2.3494505494505495,425.6314312441534,-14.080764524211874,-3.2643785327195385,-4.723151331507488,1356.7765567765566,-1.0,89.0112278160087,2.3695281436791644,
2023-08-11 20:28:18.221000,-9.216867469879519,-1.313253012048193,-2.963855421686747,-1.2532188841201717,-9.131207847946046,-2.553034947884733,2.0,2.3494505494505495,425.6314312441534,-14.401375211234773,-3.6460579220325156,-4.677349804789931,1353.113553113553,-1.0,89.0112278160087,2.3693311128965897,
2023-08-11 20:28:18.228000,-9.240963855421688,-1.313253012048193,-2.963855421686747,-1.2581238503985284,-9.096873083997547,-2.5726548129981603,2.0,2.3494505494505495,425.6314312441534,-14.554046966959966,-3.340714410582134,-4.478876522347183,1350.9157509157508,-1.0,89.0112278160087,2.3691340911292533,
2023-08-11 20:28:18.236000,-9.240963855421688,-1.313253012048193,-2.9759036144578315,-1.1649294911097485,-9.20232985898222,-2.580012262415696,2.0,2.3494505494505495,425.6314312441534,-14.599848493677522,-3.157508303711905,-4.433074995629625,1353.8461538461538,-1.0,89.0112278160087,2.368937084732568,
2023-08-11 20:28:18.243000,-9.27710843373494,-1.2771084337349399,-2.951807228915663,-1.2335990190067443,-9.172900061312077,-2.609442060085837,2.0,2.3494505494505495,425.6314312441534,-14.721985898257675,-2.8674319678340425,-4.662082629217412,1358.2417582417581,-1.0,89.0112278160087,2.368740099629076,
2023-08-11 20:28:18.251000,-9.265060240963855,-1.2771084337349399,-2.963855421686747,-1.226241569589209,-9.145922746781116,-2.6020846106683013,2.0,2.3494505494505495,425.6314312441534,-14.889924829555385,-1.9361342579103784,-4.341471942194511,1367.032967032967,-1.0,89.0112278160087,2.368543141374455,
2023-08-11 20:28:18.259000,-9.240963855421688,-1.2650602409638554,-2.9759036144578315,-1.2458614347026364,-9.224402207234824,-2.60453709380748,2.0,2.3479853479853485,425.8970358814352,-14.508245440242408,-1.7529281510401493,-4.7536856826525264,1380.2197802197802,-1.0,89.0112278160087,2.368346215154884,
2023-08-11 20:28:18.266000,-9.216867469879519,-1.2650602409638554,-2.987951807228916,-1.1428571428571428,-9.150827713059472,-2.6192519926425506,2.0,2.3494505494505495,425.6314312441534,-15.042596585280576,-1.6613250976050349,-4.891090262805198,1396.3369963369962,-1.0,89.0112278160087,2.368149324904387,
2023-08-11 20:28:18.274000,-9.204819277108435,-1.2530120481927711,-2.963855421686747,-1.1649294911097485,-9.06008583690987,-2.5677498467198037,2.0,2.3479853479853485,425.8970358814352,-14.79832177612027,-1.6918594487500729,-4.601013926927336,1414.6520146520145,-1.0,89.0112278160087,2.367952474707744,
2023-08-11 20:28:18.282000,-9.216867469879519,-1.2650602409638554,-2.9397590361445785,-1.2213366033108521,-9.096873083997547,-2.587369711833231,2.0,2.3479853479853485,425.8970358814352,-15.149466814288209,-0.9743021968416761,-5.150632247538023,1435.164835164835,-1.0,89.0112278160087,2.36775566879842,
2023-08-11 20:28:18.289000,-9.180722891566266,-1.2530120481927711,-2.9397590361445785,-1.2630288166768853,-9.06008583690987,-2.611894543225015,2.0,2.3465201465201466,426.1629722135498,-15.378474447875996,-1.3101800594370958,-5.013227667385351,1456.4102564102564,-1.0,89.0112278160087,2.367558910116567,
2023-08-11 20:28:18.297000,-9.19277108433735,-1.2891566265060241,-2.963855421686747,-1.1698344573881054,-9.114040465971796,-2.5432250153280194,2.0,2.3465201465201466,426.1629722135498,-15.47007750131111,-1.2796457082920578,-4.9674261406677935,1475.4578754578754,-1.0,89.0112278160087,2.367362200833382,
2023-08-11 20:28:18.305000,-9.204819277108435,-1.3012048192771084,-2.927710843373494,-1.2213366033108521,-9.116492949110974,-2.599632127529123,2.0,2.3479853479853485,425.8970358814352,-15.378474447875996,-1.2643785327195387,-4.982693316240312,1487.179487179487,-1.0,89.0112278160087,2.3671655427345453,
2023-08-11 20:28:18.312000,-9.204819277108435,-1.313253012048193,-2.9397590361445785,-1.2286940527283874,-9.057633353770692,-2.540772532188841,2.0,2.3479853479853485,425.8970358814352,-15.47007750131111,-1.3865159372996914,-5.486510110133442,1495.2380952380952,-1.0,89.0112278160087,2.366968937708222,
2023-08-11 20:28:18.320000,-9.19277108433735,-1.3253012048192772,-2.987951807228916,-1.2728387492335989,-9.148375229920294,-2.5652973635806253,2.0,2.3479853479853485,425.8970358814352,-15.47007750131111,-1.3865159372996914,-5.486510110133442,1501.098901098901,-1.0,89.0112278160087,2.3667723878474054,
2023-08-11 20:28:18.328000,-9.204819277108435,-1.3614457831325302,-2.9759036144578315,-1.2752912323727774,-9.133660331085224,-2.582464745554874,2.0,2.3465201465201466,426.1629722135498,-15.500611852456148,-1.2796457082920578,-5.837655148301382,1506.227106227106,-1.0,89.0112278160087,2.3665758950279203,
2023-08-11 20:28:18.335000,-9.204819277108435,-1.3614457831325302,-2.9759036144578315,-1.2581238503985284,-9.084610668301655,-2.6535867565910483,2.0,2.3465201465201466,426.1629722135498,-15.65328360818134,-1.0659052502767905,-5.7613192704387854,1506.227106227106,-1.0,89.0112278160087,2.3663794604525012,
2023-08-11 20:28:18.343000,-9.228915662650603,-1.385542168674699,-3.024096385542169,-1.3366033108522377,-9.13856529736358,-2.60453709380748,2.0,2.3465201465201466,426.1629722135498,-15.714352310471416,-0.8979663189790806,-5.929258201736496,1503.2967032967033,-1.0,89.0112278160087,2.3661830846163037,
2023-08-11 20:28:18.351000,-9.216867469879519,-1.3975903614457832,-3.0120481927710845,-1.3194359288779889,-9.094420600858369,-2.5677498467198037,2.0,2.3465201465201466,426.1629722135498,-15.683817959326378,-0.43995105180350813,-5.8529223238739005,1497.4358974358972,-1.0,89.0112278160087,2.365986768255831,
2023-08-11 20:28:18.358000,-9.228915662650603,-1.3614457831325302,-2.987951807228916,-1.226241569589209,-9.109135499693439,-2.5849172286940525,2.0,2.3465201465201466,426.1629722135498,-15.851756890624086,-0.13460754035312647,-6.280403239904435,1490.10989010989,-1.0,89.0112278160087,2.3657905123154044,
2023-08-11 20:28:18.366000,-9.19277108433735,-1.3734939759036144,-3.0120481927710845,-1.3488657265481299,-9.104230533415082,-2.621704475781729,2.0,2.3465201465201466,426.1629722135498,-16.187634753219506,0.018064215372064367,-6.051395606316649,1479.8534798534797,-1.0,89.0112278160087,2.3655943174931124,
2023-08-11 20:28:18.374000,-9.180722891566266,-1.349397590361446,-3.0120481927710845,-1.30226854690374,-9.055180870631514,-2.6241569589209073,2.0,2.3465201465201466,426.1629722135498,-16.49297826466989,-0.05827166249053105,-5.929258201736496,1469.5970695970695,-1.0,89.0112278160087,2.365398184279513,
2023-08-11 20:28:18.381000,-9.204819277108435,-1.349397590361446,-3.0120481927710845,-1.2924586143470262,-9.123850398528509,-2.629061925199264,2.0,2.3465201465201466,426.1629722135498,-16.416642386807293,-0.10407318920808831,-5.913991026163977,1459.3406593406592,-1.0,89.0112278160087,2.365202112996505,
2023-08-11 20:28:18.389000,-9.19277108433735,-1.3373493975903614,-3.0,-1.25567136725935,-9.172900061312077,-2.6560392397302266,2.0,2.3465201465201466,426.1629722135498,-16.752520249402714,-0.4857525785210654,-5.715517743721229,1448.3516483516482,-1.0,89.0112278160087,2.365006103836465,
2023-08-11 20:28:18.397000,-9.216867469879519,-1.3373493975903614,-2.9759036144578315,-1.2728387492335989,-9.172900061312077,-2.599632127529123,2.0,2.3450549450549456,426.42924086223053,-17.225802692150804,-1.0811724258493096,-5.746052094866267,1435.8974358974358,-1.0,89.0112278160087,2.364810156901762,
2023-08-11 20:28:18.404000,-9.156626506024097,-1.3373493975903614,-3.036144578313253,-1.2360515021459226,-9.064990803188227,-2.6609442060085837,2.0,2.3450549450549456,426.42924086223053,-17.47007750131111,-1.3559815861546531,-5.776586446011305,1426.3736263736262,-1.0,89.0112278160087,2.364614271752075,
2023-08-11 20:28:18.412000,-9.144578313253012,-1.3614457831325302,-3.072289156626506,-1.3120784794604536,-9.0453709380748,-2.6658491722869404,2.0,2.3450549450549456,426.42924086223053,-17.760153837188973,-1.2185770060019814,-6.539945224637259,1419.7802197802198,-1.0,89.0112278160087,2.3644184478306225,
2023-08-11 20:28:18.420000,-9.156626506024097,-1.3614457831325302,-3.072289156626506,-1.2654812998160636,-9.050275904353157,-2.6879215205395464,2.0,2.3450549450549456,426.42924086223053,-18.218169104364545,-0.6536915098187753,-6.4178078200571065,1414.6520146520145,674.072265625,89.0112278160087,2.3642226844325576,
2023-08-11 20:28:18.427000,-9.132530120481928,-1.3253012048192772,-3.0120481927710845,-1.3120784794604536,-9.07725321888412,-2.616799509503372,2.0,2.3450549450549456,426.42924086223053,-18.721985898257675,-0.9895693724141952,-6.631548278072374,1408.7912087912086,-1.0,89.0112278160087,2.364026980777505,
2023-08-11 20:28:18.435000,-9.156626506024097,-1.3253012048192772,-3.024096385542169,-1.213979153893317,-9.079705702023299,-2.6192519926425506,2.0,2.3450549450549456,426.42924086223053,-19.042596585280577,-0.7452945632538898,-6.555212400209778,1405.128205128205,-1.0,89.0112278160087,2.363831336470374,
2023-08-11 20:28:18.443000,-9.132530120481928,-1.313253012048193,-3.036144578313253,-1.2360515021459226,-9.01348865726548,-2.7173513182096873,2.0,2.3435897435897437,426.69584245076584,-19.454810325738592,-1.3101800594370958,-6.69261698036245,1400.0,-1.0,89.0112278160087,2.363635751048726,
2023-08-11 20:28:18.450000,-9.132530120481928,-1.313253012048193,-3.072289156626506,-1.226241569589209,-9.047823421213979,-2.6781115879828326,2.0,2.3435897435897437,426.69584245076584,-19.454810325738592,-0.8521647922615234,-6.891090262805198,1394.8717948717947,-1.0,89.0112278160087,2.363440223987843,
2023-08-11 20:28:18.458000,-9.120481927710843,-1.2891566265060241,-3.0843373493975905,-1.2213366033108521,-9.023298589822195,-2.680564071122011,2.0,2.3435897435897437,426.69584245076584,-19.576947730318743,-0.8216304411164852,-6.768952858225045,1389.7435897435896,-1.0,89.0112278160087,2.363244754601092,
2023-08-11 20:28:18.466000,-9.168674698795181,-1.2530120481927711,-3.072289156626506,-1.1747394236664623,-9.094420600858369,-2.709993868792152,2.0,2.3435897435897437,426.69584245076584,-19.699085134898898,-0.4246838762309891,-7.181166598683061,1384.6153846153845,-1.0,89.0112278160087,2.3630493420436847,
2023-08-11 20:28:18.473000,-9.228915662650603,-1.2771084337349399,-3.144578313253012,-1.2532188841201717,-9.128755364806867,-2.7590435315757205,2.0,2.3435897435897437,426.69584245076584,-20.019695821921797,-0.30254647165083637,-7.6391818658586335,1377.2893772893772,-1.0,89.0112278160087,2.3628539853501374,
2023-08-11 20:28:18.481000,-9.228915662650603,-1.2650602409638554,-3.108433734939759,-1.179644389944819,-9.190067443286328,-2.729613733905579,2.0,2.3435897435897437,426.69584245076584,-20.340306508944696,-0.8979663189790806,-7.959792552881533,1369.9633699633698,-1.0,89.0112278160087,2.362658683470755,
2023-08-11 20:28:18.489000,-9.216867469879519,-1.2771084337349399,-3.1204819277108435,-1.1771919068056407,-9.109135499693439,-2.7198038013488657,2.0,2.3435897435897437,426.69584245076584,-20.584581318105002,-1.5697220441699202,-8.219334537614358,1358.974358974359,-1.0,89.0112278160087,2.3624634353072866,
2023-08-11 20:28:18.496000,-9.240963855421688,-1.2771084337349399,-3.0843373493975905,-1.1600245248313916,-9.141017780502759,-2.763948497854077,2.0,2.3435897435897437,426.69584245076584,-20.859390478410347,-1.707126624322592,-7.547578812423518,1349.4505494505493,-1.0,89.0112278160087,2.3622682397479133,
2023-08-11 20:28:18.504000,-9.216867469879519,-1.2409638554216869,-3.0843373493975905,-1.1600245248313916,-9.079705702023299,-2.6854690374003676,2.0,2.342124542124542,426.96277760400375,-21.576947730318743,-2.5773556319561797,-7.669716217003671,1342.8571428571427,-1.0,89.0112278160087,2.3620730957017324,
2023-08-11 20:28:18.512000,-9.240963855421688,-1.2650602409638554,-3.0,-1.1698344573881054,-9.126302881667687,-2.658491722869405,2.0,2.342124542124542,426.96277760400375,-22.218169104364545,-2.8979663189790807,-7.410174232270847,1337.7289377289376,-1.0,89.0112278160087,2.3618780016402265,
2023-08-11 20:28:18.519000,-9.240963855421688,-1.2891566265060241,-3.036144578313253,-1.2532188841201717,-9.111587982832617,-2.6364193746167994,2.0,2.342124542124542,426.96277760400375,-22.599848493677523,-2.8979663189790807,-7.455975758988404,1334.7985347985348,-1.0,89.0112278160087,2.3616829555590466,
2023-08-11 20:28:18.527000,-9.240963855421688,-1.3012048192771084,-3.0481927710843375,-1.2335990190067443,-9.099325567136725,-2.658491722869405,2.0,2.342124542124542,426.96277760400375,-23.27160421886836,-3.2949128838645767,-7.517044461278481,1331.8681318681317,-1.0,89.0112278160087,2.3614879554642823,
2023-08-11 20:28:18.535000,-9.216867469879519,-1.3253012048192772,-2.9759036144578315,-1.2777437155119558,-9.13856529736358,-2.6364193746167994,2.0,2.342124542124542,426.96277760400375,-22.752520249402714,-3.0659052502767903,-7.913991026163976,1329.6703296703297,-1.0,89.0112278160087,2.3612929994004124,
2023-08-11 20:28:18.542000,-9.228915662650603,-1.349397590361446,-2.91566265060241,-1.2679337829552422,-9.096873083997547,-2.499080318822808,2.0,2.342124542124542,426.96277760400375,-22.447176737952333,-2.9285006701241185,-8.02086125517161,1327.4725274725274,-1.0,89.0112278160087,2.361098085478028,
2023-08-11 20:28:18.550000,-9.216867469879519,-1.349397590361446,-2.891566265060241,-1.331698344573881,-9.128755364806867,-2.5137952176578784,2.0,2.342124542124542,426.96277760400375,-22.492978264669887,-3.340714410582134,-8.188800186469319,1326.7399267399267,-1.0,89.0112278160087,2.3609032119014572,
2023-08-11 20:28:18.558000,-9.216867469879519,-1.349397590361446,-2.879518072289157,-1.226241569589209,-9.116492949110974,-2.5481299816063765,2.0,2.340659340659341,427.2300469483568,-22.78305460054775,-3.4170502884447296,-8.081929957461686,1326.7399267399267,-1.0,89.0112278160087,2.360708377454436,
2023-08-11 20:28:18.565000,-9.168674698795181,-1.3614457831325302,-2.855421686746988,-1.3047210300429184,-9.126302881667687,-2.423053341508277,2.0,2.340659340659341,427.2300469483568,-22.523512615814926,-3.3865159372996914,-8.219334537614358,1326.007326007326,-1.0,89.0112278160087,2.3605135809682767,
2023-08-11 20:28:18.573000,-9.204819277108435,-1.3734939759036144,-2.8313253012048194,-1.3243408951563458,-9.057633353770692,-2.393623543838136,2.0,2.340659340659341,427.2300469483568,-22.447176737952333,-2.8979663189790807,-8.081929957461686,1322.3443223443223,-1.0,89.0112278160087,2.360318820789915,
2023-08-11 20:28:18.581000,-9.156626506024097,-1.3734939759036144,-2.879518072289157,-1.3169834457388105,-9.069895769466584,-2.4647455548743102,2.0,2.340659340659341,427.2300469483568,-22.599848493677523,-2.24147776936076,-7.440708583415885,1317.9487179487178,-1.0,89.0112278160087,2.3601240952671403,
2023-08-11 20:28:18.588000,-9.144578313253012,-1.385542168674699,-2.91566265060241,-1.2703862660944205,-9.035561005518087,-2.5383200490496627,2.0,2.340659340659341,427.2300469483568,-22.721985898257675,-1.1880426548569432,-7.410174232270847,1315.7509157509157,-1.0,89.0112278160087,2.3599294027755366,
2023-08-11 20:28:18.596000,-9.120481927710843,-1.385542168674699,-2.891566265060241,-1.3169834457388105,-8.957081545064376,-2.41814837522992,2.0,2.3391941391941393,427.49765111180704,-22.950993531845462,0.04859856651710253,-7.486510110133442,1312.8205128205127,-1.0,89.0112278160087,2.3597347417452057,
2023-08-11 20:28:18.604000,-9.156626506024097,-1.3373493975903614,-2.9759036144578315,-1.2532188841201717,-9.074800735744942,-2.575107296137339,2.0,2.3391941391941393,427.49765111180704,-22.950993531845462,0.04859856651710253,-7.486510110133442,1309.89010989011,-1.0,89.0112278160087,2.3595401106526595,
2023-08-11 20:28:18.611000,-9.144578313253012,-1.3614457831325302,-2.951807228915663,-1.2973635806253832,-9.067443286327405,-2.5947271612507663,2.0,2.340659340659341,427.2300469483568,-22.889924829555383,0.506613833692675,-8.036128430744128,1309.1575091575091,-1.0,89.0112278160087,2.3593455079082117,
2023-08-11 20:28:18.619000,-9.19277108433735,-1.385542168674699,-3.024096385542169,-1.366033108522379,-9.104230533415082,-2.6241569589209073,2.0,2.3391941391941393,427.49765111180704,-23.28687139444088,1.1631023833109957,-8.35673911776703,1312.087912087912,-1.0,89.0112278160087,2.359150932339771,
2023-08-11 20:28:18.626000,-9.204819277108435,-1.3734939759036144,-3.024096385542169,-1.2728387492335989,-9.111587982832617,-2.6560392397302266,2.0,2.3391941391941393,427.49765111180704,-23.363207272303477,0.30814055124992695,-8.891090262805196,1316.4835164835165,-1.0,89.0112278160087,2.358956382797533,
2023-08-11 20:28:18.634000,-9.180722891566266,-1.4096385542168675,-3.060240963855422,-1.3390557939914163,-9.047823421213979,-2.7958307786633965,2.0,2.3391941391941393,427.49765111180704,-23.65328360818134,0.20127032224229335,-8.616281102499853,1322.3443223443223,-1.0,89.0112278160087,2.3587618576541267,
2023-08-11 20:28:18.642000,-9.180722891566266,-1.421686746987952,-3.1204819277108435,-1.3071735131820967,-9.040465971796444,-2.7467811158798283,2.0,2.3391941391941393,427.49765111180704,-23.882291241769124,-0.5162869296661036,-8.67734980478993,1326.007326007326,-1.0,89.0112278160087,2.3585673552874242,
2023-08-11 20:28:18.649000,-9.144578313253012,-1.421686746987952,-3.132530120481928,-1.3537706928264868,-9.062538320049049,-2.7786633966891476,2.0,2.3391941391941393,427.49765111180704,-24.187634753219506,-0.9437678456966379,-8.723151331507488,1328.2051282051282,-1.0,89.0112278160087,2.3583728741053167,
2023-08-11 20:28:18.657000,-9.156626506024097,-1.4096385542168675,-3.1566265060240966,-1.4003678724708768,-9.069895769466584,-2.8375229920294296,2.0,2.3391941391941393,427.49765111180704,-24.706718722685157,-0.6689586853912944,-9.01322766738535,1330.4029304029302,-1.0,89.0112278160087,2.3581784130284524,
2023-08-11 20:28:18.665000,-9.180722891566266,-1.4337349397590362,-3.180722891566265,-1.3684855916615573,-9.074800735744942,-2.839975475168608,2.0,2.3391941391941393,427.49765111180704,-25.11893246314317,-0.8216304411164852,-8.906357438377716,1331.135531135531,-1.0,89.0112278160087,2.3579839709902224,
2023-08-11 20:28:18.672000,-9.216867469879519,-1.421686746987952,-3.180722891566265,-1.3464132434089515,-9.21704475781729,-2.8080931943592886,2.0,2.3391941391941393,427.49765111180704,-25.195268341005768,-1.4628518151622867,-9.150632247538022,1328.937728937729,-1.0,89.0112278160087,2.3577895465412104,
2023-08-11 20:28:18.680000,-9.253012048192772,-1.4457831325301205,-3.180722891566265,-1.3464132434089515,-9.185162477007971,-2.7541385652973633,2.0,2.3391941391941393,427.49765111180704,-25.9433599440592,-2.3483479983683937,-9.211700949828098,1325.2747252747251,-1.0,89.0112278160087,2.35759513836747,
2023-08-11 20:28:18.688000,-9.228915662650603,-1.4698795180722892,-3.132530120481928,-1.3415082771305946,-9.13856529736358,-2.7835683629675043,2.0,2.337728937728938,427.765590723911,-26.46244391352485,-3.1727754792844243,-9.532311636850999,1319.4139194139193,-1.0,89.0112278160087,2.357400745774816,
2023-08-11 20:28:18.695000,-9.216867469879519,-1.457831325301205,-3.096385542168675,-1.390557939914163,-9.07725321888412,-2.7467811158798283,2.0,2.3391941391941393,427.49765111180704,-26.676184371540117,-4.531554105238622,-9.242235300973135,1312.8205128205127,-1.0,89.0112278160087,2.3572063681563784,
2023-08-11 20:28:18.703000,-9.180722891566266,-1.4457831325301205,-3.0843373493975905,-1.4322501532801961,-9.099325567136725,-2.670754138565297,2.0,2.3391941391941393,427.49765111180704,-27.13419963871569,-4.852164792261523,-8.84528873608764,1306.9597069597069,-1.0,89.0112278160087,2.357012004495478,
2023-08-11 20:28:18.711000,-9.132530120481928,-1.4698795180722892,-3.096385542168675,-1.4028203556100551,-9.079705702023299,-2.6781115879828326,2.0,2.3391941391941393,427.49765111180704,-27.454810325738592,-4.867431967834042,-8.387273468912067,1300.3663003663003,-1.0,89.0112278160087,2.356817654448903,
2023-08-11 20:28:18.718000,-9.132530120481928,-1.4457831325301205,-3.096385542168675,-1.449417535254445,-9.035561005518087,-2.6903740036787247,2.0,2.337728937728938,427.765590723911,-27.74488666161645,-4.867431967834042,-8.249868888759396,1295.970695970696,-1.0,89.0112278160087,2.3566233183440337,
2023-08-11 20:28:18.726000,-9.084337349397591,-1.457831325301205,-3.0481927710843375,-1.3488657265481299,-8.959534028203556,-2.6658491722869404,2.0,2.337728937728938,427.765590723911,-27.74488666161645,-4.623157158673737,-8.051395606316648,1290.10989010989,-1.0,89.0112278160087,2.3564289962290412,
2023-08-11 20:28:18.734000,-9.096385542168676,-1.385542168674699,-3.072289156626506,-1.2924586143470262,-9.028203556100552,-2.6143470263641935,2.0,2.337728937728938,427.765590723911,-27.63801643260882,-3.9361342579103784,-7.791853621583824,1281.3186813186812,-1.0,89.0112278160087,2.3562346882952157,
2023-08-11 20:28:18.741000,-9.120481927710843,-1.4337349397590362,-3.036144578313253,-1.3488657265481299,-9.035561005518087,-2.6143470263641935,2.0,2.3391941391941393,427.49765111180704,-27.760153837188973,-3.6307907464599967,-8.158265835324281,1273.9926739926739,-1.0,89.0112278160087,2.356040395299884,
2023-08-11 20:28:18.749000,-9.156626506024097,-1.3734939759036144,-3.036144578313253,-1.3194359288779889,-9.084610668301655,-2.6192519926425506,2.0,2.3362637362637364,428.0338664158043,-27.729619486043934,-3.1727754792844243,-8.417807820057105,1265.9340659340658,-1.0,89.0112278160087,2.3558461186037167,
