Shimmer_F5D4_Timestamp_FormattedUnix_CAL,Shimmer_F5D4_Accel_LN_X_CAL,Shimmer_F5D4_Accel_LN_Y_CAL,Shimmer_F5D4_Accel_LN_Z_CAL,Shimmer_F5D4_Accel_WR_X_CAL,Shimmer_F5D4_Accel_WR_Y_CAL,Shimmer_F5D4_Accel_WR_Z_CAL,Shimmer_F5D4_GSR_Range_CAL,Shimmer_F5D4_GSR_Skin_Conductance_CAL,Shimmer_F5D4_GSR_Skin_Resistance_CAL,Shimmer_F5D4_Gyro_X_CAL,Shimmer_F5D4_Gyro_Y_CAL,Shimmer_F5D4_Gyro_Z_CAL,Shimmer_F5D4_PPG_A13_CAL,Shimmer_F5D4_PPG_IBI_CAL,Shimmer_F5D4_PPGtoHR_CAL,Shimmer_F5D4_GSR_Skin_Conductance_LPF_CAL,
yyyy/mm/dd hh:mm:ss.000,m/(s^2),m/(s^2),m/(s^2),m/(s^2),m/(s^2),m/(s^2),no_units,uS,kOhms,deg/s,deg/s,deg/s,mV,ms,BPM,uS,
2023-08-09 16:16:52.384000,-3.0843373493975905,0.4819277108433735,-9.481927710843374,0.5836909871244634,-2.6591048436541995,-9.162477007970569,2.0,3.6710622710622713,272.40071841947713,-0.10325738593322072,-0.19381154944350595,-0.3079074645999648,2800.0,-1.0,79.12109139200773,3.674375817480115,
2023-08-09 16:16:52.392000,-3.0843373493975905,0.5060240963855422,-9.457831325301205,0.5567136725935009,-2.6811771919068055,-9.120784794604537,2.0,3.6710622710622713,272.40071841947713,0.144280636326555,-0.08600897383602393,-0.2608239613076162,2742.8571428571427,-1.0,79.12109139200773,3.6743461946972866,
2023-08-09 16:16:52.399000,-3.072289156626506,0.46987951807228917,-9.457831325301205,0.6204782342121398,-2.666462293071735,-9.162477007970569,2.0,3.6710622710622713,272.40071841947713,0.1434648330516874,-0.08554280053609885,-0.25930889808286234,2649.0842490842488,-1.0,79.12109139200773,3.6743161963549795,
2023-08-09 16:16:52.407000,-3.0843373493975905,0.4819277108433735,-9.46987951807229,0.5591661557326794,-2.617412630288167,-9.189454322501533,2.0,3.6710622710622713,272.40071841947713,-0.07074179826350485,0.10057688945865627,-0.19462735271837311,2526.7399267399264,-1.0,79.12109139200773,3.674285826276744,
2023-08-09 16:16:52.415000,-3.060240963855422,0.4819277108433735,-9.44578313253012,0.539546290619252,-2.6517473942366645,-9.157572041692212,2.0,3.6710622710622713,272.40071841947713,0.17469844414661231,0.3142008041489426,0.038342753918769394,2381.6849816849817,-1.0,79.12109139200773,3.674255089084617,
2023-08-09 16:16:52.422000,-3.072289156626506,0.46987951807228917,-9.44578313253012,0.5248313917841815,-2.644389944819129,-9.128142244022072,2.0,3.6695970695970694,272.5094829307247,0.15989744187401658,0.21816910436454764,-0.06724549851407281,2219.047619047619,-1.0,79.12109139200773,3.674223989240901,
2023-08-09 16:16:52.430000,-3.072289156626506,0.4819277108433735,-9.46987951807229,0.5150214592274678,-2.619865113427345,-9.110974862047822,2.0,3.6695970695970694,272.5094829307247,0.40289027445953096,0.2938057222772563,-0.15884855194918732,2049.8168498168498,-1.0,79.12109139200773,3.674192530615098,
2023-08-09 16:16:52.437000,-3.0481927710843375,0.46987951807228917,-9.46987951807229,0.5567136725935009,-2.6419374616799507,-9.113427345187,2.0,3.6695970695970694,272.5094829307247,-0.2263271371132218,0.09463317988462146,-0.15570188217469866,1879.8534798534797,-1.0,79.12109139200773,3.67416071689252,
2023-08-09 16:16:52.445000,-3.0843373493975905,0.4819277108433735,-9.44578313253012,0.522378908645003,-2.646842427958308,-9.157572041692212,2.0,3.6695970695970694,272.5094829307247,-0.2407785094108733,-0.1665404113979364,0.06281685216479235,1714.2857142857142,-1.0,79.12109139200773,3.6741285524734595,
2023-08-09 16:16:52.453000,-3.0843373493975905,0.4819277108433735,-9.457831325301205,0.5493562231759657,-2.6640098099325566,-9.17964438994482,2.0,3.6695970695970694,272.5094829307247,0.15558533884971695,-0.19322883281860004,0.10815220558242539,1558.974358974359,-1.0,79.12109139200773,3.6740960419318034,
2023-08-09 16:16:52.460000,-3.072289156626506,0.4819277108433735,-9.457831325301205,0.5787860208461066,-2.6713672593500917,-9.182096873083998,2.0,3.6695970695970694,272.5094829307247,0.06176796223996309,-0.39193520191130976,-0.045568440067595146,1419.047619047619,-1.0,79.12109139200773,3.6740631895780904,
2023-08-09 16:16:52.468000,-3.0843373493975905,0.4819277108433735,-9.46987951807229,0.5738810545677498,-2.654199877375843,-9.14530962599632,2.0,3.6695970695970694,272.5094829307247,0.0924188567099821,0.007225686148825746,0.14031816327719832,1296.7032967032967,-1.0,79.12109139200773,3.674030000394105,
2023-08-09 16:16:52.476000,-3.060240963855422,0.4819277108433735,-9.481927710843374,0.5861434702636419,-2.6321275291232373,-9.172286940527284,2.0,3.6695970695970694,272.5094829307247,0.10535516578287923,-0.1414835965270097,-0.4220033797564246,1194.1391941391942,-1.0,79.12109139200773,3.673996479492448,
2023-08-09 16:16:52.483000,-3.0481927710843375,0.49397590361445787,-9.46987951807229,0.6057633353770693,-2.666462293071735,-9.118332311465359,2.0,3.6681318681318684,272.6183343319353,0.10430627585804997,-0.07761785443738635,-0.20127032224229335,1109.89010989011,-1.0,79.12109139200773,3.673962631680829,
2023-08-09 16:16:52.491000,-3.072289156626506,0.5060240963855422,-9.46987951807229,0.5591661557326794,-2.6223175965665235,-9.16002452483139,2.0,3.6681318681318684,272.6183343319353,-0.08053143756191421,-0.13798729677757768,-0.3244566167472757,1046.8864468864467,-1.0,79.12109139200773,3.6739284623633908,
2023-08-09 16:16:52.499000,-3.060240963855422,0.5060240963855422,-9.46987951807229,0.6327406499080318,-2.686082158185162,-9.199264255058246,2.0,3.6681318681318684,272.6183343319353,0.15045743255055147,0.22982343686265383,-1.1654332498127038E-4,997.8021978021977,-1.0,79.12109139200773,3.6738939768626047,
2023-08-09 16:16:52.506000,-3.060240963855422,0.5180722891566265,-9.457831325301205,0.5959534028203556,-2.695892090741876,-9.128142244022072,2.0,3.6681318681318684,272.6183343319353,-0.01794767204708353,-0.031117067769944086,-0.23028961016257807,959.7069597069597,-1.0,79.12109139200773,3.6738591799495333,
2023-08-09 16:16:52.514000,-3.072289156626506,0.4819277108433735,-9.457831325301205,0.5640711220110362,-2.6419374616799507,-9.142857142857142,2.0,3.6681318681318684,272.6183343319353,0.22772565701299533,-0.09125342346017198,0.0916030534351145,932.6007326007325,-1.0,79.12109139200773,3.6738240763217824,
2023-08-09 16:16:52.522000,-3.0481927710843375,0.49397590361445787,-9.481927710843374,0.5763335377069282,-2.6591048436541995,-9.157572041692212,2.0,3.6681318681318684,272.6183343319353,0.04009090379348585,-0.2271429403880894,-0.30417807820057113,916.4835164835164,-1.0,79.12109139200773,3.6737886705886815,
2023-08-09 16:16:52.529000,-3.072289156626506,0.5060240963855422,-9.433734939759036,0.6229307173513182,-2.649294911097486,-9.137952176578786,2.0,3.6681318681318684,272.6183343319353,0.23518442981178272,0.21653749781481246,-0.22387972728861946,910.6227106227105,-1.0,79.12109139200773,3.6737529667985447,
2023-08-09 16:16:52.537000,-3.036144578313253,0.5060240963855422,-9.44578313253012,0.5910484365419988,-2.666462293071735,-9.167381974248926,2.0,3.6681318681318684,272.6183343319353,-0.12003962473049413,-0.13542334362799405,0.2826175630790747,917.9487179487179,-1.0,79.12109139200773,3.673716968949034,
2023-08-09 16:16:52.545000,-3.060240963855422,0.5180722891566265,-9.44578313253012,0.6033108522378908,-2.6002452483139176,-9.16002452483139,2.0,3.6681318681318684,272.6183343319353,0.04545189674261474,-0.10011071615873118,0.12831420080414915,935.5311355311354,-1.0,79.12109139200773,3.6736806809358167,
2023-08-09 16:16:52.552000,-3.072289156626506,0.5180722891566265,-9.44578313253012,0.6033108522378908,-2.6223175965665235,-9.157572041692212,2.0,3.6681318681318684,272.6183343319353,-0.323407726822446,-0.2483538255346433,-0.20593205524153593,962.6373626373626,-1.0,79.12109139200773,3.6736441065714063,
2023-08-09 16:16:52.560000,-3.060240963855422,0.5180722891566265,-9.44578313253012,0.627835683629675,-2.686082158185162,-9.133047210300429,2.0,3.6681318681318684,272.6183343319353,0.08985490356039848,-0.15162286580036158,0.08775712371073952,997.8021978021977,-1.0,79.12109139200773,3.6736072499930725,
2023-08-09 16:16:52.568000,-3.0843373493975905,0.5060240963855422,-9.457831325301205,0.539546290619252,-2.6125076640098097,-9.11587982832618,2.0,3.6681318681318684,272.6183343319353,0.22422935726356327,-0.1942777227434293,0.43936833517860263,1041.7582417582416,-1.0,79.12109139200773,3.67357011470029,
2023-08-09 16:16:52.575000,-3.060240963855422,0.46987951807228917,-9.46987951807229,0.5959534028203556,-2.614960147148988,-9.17964438994482,2.0,3.6681318681318684,272.6183343319353,0.0844939106112696,-0.29765165200163085,-0.1745819008216306,1090.8424908424909,-1.0,79.12109139200773,3.673532704068476,
2023-08-09 16:16:52.583000,-3.072289156626506,0.46987951807228917,-9.433734939759036,0.5935009196811771,-2.688534641324341,-9.108522378908644,2.0,3.6681318681318684,272.6183343319353,0.144280636326555,0.01200396247304872,0.31536623739875314,1145.054945054945,-1.0,79.12109139200773,3.6734950217594826,
2023-08-09 16:16:52.591000,-3.072289156626506,0.49397590361445787,-9.457831325301205,0.5738810545677498,-2.6321275291232373,-9.152667075413856,2.0,3.6681318681318684,272.6183343319353,-0.13157741390361952,-0.11071615873200813,0.22178194743896051,1200.7326007326008,-1.0,79.12109139200773,3.6734570712197874,
2023-08-09 16:16:52.598000,-3.060240963855422,0.49397590361445787,-9.481927710843374,0.5469037400367872,-2.6419374616799507,-9.142857142857142,2.0,3.6681318681318684,272.6183343319353,-0.1018588660334472,-0.10768603228250118,-0.12924654740399757,1257.142857142857,-1.0,79.12109139200773,3.673418855672309,
2023-08-09 16:16:52.606000,-3.072289156626506,0.5060240963855422,-9.46987951807229,0.5714285714285714,-2.656652360515021,-9.152667075413856,2.0,3.6681318681318684,272.6183343319353,0.019812365246780383,-0.18227376027038059,-0.03566225744420495,1309.89010989011,-1.0,79.12109139200773,3.6733803776513843,
2023-08-09 16:16:52.614000,-3.0843373493975905,0.5060240963855422,-9.46987951807229,0.5542611894543225,-2.676272225628449,-9.133047210300429,2.0,3.6681318681318684,272.6183343319353,-0.16467571819823956,-0.05687314259075754,-0.3239904434473515,1359.7069597069597,-1.0,79.12109139200773,3.6733416390639992,
2023-08-09 16:16:52.621000,-3.060240963855422,0.49397590361445787,-9.46987951807229,0.5321888412017167,-2.637032495401594,-9.20907418761496,2.0,3.6681318681318684,272.6183343319353,-0.010721985898257782,-0.19451080939339271,-0.0611852456150576,1402.9304029304028,-1.0,79.12109139200773,3.673302642131243,
2023-08-09 16:16:52.629000,-3.0481927710843375,0.4819277108433735,-9.44578313253012,0.5861434702636419,-2.6517473942366645,-9.155119558553034,2.0,3.6681318681318684,272.6183343319353,0.003263213099470364,0.11339665520657258,0.1826233902453235,1436.6300366300366,-1.0,79.12109139200773,3.673263389313901,
2023-08-09 16:16:52.637000,-3.072289156626506,0.5060240963855422,-9.457831325301205,0.5567136725935009,-2.656652360515021,-9.142857142857142,2.0,3.666666666666667,272.7272727272727,0.14066779325214213,0.08262921741157274,0.16351028494842945,1459.3406593406592,-1.0,79.12109139200773,3.6732238828189807,
2023-08-09 16:16:52.644000,-3.0843373493975905,0.4819277108433735,-9.44578313253012,0.5444512568976088,-2.656652360515021,-9.123237277743716,2.0,3.666666666666667,272.7272727272727,-0.014334828972670657,0.28378299632888526,-0.03764349396888308,1472.5274725274724,-1.0,79.12109139200773,3.6731841245655197,
2023-08-09 16:16:52.652000,-3.0843373493975905,0.45783132530120485,-9.457831325301205,0.5076640098099325,-2.6125076640098097,-9.128142244022072,2.0,3.666666666666667,272.7272727272727,-0.10803566225744368,0.022959035021269912,-0.06747858516403492,1479.8534798534797,-1.0,79.12109139200773,3.6731441160472675,
2023-08-09 16:16:52.660000,-3.0843373493975905,0.4819277108433735,-9.481927710843374,0.5591661557326794,-2.6321275291232373,-9.150214592274677,2.0,3.6681318681318684,272.6183343319353,-0.4275974593555152,-0.08216304411164765,0.621525552124002,1480.5860805860805,-1.0,79.12109139200773,3.6731038578423902,
2023-08-09 16:16:52.667000,-3.072289156626506,0.46987951807228917,-9.46987951807229,0.49294911097486205,-2.7228694052728386,-9.125689760882894,2.0,3.6681318681318684,272.6183343319353,-0.33401316939572295,-0.04871510984208337,-0.1603636151739408,1473.260073260073,-1.0,79.12109139200773,3.6730633501760965,
2023-08-09 16:16:52.675000,-3.072289156626506,0.4819277108433735,-9.481927710843374,0.551808706315144,-2.6296750459840585,-9.155119558553034,2.0,3.6681318681318684,272.6183343319353,-0.33447934269564633,-0.04696695996736735,-0.15896509527416816,1458.6080586080584,-1.0,79.12109139200773,3.6730225934842884,
2023-08-09 16:16:52.683000,-3.072289156626506,0.4819277108433735,-9.457831325301205,0.5567136725935009,-2.6517473942366645,-9.137952176578786,2.0,3.6681318681318684,272.6183343319353,-0.10500553580793673,0.2312219567624256,0.10185886603344807,1435.8974358974358,-1.0,79.12109139200773,3.6729815879611523,
2023-08-09 16:16:52.690000,-3.072289156626506,0.46987951807228917,-9.46987951807229,0.5861434702636419,-2.6591048436541995,-9.152667075413856,2.0,3.666666666666667,272.7272727272727,0.1559349688246612,0.04789930656721578,0.11502826175630776,1408.7912087912086,-1.0,79.12109139200773,3.6729403335664257,
2023-08-09 16:16:52.698000,-3.0481927710843375,0.4819277108433735,-9.457831325301205,0.5542611894543225,-2.617412630288167,-9.140404659717964,2.0,3.6681318681318684,272.6183343319353,-0.1064040557077085,-0.0417225103432193,0.11456208845638355,1380.2197802197802,-1.0,79.12109139200773,3.6728988295418263,
2023-08-09 16:16:52.706000,-3.060240963855422,0.4819277108433735,-9.433734939759036,0.522378908645003,-2.666462293071735,-9.13059472716125,2.0,3.6681318681318684,272.6183343319353,-0.0904376201853044,0.20371773206689614,0.40557077093409455,1351.6483516483515,-1.0,79.12109139200773,3.6728570743846327,
2023-08-09 16:16:52.713000,-3.072289156626506,0.4819277108433735,-9.44578313253012,0.5812385039852851,-2.637032495401594,-9.091354996934395,2.0,3.6681318681318684,272.6183343319353,-0.2266767670881643,0.12633296427947147,-0.06969290833867473,1323.076923076923,-1.0,79.12109139200773,3.67281506691018,
2023-08-09 16:16:52.721000,-3.0843373493975905,0.46987951807228917,-9.46987951807229,0.5199264255058246,-2.637032495401594,-9.182096873083998,2.0,3.6681318681318684,272.6183343319353,0.06479808868947004,-0.04160596701823846,-0.15954781189907363,1296.7032967032967,-1.0,79.12109139200773,3.672772806229313,
2023-08-09 16:16:52.729000,-3.072289156626506,0.46987951807228917,-9.46987951807229,0.5591661557326794,-2.666462293071735,-9.184549356223176,2.0,3.666666666666667,272.7272727272727,-0.1018588660334472,0.2949711555270664,0.17772857059611927,1268.8644688644688,-1.0,79.12109139200773,3.6727302912725013,
2023-08-09 16:16:52.736000,-3.072289156626506,0.46987951807228917,-9.46987951807229,0.5419987737584304,-2.6345800122624157,-9.167381974248926,2.0,3.666666666666667,272.7272727272727,-0.20942835499096754,0.29112522580269184,0.11735912825592926,1243.956043956044,-1.0,79.12109139200773,3.67268752031592,
2023-08-09 16:16:52.744000,-3.072289156626506,0.45783132530120485,-9.457831325301205,0.5419987737584304,-2.5977927651747392,-9.14530962599632,2.0,3.666666666666667,272.7272727272727,-0.39263446186119655,0.3328477361459129,0.1745819008216306,1222.7106227106226,-1.0,79.12109139200773,3.672644490929953,
2023-08-09 16:16:52.752000,-3.072289156626506,0.49397590361445787,-9.457831325301205,0.5493562231759657,-2.6321275291232373,-9.155119558553034,2.0,3.666666666666667,272.7272727272727,-0.23693257968649875,0.22492861721344828,0.3734048132393216,1205.128205128205,-1.0,79.12109139200773,3.6726012004540896,
2023-08-09 16:16:52.759000,-3.0843373493975905,0.4819277108433735,-9.44578313253012,0.6008583690987124,-2.6934396076026976,-9.137952176578786,2.0,3.666666666666667,272.7272727272727,0.11561097838121367,0.20709748849134735,0.12516753102966005,1189.7435897435896,-1.0,79.12109139200773,3.6725576460152016,
2023-08-09 16:16:52.767000,-3.072289156626506,0.44578313253012053,-9.44578313253012,0.5150214592274678,-2.62722256284488,-9.19435928877989,2.0,3.666666666666667,272.7272727272727,-0.19171376959384567,0.2200337975642445,-0.07412155468795519,1176.5567765567764,-1.0,79.12109139200773,3.672513824547067,
2023-08-09 16:16:52.775000,-3.0843373493975905,0.49397590361445787,-9.457831325301205,0.48559166155732675,-2.595340282035561,-9.152667075413856,2.0,3.666666666666667,272.7272727272727,-0.16059670182390334,0.3260882232970105,-0.2415943126857409,1164.8351648351647,-1.0,79.12109139200773,3.6724697328110913,
2023-08-09 16:16:52.782000,-3.0843373493975905,0.4819277108433735,-9.481927710843374,0.5714285714285714,-2.6640098099325566,-9.157572041692212,2.0,3.666666666666667,272.7272727272727,-0.20802983509119577,0.35440825126740927,0.14264902977681937,1154.5787545787546,-1.0,79.12109139200773,3.6724253674181937,
2023-08-09 16:16:52.790000,-3.072289156626506,0.5060240963855422,-9.46987951807229,0.6008583690987124,-2.6811771919068055,-9.189454322501533,2.0,3.6637362637362645,272.9454109178164,-0.009323465998484274,0.09370083328477302,0.1286638307790921,1143.5897435897434,-1.0,79.12109139200773,3.6723807248518394,
2023-08-09 16:16:52.798000,-3.0843373493975905,0.49397590361445787,-9.46987951807229,0.5591661557326794,-2.646842427958308,-9.135499693439607,2.0,3.6652014652014655,272.83629822106735,-0.5738593322067479,0.3981119981353063,0.19276265951867624,1134.065934065934,-1.0,79.12109139200773,3.6723358009646914,
2023-08-09 16:16:52.805000,-3.0843373493975905,0.4819277108433735,-9.493975903614459,0.5444512568976088,-2.6689147762109133,-9.14530962599632,2.0,3.6652014652014655,272.83629822106735,-0.0658469786142993,0.06001981236524707,0.2390303595361577,1125.2747252747251,-1.0,79.12109139200773,3.6722905912847965,
2023-08-09 16:16:52.813000,-3.060240963855422,0.49397590361445787,-9.46987951807229,0.5812385039852851,-2.6934396076026976,-9.152667075413856,2.0,3.666666666666667,272.7272727272727,-0.17283375094691372,0.32061068702290074,-0.008158032748674174,1117.9487179487178,-1.0,79.12109139200773,3.672245091072294,
2023-08-09 16:16:52.820000,-3.060240963855422,0.49397590361445787,-9.46987951807229,0.6082158185162476,-2.6811771919068055,-9.142857142857142,2.0,3.666666666666667,272.7272727272727,-0.354058621292465,0.43796981527883044,-0.11386282850649722,1112.8205128205127,-1.0,79.12109139200773,3.672199295445401,
2023-08-09 16:16:52.828000,-3.060240963855422,0.5180722891566265,-9.44578313253012,0.5567136725935009,-2.6296750459840585,-9.199264255058246,2.0,3.666666666666667,272.7272727272727,-0.0597867257152854,0.11083270205698896,0.07050871161354232,1108.4249084249084,-1.0,79.12109139200773,3.6721531999645767,
2023-08-09 16:16:52.836000,-3.0843373493975905,0.49397590361445787,-9.44578313253012,0.5591661557326794,-2.646842427958308,-9.13059472716125,2.0,3.6652014652014655,272.83629822106735,-0.19451080939339271,0.3806304993881478,-0.05186177961657246,1109.1575091575091,-1.0,79.12109139200773,3.672106800199831,
2023-08-09 16:16:52.843000,-3.072289156626506,0.4819277108433735,-9.44578313253012,0.5787860208461066,-2.646842427958308,-9.196811771919068,2.0,3.666666666666667,272.7272727272727,-0.14649495950119434,0.48202319212167166,-0.03589534409416706,1110.6227106227107,-1.0,79.12109139200773,3.6720600912641626,
2023-08-09 16:16:52.851000,-3.0481927710843375,0.49397590361445787,-9.457831325301205,0.5812385039852851,-2.607602697731453,-9.172286940527284,2.0,3.666666666666667,272.7272727272727,-0.2041839053668195,0.5049822271429398,-0.01876347532195112,1112.087912087912,-1.0,79.12109139200773,3.6720130682609895,
2023-08-09 16:16:52.859000,-3.072289156626506,0.4819277108433735,-9.481927710843374,0.551808706315144,-2.7007970570202326,-9.140404659717964,2.0,3.666666666666667,272.7272727272727,-0.30720820465007853,0.3903035953615763,-0.0017481498747160184,1115.018315018315,-1.0,79.12109139200773,3.6719657268364534,
2023-08-09 16:16:52.866000,-3.0481927710843375,0.49397590361445787,-9.46987951807229,0.5591661557326794,-2.602697731453096,-9.17964438994482,2.0,3.666666666666667,272.7272727272727,-0.1496416292756839,0.42841326263038276,0.028669657945341313,1122.3443223443223,-1.0,79.12109139200773,3.6719180627495174,
2023-08-09 16:16:52.874000,-3.060240963855422,0.5180722891566265,-9.44578313253012,0.6131207847946045,-2.619865113427345,-9.152667075413856,2.0,3.6652014652014655,272.83629822106735,-0.14777693607598702,0.37899889283841265,0.15208903910028534,1130.4029304029302,-1.0,79.12109139200773,3.671870071900716,
2023-08-09 16:16:52.882000,-3.072289156626506,0.4819277108433735,-9.44578313253012,0.5419987737584304,-2.619865113427345,-9.128142244022072,2.0,3.6652014652014655,272.83629822106735,-0.17609696404638409,0.7860847269972606,0.21455626129013475,1139.9267399267399,-1.0,79.12109139200773,3.6718217498689407,
2023-08-09 16:16:52.889000,-3.060240963855422,0.4819277108433735,-9.433734939759036,0.627835683629675,-2.619865113427345,-9.140404659717964,2.0,3.6652014652014655,272.83629822106735,-0.09684750305926255,0.5026513606433196,0.10535516578287968,1145.054945054945,-1.0,79.12109139200773,3.67177309186936,
2023-08-09 16:16:52.897000,-3.072289156626506,0.4819277108433735,-9.46987951807229,0.5714285714285714,-2.6394849785407724,-9.142857142857142,2.0,3.6652014652014655,272.83629822106735,-0.2941553522522005,0.9120680613017896,0.02925237457024636,1148.7179487179487,-1.0,79.12109139200773,3.6717240932364317,
2023-08-09 16:16:52.905000,-3.060240963855422,0.4819277108433735,-9.46987951807229,0.5861434702636419,-2.6419374616799507,-9.162477007970569,2.0,3.6652014652014655,272.83629822106735,-0.3525435580677124,0.692150807062526,0.27107977390594934,1153.113553113553,-1.0,79.12109139200773,3.6716747494489512,
2023-08-09 16:16:52.912000,-3.036144578313253,0.49397590361445787,-9.493975903614459,0.5567136725935009,-2.607602697731453,-9.152667075413856,2.0,3.6652014652014655,272.83629822106735,-0.060602528990151255,0.505448400442865,-0.11223122195676248,1157.5091575091574,-1.0,79.12109139200773,3.6716250561549746,
2023-08-09 16:16:52.920000,-3.0481927710843375,0.49397590361445787,-9.457831325301205,0.5836909871244634,-2.6517473942366645,-9.128142244022072,2.0,3.6652014652014655,272.83629822106735,-0.28891090262805247,0.6081230697511797,0.11805838820581559,1162.6373626373625,-1.0,79.12109139200773,3.671575009196548,
2023-08-09 16:16:52.928000,-3.060240963855422,0.5180722891566265,-9.433734939759036,0.5567136725935009,-2.5585530349478844,-9.16002452483139,2.0,3.6652014652014655,272.83629822106735,-0.2856476895285821,0.376434939688829,-0.1121146786317812,1165.5677655677655,-1.0,79.12109139200773,3.6715246046342287,
2023-08-09 16:16:52.935000,-3.060240963855422,0.5060240963855422,-9.46987951807229,0.6033108522378908,-2.624770079705702,-9.167381974248926,2.0,3.6652014652014655,272.83629822106735,-0.20709748849134735,0.32771982984674564,-0.036128430744129164,1168.4981684981685,-1.0,79.12109139200773,3.671473838771332,
2023-08-09 16:16:52.943000,-3.060240963855422,0.5060240963855422,-9.46987951807229,0.6229307173513182,-2.654199877375843,-9.164929491109747,2.0,3.6637362637362645,272.9454109178164,0.15954781189907408,0.2178194743896051,-0.08297884738651612,1172.161172161172,-1.0,79.12109139200773,3.67142270817787,
2023-08-09 16:16:52.951000,-3.060240963855422,0.5060240963855422,-9.481927710843374,0.6302881667688535,-2.578172900061312,-9.206621704475781,2.0,3.6637362637362645,272.9454109178164,0.16059670182390334,0.21513897791504066,-0.08426082396130749,1178.7545787545787,-1.0,79.12109139200773,3.6713712101372176,
2023-08-09 16:16:52.958000,-3.0481927710843375,0.5301204819277109,-9.457831325301205,0.598405885959534,-2.6100551808706314,-9.169834457388104,2.0,3.6652014652014655,272.83629822106735,0.15943126857409323,0.3493968882932229,0.021677058446477673,1186.080586080586,-1.0,79.12109139200773,3.6713193420047405,
2023-08-09 16:16:52.966000,-3.0481927710843375,0.5180722891566265,-9.457831325301205,0.5812385039852851,-2.6321275291232373,-9.199264255058246,2.0,3.6652014652014655,272.83629822106735,0.019812365246780383,0.5595245032340772,0.052677582891440054,1194.1391941391942,-1.0,79.12109139200773,3.671267100808165,
2023-08-09 16:16:52.974000,-3.0481927710843375,0.5180722891566265,-9.481927710843374,0.5910484365419988,-2.6100551808706314,-9.118332311465359,2.0,3.6652014652014655,272.83629822106735,-0.20826292174115743,0.23331973661208588,-0.040440533768428356,1205.128205128205,-1.0,79.12109139200773,3.671214483898799,
2023-08-09 16:16:52.981000,-3.0481927710843375,0.5180722891566265,-9.457831325301205,0.6106683016554261,-2.708154506437768,-9.133047210300429,2.0,3.6652014652014655,272.83629822106735,0.14497989627644,0.44158265835324334,0.2039508187168578,1216.117216117216,-1.0,79.12109139200773,3.671161489004976,
2023-08-09 16:16:52.989000,-3.036144578313253,0.5301204819277109,-9.481927710843374,0.5493562231759657,-2.5928877988963825,-9.169834457388104,2.0,3.6652014652014655,272.83629822106735,-0.3574383777169162,0.3589534409416706,0.0652642619893947,1228.5714285714284,-1.0,79.12109139200773,3.671108114250244,
2023-08-09 16:16:52.997000,-3.060240963855422,0.5180722891566265,-9.44578313253012,0.5787860208461066,-2.6223175965665235,-9.174739423666463,2.0,3.6652014652014655,272.83629822106735,0.010955072548219456,0.15640114212458453,-0.05827166249053105,1240.2930402930401,-1.0,79.12109139200773,3.6710543581710966,
2023-08-09 16:16:53.004000,-3.0481927710843375,0.49397590361445787,-9.433734939759036,0.6351931330472103,-2.6125076640098097,-9.123237277743716,2.0,3.6652014652014655,272.83629822106735,-0.4448458714527119,0.10990035545714054,-0.04382029019287913,1249.8168498168498,-1.0,79.12109139200773,3.6710002197342333,
2023-08-09 16:16:53.012000,-3.0481927710843375,0.5060240963855422,-9.46987951807229,0.6082158185162476,-2.614960147148988,-9.169834457388104,2.0,3.6652014652014655,272.83629822106735,0.061418332265018846,0.1553522521997553,0.001981236524678125,1256.4102564102564,-1.0,79.12109139200773,3.6709456983533757,
2023-08-09 16:16:53.020000,-3.060240963855422,0.49397590361445787,-9.46987951807229,0.568976088289393,-2.6321275291232373,-9.09871244635193,2.0,3.6652014652014655,272.83629822106735,-0.028786201270322147,0.39892780141017387,0.18530388671988796,1256.4102564102564,-1.0,79.12109139200773,3.6708907939056,
2023-08-09 16:16:53.027000,-3.0481927710843375,0.5060240963855422,-9.44578313253012,0.5567136725935009,-2.6713672593500917,-9.137952176578786,2.0,3.6652014652014655,272.83629822106735,-0.24380863586038026,0.028436571295379638,0.0017481498747160184,1254.9450549450548,-1.0,79.12109139200773,3.670835506747218,
2023-08-09 16:16:53.035000,-3.060240963855422,0.5180722891566265,-9.457831325301205,0.5542611894543225,-2.6100551808706314,-9.11587982832618,2.0,3.6652014652014655,272.83629822106735,-0.2429928325855144,-0.07668550783753793,0.09474972320960316,1252.7472527472526,-1.0,79.12109139200773,3.670779837729188,
2023-08-09 16:16:53.043000,-3.072289156626506,0.5180722891566265,-9.421686746987952,0.522378908645003,-2.676272225628449,-9.16002452483139,2.0,3.6637362637362645,272.9454109178164,0.004778276324222974,0.05990326904026623,0.33855835906998427,1251.2820512820513,-1.0,79.12109139200773,3.6707237882120363,
2023-08-09 16:16:53.050000,-3.060240963855422,0.5180722891566265,-9.433734939759036,0.5567136725935009,-2.637032495401594,-9.147762109135499,2.0,3.6652014652014655,272.83629822106735,-0.039624730493560766,0.22621059378824096,-0.061884505564943924,1248.3516483516482,-1.0,79.12109139200773,3.6706673595876396,
2023-08-09 16:16:53.058000,-3.060240963855422,0.5180722891566265,-9.457831325301205,0.5959534028203556,-2.656652360515021,-9.199264255058246,2.0,3.6652014652014655,272.83629822106735,-0.3755025930889806,0.08542625721111802,0.02925237457024636,1244.6886446886447,-1.0,79.12109139200773,3.6706105537136495,
2023-08-09 16:16:53.066000,-3.0481927710843375,0.5301204819277109,-9.44578313253012,0.6695278969957081,-2.5536480686695278,-9.174739423666463,2.0,3.6637362637362645,272.9454109178164,0.008973836023541765,0.2366994930365371,0.011887419148068318,1241.0256410256409,-1.0,79.12109139200773,3.6705533734514293,
2023-08-09 16:16:53.073000,-3.036144578313253,0.5180722891566265,-9.457831325301205,0.5444512568976088,-2.6713672593500917,-9.204169221336603,2.0,3.6637362637362645,272.9454109178164,-0.006409882873958155,0.15838237864926225,0.13285939047841044,1235.8974358974358,-1.0,79.12109139200773,3.6704958217278136,
2023-08-09 16:16:53.081000,-3.072289156626506,0.5060240963855422,-9.46987951807229,0.5787860208461066,-2.678724708767627,-9.16002452483139,2.0,3.6637362637362645,272.9454109178164,0.08635860381096644,-0.042188683643144376,-0.3542917079424276,1228.5714285714284,-1.0,79.12109139200773,3.6704379014747337,
2023-08-09 16:16:53.089000,-3.072289156626506,0.5180722891566265,-9.493975903614459,0.5885959534028203,-2.6345800122624157,-9.24095646842428,2.0,3.6652014652014655,272.83629822106735,-0.036011887419147896,-0.07132451488840903,0.16817201794767203,1224.1758241758241,-1.0,79.12109139200773,3.6703796160927724,
2023-08-09 16:16:53.096000,-3.0843373493975905,0.5060240963855422,-9.46987951807229,0.5616186388718577,-2.624770079705702,-9.120784794604537,2.0,3.6622710622710626,273.0546109221844,-0.14218285647689471,0.22026688421420615,0.10430627585805041,1219.047619047619,-1.0,79.12109139200773,3.670320969948403,
2023-08-09 16:16:53.104000,-3.072289156626506,0.5060240963855422,-9.481927710843374,0.5861434702636419,-2.619865113427345,-9.189454322501533,2.0,3.6637362637362645,272.9454109178164,-0.29252374570246537,0.23355282326204754,-0.1250509877046792,1216.117216117216,-1.0,79.12109139200773,3.6702619679221287,
2023-08-09 16:16:53.112000,-3.072289156626506,0.5060240963855422,-9.493975903614459,0.5836909871244634,-2.6223175965665235,-9.140404659717964,2.0,3.6637362637362645,272.9454109178164,0.046500786667444005,0.04894819649204678,-0.15372064565002053,1213.1868131868132,-1.0,79.12109139200773,3.6702026152394978,
2023-08-09 16:16:53.119000,-3.072289156626506,0.49397590361445787,-9.481927710843374,0.5419987737584304,-2.637032495401594,-9.11587982832618,2.0,3.6637362637362645,272.9454109178164,0.1554687955247361,0.30697511800011684,-0.10640405570770937,1209.5238095238094,-1.0,79.12109139200773,3.6701429179668996,
2023-08-09 16:16:53.127000,-3.0481927710843375,0.5060240963855422,-9.493975903614459,0.5763335377069282,-2.649294911097486,-9.201716738197424,2.0,3.6637362637362645,272.9454109178164,0.2150224345900581,0.07540353126274699,0.09218577006001999,1202.197802197802,-1.0,79.12109139200773,3.6700828820995253,
2023-08-09 16:16:53.135000,-3.0481927710843375,0.49397590361445787,-9.493975903614459,0.5959534028203556,-2.656652360515021,-9.19435928877989,2.0,3.6637362637362645,272.9454109178164,0.16723967134782317,0.30359536157566563,0.029718547870170576,1193.4065934065934,-1.0,79.12109139200773,3.6700225140884988,
2023-08-09 16:16:53.142000,-3.0481927710843375,0.49397590361445787,-9.481927710843374,0.598405885959534,-2.6002452483139176,-9.206621704475781,2.0,3.6637362637362645,272.9454109178164,0.19928908571761567,0.056756599265776704,0.1827399335703048,1186.8131868131868,-1.0,79.12109139200773,3.6699618208044487,
2023-08-09 16:16:53.150000,-3.024096385542169,0.5060240963855422,-9.457831325301205,0.5910484365419988,-2.5977927651747392,-9.152667075413856,2.0,3.6637362637362645,272.9454109178164,-0.20080414894237003,-0.019229648621874467,-0.24660567565992642,1182.4175824175823,804.290771484375,74.59988616960729,3.669900809569305,
2023-08-09 16:16:53.158000,-3.024096385542169,0.46987951807228917,-9.457831325301205,0.5469037400367872,-2.619865113427345,-9.213979153893316,2.0,3.6637362637362645,272.9454109178164,0.10791911893246285,0.14731076277606195,0.2596585280578057,1183.150183150183,-1.0,74.59988616960729,3.669839488117328,
2023-08-09 16:16:53.165000,-3.024096385542169,0.46987951807228917,-9.433734939759036,0.5199264255058246,-2.62722256284488,-9.113427345187,2.0,3.6637362637362645,272.9454109178164,-0.014218285647689819,-0.2061651418914989,0.027853854670473722,1191.9413919413919,-1.0,74.59988616960729,3.6697778646244816,
2023-08-09 16:16:53.173000,-3.036144578313253,0.49397590361445787,-9.457831325301205,0.5665236051502146,-2.6002452483139176,-9.096259963212752,2.0,3.6637362637362645,272.9454109178164,-0.22807528698793783,-0.45043995105180423,0.04277140026804986,1215.3846153846152,-1.0,74.59988616960729,3.6697159481250297,
2023-08-09 16:16:53.181000,-3.036144578313253,0.46987951807228917,-9.457831325301205,0.5321888412017167,-2.62722256284488,-9.150214592274677,2.0,3.6637362637362645,272.9454109178164,-0.08624206048598561,-0.2946215255521239,0.04113979371831468,1262.2710622710622,-1.0,74.59988616960729,3.6696537480136215,
2023-08-09 16:16:53.188000,-3.0481927710843375,0.4819277108433735,-9.46987951807229,0.5199264255058246,-2.6419374616799507,-9.177191906805641,2.0,3.6637362637362645,272.9454109178164,-0.1313443272536561,-0.1715517743721228,0.5140726064914634,1337.7289377289376,-1.0,74.59988616960729,3.6695912740387455,
2023-08-09 16:16:53.196000,-3.0843373493975905,0.46987951807228917,-9.44578313253012,0.5763335377069282,-2.590435315757204,-9.184549356223176,2.0,3.6637362637362645,272.9454109178164,-0.3750364197890573,0.07563661791270866,0.03717732066895886,1443.956043956044,-1.0,74.59988616960729,3.6695285362949757,
2023-08-09 16:16:53.203000,-3.072289156626506,0.49397590361445787,-9.457831325301205,0.5738810545677498,-2.614960147148988,-9.14530962599632,2.0,3.6637362637362645,272.9454109178164,-0.3250393333721812,0.08892255696055006,0.05454227609113691,1582.4175824175823,-1.0,74.59988616960729,3.669465545214074,
2023-08-09 16:16:53.211000,-3.072289156626506,0.4819277108433735,-9.433734939759036,0.5297363580625383,-2.6419374616799507,-9.164929491109747,2.0,3.6637362637362645,272.9454109178164,-0.627352718373056,0.17761202727113842,0.2969523920517454,1746.5201465201465,-1.0,74.59988616960729,3.6694023115550674,
2023-08-09 16:16:53.219000,-3.0481927710843375,0.49397590361445787,-9.457831325301205,0.5910484365419988,-2.6640098099325566,-9.184549356223176,2.0,3.6622710622710626,273.0546109221844,-0.19497698269331604,0.6034613367519376,-0.2838995396538661,1929.6703296703295,-1.0,74.59988616960729,3.6693388463933494,
2023-08-09 16:16:53.226000,-3.072289156626506,0.49397590361445787,-9.46987951807229,0.5640711220110362,-2.6125076640098097,-9.128142244022072,2.0,3.6637362637362645,272.9454109178164,-0.19357846279354426,0.5983334304527703,-0.2835499096789232,2119.4139194139193,-1.0,74.59988616960729,3.669275160616294,
2023-08-09 16:16:53.234000,-3.060240963855422,0.49397590361445787,-9.457831325301205,0.5910484365419988,-2.6811771919068055,-9.150214592274677,2.0,3.6637362637362645,272.9454109178164,-0.19124759629392235,0.39601421828564776,-0.054425732766155636,2303.296703296703,-1.0,74.59988616960729,3.669211265331254,
2023-08-09 16:16:53.242000,-3.0843373493975905,0.5060240963855422,-9.457831325301205,0.5787860208461066,-2.5977927651747392,-9.162477007970569,2.0,3.6652014652014655,272.83629822106735,-0.17423227084668724,0.9264028902744603,-0.1450964396014217,2470.32967032967,-1.0,74.59988616960729,3.66914717237694,
2023-08-09 16:16:53.249000,-3.036144578313253,0.49397590361445787,-9.493975903614459,0.5346413243408952,-2.656652360515021,-9.128142244022072,2.0,3.6622710622710626,273.0546109221844,-0.17003671114736846,0.9213915273002738,-0.14521298292640297,2607.326007326007,-1.0,74.59988616960729,3.669082894343967,
2023-08-09 16:16:53.257000,-3.060240963855422,0.5060240963855422,-9.44578313253012,0.5836909871244634,-2.595340282035561,-9.174739423666463,2.0,3.660805860805861,273.16389833900337,-0.3947322417108568,0.36233319736612,0.14532952625138382,2710.6227106227107,-1.0,74.59988616960729,3.6690184441049287,
2023-08-09 16:16:53.265000,-3.036144578313253,0.5301204819277109,-9.457831325301205,0.615573267933783,-2.5708154506437766,-9.133047210300429,2.0,3.6622710622710626,273.0546109221844,-0.6477478002447405,0.21945108093933857,0.20534933861663088,2775.091575091575,-1.0,74.59988616960729,3.668953833185002,
2023-08-09 16:16:53.272000,-3.036144578313253,0.5301204819277109,-9.481927710843374,0.657265481299816,-2.607602697731453,-9.108522378908644,2.0,3.6622710622710626,273.0546109221844,-0.45766563720062997,-0.10687022900763359,-0.14789347940096742,2796.336996336996,-1.0,74.59988616960729,3.6688890726569974,
2023-08-09 16:16:53.280000,-3.072289156626506,0.5060240963855422,-9.46987951807229,0.615573267933783,-2.6223175965665235,-9.16002452483139,2.0,3.6637362637362645,272.9454109178164,-0.14637841617621353,0.04183905366820187,-0.3614008507662725,2775.8241758241757,-1.0,74.59988616960729,3.6688241741371503,
2023-08-09 16:16:53.288000,-3.060240963855422,0.5180722891566265,-9.481927710843374,0.6131207847946045,-2.62722256284488,-9.101164929491109,2.0,3.6637362637362645,272.9454109178164,-0.3415884855194912,-0.13087815395373276,-0.32620476662199177,2716.4835164835163,-1.0,74.59988616960729,3.668759149797391,
2023-08-09 16:16:53.295000,-3.060240963855422,0.5301204819277109,-9.481927710843374,0.598405885959534,-2.6713672593500917,-9.164929491109747,2.0,3.6637362637362645,272.9454109178164,-0.09405046325971728,-0.05710622924072095,-0.06281685216479235,2624.908424908425,-1.0,74.59988616960729,3.6686940124146314,
2023-08-09 16:16:53.303000,-3.060240963855422,0.5301204819277109,-9.493975903614459,0.5346413243408952,-2.5757204169221337,-9.120784794604537,2.0,3.6637362637362645,272.9454109178164,-0.229706893537673,-0.16630732474797474,-0.39764582483538247,2501.8315018315016,-1.0,74.59988616960729,3.6686287748953306,
2023-08-09 16:16:53.311000,-3.036144578313253,0.5180722891566265,-9.46987951807229,0.5910484365419988,-2.62722256284488,-9.152667075413856,2.0,3.6637362637362645,272.9454109178164,-0.37783345958860254,0.183206106870229,-0.04335411689295491,2358.974358974359,-1.0,74.59988616960729,3.6685634502585005,
2023-08-09 16:16:53.318000,-3.024096385542169,0.5060240963855422,-9.46987951807229,0.598405885959534,-2.5977927651747392,-9.155119558553034,2.0,3.6622710622710626,273.0546109221844,-0.07015908163859894,-0.20033797564244493,0.01771458539712142,2201.4652014652015,-1.0,74.59988616960729,3.6684980516193813,
2023-08-09 16:16:53.326000,-3.060240963855422,0.49397590361445787,-9.481927710843374,0.6106683016554261,-2.6345800122624157,-9.16002452483139,2.0,3.6622710622710626,273.0546109221844,-0.1443971796515358,-0.01713186877221594,0.12318629450498236,2039.5604395604394,-1.0,74.59988616960729,3.6684325916812655,
2023-08-09 16:16:53.334000,-3.036144578313253,0.49397590361445787,-9.46987951807229,0.6033108522378908,-2.62722256284488,-9.155119558553034,2.0,3.6622710622710626,273.0546109221844,0.10442281918303081,0.18087524037060707,0.07668550783753879,1879.120879120879,-1.0,74.59988616960729,3.668367082648699,
2023-08-09 16:16:53.341000,-3.0481927710843375,0.49397590361445787,-9.481927710843374,0.5199264255058246,-2.5830778663396687,-9.157572041692212,2.0,3.6622710622710626,273.0546109221844,0.10360701590816322,-0.017831128722102692,0.24322591923547562,1725.2747252747251,-1.0,74.59988616960729,3.6683015366662164,
2023-08-09 16:16:53.349000,-3.036144578313253,0.5060240963855422,-9.433734939759036,0.6057633353770693,-2.56591048436542,-9.13059472716125,2.0,3.6622710622710626,273.0546109221844,0.5160538430161419,-0.18868364314433872,0.22644368043820307,1580.9523809523807,-1.0,74.59988616960729,3.6682359657996977,
2023-08-09 16:16:53.357000,-3.0481927710843375,0.49397590361445787,-9.44578313253012,0.6131207847946045,-2.6517473942366645,-9.152667075413856,2.0,3.6622710622710626,273.0546109221844,-0.008973836023541765,-0.23588368976166948,0.16211176504865682,1447.6190476190475,-1.0,74.59988616960729,3.668170382018358,
2023-08-09 16:16:53.364000,-3.060240963855422,0.5180722891566265,-9.433734939759036,0.5640711220110362,-2.617412630288167,-9.155119558553034,2.0,3.6622710622710626,273.0546109221844,0.06677932521414773,-0.31175339432433985,0.11631023833109956,1328.2051282051282,-1.0,74.59988616960729,3.668104797177465,
2023-08-09 16:16:53.372000,-3.0481927710843375,0.5180722891566265,-9.481927710843374,0.6253832004904966,-2.617412630288167,-9.196811771919068,2.0,3.6622710622710626,273.0546109221844,0.15395373229998177,-0.5228133558650425,0.20721403181632775,1228.5714285714284,-1.0,74.59988616960729,3.6680392230018795,
2023-08-09 16:16:53.380000,-3.060240963855422,0.5060240963855422,-9.457831325301205,0.6229307173513182,-2.6125076640098097,-9.125689760882894,2.0,3.6622710622710626,273.0546109221844,0.4427480916030534,-0.45987996037526935,0.14229939980187642,1145.7875457875457,-1.0,74.59988616960729,3.6679736710705493,
2023-08-09 16:16:53.387000,-3.0843373493975905,0.5180722891566265,-9.481927710843374,0.5935009196811771,-2.602697731453096,-9.169834457388104,2.0,3.6622710622710626,273.0546109221844,0.17970980712079695,-0.45871452712545924,-0.13484062700308858,1079.8534798534797,-1.0,74.59988616960729,3.667908152802034,
2023-08-09 16:16:53.395000,-3.0843373493975905,0.5301204819277109,-9.481927710843374,0.6057633353770693,-2.619865113427345,-9.213979153893316,2.0,3.6622710622710626,273.0546109221844,0.11724258493094886,-0.19835673911776724,0.18460462677000164,1026.3736263736264,-1.0,74.59988616960729,3.6678426794411227,
2023-08-09 16:16:53.403000,-3.060240963855422,0.5301204819277109,-9.46987951807229,0.5836909871244634,-2.6615573267933783,-9.187001839362354,2.0,3.659340659340659,273.2732732732733,0.13344210710331636,-0.10710331565759526,0.2576772915331276,983.1501831501831,-1.0,74.59988616960729,3.6677772620466755,
2023-08-09 16:16:53.410000,-3.0843373493975905,0.5180722891566265,-9.493975903614459,0.5812385039852851,-2.713059472716125,-9.108522378908644,2.0,3.659340659340659,273.2732732732733,0.1495250859507013,0.0597867257152854,0.330167239671348,950.9157509157509,-1.0,74.59988616960729,3.667711910953258,
2023-08-09 16:16:53.418000,-3.072289156626506,0.5301204819277109,-9.46987951807229,0.6302881667688535,-2.5928877988963825,-9.17964438994482,2.0,3.660805860805861,273.16389833900337,0.2096614416409292,-0.10908455218227295,-0.25394790513373344,933.3333333333333,-1.0,74.59988616960729,3.6676466355499375,
2023-08-09 16:16:53.426000,-3.0843373493975905,0.5421686746987953,-9.46987951807229,0.6082158185162476,-2.644389944819129,-9.120784794604537,2.0,3.660805860805861,273.16389833900337,0.48493677524619777,0.09136996678515283,0.00780840277373123,931.1355311355311,-1.0,74.59988616960729,3.667581445181017,
2023-08-09 16:16:53.433000,-3.0481927710843375,0.5301204819277109,-9.44578313253012,0.5861434702636419,-2.6811771919068055,-9.135499693439607,2.0,3.660805860805861,273.16389833900337,-0.0816968708117243,-0.06153487559000141,-0.20651477186644143,942.8571428571428,-1.0,74.59988616960729,3.667516349202767,
2023-08-09 16:16:53.441000,-3.072289156626506,0.5060240963855422,-9.46987951807229,0.5272838749233598,-2.654199877375843,-9.137952176578786,2.0,3.660805860805861,273.16389833900337,0.04486918011770882,0.03158324106986743,-0.19089796631897896,963.3699633699633,-1.0,74.59988616960729,3.6674513560574646,
2023-08-09 16:16:53.449000,-3.072289156626506,0.5180722891566265,-9.457831325301205,0.5910484365419988,-2.644389944819129,-9.137952176578786,2.0,3.660805860805861,273.16389833900337,0.22679331041314688,-0.10652059903269108,-0.2517335819590932,990.4761904761904,-1.0,74.59988616960729,3.6673864737886808,
2023-08-09 16:16:53.456000,-3.072289156626506,0.5060240963855422,-9.457831325301205,0.6057633353770693,-2.6321275291232373,-9.155119558553034,2.0,3.660805860805861,273.16389833900337,-0.005011362974186382,-0.16922090787250085,-0.20360118874191488,1022.7106227106226,-1.0,74.59988616960729,3.6673217104530575,
2023-08-09 16:16:53.464000,-3.060240963855422,0.5180722891566265,-9.46987951807229,0.5444512568976088,-2.6811771919068055,-9.177191906805641,2.0,3.660805860805861,273.16389833900337,-0.0030301264495069553,-0.4606957636501369,-0.23180467338733154,1060.07326007326,-1.0,74.59988616960729,3.667257073619501,
2023-08-09 16:16:53.472000,-3.0481927710843375,0.49397590361445787,-9.46987951807229,0.5959534028203556,-2.5634580012262416,-9.155119558553034,2.0,3.660805860805861,273.16389833900337,-0.04754967659227327,-0.018646931996970283,-0.10826874890740623,1106.9597069597069,-1.0,74.59988616960729,3.6671925699038597,
2023-08-09 16:16:53.479000,-3.0843373493975905,0.49397590361445787,-9.46987951807229,0.5542611894543225,-2.6051502145922747,-9.184549356223176,2.0,3.660805860805861,273.16389833900337,0.1222539479051335,0.1177087582308722,-0.06060252899015212,1158.2417582417581,-1.0,74.59988616960729,3.667128205029486,
2023-08-09 16:16:53.487000,-3.060240963855422,0.46987951807228917,-9.46987951807229,0.5567136725935009,-2.590435315757204,-9.120784794604537,2.0,3.660805860805861,273.16389833900337,0.15348755900005842,0.11444554513140184,0.07400501136297435,1210.989010989011,-1.0,74.59988616960729,3.6670639847676805,
2023-08-09 16:16:53.495000,-3.0481927710843375,0.4819277108433735,-9.44578313253012,0.6008583690987124,-2.5806253832004904,-9.172286940527284,2.0,3.660805860805861,273.16389833900337,0.01654915214731002,0.08111415418681839,-0.1877512965444903,1265.9340659340658,-1.0,74.59988616960729,3.666999914861936,
2023-08-09 16:16:53.502000,-3.060240963855422,0.46987951807228917,-9.457831325301205,0.5370938074800735,-2.656652360515021,-9.182096873083998,2.0,3.660805860805861,273.16389833900337,0.01666569547229259,0.07808402773731143,-0.18891672979430083,1319.4139194139193,-1.0,74.59988616960729,3.6669360005327825,
2023-08-09 16:16:53.510000,-3.072289156626506,0.4819277108433735,-9.506024096385543,0.5591661557326794,-2.6296750459840585,-9.155119558553034,2.0,3.660805860805861,273.16389833900337,0.1559349688246612,-0.16642386807295556,-0.29450498222714305,1367.032967032967,-1.0,74.59988616960729,3.66687224647647,
2023-08-09 16:16:53.518000,-3.0481927710843375,0.49397590361445787,-9.44578313253012,0.6106683016554261,-2.6296750459840585,-9.133047210300429,2.0,3.6622710622710626,273.0546109221844,-0.10407318920808831,0.0927684866849246,-0.20255229881708517,1405.8608058608058,-1.0,74.59988616960729,3.6668086568648524,
2023-08-09 16:16:53.525000,-3.036144578313253,0.49397590361445787,-9.457831325301205,0.5714285714285714,-2.6394849785407724,-9.13059472716125,2.0,3.660805860805861,273.16389833900337,-0.14649495950119434,-0.09323465998484969,-0.23098887011246438,1440.2930402930401,-1.0,74.59988616960729,3.666745235839274,
2023-08-09 16:16:53.533000,-3.060240963855422,0.49397590361445787,-9.457831325301205,0.539546290619252,-2.6051502145922747,-9.150214592274677,2.0,3.660805860805861,273.16389833900337,-0.0067595128489024,-0.034613367519376124,-0.14008507662723618,1465.9340659340658,-1.0,74.59988616960729,3.666681987092701,
2023-08-09 16:16:53.541000,-3.0843373493975905,0.4819277108433735,-9.481927710843374,0.6008583690987124,-2.6321275291232373,-9.184549356223176,2.0,3.660805860805861,273.16389833900337,-0.29403880892721795,-0.2631548278072373,-0.06456500203950837,1483.5164835164835,-1.0,74.59988616960729,3.6666189133492884,
2023-08-09 16:16:53.548000,-3.072289156626506,0.49397590361445787,-9.481927710843374,0.627835683629675,-2.619865113427345,-9.118332311465359,2.0,3.660805860805861,273.16389833900337,0.04416992016782207,-0.2483538255346433,-0.04685041664238695,1490.8424908424906,-1.0,74.59988616960729,3.6665560168284665,
2023-08-09 16:16:53.556000,-3.060240963855422,0.49397590361445787,-9.481927710843374,0.5812385039852851,-2.649294911097486,-9.169834457388104,2.0,3.659340659340659,273.2732732732733,-0.04638424334246317,-0.0654973486393568,-0.27469261698036224,1487.9120879120878,-1.0,74.59988616960729,3.6664932987948426,
2023-08-09 16:16:53.564000,-3.072289156626506,0.5060240963855422,-9.493975903614459,0.522378908645003,-2.637032495401594,-9.14530962599632,2.0,3.659340659340659,273.2732732732733,0.08997144688537932,0.0079249460987125,-0.24380863586038112,1480.5860805860805,-1.0,74.59988616960729,3.6664307600579265,
2023-08-09 16:16:53.571000,-3.072289156626506,0.49397590361445787,-9.46987951807229,0.5885959534028203,-2.6738197424892705,-9.096259963212752,2.0,3.660805860805861,273.16389833900337,0.04521881009265133,0.050929433016724465,-0.05827166249053105,1465.201465201465,-1.0,74.59988616960729,3.666368401264876,
2023-08-09 16:16:53.579000,-3.0481927710843375,0.5060240963855422,-9.481927710843374,0.5885959534028203,-2.614960147148988,-9.189454322501533,2.0,3.660805860805861,273.16389833900337,-0.2424101159606085,-0.2884447293281274,-0.08519317056115591,1441.0256410256409,-1.0,74.59988616960729,3.6663062224199665,
2023-08-09 16:16:53.586000,-3.0843373493975905,0.5301204819277109,-9.46987951807229,0.5591661557326794,-2.695892090741876,-9.164929491109747,2.0,3.660805860805861,273.16389833900337,-0.2387972728861956,-0.09171959676009533,-0.39135248528640515,1410.2564102564102,-1.0,74.59988616960729,3.6662442234945227,
2023-08-09 16:16:53.594000,-3.060240963855422,0.49397590361445787,-9.46987951807229,0.5910484365419988,-2.637032495401594,-9.177191906805641,2.0,3.660805860805861,273.16389833900337,-0.05151214964162865,-0.32165957694773,-0.21816910436454764,1375.8241758241757,-1.0,74.59988616960729,3.6661824039509976,
2023-08-09 16:16:53.602000,-3.060240963855422,0.5060240963855422,-9.481927710843374,0.6229307173513182,-2.6100551808706314,-9.14530962599632,2.0,3.660805860805861,273.16389833900337,0.3460171318687717,-0.19963871569255817,-0.33704329584523035,1341.3919413919414,-1.0,74.59988616960729,3.666120762338096,
2023-08-09 16:16:53.609000,-3.072289156626506,0.5180722891566265,-9.44578313253012,0.568976088289393,-2.6345800122624157,-9.140404659717964,2.0,3.660805860805861,273.16389833900337,0.14532952625138426,-0.09381737660975387,-0.41186411048307187,1305.4945054945053,-1.0,74.59988616960729,3.6660592968008974,
2023-08-09 16:16:53.617000,-3.060240963855422,0.5180722891566265,-9.44578313253012,0.5935009196811771,-2.649294911097486,-9.169834457388104,2.0,3.660805860805861,273.16389833900337,0.2371656663364604,-0.20313501544199022,-0.3479983683934503,1270.3296703296703,-1.0,74.59988616960729,3.6659980051001835,
2023-08-09 16:16:53.625000,-3.060240963855422,0.5060240963855422,-9.46987951807229,0.6008583690987124,-2.646842427958308,-9.206621704475781,2.0,3.660805860805861,273.16389833900337,0.28110249985432084,-0.09696404638424339,0.21700367111473667,1236.6300366300366,-1.0,74.59988616960729,3.6659368846336875,
2023-08-09 16:16:53.632000,-3.060240963855422,0.49397590361445787,-9.44578313253012,0.5272838749233598,-2.6223175965665235,-9.106069895769465,2.0,3.659340659340659,273.2732732732733,0.09684750305926255,-0.32853563312161327,0.19952217236757777,1205.8608058608058,-1.0,74.59988616960729,3.665875932459221,
2023-08-09 16:16:53.640000,-3.060240963855422,0.5060240963855422,-9.44578313253012,0.5738810545677498,-2.654199877375843,-9.125689760882894,2.0,3.660805860805861,273.16389833900337,0.40265718780956755,0.024124468271080012,-0.04498572344268966,1179.4871794871794,-1.0,74.59988616960729,3.665815144827036,
2023-08-09 16:16:53.648000,-3.060240963855422,0.4819277108433735,-9.433734939759036,0.5861434702636419,-2.578172900061312,-9.189454322501533,2.0,3.660805860805861,273.16389833900337,0.24916962880950913,-0.1604801584989225,0.2771400268049646,1157.5091575091574,-1.0,74.59988616960729,3.6657545176272244,
2023-08-09 16:16:53.655000,-3.060240963855422,0.49397590361445787,-9.44578313253012,0.5567136725935009,-2.595340282035561,-9.147762109135499,2.0,3.659340659340659,273.2732732732733,0.4010255812598341,-0.2505681487092827,0.015150632247537814,1140.6593406593406,-1.0,74.59988616960729,3.665694047400832,
2023-08-09 16:16:53.663000,-3.0481927710843375,0.4819277108433735,-9.44578313253012,0.5665236051502146,-2.6640098099325566,-9.150214592274677,2.0,3.659340659340659,273.2732732732733,0.09300157333488801,-0.006060252899015646,-0.03135015441990576,1127.4725274725274,-1.0,74.59988616960729,3.6656337298941652,
2023-08-09 16:16:53.671000,-3.0481927710843375,0.5060240963855422,-9.46987951807229,0.539546290619252,-2.617412630288167,-9.189454322501533,2.0,3.659340659340659,273.2732732732733,0.1665404113979364,-0.03904201386865485,0.3857584056873142,1115.7509157509157,-1.0,74.59988616960729,3.6655735595972008,
2023-08-09 16:16:53.678000,-3.036144578313253,0.49397590361445787,-9.44578313253012,0.6523605150214592,-2.624770079705702,-9.16002452483139,2.0,3.659340659340659,273.2732732732733,0.4844706019462727,-0.14789347940096786,0.24415826583532407,1106.227106227106,-1.0,74.59988616960729,3.6655135307213738,
2023-08-09 16:16:53.686000,-3.0481927710843375,0.5060240963855422,-9.46987951807229,0.568976088289393,-2.6223175965665235,-9.14530962599632,2.0,3.659340659340659,273.2732732732733,0.09766330633413015,0.1715517743721228,-0.2170036711147371,1098.168498168498,-1.0,74.59988616960729,3.6654536372278548,
2023-08-09 16:16:53.694000,-3.0481927710843375,0.5060240963855422,-9.46987951807229,0.5885959534028203,-2.617412630288167,-9.196811771919068,2.0,3.659340659340659,273.2732732732733,0.08192995746168598,0.41431152030767376,-0.13833692675252018,1094.5054945054944,-1.0,74.59988616960729,3.6653938728568267,
2023-08-09 16:16:53.701000,-3.060240963855422,0.5060240963855422,-9.481927710843374,0.6180257510729613,-2.676272225628449,-9.199264255058246,2.0,3.659340659340659,273.2732732732733,-0.2370491230114796,0.21105996154070272,9.323465998484274E-4,1095.2380952380952,-1.0,74.59988616960729,3.665334231615573,
2023-08-09 16:16:53.709000,-3.036144578313253,0.49397590361445787,-9.481927710843374,0.5567136725935009,-2.614960147148988,-9.172286940527284,2.0,3.659340659340659,273.2732732732733,-0.08227958743663023,0.146028786201271,0.0170153254472351,1098.9010989010987,-1.0,74.59988616960729,3.6652747072844476,
2023-08-09 16:16:53.717000,-3.036144578313253,0.5060240963855422,-9.481927710843374,0.598405885959534,-2.619865113427345,-9.162477007970569,2.0,3.659340659340659,273.2732732732733,-0.05069634636676106,-0.023541751646174093,-0.2701474273061009,1104.7619047619046,-1.0,74.59988616960729,3.6652152939434046,
2023-08-09 16:16:53.724000,-3.060240963855422,0.5060240963855422,-9.481927710843374,0.5469037400367872,-2.548743102391171,-9.17964438994482,2.0,3.659340659340659,273.2732732732733,-0.09673095973428172,0.1281976574791683,0.14358137637666823,1111.3553113553112,-1.0,74.59988616960729,3.6651559859043013,
2023-08-09 16:16:53.732000,-3.0481927710843375,0.49397590361445787,-9.481927710843374,0.5591661557326794,-2.607602697731453,-9.204169221336603,2.0,3.659340659340659,273.2732732732733,-0.1554687955247361,-0.058388205815511886,0.1717848610220849,1117.2161172161173,-1.0,74.59988616960729,3.6650967768340843,
2023-08-09 16:16:53.740000,-3.0481927710843375,0.4819277108433735,-9.46987951807229,0.568976088289393,-2.590435315757204,-9.147762109135499,2.0,3.659340659340659,273.2732732732733,-0.2760911368801344,0.20173649554221845,0.04964745644193223,1120.14652014652,-1.0,74.59988616960729,3.6650376602837302,
2023-08-09 16:16:53.747000,-3.036144578313253,0.5060240963855422,-9.46987951807229,0.5812385039852851,-2.6002452483139176,-9.164929491109747,2.0,3.659340659340659,273.2732732732733,-0.3355282326204773,-0.18134141367053214,-0.10255812598333439,1123.8095238095236,-1.0,74.59988616960729,3.6649786297243945,
2023-08-09 16:16:53.755000,-3.060240963855422,0.4819277108433735,-9.44578313253012,0.6376456161863887,-2.6394849785407724,-9.164929491109747,2.0,3.659340659340659,273.2732732732733,-0.24322591923547607,-0.07260649146320171,-0.02412446827107958,1126.007326007326,-1.0,74.59988616960729,3.664919678583365,
2023-08-09 16:16:53.763000,-3.072289156626506,0.49397590361445787,-9.44578313253012,0.5321888412017167,-2.619865113427345,-9.155119558553034,2.0,3.659340659340659,273.2732732732733,-0.22679331041314688,-0.24031233611094996,0.05524153604102323,1128.2051282051282,-1.0,74.59988616960729,3.6648608002797616,
2023-08-09 16:16:53.770000,-3.0481927710843375,0.49397590361445787,-9.457831325301205,0.5738810545677498,-2.6591048436541995,-9.157572041692212,2.0,3.659340659340659,273.2732732732733,-0.13146087057863695,-0.11677641163102377,-0.17318338092185753,1130.4029304029302,-1.0,74.59988616960729,3.6648019882599154,
2023-08-09 16:16:53.778000,-3.0481927710843375,0.4819277108433735,-9.457831325301205,0.5812385039852851,-2.6394849785407724,-9.09871244635193,2.0,3.659340659340659,273.2732732732733,-0.1307616106287519,-0.11619369500611786,-0.17236757764699037,1132.6007326007325,-1.0,74.59988616960729,3.6647432360323626,
2023-08-09 16:16:53.786000,-3.0481927710843375,0.5060240963855422,-9.457831325301205,0.5910484365419988,-2.6125076640098097,-9.108522378908644,2.0,3.659340659340659,273.2732732732733,0.06864401841384458,-0.0079249460987125,-0.17283375094691458,1134.065934065934,-1.0,74.59988616960729,3.6646845372024104,
2023-08-09 16:16:53.793000,-3.036144578313253,0.49397590361445787,-9.457831325301205,0.5959534028203556,-2.654199877375843,-9.182096873083998,2.0,3.659340659340659,273.2732732732733,0.02191014509643891,-0.0071091428238449095,-0.17038634112231227,1136.2637362637363,-1.0,74.59988616960729,3.6646258855061946,
2023-08-09 16:16:53.801000,-3.0481927710843375,0.49397590361445787,-9.457831325301205,0.5542611894543225,-2.646842427958308,-9.157572041692212,2.0,3.659340659340659,273.2732732732733,-0.022959035021269912,-0.11514480508128859,-1.1654332498127038E-4,1138.4615384615383,-1.0,74.59988616960729,3.6645672748442095,
2023-08-09 16:16:53.809000,-3.0481927710843375,0.46987951807228917,-9.44578313253012,0.5444512568976088,-2.585530349478847,-9.184549356223176,2.0,3.659340659340659,273.2732732732733,-0.13285939047841044,-0.05209486626653457,-0.21234193811549454,1139.9267399267399,-1.0,74.59988616960729,3.6645086993142124,
2023-08-09 16:16:53.816000,-3.036144578313253,0.5180722891566265,-9.46987951807229,0.5959534028203556,-2.6738197424892705,-9.147762109135499,2.0,3.659340659340659,273.2732732732733,-0.16176213507371343,-0.007342229473806583,-0.16304411164850524,1141.3919413919414,-1.0,74.59988616960729,3.6644501532434988,
2023-08-09 16:16:53.824000,-3.036144578313253,0.5060240963855422,-9.44578313253012,0.6204782342121398,-2.607602697731453,-9.162477007970569,2.0,3.659340659340659,273.2732732732733,-0.08437736728628875,0.3138511741739983,0.006176796223996482,1142.857142857143,-1.0,74.59988616960729,3.664391631220468,
2023-08-09 16:16:53.832000,-3.0481927710843375,0.49397590361445787,-9.457831325301205,0.5935009196811771,-2.617412630288167,-9.137952176578786,2.0,3.659340659340659,273.2732732732733,-0.2685158207563662,-0.022959035021269912,0.3107045043995106,1145.054945054945,-1.0,74.59988616960729,3.664333128125435,
2023-08-09 16:16:53.839000,-3.036144578313253,0.49397590361445787,-9.46987951807229,0.5665236051502146,-2.6223175965665235,-9.187001839362354,2.0,3.659340659340659,273.2732732732733,-0.006293339548977319,-0.252782471883922,0.09521589650952737,1147.985347985348,-1.0,74.59988616960729,3.6642746396185353,
2023-08-09 16:16:53.847000,-3.060240963855422,0.5060240963855422,-9.506024096385543,0.5910484365419988,-2.6394849785407724,-9.187001839362354,2.0,3.659340659340659,273.2732732732733,0.10022725948371375,0.11665986830604294,-0.04323757356797407,1152.3809523809523,-1.0,74.59988616960729,3.6642161621016403,
2023-08-09 16:16:53.855000,-3.060240963855422,0.5060240963855422,-9.506024096385543,0.5469037400367872,-2.708154506437768,-9.213979153893316,2.0,3.659340659340659,273.2732732732733,0.05360992949128891,-0.05023017306683771,-0.027853854670473722,1152.3809523809523,-1.0,74.59988616960729,3.664157691800411,
2023-08-09 16:16:53.862000,-3.0481927710843375,0.5180722891566265,-9.46987951807229,0.5763335377069282,-2.6100551808706314,-9.172286940527284,2.0,3.6564102564102563,273.492286115007,0.28168521647922673,-0.26140667793252126,-0.13460754035312647,1167.032967032967,-1.0,74.59988616960729,3.6640992248625506,
2023-08-09 16:16:53.870000,-3.036144578313253,0.5060240963855422,-9.493975903614459,0.6548129981606376,-2.6296750459840585,-9.187001839362354,2.0,3.6578754578754586,273.3827358301622,0.033914107569489364,0.09311811665986884,0.2633879144571994,1181.6849816849815,-1.0,74.59988616960729,3.6640407573480913,
2023-08-09 16:16:53.878000,-3.060240963855422,0.5180722891566265,-9.46987951807229,0.598405885959534,-2.5830778663396687,-9.142857142857142,2.0,3.6578754578754586,273.3827358301622,0.04871510984208337,0.2010372355923317,-0.07423809801293646,1196.3369963369962,-1.0,74.59988616960729,3.6639822855345145,
2023-08-09 16:16:53.885000,-3.060240963855422,0.5301204819277109,-9.46987951807229,0.645003065603924,-2.666462293071735,-9.157572041692212,2.0,3.6578754578754586,273.3827358301622,0.2924072023774845,0.17038634112231268,0.2633879144571994,1210.989010989011,-1.0,74.59988616960729,3.6639238059703407,
2023-08-09 16:16:53.893000,-3.036144578313253,0.5060240963855422,-9.481927710843374,0.6082158185162476,-2.62722256284488,-9.09871244635193,2.0,3.6578754578754586,273.3827358301622,-0.1988229124176906,0.06677932521414773,-0.02703805139560613,1224.9084249084249,-1.0,74.59988616960729,3.6638653151033465,
2023-08-09 16:16:53.901000,-3.060240963855422,0.5180722891566265,-9.44578313253012,0.5346413243408952,-2.6100551808706314,-9.128142244022072,2.0,3.659340659340659,273.2732732732733,0.01654915214731002,0.007691859448750828,-0.14812656605092953,1235.164835164835,-1.0,74.59988616960729,3.663806809785489,
2023-08-09 16:16:53.908000,-3.072289156626506,0.49397590361445787,-9.481927710843374,0.5959534028203556,-2.6125076640098097,-9.110974862047822,2.0,3.6578754578754586,273.3827358301622,-0.244507895810267,0.028553114620360476,0.08227958743662936,1243.956043956044,-1.0,74.59988616960729,3.6637482877762206,
2023-08-09 16:16:53.916000,-3.0481927710843375,0.5060240963855422,-9.44578313253012,0.615573267933783,-2.607602697731453,-9.152667075413856,2.0,3.6578754578754586,273.3827358301622,0.04556844006759558,-0.12027271138045581,0.0532602995163451,1249.8168498168498,-1.0,74.59988616960729,3.663689747331084,
2023-08-09 16:16:53.924000,-3.060240963855422,0.49397590361445787,-9.46987951807229,0.5665236051502146,-2.619865113427345,-9.177191906805641,2.0,3.6578754578754586,273.3827358301622,0.04556844006759558,-0.07085834158848568,-0.11584406503117535,1252.014652014652,-1.0,74.59988616960729,3.663631186684759,
2023-08-09 16:16:53.931000,-3.060240963855422,0.5301204819277109,-9.44578313253012,0.5836909871244634,-2.6811771919068055,-9.167381974248926,2.0,3.6578754578754586,273.3827358301622,-0.03251558766971586,-0.11258085193170499,0.4356389487792085,1250.5494505494505,-1.0,74.59988616960729,3.663572604515625,
2023-08-09 16:16:53.939000,-3.0481927710843375,0.5180722891566265,-9.457831325301205,0.5640711220110362,-2.656652360515021,-9.16002452483139,2.0,3.6578754578754586,273.3827358301622,-0.09474972320960402,-0.18623623331973596,0.172017947672047,1246.8864468864467,-1.0,74.59988616960729,3.663513999950984,
2023-08-09 16:16:53.946000,-3.060240963855422,0.5060240963855422,-9.46987951807229,0.640098099325567,-2.6345800122624157,-9.152667075413856,2.0,3.6578754578754586,273.3827358301622,0.07307266476312506,-0.19858982576772893,0.27737311345492666,1242.4908424908424,-1.0,74.59988616960729,3.6634553725709083,
2023-08-09 16:16:53.954000,-3.072289156626506,0.5060240963855422,-9.481927710843374,0.6180257510729613,-2.7057020232985898,-9.157572041692212,2.0,3.6578754578754586,273.3827358301622,-0.2919410290775594,-0.455917487325914,0.060952158965095066,1238.8278388278388,-1.0,74.59988616960729,3.6633967224107375,
2023-08-09 16:16:53.962000,-3.0481927710843375,0.5060240963855422,-9.481927710843374,0.5836909871244634,-2.6296750459840585,-9.108522378908644,2.0,3.6578754578754586,273.3827358301622,0.0023308664996219363,0.09789639298409182,0.10570479575782304,1238.095238095238,-1.0,74.59988616960729,3.66333805042019,
2023-08-09 16:16:53.969000,-3.0481927710843375,0.5060240963855422,-9.46987951807229,0.5616186388718577,-2.644389944819129,-9.08399754751686,2.0,3.6578754578754586,273.3827358301622,0.12644950760445228,0.20581551191655467,0.10512207913291756,1240.2930402930401,-1.0,74.59988616960729,3.6632793583961143,
2023-08-09 16:16:53.977000,-3.072289156626506,0.5180722891566265,-9.46987951807229,0.6057633353770693,-2.6321275291232373,-9.167381974248926,2.0,3.6578754578754586,273.3827358301622,-0.010955072548219456,0.009206922673503438,0.1353068003030128,1241.0256410256409,-1.0,74.59988616960729,3.6632206484929983,
2023-08-09 16:16:53.985000,-3.060240963855422,0.5301204819277109,-9.46987951807229,0.5763335377069282,-2.649294911097486,-9.09871244635193,2.0,3.6578754578754586,273.3827358301622,0.1562845987996037,0.04067362041839003,-0.2629217411572752,1236.6300366300366,-1.0,74.59988616960729,3.6631619232243984,
2023-08-09 16:16:53.992000,-3.0481927710843375,0.5060240963855422,-9.433734939759036,0.6204782342121398,-2.590435315757204,-9.140404659717964,2.0,3.6578754578754586,273.3827358301622,0.27912126332964315,0.3178136472233555,0.030767437795000272,1229.3040293040292,-1.0,74.59988616960729,3.66310318546274,
2023-08-09 16:16:54,-3.0481927710843375,0.5301204819277109,-9.44578313253012,0.5812385039852851,-2.614960147148988,-9.16002452483139,2.0,3.6578754578754586,273.3827358301622,-0.13717149350271007,-0.1252840743546422,-0.33529514597051435,1220.5128205128203,-1.0,74.59988616960729,3.663044438437509,
2023-08-09 16:16:54.008000,-3.0843373493975905,0.5180722891566265,-9.457831325301205,0.6548129981606376,-2.6296750459840585,-9.147762109135499,2.0,3.6578754578754586,273.3827358301622,0.0020977798496585277,0.07470427131286024,-0.10407318920808831,1212.4542124542124,-1.0,74.59988616960729,3.662985685731994,
2023-08-09 16:16:54.015000,-3.0481927710843375,0.5180722891566265,-9.44578313253012,0.6327406499080318,-2.617412630288167,-9.150214592274677,2.0,3.6549450549450557,273.60192423331324,0.10628751238272767,0.1048889924829559,0.12551716100460344,1203.6630036630036,-1.0,74.59988616960729,3.6629269312785917,
2023-08-09 16:16:54.023000,-3.060240963855422,0.5180722891566265,-9.44578313253012,0.6253832004904966,-2.6615573267933783,-9.140404659717964,2.0,3.6564102564102563,273.492286115007,-0.244507895810267,0.16572460812307055,-0.10430627585805041,1196.3369963369962,-1.0,74.59988616960729,3.662868178825398,
2023-08-09 16:16:54.031000,-3.060240963855422,0.5060240963855422,-9.421686746987952,0.5861434702636419,-2.6223175965665235,-9.196811771919068,2.0,3.6564102564102563,273.492286115007,0.032632130994696695,0.15162286580036158,-0.16304411164850524,1190.4761904761904,-1.0,74.59988616960729,3.6628094322100737,
2023-08-09 16:16:54.038000,-3.0481927710843375,0.5060240963855422,-9.481927710843374,0.6302881667688535,-2.5879828326180254,-9.196811771919068,2.0,3.6578754578754586,273.3827358301622,0.18390536682011577,-0.03309830429462177,-0.2532486451838471,1183.8827838827838,-1.0,74.59988616960729,3.662750695840047,
2023-08-09 16:16:54.046000,-3.060240963855422,0.5060240963855422,-9.481927710843374,0.6106683016554261,-2.637032495401594,-9.17964438994482,2.0,3.6578754578754586,273.3827358301622,0.4103490472583184,0.057572402540644295,-0.21991725423926364,1178.7545787545787,865.570068359375,69.3184782991926,3.6626919747149747,
2023-08-09 16:16:54.054000,-3.0481927710843375,0.5180722891566265,-9.493975903614459,0.5812385039852851,-2.585530349478847,-9.137952176578786,2.0,3.6578754578754586,273.3827358301622,0.4079016374337156,0.05698968591573838,-0.2154886078899832,1175.0915750915751,-1.0,69.3184782991926,3.662633274484539,
2023-08-09 16:16:54.061000,-3.036144578313253,0.5060240963855422,-9.481927710843374,0.6106683016554261,-2.6125076640098097,-9.155119558553034,2.0,3.6564102564102563,273.492286115007,0.2829671930540177,-0.1865858632946802,-0.48889924829555403,1176.5567765567764,-1.0,69.3184782991926,3.662574600979895,
2023-08-09 16:16:54.069000,-3.036144578313253,0.49397590361445787,-9.46987951807229,0.5444512568976088,-2.5462906192519923,-9.164929491109747,2.0,3.6578754578754586,273.3827358301622,0.15640114212458453,-0.215605151214964,-0.14882582600081584,1185.3479853479853,-1.0,69.3184782991926,3.6625159597092214,
2023-08-09 16:16:54.077000,-3.024096385542169,0.5060240963855422,-9.493975903614459,0.5591661557326794,-2.5708154506437766,-9.177191906805641,2.0,3.6578754578754586,273.3827358301622,0.033681020919527696,-0.25849309480799515,0.05116251966668614,1205.128205128205,-1.0,69.3184782991926,3.662457356265513,
2023-08-09 16:16:54.084000,-3.036144578313253,0.4819277108433735,-9.457831325301205,0.5199264255058246,-2.5389331698344573,-9.103617412630287,2.0,3.6564102564102563,273.492286115007,0.4613950236000237,-0.22527824718839254,0.37270555328943533,1244.6886446886447,-1.0,69.3184782991926,3.662398796837668,
2023-08-09 16:16:54.092000,-3.0,0.49397590361445787,-9.421686746987952,0.5003065603923973,-2.6002452483139176,-9.06928264868179,2.0,3.6564102564102563,273.492286115007,0.5659343861080354,-0.10220849600839145,0.24532369908513504,1310.6227106227104,-1.0,69.3184782991926,3.6623402872453603,
2023-08-09 16:16:54.100000,-3.0843373493975905,0.49397590361445787,-9.457831325301205,0.5787860208461066,-2.644389944819129,-9.157572041692212,2.0,3.6578754578754586,273.3827358301622,0.25651185828331746,0.9204591807004254,0.6266534584231688,1408.058608058608,-1.0,69.3184782991926,3.66228183285192,
2023-08-09 16:16:54.107000,-3.0843373493975905,0.5180722891566265,-9.46987951807229,0.5469037400367872,-2.6345800122624157,-9.125689760882894,2.0,3.6564102564102563,273.492286115007,0.26921508070625294,-0.3372763824951933,0.33284773614591245,1538.4615384615383,-1.0,69.3184782991926,3.6622234394942144,
2023-08-09 16:16:54.115000,-3.0843373493975905,0.4819277108433735,-9.481927710843374,0.5812385039852851,-2.62722256284488,-9.150214592274677,2.0,3.6564102564102563,273.492286115007,0.37223937998951023,-0.25709457490822163,0.07004253831361809,1700.3663003663003,-1.0,69.3184782991926,3.662165113040955,
2023-08-09 16:16:54.123000,-3.0843373493975905,0.49397590361445787,-9.457831325301205,0.6106683016554261,-2.656652360515021,-9.19435928877989,2.0,3.6564102564102563,273.492286115007,0.21746984441466088,-0.2552298817085248,-0.16048015849892205,1885.7142857142856,-1.0,69.3184782991926,3.6621068588466,
2023-08-09 16:16:54.130000,-3.060240963855422,0.4819277108433735,-9.46987951807229,0.5665236051502146,-2.654199877375843,-9.164929491109747,2.0,3.6564102564102563,273.492286115007,0.30895635452479453,-0.4193228832818602,-0.08356156401142116,2083.5164835164833,-1.0,69.3184782991926,3.6620486821881006,
2023-08-09 16:16:54.138000,-3.072289156626506,0.49397590361445787,-9.433734939759036,0.5542611894543225,-2.607602697731453,-9.184549356223176,2.0,3.6564102564102563,273.492286115007,0.07959909096206579,-0.24800419555969905,-0.2957869588019344,2279.120879120879,-1.0,69.3184782991926,3.6619905882438286,
2023-08-09 16:16:54.146000,-3.060240963855422,0.5060240963855422,-9.46987951807229,0.5787860208461066,-2.5977927651747392,-9.17964438994482,2.0,3.6564102564102563,273.492286115007,0.27912126332964315,-0.12202086125517184,-0.0793660043121028,2460.07326007326,-1.0,69.3184782991926,3.661932582072751,
2023-08-09 16:16:54.153000,-3.036144578313253,0.5060240963855422,-9.493975903614459,0.598405885959534,-2.6002452483139176,-9.147762109135499,2.0,3.6578754578754586,273.3827358301622,0.6758347415651776,0.03169978439484827,-0.4588310704504401,2615.3846153846152,-1.0,69.3184782991926,3.6618746685940935,
2023-08-09 16:16:54.161000,-3.072289156626506,0.4819277108433735,-9.46987951807229,0.5787860208461066,-2.649294911097486,-9.189454322501533,2.0,3.6578754578754586,273.3827358301622,0.34893071499329953,-0.3659460404405329,-0.3806304993881474,2739.194139194139,-1.0,69.3184782991926,3.6618168530603508,
2023-08-09 16:16:54.169000,-3.072289156626506,0.49397590361445787,-9.457831325301205,0.5567136725935009,-2.624770079705702,-9.177191906805641,2.0,3.6549450549450557,273.60192423331324,0.25581259833343073,-0.05698968591573838,-0.42130411980653787,2805.8608058608056,-1.0,69.3184782991926,3.6617591411107027,
2023-08-09 16:16:54.176000,-3.0843373493975905,0.45783132530120485,-9.481927710843374,0.5836909871244634,-2.678724708767627,-9.174739423666463,2.0,3.6564102564102563,273.492286115007,0.315133150748791,-0.27212866383077905,-0.6007808402773731,2805.128205128205,-1.0,69.3184782991926,3.6617015377735664,
2023-08-09 16:16:54.184000,-3.0481927710843375,0.45783132530120485,-9.481927710843374,0.5003065603923973,-2.656652360515021,-9.164929491109747,2.0,3.6564102564102563,273.492286115007,-0.14672804615115603,-0.4264320261057051,-0.2443913524852866,2805.128205128205,-1.0,69.3184782991926,3.6616440477373935,
2023-08-09 16:16:54.192000,-3.072289156626506,0.46987951807228917,-9.46987951807229,0.5346413243408952,-2.6713672593500917,-9.172286940527284,2.0,3.6578754578754586,273.3827358301622,0.15931472524911067,-0.48680146844589467,-0.3334304527708175,2794.8717948717945,-1.0,69.3184782991926,3.661586675830916,
2023-08-09 16:16:54.199000,-3.0843373493975905,0.45783132530120485,-9.457831325301205,0.5052115266707541,-2.6100551808706314,-9.17964438994482,2.0,3.6578754578754586,273.3827358301622,-0.2548802517335823,-0.10302429928325904,-0.6318979080473164,2726.7399267399264,-1.0,69.3184782991926,3.6615294265909024,
2023-08-09 16:16:54.207000,-3.0843373493975905,0.44578313253012053,-9.457831325301205,0.5174739423666462,-2.656652360515021,-9.150214592274677,2.0,3.6578754578754586,273.3827358301622,0.0802983509119508,0.020161995221722892,-0.4430977215779968,2620.5128205128203,-1.0,69.3184782991926,3.661472304393542,
2023-08-09 16:16:54.215000,-3.0843373493975905,0.42168674698795183,-9.433734939759036,0.5027590435315757,-2.6321275291232373,-9.103617412630287,2.0,3.6578754578754586,273.3827358301622,-0.7623098887011249,0.4631431734747397,-0.4845871452712544,2483.5164835164833,-1.0,69.3184782991926,3.6614153134836904,
2023-08-09 16:16:54.222000,-3.108433734939759,0.42168674698795183,-9.433734939759036,0.4757817290006131,-2.7106069895769465,-9.125689760882894,2.0,3.6578754578754586,273.3827358301622,-0.27259483713070415,-0.027853854670473722,-0.09638132975933791,2329.6703296703295,-1.0,69.3184782991926,3.6613584579719545,
2023-08-09 16:16:54.230000,-3.096385542168675,0.39759036144578314,-9.409638554216867,0.510116492949111,-2.686082158185162,-9.091354996934395,2.0,3.6564102564102563,273.492286115007,-0.6841093176388326,0.5568440067595127,-0.15826583532428184,2164.8351648351645,-1.0,69.3184782991926,3.6613017422924177,
2023-08-09 16:16:54.238000,-3.096385542168675,0.39759036144578314,-9.3855421686747,0.4659717964438994,-2.6640098099325566,-9.074187614960147,2.0,3.6564102564102563,273.492286115007,-0.8329351436396472,0.633296427947089,-0.3112872210244156,1997.069597069597,-1.0,69.3184782991926,3.6612451701875024,
2023-08-09 16:16:54.245000,-3.108433734939759,0.4096385542168675,-9.397590361445783,0.4757817290006131,-2.637032495401594,-9.05211526670754,2.0,3.6564102564102563,273.492286115007,-0.9500611852456152,0.38704038226210596,-0.033914107569488934,1830.7692307692307,-1.0,69.3184782991926,3.6611887442202335,
2023-08-09 16:16:54.253000,-3.096385542168675,0.42168674698795183,-9.397590361445783,0.5272838749233598,-2.624770079705702,-9.074187614960147,2.0,3.6564102564102563,273.492286115007,-1.0814055124992714,0.7574150690519194,0.05745585921566346,1671.0622710622708,-1.0,69.3184782991926,3.6611324667270293,
2023-08-09 16:16:54.261000,-3.072289156626506,0.44578313253012053,-9.397590361445783,0.49294911097486205,-2.646842427958308,-9.101164929491109,2.0,3.6564102564102563,273.492286115007,-1.0437620185303882,1.247130120622342,0.07179068818833412,1526.007326007326,-1.0,69.3184782991926,3.6610763398222845,
2023-08-09 16:16:54.268000,-3.060240963855422,0.44578313253012053,-9.409638554216867,0.49540159411404044,-2.6345800122624157,-9.123237277743716,2.0,3.6564102564102563,273.492286115007,-1.1607715168113755,1.1029660276207678,-0.07971563428704619,1398.5347985347985,-1.0,69.3184782991926,3.661020365863167,
2023-08-09 16:16:54.276000,-3.0481927710843375,0.46987951807228917,-9.397590361445783,0.5444512568976088,-2.6394849785407724,-9.133047210300429,2.0,3.6564102564102563,273.492286115007,-0.897150515704213,1.233611094924539,0.32002797039799524,1289.3772893772893,-1.0,69.3184782991926,3.6609645473916195,
2023-08-09 16:16:54.284000,-3.0481927710843375,0.49397590361445787,-9.433734939759036,0.6351931330472103,-2.5830778663396687,-9.191906805640711,2.0,3.6564102564102563,273.492286115007,-1.0463259716799718,1.0554163510284944,0.16444263154827787,1196.3369963369962,-1.0,69.3184782991926,3.6609088866575656,
2023-08-09 16:16:54.291000,-3.024096385542169,0.5060240963855422,-9.44578313253012,0.6425505824647455,-2.617412630288167,-9.187001839362354,2.0,3.6549450549450557,273.60192423331324,-1.069867723326146,1.1086766505448409,0.11526134840626986,1119.4139194139193,-1.0,69.3184782991926,3.6608533856364187,
2023-08-09 16:16:54.299000,-3.036144578313253,0.5421686746987953,-9.493975903614459,0.6302881667688535,-2.649294911097486,-9.199264255058246,2.0,3.6564102564102563,273.492286115007,-0.6214090087990212,1.3433949070566984,0.18880018646932,1058.6080586080586,-1.0,69.3184782991926,3.6607980455555005,
2023-08-09 16:16:54.307000,-3.0481927710843375,0.5783132530120483,-9.493975903614459,0.640098099325567,-2.6002452483139176,-9.196811771919068,2.0,3.6564102564102563,273.492286115007,-0.8920226094050459,1.33255637783346,0.004195559699318357,1013.9194139194138,-1.0,69.3184782991926,3.660742867335115,
2023-08-09 16:16:54.314000,-3.060240963855422,0.5662650602409639,-9.530120481927712,0.6891477621091354,-2.6345800122624157,-9.17964438994482,2.0,3.659340659340659,273.2732732732733,-0.4134957170328062,1.0613600606025293,-0.16630732474797516,983.8827838827838,-1.0,69.3184782991926,3.660687852135088,
2023-08-09 16:16:54.322000,-3.036144578313253,0.6024096385542169,-9.518072289156628,0.6965052115266707,-2.6125076640098097,-9.24095646842428,2.0,3.6549450549450557,273.60192423331324,-0.41302954373288286,1.023833109958627,0.003030126449507823,961.9047619047618,-1.0,69.3184782991926,3.6606330019050244,
2023-08-09 16:16:54.329000,-3.0120481927710845,0.6265060240963856,-9.542168674698795,0.6916002452483139,-2.5830778663396687,-9.24095646842428,2.0,3.653479853479854,273.7116502907559,-0.41023250393333754,1.0141600139851985,0.003612843074412873,948.7179487179486,-1.0,69.3184782991926,3.660578318990491,
2023-08-09 16:16:54.337000,-3.0120481927710845,0.6385542168674699,-9.518072289156628,0.7406499080318822,-2.5536480686695278,-9.236051502145923,2.0,3.653479853479854,273.7116502907559,-0.2858807761785438,0.8532136821863526,-0.1629275683235244,942.8571428571428,-1.0,69.3184782991926,3.660523803952051,
2023-08-09 16:16:54.345000,-3.0120481927710845,0.6385542168674699,-9.506024096385543,0.762722256284488,-2.56591048436542,-9.231146535867566,2.0,3.6549450549450557,273.60192423331324,-0.465940213274285,0.9850241827399339,-0.20639822854146014,946.5201465201465,-1.0,69.3184782991926,3.6604694559791997,
2023-08-09 16:16:54.352000,-2.9759036144578315,0.6385542168674699,-9.518072289156628,0.6989576946658491,-2.514408338442673,-9.211526670754138,2.0,3.6549450549450557,273.60192423331324,-0.018646931996970283,0.7631256919759924,0.057106229240720084,958.2417582417581,-1.0,69.3184782991926,3.660415273895408,
2023-08-09 16:16:54.360000,-2.9759036144578315,0.6385542168674699,-9.518072289156628,0.7136725935009196,-2.5045984058859596,-9.233599019006745,2.0,3.6549450549450557,273.60192423331324,0.16887127789755835,0.6789814113396654,0.3948487850358372,980.9523809523808,-1.0,69.3184782991926,3.6603612563162216,
2023-08-09 16:16:54.368000,-2.9397590361445785,0.6385542168674699,-9.506024096385543,0.7504598405885959,-2.5389331698344573,-9.184549356223176,2.0,3.6549450549450557,273.60192423331324,-0.3817959326379579,0.5187343394907064,-0.17120214439717985,1012.4542124542124,-1.0,69.3184782991926,3.6603074017028665,
2023-08-09 16:16:54.375000,-2.9036144578313254,0.6385542168674699,-9.506024096385543,0.7161250766400981,-2.5511955855303494,-9.106069895769465,2.0,3.6549450549450557,273.60192423331324,0.06468154536448921,0.17586387739642242,0.13693840685274752,1050.5494505494505,-1.0,69.3184782991926,3.6602537088390115,
2023-08-09 16:16:54.383000,-2.9036144578313254,0.6385542168674699,-9.481927710843374,0.745554874310239,-2.497240956468424,-9.147762109135499,2.0,3.6549450549450557,273.60192423331324,0.34053959559466196,0.1392692733523686,0.12283666453003898,1096.7032967032967,-1.0,69.3184782991926,3.660200176324558,
2023-08-09 16:16:54.391000,-2.9036144578313254,0.6385542168674699,-9.457831325301205,0.7063151440833844,-2.477621091354997,-9.167381974248926,2.0,3.6549450549450557,273.60192423331324,0.11269739525668582,0.16444263154827787,-0.05955363906532242,1148.7179487179487,-1.0,69.3184782991926,3.6601468021734016,
2023-08-09 16:16:54.398000,-2.927710843373494,0.6385542168674699,-9.481927710843374,0.7185775597792765,-2.435928877988964,-9.118332311465359,2.0,3.6549450549450557,273.60192423331324,0.4495076044519558,0.03671114736903465,0.3069751180001164,1202.197802197802,-1.0,69.3184782991926,3.6600935843242626,
2023-08-09 16:16:54.406000,-2.891566265060241,0.6265060240963856,-9.46987951807229,0.7578172900061312,-2.445738810545677,-9.169834457388104,2.0,3.6549450549450557,273.60192423331324,0.3252724200221429,-0.40871744070858324,0.23040615348755888,1255.6776556776556,-1.0,69.3184782991926,3.6600405206586735,
2023-08-09 16:16:54.414000,-2.927710843373494,0.6265060240963856,-9.46987951807229,0.7700797057020232,-2.47271612507664,-9.120784794604537,2.0,3.6549450549450557,273.60192423331324,0.4310937591049472,-0.4989219742439259,0.26187285123244547,1309.1575091575091,-1.0,69.3184782991926,3.6599876094766826,
2023-08-09 16:16:54.421000,-2.9397590361445785,0.6265060240963856,-9.481927710843374,0.703862660944206,-2.4702636419374615,-9.184549356223176,2.0,3.6549450549450557,273.60192423331324,0.36827690694015486,-0.26653458423168847,0.30895635452479453,1357.5091575091574,-1.0,69.3184782991926,3.6599348494471715,
2023-08-09 16:16:54.429000,-2.9397590361445785,0.6144578313253012,-9.457831325301205,0.6744328632740649,-2.5168608215818513,-9.226241569589208,2.0,3.6549450549450557,273.60192423331324,0.504865683817959,-0.4188567099819351,0.8092768486684927,1399.2673992673992,-1.0,69.3184782991926,3.6598822391367847,
2023-08-09 16:16:54.437000,-2.9397590361445785,0.6024096385542169,-9.493975903614459,0.6670754138565297,-2.4898835070508887,-9.17964438994482,2.0,3.6549450549450557,273.60192423331324,0.9478468620709741,-0.6295670415476953,0.39170211526134857,1431.5018315018315,-1.0,69.3184782991926,3.6598297770305406,
2023-08-09 16:16:54.444000,-2.951807228915663,0.6024096385542169,-9.481927710843374,0.6817903126916002,-2.497240956468424,-9.272838749233598,2.0,3.6549450549450557,273.60192423331324,0.8640522114095913,-0.565002039508187,0.4489248878270499,1455.6776556776556,-1.0,69.3184782991926,3.65977746155145,
2023-08-09 16:16:54.452000,-2.963855421686747,0.6024096385542169,-9.530120481927712,0.6695278969957081,-2.548743102391171,-9.125689760882894,2.0,3.6549450549450557,273.60192423331324,0.6138336926752529,-0.6376085309713886,0.7500728395781132,1470.3296703296703,-1.0,69.3184782991926,3.6597252910790874,
2023-08-09 16:16:54.460000,-2.9759036144578315,0.5903614457831325,-9.518072289156628,0.6891477621091354,-2.514408338442673,-9.204169221336603,2.0,3.6549450549450557,273.60192423331324,1.0233669366587037,-0.3442689819940557,0.9262863469494785,1473.260073260073,-1.0,69.3184782991926,3.6596732639671035,
2023-08-09 16:16:54.467000,-3.0,0.5662650602409639,-9.46987951807229,0.6719803801348866,-2.502145922746781,-9.172286940527284,2.0,3.6549450549450557,273.60192423331324,0.9547229182448573,-0.37422061651418964,0.9487792086708234,1473.260073260073,-1.0,69.3184782991926,3.6596213785596743,
2023-08-09 16:16:54.475000,-3.0,0.5542168674698795,-9.493975903614459,0.6425505824647455,-2.585530349478847,-9.17964438994482,2.0,3.6549450549450557,273.60192423331324,1.1308198822912414,-0.37561913641396144,0.8639356680846104,1468.131868131868,-1.0,69.3184782991926,3.659569633206886,
2023-08-09 16:16:54.483000,-3.0,0.5421686746987953,-9.506024096385543,0.6327406499080318,-2.5462906192519923,-9.169834457388104,2.0,3.653479853479854,273.7116502907559,0.9234893071499324,-0.4041722510343219,1.0248819998834566,1456.4102564102564,-1.0,69.3184782991926,3.6595180267369325,
2023-08-09 16:16:54.490000,-3.024096385542169,0.5301204819277109,-9.506024096385543,0.6204782342121398,-2.5806253832004904,-9.164929491109747,2.0,3.653479853479854,273.7116502907559,1.375444321426491,-0.2635044577821798,0.9558883514946683,1440.2930402930401,-1.0,69.3184782991926,3.6594665579094823,
2023-08-09 16:16:54.498000,-3.024096385542169,0.5180722891566265,-9.493975903614459,0.615573267933783,-2.590435315757204,-9.135499693439607,2.0,3.653479853479854,273.7116502907559,1.3203193287104478,-0.2612901346075404,0.8273410640405571,1420.5128205128203,-1.0,69.3184782991926,3.6594152244095146,
2023-08-09 16:16:54.506000,-3.036144578313253,0.5180722891566265,-9.518072289156628,0.5935009196811771,-2.624770079705702,-9.177191906805641,2.0,3.6549450549450557,273.60192423331324,1.2950294271895577,-0.4119806538080536,1.2320960316997844,1396.3369963369962,-1.0,69.3184782991926,3.659364023381808,
2023-08-09 16:16:54.513000,-3.0120481927710845,0.4819277108433735,-9.506024096385543,0.5419987737584304,-2.573267933782955,-9.177191906805641,2.0,3.6549450549450557,273.60192423331324,1.422527824718839,-0.5004370374686785,1.053551657828798,1371.4285714285713,-1.0,69.3184782991926,3.6593129524191736,
2023-08-09 16:16:54.521000,-3.060240963855422,0.4819277108433735,-9.457831325301205,0.5199264255058246,-2.607602697731453,-9.118332311465359,2.0,3.6549450549450557,273.60192423331324,1.0004079016374336,-0.07097488491346653,0.8296719305401781,1342.8571428571427,-1.0,69.3184782991926,3.6592620096360666,
2023-08-09 16:16:54.529000,-3.0481927710843375,0.43373493975903615,-9.481927710843374,0.4537093807480073,-2.5928877988963825,-9.177191906805641,2.0,3.653479853479854,273.7116502907559,0.9458656255462964,-0.4977565409941141,1.2188100926519434,1313.5531135531135,-1.0,69.3184782991926,3.6592111932163554,
2023-08-09 16:16:54.536000,-3.036144578313253,0.4096385542168675,-9.46987951807229,0.522378908645003,-2.56591048436542,-9.133047210300429,2.0,3.653479853479854,273.7116502907559,0.9676592273177544,-0.8768719771575075,0.9176621409008797,1284.9816849816848,-1.0,69.3184782991926,3.659160500925678,
2023-08-09 16:16:54.544000,-3.060240963855422,0.4096385542168675,-9.433734939759036,0.47087676272225626,-2.619865113427345,-9.16002452483139,2.0,3.653479853479854,273.7116502907559,0.9444671056465247,-0.03123361109492492,0.9553056348697624,1258.6080586080586,-1.0,69.3184782991926,3.659109930043745,
2023-08-09 16:16:54.552000,-3.072289156626506,0.39759036144578314,-9.506024096385543,0.4782342121397915,-2.708154506437768,-9.231146535867566,2.0,3.653479853479854,273.7116502907559,0.949711555270671,-0.09451663655964061,1.359594429229066,1233.6996336996335,-1.0,69.3184782991926,3.659059477820741,
2023-08-09 16:16:54.559000,-3.096385542168675,0.4096385542168675,-9.457831325301205,0.44880441446965047,-2.6713672593500917,-9.164929491109747,2.0,3.6549450549450557,273.60192423331324,0.8658003612843073,-0.0045451896742613,1.2570363032457312,1210.2564102564102,-1.0,69.3184782991926,3.659009141474902,
2023-08-09 16:16:54.567000,-3.096385542168675,0.39759036144578314,-9.457831325301205,0.4438994481912937,-2.6909871244635193,-9.187001839362354,2.0,3.653479853479854,273.7116502907559,0.9802459064157091,0.2540644484587147,1.3824369209253542,1187.5457875457876,-1.0,69.3184782991926,3.6589589186820075,
2023-08-09 16:16:54.575000,-3.108433734939759,0.3734939759036145,-9.421686746987952,0.35561005518087063,-2.678724708767627,-9.128142244022072,2.0,3.653479853479854,273.7116502907559,0.9116018880018646,-0.14521298292640342,1.0184721170094986,1165.5677655677655,-1.0,69.3184782991926,3.658908807151063,
2023-08-09 16:16:54.582000,-3.1204819277108435,0.3734939759036145,-9.44578313253012,0.4316370324954016,-2.6713672593500917,-9.137952176578786,2.0,3.653479853479854,273.7116502907559,0.4461278480275046,0.023774838296135765,0.8723267874832471,1148.7179487179487,-1.0,69.3184782991926,3.658858804553351,
2023-08-09 16:16:54.590000,-3.072289156626506,0.3734939759036145,-9.433734939759036,0.42918454935622313,-2.6345800122624157,-9.135499693439607,2.0,3.653479853479854,273.7116502907559,0.24147776936076004,-0.8950527358545545,0.650661383369267,1134.065934065934,-1.0,69.3184782991926,3.6588089084511206,
2023-08-09 16:16:54.598000,-3.072289156626506,0.3734939759036145,-9.44578313253012,0.5027590435315757,-2.6983445738810543,-9.167381974248926,2.0,3.653479853479854,273.7116502907559,0.4200221432317469,0.2098945282908926,0.6420371773206691,1121.6117216117216,-1.0,69.3184782991926,3.6587591158721984,
2023-08-09 16:16:54.605000,-3.096385542168675,0.39759036144578314,-9.421686746987952,0.5150214592274678,-2.6419374616799507,-9.103617412630287,2.0,3.653479853479854,273.7116502907559,0.41536041023250303,0.20546588194161217,0.6346949478468621,1114.2857142857142,-1.0,69.3184782991926,3.658709424255547,
2023-08-09 16:16:54.613000,-3.108433734939759,0.4096385542168675,-9.44578313253012,0.5272838749233598,-2.747394236664623,-9.155119558553034,2.0,3.653479853479854,273.7116502907559,0.24578987238505967,0.5225802692150808,0.611153196200688,1110.6227106227107,-1.0,69.3184782991926,3.658659831379128,
2023-08-09 16:16:54.621000,-3.108433734939759,0.42168674698795183,-9.46987951807229,0.5346413243408952,-2.666462293071735,-9.177191906805641,2.0,3.6578754578754586,273.3827358301622,0.3355282326204773,0.7922615232212572,0.6329467979721456,1110.6227106227107,-1.0,69.3184782991926,3.6586103348668755,
2023-08-09 16:16:54.628000,-3.1204819277108435,0.42168674698795183,-9.46987951807229,0.42918454935622313,-2.676272225628449,-9.177191906805641,2.0,3.652014652014653,273.8214643931795,-0.2006876056173892,0.7994872093700829,0.7618437154012002,1109.1575091575091,-1.0,69.3184782991926,3.6585609332082534,
2023-08-09 16:16:54.636000,-3.108433734939759,0.3493975903614458,-9.46987951807229,0.39975475168608215,-2.688534641324341,-9.133047210300429,2.0,3.650549450549451,273.9313666465984,-0.12178777460521016,1.082221315774139,0.7413320902045339,1108.4249084249084,-1.0,69.3184782991926,3.6585116249864678,
2023-08-09 16:16:54.644000,-3.1204819277108435,0.42168674698795183,-9.433734939759036,0.510116492949111,-2.737584304107909,-9.128142244022072,2.0,3.652014652014653,273.8214643931795,0.04673387331740568,1.2693898956937233,0.9650952741681718,1105.4945054945053,-1.0,69.3184782991926,3.6584624066355076,
2023-08-09 16:16:54.651000,-3.108433734939759,0.44578313253012053,-9.409638554216867,0.5763335377069282,-2.686082158185162,-9.16002452483139,2.0,3.652014652014653,273.8214643931795,0.3384418157450034,0.45009032107686,0.253947905133733,1104.029304029304,-1.0,69.3184782991926,3.6584132737748623,
2023-08-09 16:16:54.659000,-3.024096385542169,0.5542168674698795,-9.397590361445783,0.6891477621091354,-2.6051502145922747,-9.09871244635193,2.0,3.652014652014653,273.8214643931795,0.07715168113746301,0.612668259425441,0.6498455800943994,1104.029304029304,-1.0,69.3184782991926,3.658364222222248,
2023-08-09 16:16:54.667000,-3.144578313253012,0.3373493975903615,-9.44578313253012,0.3850398528510116,-2.7498467198038012,-9.11587982832618,2.0,3.652014652014653,273.8214643931795,-1.2191597226268855,2.147310762776062,0.811724258493095,1106.227106227106,-1.0,69.3184782991926,3.65831524753055,
2023-08-09 16:16:54.674000,-3.180722891566265,0.45783132530120485,-9.457831325301205,0.5297363580625383,-2.7719190680564068,-9.167381974248926,2.0,3.653479853479854,273.7116502907559,0.16385991492337196,0.4964745644193232,0.9261698036244977,1109.89010989011,-1.0,69.3184782991926,3.65826634498269,
2023-08-09 16:16:54.682000,-3.108433734939759,0.46987951807228917,-9.409638554216867,0.5370938074800735,-2.6640098099325566,-9.113427345187,2.0,3.653479853479854,273.7116502907559,-0.020278538546705464,0.7204708350329231,0.44740982460229556,1115.7509157509157,-1.0,69.3184782991926,3.6582175100793894,
2023-08-09 16:16:54.690000,-3.096385542168675,0.4819277108433735,-9.44578313253012,0.6033108522378908,-2.6983445738810543,-9.167381974248926,2.0,3.652014652014653,273.8214643931795,0.12003962473049413,1.0487733815045746,0.4444962414777699,1123.8095238095236,-1.0,69.3184782991926,3.6581687386068724,
2023-08-09 16:16:54.697000,-3.072289156626506,0.49397590361445787,-9.421686746987952,0.5714285714285714,-2.6394849785407724,-9.123237277743716,2.0,3.653479853479854,273.7116502907559,-0.018413845347006876,0.4761960258726177,0.37701765631373496,1134.065934065934,-1.0,69.3184782991926,3.658120025688023,
2023-08-09 16:16:54.705000,-3.0843373493975905,0.46987951807228917,-9.44578313253012,0.5542611894543225,-2.6615573267933783,-9.135499693439607,2.0,3.653479853479854,273.7116502907559,-0.12540061767962304,0.32200920692267426,0.6159314725249114,1143.5897435897434,-1.0,69.3184782991926,3.658071366205939,
2023-08-09 16:16:54.712000,-3.0481927710843375,0.4819277108433735,-9.409638554216867,0.5935009196811771,-2.6051502145922747,-9.133047210300429,2.0,3.652014652014653,273.8214643931795,-0.4324922790047207,0.8239613076161054,0.4570829205757234,1153.113553113553,-1.0,69.3184782991926,3.6580227553330755,
2023-08-09 16:16:54.720000,-3.0481927710843375,0.3734939759036145,-9.481927710843374,0.2820355610055181,-2.624770079705702,-9.061925199264255,2.0,3.652014652014653,273.8214643931795,-0.9192937474506153,1.0162577938348587,0.8033331390944579,1159.7069597069597,-1.0,69.3184782991926,3.6579741875864196,
2023-08-09 16:16:54.728000,-3.132530120481928,0.43373493975903615,-9.542168674698795,0.5003065603923973,-2.683629675045984,-9.27038626609442,2.0,3.652014652014653,273.8214643931795,-0.15022434590058806,-0.04615115669249976,0.8546122020861258,1165.5677655677655,-1.0,69.3184782991926,3.6579256567628664,
2023-08-09 16:16:54.735000,-3.0843373493975905,0.45783132530120485,-9.506024096385543,0.49294911097486205,-2.654199877375843,-9.226241569589208,2.0,3.652014652014653,273.8214643931795,-0.22702639706310856,-0.44286463492803424,0.3742206165141888,1169.230769230769,-1.0,69.3184782991926,3.6578771564010646,
2023-08-09 16:16:54.743000,-3.0481927710843375,0.45783132530120485,-9.506024096385543,0.5493562231759657,-2.644389944819129,-9.213979153893316,2.0,3.652014652014653,273.8214643931795,-0.212108851465532,0.3223588368976168,0.3556902278422002,1172.161172161172,-1.0,69.3184782991926,3.6578286797868587,
2023-08-09 16:16:54.751000,-3.060240963855422,0.46987951807228917,-9.506024096385543,0.5150214592274678,-2.617412630288167,-9.231146535867566,2.0,3.652014652014653,273.8214643931795,-0.4119806538080536,0.42724782938057265,0.16840510459763477,1175.8241758241757,-1.0,69.3184782991926,3.6577802199603133,
2023-08-09 16:16:54.758000,-3.0481927710843375,0.46987951807228917,-9.542168674698795,0.5125689760882893,-2.614960147148988,-9.231146535867566,2.0,3.652014652014653,273.8214643931795,-0.4275974593555152,0.11619369500611786,0.25616222830837343,1180.952380952381,-1.0,69.3184782991926,3.6577317701823073,
2023-08-09 16:16:54.766000,-3.060240963855422,0.4819277108433735,-9.506024096385543,0.568976088289393,-2.6591048436541995,-9.24095646842428,2.0,3.652014652014653,273.8214643931795,-0.32026105704795826,0.4495076044519558,0.2980012819765753,1186.080586080586,-1.0,69.3184782991926,3.6576833234199313,
2023-08-09 16:16:54.774000,-3.060240963855422,0.45783132530120485,-9.542168674698795,0.5493562231759657,-2.614960147148988,-9.260576333537706,2.0,3.653479853479854,273.7116502907559,-0.4120971971330344,0.641571004020744,0.41640930015733385,1189.7435897435896,-1.0,69.3184782991926,3.6576348719377556,
2023-08-09 16:16:54.781000,-3.060240963855422,0.5060240963855422,-9.506024096385543,0.598405885959534,-2.6100551808706314,-9.184549356223176,2.0,3.650549450549451,273.9313666465984,-0.45673329060078155,0.3445020686440191,0.07412155468795584,1191.2087912087911,-1.0,69.3184782991926,3.6575864078389966,
2023-08-09 16:16:54.789000,-3.0481927710843375,0.5060240963855422,-9.481927710843374,0.5493562231759657,-2.6051502145922747,-9.167381974248926,2.0,3.652014652014653,273.8214643931795,-0.11934036478060739,0.9809451663655959,0.2840160829788472,1194.1391941391942,-1.0,69.3184782991926,3.6575379231510907,
2023-08-09 16:16:54.797000,-3.0,0.5421686746987953,-9.493975903614459,0.6082158185162476,-2.5585530349478844,-9.162477007970569,2.0,3.652014652014653,273.8214643931795,-0.01200396247304872,0.5751413087815388,0.08006526426198957,1200.0,-1.0,69.3184782991926,3.657489410551195,
2023-08-09 16:16:54.804000,-3.0120481927710845,0.5542168674698795,-9.481927710843374,0.6474555487431024,-2.578172900061312,-9.16002452483139,2.0,3.652014652014653,273.8214643931795,-0.13484062700308813,0.08076452421187588,0.10663714235767105,1206.5934065934066,-1.0,69.3184782991926,3.657440862863533,
2023-08-09 16:16:54.812000,-3.0120481927710845,0.6144578313253012,-9.433734939759036,0.7700797057020232,-2.6051502145922747,-9.133047210300429,2.0,3.652014652014653,273.8214643931795,-0.18075869704562622,-0.7313093642561617,-0.03368102091952726,1211.7216117216117,-1.0,69.3184782991926,3.6573922722066556,
2023-08-09 16:16:54.820000,-2.987951807228916,0.6265060240963856,-9.433734939759036,0.6891477621091354,-2.536480686695279,-9.140404659717964,2.0,3.652014652014653,273.8214643931795,-0.6546238564186238,-0.8191830312918824,-0.8005360992949132,1216.117216117216,-1.0,69.3184782991926,3.6573436300553324,
2023-08-09 16:16:54.827000,-2.9759036144578315,0.6265060240963856,-9.44578313253012,0.6670754138565297,-2.524218270999387,-9.177191906805641,2.0,3.652014652014653,273.8214643931795,-1.0029718547870174,-2.203717732066896,-1.164267816560807,1219.7802197802198,-1.0,69.3184782991926,3.6572949273363062,
2023-08-09 16:16:54.835000,-2.951807228915663,0.6626506024096386,-9.55421686746988,0.8362967504598405,-2.5119558553034946,-9.253218884120171,2.0,3.652014652014653,273.8214643931795,-1.1953848843307497,-3.3461919468562438,-0.8063632655439663,1225.6410256410256,-1.0,69.3184782991926,3.6572461549466495,
2023-08-09 16:16:54.843000,-3.0,0.6626506024096386,-9.590361445783133,0.7774371551195585,-2.548743102391171,-9.353770692826487,2.0,3.652014652014653,273.8214643931795,-1.311345492686906,-3.520540761027912,-1.0442281918303131,1234.4322344322343,-1.0,69.3184782991926,3.6571973037815035,
2023-08-09 16:16:54.850000,-3.024096385542169,0.7228915662650602,-9.66265060240964,0.8166768853464133,-2.585530349478847,-9.37829552421827,2.0,3.652014652014653,273.8214643931795,-0.8442398461628109,-3.466115028261757,-1.297127207039217,1241.7582417582416,-1.0,69.3184782991926,3.657148364763827,
2023-08-09 16:16:54.858000,-3.0843373493975905,0.783132530120482,-9.66265060240964,0.8902513795217657,-2.6345800122624157,-9.356223175965665,2.0,3.652014652014653,273.8214643931795,-1.0821047724491581,-2.890041372880368,-1.3964221199230817,1246.8864468864467,-1.0,69.3184782991926,3.657099329334036,
2023-08-09 16:16:54.866000,-3.108433734939759,0.8433734939759037,-9.602409638554217,0.9319435928877988,-2.637032495401594,-9.267933782955241,2.0,3.652014652014653,273.8214643931795,-0.8909737194802165,-2.8232620476662205,-2.0596701823903034,1250.5494505494505,-1.0,69.3184782991926,3.657050189416402,
2023-08-09 16:16:54.873000,-3.168674698795181,0.9036144578313253,-9.518072289156628,1.015328019619865,-2.7449417535254446,-9.199264255058246,2.0,3.652014652014653,273.8214643931795,-0.9285006701241189,-3.124876172717208,-2.291125225802692,1253.4798534798533,-1.0,69.3184782991926,3.657000936966154,
2023-08-09 16:16:54.881000,-3.2650602409638556,0.9879518072289157,-9.3855421686747,1.108522378908645,-2.7988963825873694,-9.059472716125077,2.0,3.652014652014653,273.8214643931795,-0.9217411572752164,-3.1007517044461284,-2.2734106404055714,1251.2820512820513,-1.0,69.3184782991926,3.6569515640103263,
2023-08-09 16:16:54.889000,-3.2650602409638556,1.0240963855421688,-9.325301204819278,1.1158798283261802,-2.847946045370938,-9.005518087063152,2.0,3.652014652014653,273.8214643931795,-0.9759338033914112,-4.037643493968883,-3.0368859623565054,1245.4212454212454,-1.0,69.3184782991926,3.6569020626895403,
2023-08-09 16:16:54.896000,-3.313253012048193,0.9277108433734941,-9.325301204819278,0.9515634580012262,-2.9141630901287554,-9.059472716125077,2.0,3.650549450549451,273.9313666465984,-1.6537497814812647,-5.043762018530388,-3.578113163568557,1232.967032967033,-1.0,69.3184782991926,3.656852425300615,
2023-08-09 16:16:54.904000,-3.385542168674699,0.8433734939759037,-9.373493975903616,0.973635806253832,-2.9754751686082157,-9.11587982832618,2.0,3.652014652014653,273.8214643931795,-1.5361575665753753,-6.913000407901636,-4.208845638366063,1217.5824175824175,-1.0,69.3184782991926,3.6568026438471795,
2023-08-09 16:16:54.912000,-3.5060240963855422,0.8795180722891567,-9.421686746987952,0.944206008583691,-3.0613120784794603,-9.184549356223176,2.0,3.650549450549451,273.9313666465984,-0.009440009323466846,-9.080939339199347,-4.239379989511101,1200.0,-1.0,69.3184782991926,3.656752710503958,
2023-08-09 16:16:54.919000,-3.5783132530120483,0.7951807228915663,-9.481927710843374,0.8657265481299815,-3.142244022072348,-9.14530962599632,2.0,3.650549450549451,273.9313666465984,0.7997202960200446,-10.821397354466521,-5.063807470427132,1184.6153846153845,-1.0,69.3184782991926,3.6567026176928037,
2023-08-09 16:16:54.927000,-3.4819277108433737,0.9277108433734941,-9.457831325301205,1.0521152667075413,-3.04659717964439,-9.147762109135499,2.0,3.652014652014653,273.8214643931795,2.6470485402948536,-13.355748499504688,-6.865334187984383,1174.3589743589744,-1.0,69.3184782991926,3.656652357596422,
2023-08-09 16:16:54.935000,-3.4457831325301207,0.783132530120482,-9.457831325301205,0.8338442673206621,-3.058859595340282,-9.162477007970569,2.0,3.64908424908425,274.0413571571973,2.9829264028902736,-14.119107278130643,-6.285181516228659,1164.102564102564,-1.0,69.3184782991926,3.6566019231472433,
2023-08-09 16:16:54.942000,-3.397590361445783,0.8313253012048193,-9.506024096385543,0.9196811771919068,-3.0392397302268543,-9.204169221336603,2.0,3.650549450549451,273.9313666465984,3.6699493036536324,-15.493153079657361,-5.9645708292057575,1157.5091575091574,-1.0,69.3184782991926,3.656551308067631,
2023-08-09 16:16:54.950000,-3.349397590361446,0.674698795180723,-9.530120481927712,0.7112201103617413,-2.9754751686082157,-9.218884120171673,2.0,3.650549450549451,273.9313666465984,2.87605617388264,-17.00460346133675,-4.575257852106521,1153.113553113553,-1.0,69.3184782991926,3.6565005066681593,
2023-08-09 16:16:54.958000,-3.36144578313253,0.5903614457831325,-9.530120481927712,0.703862660944206,-2.9386879215205393,-9.191906805640711,2.0,3.650549450549451,273.9313666465984,3.8836897616688995,-17.783229415535224,-3.476021210885147,1153.113553113553,896.209716796875,66.94861579323731,3.6564495134317876,
2023-08-09 16:16:54.965000,-3.349397590361446,0.5542168674698795,-9.46987951807229,0.645003065603924,-2.965665236051502,-9.169834457388104,2.0,3.650549450549451,273.9313666465984,3.440941670065846,-17.829030942252782,-2.3615173940912535,1159.7069597069597,-1.0,66.94861579323731,3.6563983226652033,
2023-08-09 16:16:54.973000,-3.325301204819277,0.5783132530120483,-9.46987951807229,0.6425505824647455,-2.8749233599019006,-9.204169221336603,2.0,3.650549450549451,273.9313666465984,3.7157508303711895,-17.264145446069573,-2.2699143406561393,1176.5567765567764,-1.0,66.94861579323731,3.6563469290266486,
2023-08-09 16:16:54.981000,-3.27710843373494,0.5542168674698795,-9.457831325301205,0.5738810545677498,-2.830778663396689,-9.19435928877989,2.0,3.650549450549451,273.9313666465984,3.6699493036536324,-16.66872559874133,-2.071441058213391,1208.058608058608,-1.0,66.94861579323731,3.65629532755907,
2023-08-09 16:16:54.988000,-3.253012048192771,0.43373493975903615,-9.457831325301205,0.5272838749233598,-2.806253832004905,-9.133047210300429,2.0,3.650549450549451,273.9313666465984,3.2424683876230977,-15.554221781947437,-2.4683876230988875,1259.3406593406592,-1.0,66.94861579323731,3.6562435137211877,
2023-08-09 16:16:54.996000,-3.144578313253012,0.5180722891566265,-9.337349397590362,0.6523605150214592,-2.747394236664623,-9.027590435315757,2.0,3.650549450549451,273.9313666465984,3.975292815104014,-14.332847736145911,-3.2317464017248416,1338.4615384615383,-1.0,66.94861579323731,3.6561914834164204,
2023-08-09 16:16:55.004000,-3.0843373493975905,0.5180722891566265,-9.373493975903616,0.703862660944206,-2.7522992029429796,-9.079092581238504,2.0,3.650549450549451,273.9313666465984,3.8989569372414183,-12.913000407901636,-3.827166249053086,1449.084249084249,-1.0,66.94861579323731,3.6561392330196063,
2023-08-09 16:16:55.011000,-3.024096385542169,0.42168674698795183,-9.349397590361447,0.48068669527896996,-2.578172900061312,-9.015328019619865,2.0,3.650549450549451,273.9313666465984,3.9294912883864566,-12.851931705611559,-3.537089913175223,1592.6739926739926,-1.0,66.94861579323731,3.656086759401444,
2023-08-09 16:16:55.019000,-3.072289156626506,0.43373493975903615,-9.337349397590362,0.5199264255058246,-2.666462293071735,-8.94665849172287,2.0,3.652014652014653,273.8214643931795,3.654682128081113,-11.645824835382552,-2.834799836839345,1764.8351648351647,-1.0,66.94861579323731,3.6560340599506675,
2023-08-09 16:16:55.027000,-3.0843373493975905,0.3493975903614458,-9.337349397590362,0.26486817903126914,-2.6321275291232373,-8.995708154506437,2.0,3.652014652014653,273.8214643931795,3.3493386166307313,-10.088572926985606,-2.2241128139385817,1958.2417582417581,-1.0,66.94861579323731,3.655981133086561,
2023-08-09 16:16:55.034000,-3.1927710843373496,0.5662650602409639,-9.253012048192772,0.8461066830165542,-2.7621091354996934,-8.978540772532188,2.0,3.652014652014653,273.8214643931795,4.234834799836839,-8.699259949886368,-1.506555562030185,2156.776556776557,-1.0,66.94861579323731,3.6559279783486787,
2023-08-09 16:16:55.042000,-3.289156626506024,0.42168674698795183,-9.216867469879519,0.3801348865726548,-2.7866339668914777,-8.936848559166155,2.0,3.652014652014653,273.8214643931795,3.074529456325388,-9.523687430802399,-2.040906707068353,2346.520146520146,-1.0,66.94861579323731,3.655874595959768,
2023-08-09 16:16:55.050000,-3.1204819277108435,-0.08433734939759037,-9.216867469879519,0.10545677498467197,-2.7719190680564068,-8.973635806253832,2.0,3.653479853479854,273.7116502907559,4.860788998310121,-8.775595827748964,-1.872967775770643,2518.6813186813183,-1.0,66.94861579323731,3.6558209868448457,
2023-08-09 16:16:55.057000,-3.6024096385542173,0.6024096385542169,-9.024096385542169,0.5935009196811771,-3.210913549969344,-8.723482526057634,2.0,3.652014652014653,273.8214643931795,4.3722393799895105,-8.699259949886368,0.142299399801876,2658.6080586080584,-1.0,66.94861579323731,3.6557671526834072,
2023-08-09 16:16:55.065000,-3.349397590361446,0.04819277108433735,-9.072289156626507,-0.19619865113427343,-2.7572041692213363,-8.676885346413243,2.0,3.653479853479854,273.7116502907559,3.960025639531495,-13.50842025522988,-3.185944875007284,2761.172161172161,-1.0,66.94861579323731,3.6557130960297877,
2023-08-09 16:16:55.073000,-3.5662650602409642,0.18072289156626506,-9.036144578313253,0.2575107296137339,-3.29429797670141,-8.740649908031882,2.0,3.6549450549450557,273.60192423331324,4.662315715867373,-13.096206514771865,-0.9111357147019408,2805.8608058608056,-1.0,66.94861579323731,3.655658820716481,
2023-08-09 16:16:55.080000,-3.6746987951807233,0.03614457831325302,-9.10843373493976,0.06866952789699571,-3.1348865726548127,-8.777437155119559,2.0,3.6549450549450557,273.60192423331324,4.418040906707067,-16.33284773614591,-3.399685333022551,2807.326007326007,-1.0,66.94861579323731,3.6556043323978193,
2023-08-09 16:16:55.088000,-3.5060240963855422,-0.10843373493975904,-9.060240963855422,-0.056407112201103615,-3.159411404046597,-8.782342121397916,2.0,3.653479853479854,273.7116502907559,5.929491288386457,-16.256511858283314,-3.7966318979080476,2787.5457875457873,-1.0,66.94861579323731,3.655549638181767,
2023-08-09 16:16:55.095000,-3.433734939759036,-0.21686746987951808,-9.10843373493976,-0.1079092581238504,-3.053954629061925,-8.811771919068056,2.0,3.653479853479854,273.7116502907559,6.677582891439892,-15.661092010955072,-3.399685333022551,2720.14652014652,-1.0,66.94861579323731,3.655494746159211,
2023-08-09 16:16:55.103000,-3.4096385542168677,-0.30120481927710846,-9.096385542168676,-0.23543838136112813,-2.9828326180257507,-8.828939301042304,2.0,3.6549450549450557,273.60192423331324,7.456208845638365,-16.058038575840566,-3.537089913175223,2620.5128205128203,-1.0,66.94861579323731,3.655439665285961,
2023-08-09 16:16:55.111000,-3.325301204819277,-0.3373493975903615,-9.10843373493976,-0.2673206621704476,-2.896995708154506,-8.873083997547516,2.0,3.6549450549450557,273.60192423331324,6.967659227317754,-15.874832468970338,-2.8500670124118646,2493.7728937728934,-1.0,66.94861579323731,3.6553844054023275,
2023-08-09 16:16:55.118000,-3.313253012048193,-0.3373493975903615,-9.253012048192772,-0.2722256284488044,-2.9411404046597176,-8.954015941140405,2.0,3.653479853479854,273.7116502907559,6.463842433424625,-15.600023308664994,-2.7279296078317117,2350.1831501831502,-1.0,66.94861579323731,3.6553289773902353,
2023-08-09 16:16:55.126000,-3.313253012048193,-0.30120481927710846,-9.313253012048193,-0.18638871857755976,-2.8749233599019006,-9.106069895769465,2.0,3.6549450549450557,273.60192423331324,5.273002738768136,-13.462618728512323,-2.5599906765340017,2195.6043956043954,-1.0,66.94861579323731,3.6552733927322962,
2023-08-09 16:16:55.134000,-3.325301204819277,-0.26506024096385544,-9.44578313253012,-0.1912936848559166,-2.9141630901287554,-9.177191906805641,2.0,3.653479853479854,273.7116502907559,4.952392051745235,-12.042771400268048,-3.0638074704271316,2036.6300366300366,-1.0,66.94861579323731,3.6552176639484517,
2023-08-09 16:16:55.141000,-3.349397590361446,-0.20481927710843376,-9.493975903614459,-0.13979153893316984,-2.847946045370938,-9.243408951563458,2.0,3.653479853479854,273.7116502907559,4.295903502126914,-10.36338208729095,-3.8424334246256047,1877.6556776556774,-1.0,66.94861579323731,3.6551618046430985,
2023-08-09 16:16:55.149000,-3.325301204819277,-0.18072289156626506,-9.506024096385543,-0.14469650521152666,-2.9386879215205393,-9.253218884120171,2.0,3.653479853479854,273.7116502907559,3.1813996853330218,-8.729794301031408,-4.529456325388964,1728.937728937729,-1.0,66.94861579323731,3.6551058289887277,
2023-08-09 16:16:55.157000,-3.313253012048193,-0.0963855421686747,-9.481927710843374,-0.04414469650521152,-2.8700183936235435,-9.184549356223176,2.0,3.653479853479854,273.7116502907559,3.1813996853330218,-8.729794301031408,-4.529456325388964,1594.139194139194,-1.0,66.94861579323731,3.6550497521908585,
2023-08-09 16:16:55.164000,-3.289156626506024,-0.07228915662650603,-9.421686746987952,0.03188228080931944,-2.889638258736971,-9.16002452483139,2.0,3.653479853479854,273.7116502907559,1.5478118990734797,-7.065672163626827,-4.483654798671407,1476.1904761904761,-1.0,66.94861579323731,3.654993590493335,
2023-08-09 16:16:55.172000,-3.36144578313253,-0.024096385542168676,-9.421686746987952,0.014714898835070508,-3.017167381974249,-9.177191906805641,2.0,3.652014652014653,273.8214643931795,-0.8491346658120165,-5.3404813239321705,-4.239379989511101,1376.5567765567764,-1.0,66.94861579323731,3.6549373616395946,
2023-08-09 16:16:55.180000,-3.4698795180722892,0.0,-9.409638554216867,-0.019619865113427344,-3.0147148988350705,-9.150214592274677,2.0,3.652014652014653,273.8214643931795,-2.742264436804383,-4.51605384301614,-4.376784569663773,1292.3076923076922,-1.0,66.94861579323731,3.6548810838562686,
2023-08-09 16:16:55.187000,-3.5180722891566267,0.0,-9.457831325301205,0.034334763948497854,-3.1275291232372777,-9.216431637032494,2.0,3.650549450549451,273.9313666465984,-4.162111765048658,-4.485519491871102,-4.987471592564536,1221.245421245421,-1.0,66.94861579323731,3.654824775359175,
2023-08-09 16:16:55.195000,-3.6144578313253013,0.03614457831325302,-9.3855421686747,0.14469650521152666,-3.2550582464745554,-9.120784794604537,2.0,3.650549450549451,273.9313666465984,-5.261348406270032,-5.386282850649728,-5.567624264320262,1162.6373626373625,-1.0,66.94861579323731,3.654768455259936,
2023-08-09 16:16:55.203000,-3.6506024096385543,0.04819277108433735,-9.397590361445783,0.07112201103617412,-3.29429797670141,-9.108522378908644,2.0,3.650549450549451,273.9313666465984,-6.62012703222423,-5.0046034613367505,-7.109608997144689,1115.7509157509157,-1.0,66.94861579323731,3.654712143414502,
2023-08-09 16:16:55.210000,-3.698795180722892,0.08433734939759037,-9.409638554216867,0.24034334763948498,-3.3261802575107295,-9.150214592274677,2.0,3.650549450549451,273.9313666465984,-7.810966726880719,-5.355748499504689,-7.5218227376027045,1079.8534798534797,-1.0,66.94861579323731,3.6546558603720487,
2023-08-09 16:16:55.218000,-3.7469879518072293,0.024096385542168676,-9.421686746987952,0.02207234825260576,-3.282035561005518,-9.199264255058246,2.0,3.650549450549451,273.9313666465984,-9.352951459705146,-5.874832468970339,-7.93403647806072,1055.6776556776556,-1.0,66.94861579323731,3.654599627354336,
2023-08-09 16:16:55.226000,-3.879518072289157,-0.012048192771084338,-9.493975903614459,0.007357449417535254,-3.4831391784181482,-9.057020232985897,2.0,3.650549450549451,273.9313666465984,-11.032340772682245,-2.9130004079016363,-8.559990676534001,1042.4908424908424,-1.0,66.94861579323731,3.6545434662307708,
2023-08-09 16:16:55.233000,-3.807228915662651,-0.12048192771084337,-9.253012048192772,0.03678724708767627,-3.399754751686082,-8.843654199877376,2.0,3.652014652014653,273.8214643931795,-8.635394207796748,-0.8366645300390408,-9.75083037119049,1039.5604395604396,-1.0,66.94861579323731,3.654487399489113,
2023-08-09 16:16:55.241000,-3.7831325301204823,-0.024096385542168676,-8.987951807228916,0.017167381974248927,-3.389944819129368,-8.637645616186388,2.0,3.64908424908425,274.0413571571973,-7.704096497873085,-0.5923897208787355,-9.506555562030185,1049.084249084249,-1.0,66.94861579323731,3.654431450694539,
2023-08-09 16:16:55.249000,-3.7108433734939763,-0.03614457831325302,-8.987951807228916,0.0539546290619252,-3.360515021459227,-8.752912323727774,2.0,3.650549450549451,273.9313666465984,-8.497989627644078,-1.6610920109550713,-9.58289143989278,1069.5970695970695,-1.0,66.94861579323731,3.654375643538651,
2023-08-09 16:16:55.256000,-3.8313253012048194,0.0,-9.204819277108435,0.041692213366033105,-3.488044144696505,-8.86817903126916,2.0,3.650549450549451,273.9313666465984,-9.688829322300565,-1.9053668201153768,-8.91113571470194,1095.2380952380952,-1.0,66.94861579323731,3.6543200016934416,
2023-08-09 16:16:55.264000,-4.0120481927710845,0.12048192771084337,-9.27710843373494,0.1618638871857756,-3.5836909871244633,-8.983445738810545,2.0,3.652014652014653,273.8214643931795,-9.368218635277666,-0.85193170561156,-8.651593729969116,1127.4725274725274,-1.0,66.94861579323731,3.654264549748171,
2023-08-09 16:16:55.272000,-3.91566265060241,0.24096385542168675,-9.204819277108435,0.299202942979767,-3.470876762722256,-8.85346413243409,2.0,3.650549450549451,273.9313666465984,-8.085775887186061,1.7740224928617223,-9.628692966610338,1162.6373626373625,-1.0,66.94861579323731,3.6542093131941025,
2023-08-09 16:16:55.279000,-3.8313253012048194,0.3373493975903615,-9.084337349397591,0.40220723482526055,-3.458614347026364,-8.767627222562844,2.0,3.652014652014653,273.8214643931795,-7.673562146728047,3.6060835615640126,-9.995105180350796,1202.9304029304028,-1.0,66.94861579323731,3.654154317950164,
2023-08-09 16:16:55.287000,-3.8313253012048194,0.5301204819277109,-9.024096385542169,0.6106683016554261,-3.3507050889025134,-8.708767627222562,2.0,3.652014652014653,273.8214643931795,-7.185012528407436,5.041198065380806,-10.498921974243926,1241.7582417582416,-1.0,66.94861579323731,3.654099590273642,
2023-08-09 16:16:55.295000,-3.7469879518072293,0.39759036144578314,-9.060240963855422,0.5199264255058246,-3.3973022685469036,-8.770079705702022,2.0,3.652014652014653,273.8214643931795,-7.490356039857818,6.2320377600372945,-11.964570829205758,1277.6556776556777,-1.0,66.94861579323731,3.6540451572299584,
2023-08-09 16:16:55.302000,-3.662650602409639,0.5180722891566265,-9.060240963855422,0.6646229307173512,-3.2550582464745554,-8.784794604537094,2.0,3.652014652014653,273.8214643931795,-6.650661383369268,6.506846920342638,-11.73556319561797,1312.087912087912,-1.0,66.94861579323731,3.653991046176858,
2023-08-09 16:16:55.310000,-3.5060240963855422,0.46987951807228917,-9.120481927710843,0.6106683016554261,-3.0686695278969958,-8.826486817903126,2.0,3.652014652014653,273.8214643931795,-6.864401841384535,4.537381271487677,-11.888234951343161,1345.054945054945,-1.0,66.94861579323731,3.6539372847040923,
2023-08-09 16:16:55.318000,-3.5060240963855422,0.6506024096385542,-9.120481927710843,0.82158185162477,-3.198651134273452,-8.848559166155733,2.0,3.652014652014653,273.8214643931795,-5.749898024590642,5.98776295087699,-10.010372355923314,1377.2893772893772,-1.0,66.94861579323731,3.6538839005709596,
2023-08-09 16:16:55.325000,-3.879518072289157,0.819277108433735,-9.096385542168676,0.8166768853464133,-3.358062538320049,-8.824034334763947,2.0,3.652014652014653,273.8214643931795,-7.45982168871278,2.415243866907524,-11.43021968416759,1405.128205128205,-1.0,66.94861579323731,3.6538309216419496,
2023-08-09 16:16:55.333000,-3.5783132530120483,0.5542168674698795,-9.204819277108435,0.5935009196811771,-3.235438381361128,-8.851011649294911,2.0,3.650549450549451,273.9313666465984,-7.719363673445604,1.8045568440067605,-13.247013577297361,1428.5714285714284,-1.0,66.94861579323731,3.6537783758207194,
2023-08-09 16:16:55.341000,-3.5180722891566267,0.6867469879518072,-9.289156626506024,0.7921520539546291,-3.3335377069282646,-8.919681177191906,2.0,3.650549450549451,273.9313666465984,-6.192646116193695,4.934327836373172,-8.956937241419498,1446.8864468864467,-1.0,66.94861579323731,3.653726290490034,
2023-08-09 16:16:55.348000,-4.1807228915662655,0.8795180722891567,-9.228915662650603,0.7823421213979154,-3.6253832004904964,-8.94665849172287,2.0,3.652014652014653,273.8214643931795,-8.177378940621177,-2.0580385758405675,-12.895868539129422,1457.142857142857,-1.0,66.94861579323731,3.653674692371075,
2023-08-09 16:16:55.356000,-3.734939759036145,0.5662650602409639,-9.313253012048193,0.6670754138565297,-3.3384426732066217,-9.079092581238504,2.0,3.650549450549451,273.9313666465984,-7.490356039857818,-2.9740691101917127,-15.07907464599965,1459.3406593406592,-1.0,66.94861579323731,3.6536236083990667,
2023-08-09 16:16:55.364000,-3.662650602409639,0.4819277108433735,-9.313253012048193,0.5052115266707541,-3.311465358675659,-8.966278356836296,2.0,3.650549450549451,273.9313666465984,-7.688829322300566,-2.882466056756598,-14.498921974243926,1452.7472527472526,-1.0,66.94861579323731,3.6535730652267326,
2023-08-09 16:16:55.371000,-3.7951807228915664,0.5662650602409639,-9.27710843373494,0.5910484365419988,-3.3923973022685465,-8.993255671367258,2.0,3.650549450549451,273.9313666465984,-7.643027795583008,-3.569488957519957,-13.903502126915681,1438.095238095238,-1.0,66.94861579323731,3.6535230886229155,
2023-08-09 16:16:55.379000,-3.8192771084337354,0.49397590361445787,-9.240963855421688,0.5174739423666462,-3.407112201103617,-8.934396076026976,2.0,3.652014652014653,273.8214643931795,-7.795699551308199,-3.3404813239321705,-13.796631897908048,1416.117216117216,-1.0,66.94861579323731,3.6534737038536558,
2023-08-09 16:16:55.387000,-3.843373493975904,0.49397590361445787,-9.216867469879519,0.4316370324954016,-3.4267320662170446,-8.92949110974862,2.0,3.652014652014653,273.8214643931795,-8.039974360468504,-2.531321018588659,-14.376784569663773,1391.2087912087911,-1.0,66.94861579323731,3.653424936097894,
2023-08-09 16:16:55.394000,-3.8674698795180724,0.30120481927710846,-9.216867469879519,0.3850398528510116,-3.44880441446965,-8.939301042305333,2.0,3.64908424908425,274.0413571571973,-8.314783520773847,-1.798496591107743,-13.506555562030185,1361.1721611721612,-1.0,66.94861579323731,3.6533768104428344,
