Shimmer_F5D4_Timestamp_FormattedUnix_CAL,Shimmer_F5D4_Accel_LN_X_CAL,Shimmer_F5D4_Accel_LN_Y_CAL,Shimmer_F5D4_Accel_LN_Z_CAL,Shimmer_F5D4_Accel_WR_X_CAL,Shimmer_F5D4_Accel_WR_Y_CAL,Shimmer_F5D4_Accel_WR_Z_CAL,Shimmer_F5D4_GSR_Range_CAL,Shimmer_F5D4_GSR_Skin_Conductance_CAL,Shimmer_F5D4_GSR_Skin_Resistance_CAL,Shimmer_F5D4_Gyro_X_CAL,Shimmer_F5D4_Gyro_Y_CAL,Shimmer_F5D4_Gyro_Z_CAL,Shimmer_F5D4_PPG_A13_CAL,Shimmer_F5D4_PPG_IBI_CAL,Shimmer_F5D4_PPGtoHR_CAL,Shimmer_F5D4_GSR_Skin_Conductance_LPF_CAL,
yyyy/mm/dd hh:mm:ss.000,m/(s^2),m/(s^2),m/(s^2),m/(s^2),m/(s^2),m/(s^2),no_units,uS,kOhms,deg/s,deg/s,deg/s,mV,ms,BPM,uS,
2023-08-16 13:48:17.045000,-7.0,1.493975903614458,6.55421686746988,1.7118332311465358,-6.941140404659717,7.13182096873084,3.0,0.6058386058386058,1650.604617075852,0.3519608414428065,0.49810617096905835,-0.07202377483829622,1495.970695970696,-1.0,67.52575903283417,0.6064182059612747,
2023-08-16 13:48:17.053000,-6.975903614457832,1.4819277108433735,6.530120481927711,1.778050275904353,-7.063764561618639,7.139178418148375,3.0,0.6058386058386058,1650.604617075852,0.6522929899190018,0.23285356331216078,0.03426373754443231,1509.89010989011,-1.0,67.52575903283417,0.6064100713726744,
2023-08-16 13:48:17.060000,-6.963855421686747,1.5180722891566265,6.506024096385542,1.731453096259963,-6.963212752912323,7.134273451870018,3.0,0.6053946053946054,1651.8151815181518,0.26432026105704737,0.23028961016257718,0.201736495542218,1519.4139194139193,-1.0,67.52575903283417,0.6064019513889122,
2023-08-16 13:48:17.068000,-6.987951807228916,1.5180722891566265,6.530120481927711,1.7633353770692826,-6.995095033721642,7.168608215818516,3.0,0.6058386058386058,1650.604617075852,0.18507080006992585,0.22702639706310856,0.07552007458772783,1523.0769230769229,-1.0,67.52575903283417,0.606393845003897,
2023-08-16 13:48:17.076000,-6.975903614457832,1.5060240963855422,6.55421686746988,1.7755977927651747,-6.997547516860821,7.0999386879215205,3.0,0.6053946053946054,1651.8151815181518,-0.1826233902453231,0.07540353126274699,0.1963755025930891,1522.3443223443223,-1.0,67.52575903283417,0.6063857511865552,
2023-08-16 13:48:17.083000,-6.963855421686747,1.5180722891566265,6.542168674698796,1.7633353770692826,-6.997547516860821,7.13182096873084,3.0,0.6053946053946054,1651.8151815181518,0.04638424334246317,0.24357554921041857,0.29986597517627195,1515.7509157509157,-1.0,67.52575903283417,0.6063776688979724,
2023-08-16 13:48:17.091000,-6.975903614457832,1.530120481927711,6.518072289156627,1.8270999386879214,-6.992642550582464,7.14653586756591,3.0,0.6053946053946054,1651.8151815181518,0.04556844006759558,0.24171085601072173,0.2981178253015559,1507.6923076923076,-1.0,67.52575903283417,0.6063695969381149,
2023-08-16 13:48:17.099000,-6.963855421686747,1.530120481927711,6.506024096385542,1.807480073574494,-6.992642550582464,7.090128755364806,3.0,0.6053946053946054,1651.8151815181518,-5.82716624905918E-4,0.3771341996387158,0.20255229881708517,1495.970695970696,-1.0,67.52575903283417,0.6063615340902633,
2023-08-16 13:48:17.106000,-6.987951807228916,1.5180722891566265,6.506024096385542,1.7878602084610666,-7.0,7.1587982832618025,3.0,0.6053946053946054,1651.8151815181518,-0.32107686032282584,0.09789639298409182,0.2777227434298701,1484.2490842490843,-1.0,67.52575903283417,0.6063534791265139,
2023-08-16 13:48:17.114000,-6.975903614457832,1.530120481927711,6.506024096385542,1.7388105456774983,-6.982832618025751,7.1367259350091965,3.0,0.6053946053946054,1651.8151815181518,-0.07225686148825747,-0.041372880368276785,-0.2431093759104948,1473.260073260073,-1.0,67.52575903283417,0.6063454308130787,
2023-08-16 13:48:17.122000,-6.987951807228916,1.5060240963855422,6.530120481927711,1.8320049049662783,-7.007357449417535,7.1955855303494785,3.0,0.6058386058386058,1650.604617075852,0.17341646757181964,-0.07167414486335329,-0.10512207913291756,1463.7362637362637,-1.0,67.52575903283417,0.606337387915378,
2023-08-16 13:48:17.129000,-6.975903614457832,1.4819277108433735,6.481927710843374,1.7952176578786019,-7.024524831391783,7.13182096873084,3.0,0.6053946053946054,1651.8151815181518,-0.08659169046092811,0.049064739817027615,-0.12015616805547454,1453.4798534798533,-1.0,67.52575903283417,0.6063293493522044,
2023-08-16 13:48:17.137000,-6.975903614457832,1.5060240963855422,6.518072289156627,1.7559779276517473,-6.9362354383813605,7.122011036174126,3.0,0.6053946053946054,1651.8151815181518,-0.08600897383602393,0.2607074179826345,-0.01165433249810621,1444.6886446886447,-1.0,67.52575903283417,0.6063213140729505,
2023-08-16 13:48:17.145000,-6.975903614457832,1.5180722891566265,6.506024096385542,1.7142857142857142,-6.95340282035561,7.188228080931943,3.0,0.6053946053946054,1651.8151815181518,-0.1157275217061945,0.3632655439659685,-0.28588077617854424,1435.164835164835,-1.0,67.52575903283417,0.6063132809030789,
2023-08-16 13:48:17.152000,-6.963855421686747,1.493975903614458,6.493975903614458,1.7584304107909257,-7.022072348252605,7.183323114653587,3.0,0.6053946053946054,1651.8151815181518,-0.08402773731134625,0.26793310413146026,-0.023541751646174527,1425.6410256410256,-1.0,67.52575903283417,0.6063052486872281,
2023-08-16 13:48:17.160000,-6.963855421686747,1.4819277108433735,6.542168674698796,1.7608828939301042,-6.975475168608216,7.134273451870018,3.0,0.6053946053946054,1651.8151815181518,-0.1604801584989225,0.01957927859681871,-0.19113105296894106,1415.3846153846152,-1.0,67.52575903283417,0.6062972162933179,
2023-08-16 13:48:17.168000,-6.975903614457832,1.493975903614458,6.518072289156627,1.765787860208461,-7.002452483139178,7.134273451870018,3.0,0.6053946053946054,1651.8151815181518,0.1764465940213266,0.03239904434473502,0.11689295495600505,1405.8608058608058,-1.0,67.52575903283417,0.6062891826164032,
2023-08-16 13:48:17.175000,-6.987951807228916,1.5180722891566265,6.518072289156627,1.7805027590435314,-6.980380134886572,7.092581238503985,3.0,0.6049506049506049,1653.0275229357799,-0.03869238389371234,0.2464891323349447,0.056640055940795866,1397.8021978021977,-1.0,67.52575903283417,0.6062811465822738,
2023-08-16 13:48:17.183000,-6.951807228915663,1.5060240963855422,6.493975903614458,1.8491722869405272,-7.031882280809319,7.161250766400981,3.0,0.6053946053946054,1651.8151815181518,0.19078142299399725,0.21315774139036126,0.07074179826350442,1391.2087912087911,-1.0,67.52575903283417,0.6062731071402605,
2023-08-16 13:48:17.191000,-6.975903614457832,1.5180722891566265,6.530120481927711,1.7388105456774983,-6.95340282035561,7.168608215818516,3.0,0.6053946053946054,1651.8151815181518,-0.22213157741390302,-0.033564477594545124,0.08589243051104267,1386.080586080586,-1.0,67.52575903283417,0.6062650632346188,
2023-08-16 13:48:17.198000,-6.975903614457832,1.5060240963855422,6.518072289156627,1.7240956468424278,-7.002452483139178,7.1514408338442665,3.0,0.6053946053946054,1651.8151815181518,0.10162577938348553,0.011887419148067882,-0.14777693607598616,1383.150183150183,-1.0,67.52575903283417,0.6062570138387094,
2023-08-16 13:48:17.206000,-6.963855421686747,1.5060240963855422,6.542168674698796,1.7731453096259961,-6.997547516860821,7.1931330472103,3.0,0.6053946053946054,1651.8151815181518,0.3621001107161584,0.11840801818075895,-0.31443389079890427,1380.952380952381,-1.0,67.52575903283417,0.6062489579677716,
2023-08-16 13:48:17.213000,-6.975903614457832,1.5060240963855422,6.506024096385542,1.7461679950950337,-6.970570202329859,7.161250766400981,3.0,0.6053946053946054,1651.8151815181518,0.34496824194394243,0.2396130761610632,-0.006759512848901533,1379.4871794871794,-1.0,67.52575903283417,0.6062408946809319,
2023-08-16 13:48:17.221000,-6.963855421686747,1.5060240963855422,6.530120481927711,1.8295524218270998,-7.007357449417535,7.126916002452483,3.0,0.6053946053946054,1651.8151815181518,0.17621350737136493,0.44962414777693666,0.0372938639939397,1377.2893772893772,-1.0,67.52575903283417,0.6062328230830019,
2023-08-16 13:48:17.229000,-6.963855421686747,1.5060240963855422,6.506024096385542,1.7093807480073573,-6.987737584304107,7.122011036174126,3.0,0.6053946053946054,1651.8151815181518,0.19194685624380908,0.42992832585513713,0.022842491696288207,1376.5567765567764,-1.0,67.52575903283417,0.6062247423260789,
2023-08-16 13:48:17.236000,-6.975903614457832,1.493975903614458,6.542168674698796,1.7608828939301042,-6.992642550582464,7.1367259350091965,3.0,0.6053946053946054,1651.8151815181518,0.06969290833867559,-0.0924188567099821,0.15768311869937635,1375.091575091575,-1.0,67.52575903283417,0.6062166516109676,
2023-08-16 13:48:17.244000,-7.0120481927710845,1.493975903614458,6.530120481927711,1.731453096259963,-7.012262415695892,7.1587982832618025,3.0,0.6053946053946054,1651.8151815181518,0.07050871161354318,0.2126915680904379,0.01876347532195112,1374.3589743589744,-1.0,67.52575903283417,0.6062085501884362,
2023-08-16 13:48:17.252000,-6.963855421686747,1.5180722891566265,6.518072289156627,1.7682403433476395,-7.012262415695892,7.109748620478234,3.0,0.6053946053946054,1651.8151815181518,0.0102558125983327,-0.015733348872444163,0.08099761086183799,1372.161172161172,-1.0,67.52575903283417,0.6062004373603225,
2023-08-16 13:48:17.259000,-6.975903614457832,1.5180722891566265,6.542168674698796,1.78295524218271,-6.975475168608216,7.148988350705088,3.0,0.6053946053946054,1651.8151815181518,0.05792203251558681,0.21409008799020968,0.04848202319212169,1371.4285714285713,-1.0,67.52575903283417,0.6061923124805123,
2023-08-16 13:48:17.267000,-6.951807228915663,1.530120481927711,6.530120481927711,1.7682403433476395,-6.96811771919068,7.117106069895769,3.0,0.6053946053946054,1651.8151815181518,0.15104014917545566,0.04521881009265133,0.3062758580502301,1369.9633699633698,-1.0,67.52575903283417,0.6061841749558021,
2023-08-16 13:48:17.275000,-6.963855421686747,1.530120481927711,6.506024096385542,1.7976701410177804,-6.95340282035561,7.117106069895769,3.0,0.6053946053946054,1651.8151815181518,-0.15756657537439464,-0.033447934269564286,-0.029835091195151847,1369.9633699633698,-1.0,67.52575903283417,0.606176024246665,
2023-08-16 13:48:17.282000,-6.963855421686747,1.5180722891566265,6.542168674698796,1.765787860208461,-6.955855303494788,7.119558553034947,3.0,0.6053946053946054,1651.8151815181518,-0.29788473865159426,0.5143056931414258,-0.1360060602528991,1369.9633699633698,-1.0,67.52575903283417,0.60616785986794,
2023-08-16 13:48:17.290000,-6.963855421686747,1.5060240963855422,6.481927710843374,1.7412630288166768,-6.987737584304107,7.1146535867565905,3.0,0.6053946053946054,1651.8151815181518,-0.12924654740399757,0.4619777402249279,-0.18227376027038059,1371.4285714285713,-1.0,67.52575903283417,0.6061596813894596,
2023-08-16 13:48:17.298000,-6.987951807228916,1.5060240963855422,6.506024096385542,1.7952176578786019,-6.975475168608216,7.163703249540159,3.0,0.6053946053946054,1651.8151815181518,0.16036361517394165,0.38074704271312865,0.3067420313501543,1371.4285714285713,-1.0,67.52575903283417,0.6061514884366332,
2023-08-16 13:48:17.305000,-7.0,1.5060240963855422,6.506024096385542,1.6995708154506437,-7.007357449417535,7.134273451870018,3.0,0.6053946053946054,1651.8151815181518,0.18623623331973596,0.6064914632014445,-0.032165957694772915,1372.8937728937728,-1.0,67.52575903283417,0.6061432806910028,
2023-08-16 13:48:17.313000,-6.987951807228916,1.5060240963855422,6.506024096385542,1.7118332311465358,-7.002452483139178,7.148988350705088,3.0,0.6053946053946054,1651.8151815181518,0.4166423868072957,0.3542917079424284,0.22667676708816517,1377.2893772893772,-1.0,67.52575903283417,0.6061350578907874,
2023-08-16 13:48:17.321000,-6.975903614457832,1.5060240963855422,6.530120481927711,1.7608828939301042,-7.017167381974248,7.1367259350091965,3.0,0.6053946053946054,1651.8151815181518,0.2914748557776361,0.10395664588310746,0.011770875823087047,1381.6849816849815,-1.0,67.52575903283417,0.6061268198314324,
2023-08-16 13:48:17.328000,-6.987951807228916,1.5180722891566265,6.518072289156627,1.7854077253218883,-7.049049662783568,7.117106069895769,3.0,0.6049506049506049,1653.0275229357799,0.28774546937824064,-0.006992599498864074,0.041722510343220165,1386.8131868131868,-1.0,67.52575903283417,0.6061185665049216,
2023-08-16 13:48:17.336000,-6.975903614457832,1.493975903614458,6.493975903614458,1.7976701410177804,-7.049049662783568,7.134273451870018,3.0,0.6049506049506049,1653.0275229357799,0.2677000174814986,0.17061942777227437,0.13309247712837255,1393.4065934065934,-1.0,67.52575903283417,0.60611029806945,
2023-08-16 13:48:17.344000,-6.987951807228916,1.493975903614458,6.530120481927711,1.7633353770692826,-7.039239730226854,7.122011036174126,3.0,0.6053946053946054,1651.8151815181518,0.1744653574966489,0.16770584464774824,0.1626944816735623,1398.5347985347985,-1.0,67.52575903283417,0.606102014521064,
2023-08-16 13:48:17.351000,-6.975903614457832,1.493975903614458,6.542168674698796,1.7339055793991416,-6.970570202329859,7.14653586756591,3.0,0.6053946053946054,1651.8151815181518,0.3565060311170678,0.5159372996911593,-0.160829788473865,1402.197802197802,-1.0,67.52575903283417,0.6060937158541932,
2023-08-16 13:48:17.359000,-6.963855421686747,1.5180722891566265,6.530120481927711,1.7339055793991416,-6.946045370938075,7.1931330472103,3.0,0.6053946053946054,1651.8151815181518,0.0181807586970452,0.3095390711497005,0.3461336751937534,1403.6630036630036,-1.0,67.52575903283417,0.6060854020936612,
2023-08-16 13:48:17.367000,-6.951807228915663,1.5180722891566265,6.542168674698796,1.7878602084610666,-6.96811771919068,7.139178418148375,3.0,0.6053946053946054,1651.8151815181518,0.01992890857176122,0.3048773381504566,0.34158848551949167,1405.128205128205,-1.0,67.52575903283417,0.606077073177284,
2023-08-16 13:48:17.374000,-6.975903614457832,1.4819277108433735,6.518072289156627,1.7805027590435314,-7.024524831391783,7.1293684855916615,3.0,0.6053946053946054,1651.8151815181518,0.4154769535574856,0.37783345958860254,0.19963871569255862,1404.3956043956043,-1.0,67.52575903283417,0.6060687291047439,
2023-08-16 13:48:17.382000,-6.951807228915663,1.4819277108433735,6.542168674698796,1.7584304107909257,-6.990190067443286,7.156345800122624,3.0,0.6053946053946054,1651.8151815181518,-0.04405337684284123,-0.02284249169628734,-0.12341938115494447,1402.197802197802,-1.0,67.52575903283417,0.6060603699372874,
2023-08-16 13:48:17.390000,-6.963855421686747,1.5060240963855422,6.542168674698796,1.7805027590435314,-6.9656652360515015,7.1367259350091965,3.0,0.6049506049506049,1653.0275229357799,0.23180467338733154,0.599615407027563,0.0745877279878794,1400.7326007326005,-1.0,67.52575903283417,0.6060519957975623,
2023-08-16 13:48:17.397000,-6.951807228915663,1.5060240963855422,6.55421686746988,1.753525444512569,-7.002452483139178,7.112201103617412,3.0,0.6053946053946054,1651.8151815181518,0.2624555678573505,0.30138103840102626,-0.10955072548219803,1396.3369963369962,-1.0,67.52575903283417,0.6060436067203171,
2023-08-16 13:48:17.405000,-6.975903614457832,1.5180722891566265,6.530120481927711,1.7927651747394235,-7.004904966278357,7.14653586756591,3.0,0.6053946053946054,1651.8151815181518,0.1689878212225392,0.5576598100343804,0.0913699667851524,1391.9413919413919,-1.0,67.52575903283417,0.6060352027799764,
2023-08-16 13:48:17.413000,-6.963855421686747,1.5060240963855422,6.530120481927711,1.7706928264868178,-7.007357449417535,7.139178418148375,3.0,0.6053946053946054,1651.8151815181518,0.18227376027038059,0.22947380688771132,-0.1991725423926344,1389.0109890109889,-1.0,67.52575903283417,0.6060267843886632,
2023-08-16 13:48:17.420000,-6.975903614457832,1.5060240963855422,6.518072289156627,1.8638871857755976,-7.031882280809319,7.13182096873084,3.0,0.6053946053946054,1651.8151815181518,0.2115261348406278,0.3927510051861774,-0.04253831361808732,1387.5457875457876,-1.0,67.52575903283417,0.6060183521374061,
2023-08-16 13:48:17.428000,-6.987951807228916,1.5060240963855422,6.530120481927711,1.7437155119558552,-7.022072348252605,7.122011036174126,3.0,0.6053946053946054,1651.8151815181518,-0.006526426198938992,0.4626770001748146,0.08088106753685671,1387.5457875457876,-1.0,67.52575903283417,0.6060099065099309,
2023-08-16 13:48:17.436000,-6.987951807228916,1.5060240963855422,6.493975903614458,1.7412630288166768,-6.96811771919068,7.119558553034947,3.0,0.6049506049506049,1653.0275229357799,-0.036244974069109565,0.2576772915331276,0.09754676300914844,1387.5457875457876,-1.0,67.52575903283417,0.6060014480436263,
2023-08-16 13:48:17.443000,-6.987951807228916,1.5060240963855422,6.530120481927711,1.8270999386879214,-6.995095033721642,7.122011036174126,3.0,0.6053946053946054,1651.8151815181518,0.17679622399627085,0.2829671930540177,-0.024241011596060846,1386.080586080586,-1.0,67.52575903283417,0.6059929773097101,
2023-08-16 13:48:17.451000,-6.951807228915663,1.5060240963855422,6.481927710843374,1.7805027590435314,-6.977927651747394,7.14653586756591,3.0,0.6053946053946054,1651.8151815181518,0.036128430744128734,0.3996270613600606,-0.04020744711846625,1384.6153846153845,-1.0,67.52575903283417,0.6059844948934037,
2023-08-16 13:48:17.459000,-6.975903614457832,1.493975903614458,6.493975903614458,1.7731453096259961,-6.950950337216431,7.156345800122624,3.0,0.6049506049506049,1653.0275229357799,-0.012237049123012128,0.17807820057106177,0.12691568090437608,1381.6849816849815,-1.0,67.52575903283417,0.605976001554926,
2023-08-16 13:48:17.466000,-6.975903614457832,1.493975903614458,6.518072289156627,1.7608828939301042,-6.992642550582464,7.124463519313304,3.0,0.6053946053946054,1651.8151815181518,0.24567332906007885,0.4331915389546057,0.14031816327719832,1379.4871794871794,-1.0,67.52575903283417,0.6059674979433289,
2023-08-16 13:48:17.474000,-6.975903614457832,1.493975903614458,6.506024096385542,1.7167381974248925,-7.004904966278357,7.1146535867565905,3.0,0.6049506049506049,1653.0275229357799,0.04183905366820187,0.2288910902628054,0.017831128722102258,1380.2197802197802,-1.0,67.52575903283417,0.6059589847258021,
2023-08-16 13:48:17.482000,-6.963855421686747,1.4819277108433735,6.506024096385542,1.753525444512569,-7.024524831391783,7.156345800122624,3.0,0.6045066045066045,1654.241645244216,0.20884563836606335,0.34659984849367764,0.15348755900005842,1378.7545787545787,-1.0,67.52575903283417,0.6059504625992105,
2023-08-16 13:48:17.489000,-6.975903614457832,1.5180722891566265,6.518072289156627,1.7412630288166768,-7.022072348252605,7.0705088902513795,3.0,0.6049506049506049,1653.0275229357799,0.4364547520540761,0.23553405978672523,0.303944991550609,1377.2893772893772,-1.0,67.52575903283417,0.6059419321206431,
2023-08-16 13:48:17.497000,-6.963855421686747,1.530120481927711,6.506024096385542,1.7854077253218883,-7.009809932556713,7.153893316983446,3.0,0.6049506049506049,1653.0275229357799,0.17201794767204787,0.3830779092127506,0.20872909504108164,1377.2893772893772,-1.0,67.52575903283417,0.605933393953237,
2023-08-16 13:48:17.505000,-6.975903614457832,1.493975903614458,6.530120481927711,1.7584304107909257,-7.0,7.156345800122624,3.0,0.6049506049506049,1653.0275229357799,0.051861779616572894,0.0102558125983327,0.16001398519899784,1376.5567765567764,-1.0,67.52575903283417,0.6059248487382392,
2023-08-16 13:48:17.512000,-7.0,1.5060240963855422,6.506024096385542,1.7559779276517473,-6.985285101164929,7.095033721643163,3.0,0.6049506049506049,1653.0275229357799,-0.027853854670473722,0.2498688887593959,0.15768311869937635,1378.7545787545787,-1.0,67.52575903283417,0.6059162969772447,
2023-08-16 13:48:17.520000,-6.975903614457832,1.530120481927711,6.506024096385542,1.7584304107909257,-6.982832618025751,7.119558553034947,3.0,0.6049506049506049,1653.0275229357799,-0.19812365246780558,0.38074704271312865,0.18565351669483135,1379.4871794871794,-1.0,67.52575903283417,0.6059077391804523,
2023-08-16 13:48:17.528000,-6.951807228915663,1.5180722891566265,6.518072289156627,1.7706928264868178,-7.0,7.1146535867565905,3.0,0.6049506049506049,1653.0275229357799,0.36734456034030644,0.6038109667268801,0.03309830429462134,1379.4871794871794,-1.0,67.52575903283417,0.6058991758654829,
2023-08-16 13:48:17.535000,-6.975903614457832,1.5180722891566265,6.55421686746988,1.778050275904353,-6.992642550582464,7.092581238503985,3.0,0.6049506049506049,1653.0275229357799,0.15267175572519084,0.2759745935551536,0.017364955422178044,1378.7545787545787,-1.0,67.52575903283417,0.6058906075560764,
2023-08-16 13:48:17.543000,-6.987951807228916,1.5180722891566265,6.518072289156627,1.78295524218271,-6.973022685469037,7.134273451870018,3.0,0.6049506049506049,1653.0275229357799,0.18390536682011577,0.6528757065439077,-0.15092360585047482,1378.021978021978,-1.0,67.52575903283417,0.6058820347806784,
2023-08-16 13:48:17.551000,-6.975903614457832,1.530120481927711,6.518072289156627,1.7437155119558552,-7.002452483139178,7.1440833844267315,3.0,0.6049506049506049,1653.0275229357799,0.27376027038051426,0.17236757764699037,0.06479808868947047,1378.021978021978,-1.0,67.52575903283417,0.6058734580709441,
2023-08-16 13:48:17.558000,-6.975903614457832,1.5060240963855422,6.566265060240964,1.7608828939301042,-7.01471489883507,7.1514408338442665,3.0,0.6049506049506049,1653.0275229357799,0.08647514713594728,0.7350387506555554,-0.2101276149408543,1377.2893772893772,-1.0,67.52575903283417,0.6058648779601685,
2023-08-16 13:48:17.566000,-6.975903614457832,1.5180722891566265,6.518072289156627,1.7412630288166768,-6.997547516860821,7.156345800122624,3.0,0.6049506049506049,1653.0275229357799,-0.022259775071383155,0.5294563253889641,-0.040906707068352574,1373.6263736263736,-1.0,67.52575903283417,0.6058562949816703,
2023-08-16 13:48:17.574000,-7.0,1.5060240963855422,6.493975903614458,1.7731453096259961,-7.017167381974248,7.1367259350091965,3.0,0.6049506049506049,1653.0275229357799,0.10104306275858134,0.3561564011421253,-0.13052852397878895,1368.4981684981683,-1.0,67.52575903283417,0.605847709667143,
2023-08-16 13:48:17.581000,-6.975903614457832,1.5180722891566265,6.530120481927711,1.753525444512569,-7.0,7.109748620478234,3.0,0.6049506049506049,1653.0275229357799,0.49589184779441725,0.3828448225627872,-0.16129596177378921,1365.5677655677655,-1.0,67.52575903283417,0.605839122545001,
2023-08-16 13:48:17.589000,-7.0,1.5060240963855422,6.506024096385542,1.807480073574494,-6.992642550582464,7.148988350705088,3.0,0.6049506049506049,1653.0275229357799,0.12516753102965963,0.4685041664238686,-0.07015908163859894,1362.6373626373625,-1.0,67.52575903283417,0.6058305341387323,
2023-08-16 13:48:17.596000,-6.975903614457832,1.5180722891566265,6.530120481927711,1.7682403433476395,-6.990190067443286,7.097486204782342,3.0,0.6049506049506049,1653.0275229357799,-0.07482081463784107,0.5992657770526187,0.09696404638424339,1361.904761904762,-1.0,67.52575903283417,0.6058219449652852,
2023-08-16 13:48:17.604000,-6.975903614457832,1.5060240963855422,6.542168674698796,1.7240956468424278,-7.039239730226854,7.109748620478234,3.0,0.6049506049506049,1653.0275229357799,-0.24206048598566596,0.34834799836839364,0.3107045043995106,1361.1721611721612,-1.0,67.52575903283417,0.6058133555335067,
2023-08-16 13:48:17.612000,-6.975903614457832,1.493975903614458,6.518072289156627,1.719190680564071,-7.026977314530963,7.104843654199877,3.0,0.6049506049506049,1653.0275229357799,0.01619952217236751,0.22108268748907375,0.21455626129013475,1359.7069597069597,-1.0,67.52575903283417,0.6058047663426503,
2023-08-16 13:48:17.619000,-7.0,1.493975903614458,6.506024096385542,1.8099325567136726,-6.980380134886572,7.156345800122624,3.0,0.6049506049506049,1653.0275229357799,-0.21257502476545706,0.3379756424450784,0.14964162927568345,1357.5091575091574,-1.0,67.52575903283417,0.6057961778809782,
2023-08-16 13:48:17.627000,-6.975903614457832,1.530120481927711,6.493975903614458,1.8295524218270998,-6.9656652360515015,7.117106069895769,3.0,0.6053946053946054,1651.8151815181518,0.3842433424625607,0.45405279412621713,0.02412446827107958,1358.974358974359,-1.0,67.52575903283417,0.6057875906244692,
2023-08-16 13:48:17.635000,-6.975903614457832,1.5060240963855422,6.493975903614458,1.7805027590435314,-6.975475168608216,7.1293684855916615,3.0,0.6045066045066045,1654.241645244216,-0.23063924013752143,0.693898956937242,-0.02249286172134483,1361.1721611721612,-1.0,67.52575903283417,0.6057790051849521,
2023-08-16 13:48:17.642000,-6.963855421686747,1.493975903614458,6.481927710843374,1.7952176578786019,-6.963212752912323,7.0778663396689145,3.0,0.6045066045066045,1654.241645244216,-0.22947380688771132,0.6851582075636619,-0.021210885146553025,1366.3003663003662,-1.0,67.52575903283417,0.605770422171125,
2023-08-16 13:48:17.650000,-6.987951807228916,1.5180722891566265,6.506024096385542,1.7952176578786019,-6.96811771919068,7.058246474555487,3.0,0.6049506049506049,1653.0275229357799,-0.033797564244508534,0.2649029776819533,-0.1131635685566109,1372.161172161172,-1.0,67.52575903283417,0.6057618419865053,
2023-08-16 13:48:17.658000,-6.987951807228916,1.5060240963855422,6.457831325301205,1.719190680564071,-7.019619865113427,7.104843654199877,3.0,0.6049506049506049,1653.0275229357799,-0.004778276324222974,0.09125342346017198,-0.03671114736903465,1377.2893772893772,-1.0,67.52575903283417,0.6057532649672989,
2023-08-16 13:48:17.665000,-7.0361445783132535,1.5060240963855422,6.506024096385542,1.7706928264868178,-7.002452483139178,7.1072961373390555,3.0,0.6049506049506049,1653.0275229357799,0.3448516986189616,0.32026105704795826,-0.17329992424683882,1380.952380952381,-1.0,67.52575903283417,0.6057446914235721,
2023-08-16 13:48:17.673000,-6.987951807228916,1.5060240963855422,6.506024096385542,1.7461679950950337,-7.07602697731453,7.139178418148375,3.0,0.6049506049506049,1653.0275229357799,0.3084901812248712,0.3462502185187351,-0.09335120330983052,1381.6849816849815,-1.0,67.52575903283417,0.605736121648917,
2023-08-16 13:48:17.681000,-7.0,1.493975903614458,6.481927710843374,1.7682403433476395,-7.036787247087676,7.141630901287553,3.0,0.6049506049506049,1653.0275229357799,0.24485752578521125,-0.2101276149408543,-0.09300157333488714,1383.150183150183,-1.0,67.52575903283417,0.6057275559197994,
2023-08-16 13:48:17.688000,-7.0,1.5180722891566265,6.506024096385542,1.824647455548743,-7.01471489883507,7.14653586756591,3.0,0.6049506049506049,1653.0275229357799,-0.08158032748674347,0.15686731542450963,-0.0017481498747160184,1386.080586080586,-1.0,67.52575903283417,0.6057189944951433,
2023-08-16 13:48:17.696000,-6.975903614457832,1.5180722891566265,6.506024096385542,1.8050275904353157,-7.002452483139178,7.163703249540159,3.0,0.6049506049506049,1653.0275229357799,0.220383427539187,0.1851873433949067,0.48750072839578096,1386.8131868131868,-1.0,67.52575903283417,0.605710437754918,
2023-08-16 13:48:17.704000,-6.975903614457832,1.5421686746987953,6.506024096385542,1.7903126916002452,-6.997547516860821,7.1146535867565905,3.0,0.6049506049506049,1653.0275229357799,0.32352427014742685,0.21397354466522883,-0.11258085193170542,1385.3479853479853,-1.0,67.52575903283417,0.6057018861798656,
2023-08-16 13:48:17.711000,-6.963855421686747,1.5542168674698795,6.530120481927711,1.7682403433476395,-6.943592887798896,7.1367259350091965,3.0,0.6049506049506049,1653.0275229357799,0.016316065497348348,0.2885612726531082,0.04032399044344752,1383.8827838827838,-1.0,67.52575903283417,0.60569334006514,
2023-08-16 13:48:17.719000,-6.9397590361445785,1.5060240963855422,6.530120481927711,1.812385039852851,-6.931330472103004,7.097486204782342,3.0,0.6049506049506049,1653.0275229357799,0.0170153254472351,0.23751529631140295,-0.09964454285880783,1384.6153846153845,-1.0,67.52575903283417,0.6056847995424581,
2023-08-16 13:48:17.727000,-6.975903614457832,1.4698795180722892,6.518072289156627,1.7388105456774983,-6.982832618025751,7.1661557326793375,3.0,0.6049506049506049,1653.0275229357799,-0.18332265019520982,0.2649029776819533,0.0071091428238449095,1384.6153846153845,-1.0,67.52575903283417,0.6056762647299612,
2023-08-16 13:48:17.734000,-7.0,1.4819277108433735,6.518072289156627,1.731453096259963,-6.982832618025751,7.171060698957694,3.0,0.6049506049506049,1653.0275229357799,0.24357554921041857,0.49134665812015593,-0.14241594312685726,1383.150183150183,-1.0,67.52575903283417,0.6056677357330756,
2023-08-16 13:48:17.742000,-7.0120481927710845,1.5060240963855422,6.506024096385542,1.731453096259963,-7.031882280809319,7.141630901287553,3.0,0.6049506049506049,1653.0275229357799,0.08775712371073996,0.6379581609463312,-0.019579278596818277,1380.952380952381,-1.0,67.52575903283417,0.6056592127844356,
2023-08-16 13:48:17.750000,-7.0120481927710845,1.5060240963855422,6.481927710843374,1.753525444512569,-7.034334763948498,7.092581238503985,3.0,0.6049506049506049,1653.0275229357799,-0.23413553988695346,0.43424042887943676,0.16129596177378921,1376.5567765567764,-1.0,67.52575903283417,0.6056506962249776,
2023-08-16 13:48:17.757000,-7.0120481927710845,1.5060240963855422,6.481927710843374,1.78295524218271,-7.017167381974248,7.082771305947271,3.0,0.6049506049506049,1653.0275229357799,0.01048889924829611,0.32165957694773,-0.03904201386865572,1372.8937728937728,-1.0,67.52575903283417,0.6056421862189888,
2023-08-16 13:48:17.765000,-7.0120481927710845,1.5060240963855422,6.506024096385542,1.7142857142857142,-7.044144696505211,7.141630901287553,3.0,0.6049506049506049,1653.0275229357799,-0.05127906299166698,0.22609405046326014,-0.10314084260823944,1368.4981684981683,-1.0,67.52575903283417,0.6056336829164335,
2023-08-16 13:48:17.773000,-6.987951807228916,1.493975903614458,6.518072289156627,1.731453096259963,-7.046597179644389,7.060698957694665,3.0,0.6049506049506049,1653.0275229357799,0.48132393217178493,0.32713711322183975,-0.029019287920284256,1365.5677655677655,-1.0,67.52575903283417,0.6056251865838768,
2023-08-16 13:48:17.780000,-7.0,1.5060240963855422,6.493975903614458,1.7976701410177804,-7.046597179644389,7.090128755364806,3.0,0.6049506049506049,1653.0275229357799,0.47689528582250446,0.18472117009498334,-0.12213740458015267,1364.102564102564,-1.0,67.52575903283417,0.6056166974587925,
2023-08-16 13:48:17.788000,-6.987951807228916,1.5060240963855422,6.493975903614458,1.807480073574494,-6.975475168608216,7.134273451870018,3.0,0.6045066045066045,1654.241645244216,0.3672280170153256,0.04300448691801197,0.4566167472757999,1361.1721611721612,-1.0,67.52575903283417,0.6056082156145275,
2023-08-16 13:48:17.796000,-7.0120481927710845,1.5180722891566265,6.481927710843374,1.7461679950950337,-6.977927651747394,7.102391171060699,3.0,0.6045066045066045,1654.241645244216,0.33471242934560974,-0.020278538546705464,0.010488899248295677,1360.4395604395604,-1.0,67.52575903283417,0.6055997411126794,
2023-08-16 13:48:17.803000,-7.0,1.530120481927711,6.493975903614458,1.7976701410177804,-7.051502145922746,7.095033721643163,3.0,0.6045066045066045,1654.241645244216,0.010372355923315273,-0.05372647281626975,0.3159489540236582,1362.6373626373625,-1.0,67.52575903283417,0.6055912739535875,
2023-08-16 13:48:17.811000,-7.0120481927710845,1.5180722891566265,6.493975903614458,1.7805027590435314,-7.036787247087676,7.090128755364806,3.0,0.6045066045066045,1654.241645244216,-0.05197832294155373,-0.13425791037818222,0.26688421420663144,1367.032967032967,-1.0,67.52575903283417,0.6055828139406448,
2023-08-16 13:48:17.819000,-7.0,1.530120481927711,6.506024096385542,1.812385039852851,-6.980380134886572,7.104843654199877,3.0,0.6045066045066045,1654.241645244216,0.2981178253015559,-0.013752112347764738,0.050929433016724035,1374.3589743589744,-1.0,67.52575903283417,0.605574360831745,
2023-08-16 13:48:17.826000,-6.963855421686747,1.530120481927711,6.46987951807229,1.812385039852851,-6.997547516860821,7.112201103617412,3.0,0.6045066045066045,1654.241645244216,0.06538080531437596,-0.016316065497348348,0.21828564768952846,1383.8827838827838,-1.0,67.52575903283417,0.6055659143413169,
2023-08-16 13:48:17.834000,-6.963855421686747,1.530120481927711,6.506024096385542,1.7854077253218883,-7.036787247087676,7.153893316983446,3.0,0.6045066045066045,1654.241645244216,0.07785094108734976,-0.12388555445486868,-0.18134141367053214,1394.8717948717947,-1.0,67.52575903283417,0.6055574740034942,
2023-08-16 13:48:17.842000,-6.951807228915663,1.530120481927711,6.506024096385542,1.778050275904353,-7.01471489883507,7.082771305947271,3.0,0.6045066045066045,1654.241645244216,0.04521881009265133,-0.01829730202202604,-0.1657246081230697,1405.8608058608058,-1.0,67.52575903283417,0.6055490393330543,
2023-08-16 13:48:17.849000,-6.987951807228916,1.5421686746987953,6.506024096385542,1.807480073574494,-7.036787247087676,7.119558553034947,3.0,0.6045066045066045,1654.241645244216,0.05862129246547356,0.3936833517860258,-0.1200396247304937,1419.7802197802198,-1.0,67.52575903283417,0.6055406098159803,
2023-08-16 13:48:17.857000,-6.987951807228916,1.5060240963855422,6.518072289156627,1.7805027590435314,-7.063764561618639,7.1931330472103,3.0,0.6045066045066045,1654.241645244216,0.08857292698560755,0.43237573567973814,-0.012003962473049154,1431.5018315018315,888.5498046875,67.52575903283417,0.6055321849210982,
2023-08-16 13:48:17.865000,-6.987951807228916,1.493975903614458,6.481927710843374,1.7608828939301042,-6.990190067443286,7.141630901287553,3.0,0.6049506049506049,1653.0275229357799,-0.09638132975933747,0.014101742322708983,-0.27119631723093063,1441.0256410256409,-1.0,67.52575903283417,0.6055237642293987,
2023-08-16 13:48:17.872000,-7.0120481927710845,1.493975903614458,6.481927710843374,1.78295524218271,-7.024524831391783,7.141630901287553,3.0,0.6045066045066045,1654.241645244216,0.22586096381329673,0.19381154944350595,-0.35976924421653733,1449.084249084249,-1.0,67.52575903283417,0.6055153474358644,
2023-08-16 13:48:17.880000,-7.0,1.5060240963855422,6.530120481927711,1.7559779276517473,-7.046597179644389,7.0999386879215205,3.0,0.6045066045066045,1654.241645244216,0.0870578637608532,0.3114037643493973,-0.022959035021269045,1458.6080586080584,-1.0,67.52575903283417,0.6055069342238034,
2023-08-16 13:48:17.888000,-7.0,1.493975903614458,6.506024096385542,1.6922133660331085,-7.036787247087676,7.1293684855916615,3.0,0.6049506049506049,1653.0275229357799,0.2997494318512911,0.04626770001748233,-0.130178894003846,1465.9340659340658,-1.0,67.52575903283417,0.6054985241076019,
2023-08-16 13:48:17.895000,-7.0,1.5060240963855422,6.481927710843374,1.7976701410177804,-6.975475168608216,7.109748620478234,3.0,0.6045066045066045,1654.241645244216,0.23297010663714163,0.08624206048598561,0.32702056989685935,1471.062271062271,-1.0,67.52575903283417,0.605490116722584,
2023-08-16 13:48:17.903000,-7.0120481927710845,1.530120481927711,6.518072289156627,1.7608828939301042,-7.002452483139178,7.095033721643163,3.0,0.6045066045066045,1654.241645244216,0.4432142649029785,-0.1272653108793199,-0.1816910436454751,1473.260073260073,-1.0,67.52575903283417,0.6054817116993619,
2023-08-16 13:48:17.911000,-7.0,1.5180722891566265,6.506024096385542,1.8197424892703862,-7.024524831391783,7.163703249540159,3.0,0.6045066045066045,1654.241645244216,0.13227667385350453,-0.15978089854903574,0.13752112347765302,1472.5274725274724,-1.0,67.52575903283417,0.6054733085066163,
2023-08-16 13:48:17.918000,-7.0,1.5542168674698795,6.493975903614458,1.7976701410177804,-7.019619865113427,7.13182096873084,3.0,0.6045066045066045,1654.241645244216,0.1298292640289035,-0.1548860788998302,0.13612260357787995,1470.3296703296703,-1.0,67.52575903283417,0.605464906452974,
2023-08-16 13:48:17.926000,-6.987951807228916,1.530120481927711,6.493975903614458,1.748620478234212,-7.007357449417535,7.124463519313304,3.0,0.6045066045066045,1654.241645244216,0.08262921741157274,0.011304702523163701,0.02797039799545499,1466.6666666666665,-1.0,67.52575903283417,0.6054565048479752,
2023-08-16 13:48:17.934000,-7.0,1.5421686746987953,6.493975903614458,1.753525444512569,-7.012262415695892,7.1146535867565905,3.0,0.6045066045066045,1654.241645244216,0.11083270205698896,0.11864110483072063,0.1788940038459298,1460.8058608058607,-1.0,67.52575903283417,0.6054481031315075,
2023-08-16 13:48:17.941000,-7.0,1.5421686746987953,6.506024096385542,1.7755977927651747,-7.026977314530963,7.141630901287553,3.0,0.604062604062604,1655.457552370452,-0.24171085601072173,-0.005477536274109728,0.16327719829846735,1452.014652014652,-1.0,67.52575903283417,0.6054397007265195,
2023-08-16 13:48:17.949000,-7.0,1.5542168674698795,6.481927710843374,1.8099325567136726,-7.031882280809319,7.055793991416309,3.0,0.6045066045066045,1654.241645244216,-0.4236349863061598,-0.09882873958394024,-0.06561389196433763,1443.956043956044,-1.0,67.52575903283417,0.6054312970304754,
2023-08-16 13:48:17.957000,-7.0120481927710845,1.5421686746987953,6.493975903614458,1.7633353770692826,-7.039239730226854,7.090128755364806,3.0,0.6045066045066045,1654.241645244216,-0.5411106578870704,0.06817784511392125,-0.018180758697045635,1439.5604395604394,-1.0,67.52575903283417,0.6054228913856579,
2023-08-16 13:48:17.964000,-7.024096385542169,1.5180722891566265,6.481927710843374,1.7093807480073573,-7.022072348252605,7.126916002452483,3.0,0.6045066045066045,1654.241645244216,-0.32375735679739026,-0.10115960608356218,-0.27667385350504037,1436.6300366300366,-1.0,67.52575903283417,0.6054144831125143,
2023-08-16 13:48:17.972000,-6.987951807228916,1.5060240963855422,6.518072289156627,1.7878602084610666,-7.01471489883507,7.141630901287553,3.0,0.6045066045066045,1654.241645244216,-0.32224229357263595,-0.299283258551366,-0.04428646349280334,1432.2344322344322,-1.0,67.52575903283417,0.6054060715218688,
2023-08-16 13:48:17.979000,-6.987951807228916,1.5060240963855422,6.506024096385542,1.7682403433476395,-7.029429797670141,7.109748620478234,3.0,0.6045066045066045,1654.241645244216,0.03146669774488659,0.05174523629159206,0.2510343220092069,1426.3736263736262,-1.0,67.52575903283417,0.6053976559166301,
2023-08-16 13:48:17.987000,-6.987951807228916,1.5180722891566265,6.481927710843374,1.841814837522992,-7.056407112201104,7.0778663396689145,3.0,0.6045066045066045,1654.241645244216,-0.13822038342753934,-0.14835965270089121,0.1276149408542624,1419.7802197802198,-1.0,67.52575903283417,0.6053892355935542,
2023-08-16 13:48:17.995000,-6.987951807228916,1.5060240963855422,6.506024096385542,1.8393623543838136,-6.982832618025751,7.109748620478234,3.0,0.6045066045066045,1654.241645244216,-0.5512499271604222,0.11071615873200813,0.32690402657187806,1413.1868131868132,-1.0,67.52575903283417,0.6053808098450766,
2023-08-16 13:48:18.002000,-7.0,1.530120481927711,6.518072289156627,1.702023298589822,-6.950950337216431,7.058246474555487,3.0,0.6045066045066045,1654.241645244216,0.01794767204708353,-0.04323757356797364,0.03566225744420495,1405.8608058608058,-1.0,67.52575903283417,0.6053723779612191,
2023-08-16 13:48:18.010000,-7.0120481927710845,1.5180722891566265,6.46987951807229,1.7412630288166768,-7.073574494175352,7.122011036174126,3.0,0.6045066045066045,1654.241645244216,0.04789930656721578,-0.16630732474797474,0.20255229881708517,1398.5347985347985,-1.0,67.52575903283417,0.6053639392315978,
2023-08-16 13:48:18.018000,-7.0,1.5180722891566265,6.457831325301205,1.7976701410177804,-6.985285101164929,7.016554261189454,3.0,0.6045066045066045,1654.241645244216,-0.24206048598566596,0.003962473049355383,0.049297826466989284,1389.0109890109889,-1.0,67.52575903283417,0.6053554929475211,
2023-08-16 13:48:18.025000,-7.0361445783132535,1.5421686746987953,6.457831325301205,1.7805027590435314,-6.987737584304107,7.063151440833844,3.0,0.6045066045066045,1654.241645244216,-0.07179068818833412,0.01934619194685704,0.08006526426198957,1376.5567765567764,-1.0,67.52575903283417,0.605347038404213,
2023-08-16 13:48:18.033000,-7.0,1.530120481927711,6.481927710843374,1.778050275904353,-7.01471489883507,7.075413856529736,3.0,0.6045066045066045,1654.241645244216,-0.025522988170851784,-0.13367519375327805,0.3827282792378068,1365.5677655677655,-1.0,67.52575903283417,0.6053385749031477,
2023-08-16 13:48:18.041000,-7.0120481927710845,1.5180722891566265,6.46987951807229,1.8221949724095645,-6.963212752912323,7.0680564071122,3.0,0.6045066045066045,1654.241645244216,0.09777984965911098,-0.20826292174115743,0.15034088922556976,1358.974358974359,-1.0,67.52575903283417,0.605330101754523,
2023-08-16 13:48:18.048000,-7.0120481927710845,1.5060240963855422,6.493975903614458,1.7706928264868178,-7.029429797670141,7.104843654199877,3.0,0.6045066045066045,1654.241645244216,-0.039624730493560766,0.022026688421421484,0.19509352601829733,1355.3113553113553,-1.0,67.52575903283417,0.6053216182798631,
2023-08-16 13:48:18.056000,-6.987951807228916,1.5180722891566265,6.481927710843374,1.7584304107909257,-7.046597179644389,7.117106069895769,3.0,0.6045066045066045,1654.241645244216,-0.2973020220266883,-0.34415243866907486,-0.06712895518909155,1352.3809523809523,-1.0,67.52575903283417,0.6053131238147675,
2023-08-16 13:48:18.064000,-7.0,1.493975903614458,6.493975903614458,1.7878602084610666,-7.056407112201104,7.055793991416309,3.0,0.6045066045066045,1654.241645244216,0.044752636792727986,-0.037760037293863916,0.08565934386108055,1349.4505494505493,-1.0,67.52575903283417,0.6053046177118052,
2023-08-16 13:48:18.071000,-7.024096385542169,1.493975903614458,6.493975903614458,1.7388105456774983,-7.056407112201104,7.1072961373390555,3.0,0.6045066045066045,1654.241645244216,-0.35149466814288144,-0.03904201386865485,0.26909853738127165,1345.7875457875457,-1.0,67.52575903283417,0.6052960993435579,
2023-08-16 13:48:18.079000,-6.987951807228916,1.493975903614458,6.481927710843374,1.7118332311465358,-7.031882280809319,7.080318822808093,3.0,0.6045066045066045,1654.241645244216,-0.33308082279587453,-0.66627818891673,0.38913816211176494,1345.054945054945,-1.0,67.52575903283417,0.6052875681058096,
2023-08-16 13:48:18.087000,-6.987951807228916,1.5060240963855422,6.493975903614458,1.7878602084610666,-7.085836909871245,7.058246474555487,3.0,0.6045066045066045,1654.241645244216,0.01829730202202604,-0.25173358195909273,0.06642969523920522,1347.985347985348,-1.0,67.52575903283417,0.6052790234208933,
2023-08-16 13:48:18.094000,-7.0,1.5060240963855422,6.493975903614458,1.7682403433476395,-6.995095033721642,7.139178418148375,3.0,0.604062604062604,1655.457552370452,-0.5778218052561033,-0.4344735155293984,-0.008740749373579658,1353.113553113553,-1.0,67.52575903283417,0.6052704648799228,
2023-08-16 13:48:18.102000,-6.987951807228916,1.5180722891566265,6.506024096385542,1.7976701410177804,-6.985285101164929,7.0999386879215205,3.0,0.604062604062604,1655.457552370452,-0.2838995396538661,-0.508944700192297,0.19148068294388446,1358.2417582417581,-1.0,67.52575903283417,0.6052618920767528,
2023-08-16 13:48:18.110000,-6.987951807228916,1.530120481927711,6.506024096385542,1.8295524218270998,-7.034334763948498,7.109748620478234,3.0,0.6045066045066045,1654.241645244216,-0.19101450964396066,-0.21537206456500235,0.14521298292640297,1362.6373626373625,-1.0,67.52575903283417,0.605253304441879,
2023-08-16 13:48:18.117000,-6.987951807228916,1.530120481927711,6.46987951807229,1.8516247700797055,-7.039239730226854,7.072961373390558,3.0,0.6045066045066045,1654.241645244216,-0.33028378299632927,-0.3383252724200226,0.26781656080647986,1368.4981684981683,-1.0,67.52575903283417,0.6052447015337881,
2023-08-16 13:48:18.125000,-6.987951807228916,1.5421686746987953,6.481927710843374,1.7878602084610666,-7.039239730226854,7.060698957694665,3.0,0.6045066045066045,1654.241645244216,-0.4208379465066145,-0.15605151214964202,0.06491463201445132,1375.091575091575,-1.0,67.52575903283417,0.6052360829251379,
2023-08-16 13:48:18.133000,-7.0,1.530120481927711,6.481927710843374,1.7682403433476395,-6.975475168608216,7.1146535867565905,3.0,0.6045066045066045,1654.241645244216,-0.3866907522871635,-0.35708874774197374,0.15465299224986895,1380.952380952381,-1.0,67.52575903283417,0.6052274480888629,
2023-08-16 13:48:18.140000,-7.0,1.530120481927711,6.506024096385542,1.7339055793991416,-7.022072348252605,7.0999386879215205,3.0,0.6045066045066045,1654.241645244216,0.01165433249810621,-0.5098770467921454,-0.3823786492628634,1386.080586080586,-1.0,67.52575903283417,0.6052187965505663,
2023-08-16 13:48:18.148000,-7.0,1.530120481927711,6.481927710843374,1.7559779276517473,-7.004904966278357,7.072961373390558,3.0,0.6045066045066045,1654.241645244216,-0.0510459763417053,-0.41559349688246644,0.30685857467513555,1391.2087912087911,-1.0,67.52575903283417,0.605210127891741,
2023-08-16 13:48:18.156000,-7.0120481927710845,1.530120481927711,6.481927710843374,1.7731453096259961,-6.950950337216431,7.139178418148375,3.0,0.6045066045066045,1654.241645244216,-0.220383427539187,-0.6112697395256692,0.2101276149408543,1396.3369963369962,-1.0,67.52575903283417,0.6052014417531087,
2023-08-16 13:48:18.163000,-6.987951807228916,1.5421686746987953,6.481927710843374,1.8197424892703862,-7.034334763948498,7.092581238503985,3.0,0.6045066045066045,1654.241645244216,-0.08286230406153441,-0.5007866674436228,0.024474098246022955,1400.0,-1.0,67.52575903283417,0.6051927378380683,
2023-08-16 13:48:18.171000,-6.951807228915663,1.530120481927711,6.518072289156627,1.7682403433476395,-6.980380134886572,7.117106069895769,3.0,0.6045066045066045,1654.241645244216,-0.20651477186644143,-0.24031233611094996,-0.23739875298642252,1401.4652014652013,-1.0,67.52575903283417,0.6051840159162514,
2023-08-16 13:48:18.179000,-6.987951807228916,1.5180722891566265,6.493975903614458,1.7559779276517473,-6.963212752912323,7.1367259350091965,3.0,0.6045066045066045,1654.241645244216,-0.02132742847153473,-0.4855194918711037,-0.06747858516403492,1402.197802197802,-1.0,67.52575903283417,0.605175275827173,
2023-08-16 13:48:18.186000,-7.0,1.493975903614458,6.493975903614458,1.73635806253832,-7.031882280809319,7.13182096873084,3.0,0.6045066045066045,1654.241645244216,-0.1139793718314785,-0.3455509585688484,-0.05197832294155373,1404.3956043956043,-1.0,67.52575903283417,0.6051665176227187,
2023-08-16 13:48:18.194000,-6.975903614457832,1.5060240963855422,6.518072289156627,1.7339055793991416,-6.9362354383813605,7.102391171060699,3.0,0.6049506049506049,1653.0275229357799,-0.11258085193170499,-0.3442689819940557,-0.05174523629159119,1405.8608058608058,-1.0,67.52575903283417,0.605157741411823,
2023-08-16 13:48:18.202000,-6.987951807228916,1.5060240963855422,6.518072289156627,1.78295524218271,-7.012262415695892,7.122011036174126,3.0,0.6045066045066045,1654.241645244216,-0.037993123943825584,-0.14637841617621353,-0.06666278188916733,1406.5934065934066,-1.0,67.52575903283417,0.6051489473860174,
2023-08-16 13:48:18.209000,-6.987951807228916,1.530120481927711,6.481927710843374,1.7706928264868178,-6.960760269773145,7.087676272225628,3.0,0.6045066045066045,1654.241645244216,0.06899364838878884,-0.23972961948604404,-0.14428063632655455,1404.3956043956043,-1.0,67.52575903283417,0.6051401359837641,
2023-08-16 13:48:18.217000,-6.975903614457832,1.5180722891566265,6.542168674698796,1.7706928264868178,-6.995095033721642,7.134273451870018,3.0,0.6045066045066045,1654.241645244216,0.16187867839869427,-0.010955072548219456,0.12854728745411126,1399.2673992673992,-1.0,67.52575903283417,0.6051313077148733,
2023-08-16 13:48:18.225000,-6.987951807228916,1.5180722891566265,6.518072289156627,1.8050275904353157,-7.049049662783568,7.13182096873084,3.0,0.6045066045066045,1654.241645244216,-0.12773148417924324,-0.3936833517860258,-0.07167414486335284,1389.7435897435896,-1.0,67.52575903283417,0.6051224631551793,
2023-08-16 13:48:18.232000,-6.975903614457832,1.5180722891566265,6.530120481927711,1.858982219497241,-7.024524831391783,7.1440833844267315,3.0,0.6045066045066045,1654.241645244216,0.026338791445719375,0.20523279529165048,-0.22422935726356286,1380.2197802197802,-1.0,67.52575903283417,0.6051136029515433,
2023-08-16 13:48:18.240000,-6.975903614457832,1.5180722891566265,6.530120481927711,1.753525444512569,-7.029429797670141,7.1661557326793375,3.0,0.6045066045066045,1654.241645244216,0.05722277256570179,-0.024940271545947603,0.05174523629159119,1373.6263736263736,-1.0,67.52575903283417,0.6051047278266107,
2023-08-16 13:48:18.248000,-6.975903614457832,1.5180722891566265,6.530120481927711,1.7682403433476395,-7.046597179644389,7.156345800122624,3.0,0.604062604062604,1655.457552370452,-0.08099761086183756,-0.013052852397879719,-0.03974127381854204,1371.4285714285713,-1.0,67.52575903283417,0.6050958385833015,
2023-08-16 13:48:18.255000,-6.975903614457832,1.530120481927711,6.506024096385542,1.7682403433476395,-7.0,7.1440833844267315,3.0,0.604062604062604,1655.457552370452,-0.09603169978439496,0.04685041664238651,-0.20791329176621406,1371.4285714285713,-1.0,67.52575903283417,0.6050869360984713,
2023-08-16 13:48:18.263000,-7.0,1.5180722891566265,6.493975903614458,1.8197424892703862,-7.01471489883507,7.092581238503985,3.0,0.6045066045066045,1654.241645244216,0.07179068818833412,0.2419439426606834,0.053143756191364265,1375.091575091575,-1.0,67.52575903283417,0.605078021145801,
2023-08-16 13:48:18.271000,-6.987951807228916,1.5060240963855422,6.518072289156627,1.6946658491722868,-7.004904966278357,7.1146535867565905,3.0,0.6045066045066045,1654.241645244216,0.10127614940854301,0.3304003263213101,-0.23763183963638465,1379.4871794871794,-1.0,67.52575903283417,0.6050690945581115,
2023-08-16 13:48:18.278000,-6.987951807228916,1.5060240963855422,6.518072289156627,1.7878602084610666,-7.058859595340282,7.075413856529736,3.0,0.6045066045066045,1654.241645244216,0.25336518850882794,0.1420663131519139,-0.03566225744420495,1380.952380952381,-1.0,67.52575903283417,0.6050601573996919,
2023-08-16 13:48:18.286000,-7.0,1.530120481927711,6.518072289156627,1.812385039852851,-7.019619865113427,7.13182096873084,3.0,0.6045066045066045,1654.241645244216,-0.422469553056348,0.1988229124176906,-0.26525260765689623,1385.3479853479853,-1.0,67.52575903283417,0.6050512108298594,
2023-08-16 13:48:18.294000,-6.975903614457832,1.5180722891566265,6.506024096385542,1.7706928264868178,-6.973022685469037,7.082771305947271,3.0,0.6045066045066045,1654.241645244216,-0.33086649962123343,0.2287745469378246,-0.11223122195676248,1389.7435897435896,-1.0,67.52575903283417,0.6050422561049196,
2023-08-16 13:48:18.301000,-6.987951807228916,1.5180722891566265,6.506024096385542,1.8025751072961373,-6.960760269773145,7.090128755364806,3.0,0.6045066045066045,1654.241645244216,-0.1165433249810621,0.41081522055824177,-0.006526426198939426,1389.7435897435896,-1.0,67.52575903283417,0.6050332945797701,
2023-08-16 13:48:18.309000,-6.975903614457832,1.5180722891566265,6.493975903614458,1.7339055793991416,-7.004904966278357,7.104843654199877,3.0,0.6045066045066045,1654.241645244216,0.022026688421421484,0.49927160421886846,0.0868247771108911,1386.8131868131868,-1.0,67.52575903283417,0.6050243277091369,
2023-08-16 13:48:18.317000,-6.975903614457832,1.5060240963855422,6.493975903614458,1.7584304107909257,-7.049049662783568,7.1367259350091965,3.0,0.6045066045066045,1654.241645244216,0.022376318396363993,0.45137229765165265,0.11584406503117535,1383.150183150183,-1.0,67.52575903283417,0.6050153570484481,
2023-08-16 13:48:18.324000,-6.987951807228916,1.5180722891566265,6.46987951807229,1.7437155119558552,-7.026977314530963,7.1661557326793375,3.0,0.6045066045066045,1654.241645244216,-0.17399918419672555,0.18821746984441537,0.07027562496358021,1381.6849816849815,-1.0,67.52575903283417,0.6050063842543395,
2023-08-16 13:48:18.332000,-7.0,1.493975903614458,6.518072289156627,1.7706928264868178,-7.01471489883507,7.1293684855916615,3.0,0.6045066045066045,1654.241645244216,-0.5224637258901,0.49006468154536503,-0.0071091428238449095,1378.021978021978,-1.0,67.52575903283417,0.6049974110847844,
2023-08-16 13:48:18.340000,-6.987951807228916,1.5180722891566265,6.506024096385542,1.8197424892703862,-7.053954629061924,7.1514408338442665,3.0,0.6045066045066045,1654.241645244216,-0.3949653283608185,0.39181865858632897,0.03845929724375023,1374.3589743589744,-1.0,67.52575903283417,0.6049884393988603,
2023-08-16 13:48:18.347000,-6.987951807228916,1.5180722891566265,6.46987951807229,1.7952176578786019,-7.0,7.0705088902513795,3.0,0.6045066045066045,1654.241645244216,-0.05477536274109902,0.4178078200571058,0.3286521764465941,1369.9633699633698,-1.0,67.52575903283417,0.6049794711561426,
2023-08-16 13:48:18.355000,-7.024096385542169,1.5060240963855422,6.493975903614458,1.8148375229920293,-6.970570202329859,7.122011036174126,3.0,0.6045066045066045,1654.241645244216,-0.4506730377017659,0.19928908571761567,-0.1922964862187516,1364.8351648351647,-1.0,67.52575903283417,0.6049705084157369,
2023-08-16 13:48:18.362000,-7.0,1.5060240963855422,6.46987951807229,1.7608828939301042,-7.022072348252605,7.095033721643163,3.0,0.6045066045066045,1654.241645244216,-0.18565351669483177,0.44309772157799593,0.17376609754676303,1360.4395604395604,-1.0,67.52575903283417,0.6049615533349444,
2023-08-16 13:48:18.370000,-7.0,1.5060240963855422,6.445783132530121,1.8197424892703862,-6.997547516860821,7.117106069895769,3.0,0.6045066045066045,1654.241645244216,-0.29159139910261694,0.2865800361284305,-0.06980945166365599,1358.2417582417581,-1.0,67.52575903283417,0.6049526081675807,
2023-08-16 13:48:18.378000,-7.024096385542169,1.5060240963855422,6.457831325301205,1.7903126916002452,-7.026977314530963,7.1072961373390555,3.0,0.6045066045066045,1654.241645244216,-0.2287745469378246,0.1922964862187516,0.3907697686614997,1359.7069597069597,-1.0,67.52575903283417,0.6049436752619336,
2023-08-16 13:48:18.385000,-7.024096385542169,1.5060240963855422,6.457831325301205,1.765787860208461,-7.053954629061924,7.075413856529736,3.0,0.6045066045066045,1654.241645244216,-0.34659984849367764,0.2977681953266134,0.14451372297651666,1361.1721611721612,-1.0,67.52575903283417,0.6049347570583895,
2023-08-16 13:48:18.393000,-7.0,1.5060240963855422,6.46987951807229,1.7559779276517473,-7.022072348252605,7.060698957694665,3.0,0.6045066045066045,1654.241645244216,-0.1769127673212517,0.4451955014276562,0.17248412097197122,1364.102564102564,-1.0,67.52575903283417,0.6049258560867218,
2023-08-16 13:48:18.401000,-7.0,1.5060240963855422,6.481927710843374,1.7118332311465358,-7.022072348252605,7.1072961373390555,3.0,0.6045066045066045,1654.241645244216,-0.29648621875182074,0.061884505564943924,-0.19521006934327814,1365.5677655677655,-1.0,67.52575903283417,0.6049169749630552,
2023-08-16 13:48:18.408000,-7.024096385542169,1.5180722891566265,6.46987951807229,1.73635806253832,-6.95340282035561,7.1072961373390555,3.0,0.6045066045066045,1654.241645244216,-0.33855835906998427,-0.06118524561505717,0.5529980770351378,1367.7655677655678,-1.0,67.52575903283417,0.6049081165252729,
2023-08-16 13:48:18.416000,-7.0120481927710845,1.5180722891566265,6.481927710843374,1.7731453096259961,-7.026977314530963,7.0705088902513795,3.0,0.6045066045066045,1654.241645244216,-0.18250684692034225,0.2919410290775594,0.13670532020278542,1370.6959706959706,-1.0,67.52575903283417,0.6048992836702355,
2023-08-16 13:48:18.424000,-7.024096385542169,1.530120481927711,6.46987951807229,1.7878602084610666,-7.0,7.063151440833844,3.0,0.6045066045066045,1654.241645244216,-0.19544315599324114,-0.12341938115494361,0.25569605500844944,1370.6959706959706,-1.0,67.52575903283417,0.6048904792222368,
2023-08-16 13:48:18.431000,-7.0,1.5180722891566265,6.493975903614458,1.8025751072961373,-7.017167381974248,7.13182096873084,3.0,0.6045066045066045,1654.241645244216,-0.23856418623623393,-0.0916030534351145,0.17644659402132748,1372.161172161172,-1.0,67.52575903283417,0.604881706077888,
2023-08-16 13:48:18.439000,-7.0120481927710845,1.5180722891566265,6.481927710843374,1.7976701410177804,-7.06131207847946,7.1293684855916615,3.0,0.6045066045066045,1654.241645244216,-0.6035778800769184,-0.15104014917545566,0.34298700541926475,1369.9633699633698,-1.0,67.52575903283417,0.6048729672014488,
2023-08-16 13:48:18.447000,-7.0120481927710845,1.5060240963855422,6.457831325301205,1.807480073574494,-7.046597179644389,7.0778663396689145,3.0,0.6045066045066045,1654.241645244216,0.011071615873200292,0.18542043004486836,0.20301847211700938,1371.4285714285713,-1.0,67.52575903283417,0.6048642656199169,
2023-08-16 13:48:18.454000,-7.0,1.5180722891566265,6.46987951807229,1.7952176578786019,-7.031882280809319,7.050889025137952,3.0,0.6045066045066045,1654.241645244216,-0.44601130470252376,-0.060602528990151255,0.44484587145271237,1374.3589743589744,-1.0,67.52575903283417,0.6048556044178905,
2023-08-16 13:48:18.462000,-7.024096385542169,1.5421686746987953,6.445783132530121,1.7437155119558552,-7.044144696505211,7.055793991416309,3.0,0.6045066045066045,1654.241645244216,-0.15255521240021,-0.15115669250043648,0.2877454693782415,1378.7545787545787,-1.0,67.52575903283417,0.6048469867322217,
2023-08-16 13:48:18.470000,-6.987951807228916,1.530120481927711,6.457831325301205,1.8001226241569588,-6.977927651747394,7.0705088902513795,3.0,0.6045066045066045,1654.241645244216,-0.1517394091253424,-0.15104014917545566,0.2857642328535634,1383.150183150183,-1.0,67.52575903283417,0.604838415746482,
2023-08-16 13:48:18.477000,-6.987951807228916,1.5421686746987953,6.46987951807229,1.7559779276517473,-7.002452483139178,7.045984058859595,3.0,0.6045066045066045,1654.241645244216,-0.4542858807761788,-0.22527824718839254,0.054891906066079854,1386.8131868131868,-1.0,67.52575903283417,0.6048298946852565,
2023-08-16 13:48:18.485000,-7.0120481927710845,1.5060240963855422,6.46987951807229,1.7927651747394235,-7.063764561618639,7.072961373390558,3.0,0.6045066045066045,1654.241645244216,-0.31326845754909416,0.15756657537439464,0.16071324514888416,1389.0109890109889,-1.0,67.52575903283417,0.6048214268082881,
2023-08-16 13:48:18.493000,-7.0120481927710845,1.5180722891566265,6.46987951807229,1.8001226241569588,-7.049049662783568,7.055793991416309,3.0,0.604062604062604,1655.457552370452,-0.35522405454227685,-0.33179884622108186,0.236233319736612,1391.2087912087911,-1.0,67.52575903283417,0.6048130154044882,
2023-08-16 13:48:18.500000,-7.0,1.5180722891566265,6.481927710843374,1.8025751072961373,-7.007357449417535,7.1072961373390555,3.0,0.604062604062604,1655.457552370452,-0.4714177495483947,-0.3907697686614997,0.11386282850649722,1393.4065934065934,-1.0,67.52575903283417,0.6048046636365422,
2023-08-16 13:48:18.508000,-6.987951807228916,1.530120481927711,6.506024096385542,1.7903126916002452,-7.024524831391783,7.134273451870018,3.0,0.6045066045066045,1654.241645244216,-0.5428588077617846,-0.47864343569722045,0.2207330575141308,1397.069597069597,-1.0,67.52575903283417,0.6047963745128374,
2023-08-16 13:48:18.516000,-7.0,1.5421686746987953,6.506024096385542,1.8172900061312078,-7.053954629061924,7.0410790925812385,3.0,0.6045066045066045,1654.241645244216,-0.14136705320202714,-0.40067595128488986,-0.14684458947613774,1399.2673992673992,-1.0,67.52575903283417,0.604788151167554,
2023-08-16 13:48:18.523000,-6.975903614457832,1.530120481927711,6.506024096385542,1.8050275904353157,-7.044144696505211,7.087676272225628,3.0,0.604062604062604,1655.457552370452,0.05803857584056938,-0.6725715284657072,0.17539770409649777,1400.0,-1.0,67.52575903283417,0.6047799968743439,
2023-08-16 13:48:18.531000,-6.975903614457832,1.530120481927711,6.506024096385542,1.7731453096259961,-6.990190067443286,7.104843654199877,3.0,0.604062604062604,1655.457552370452,0.05617388264087252,-0.28483188625371453,0.4954256744944935,1400.0,-1.0,67.52575903283417,0.6047719147515728,
2023-08-16 13:48:18.539000,-6.987951807228916,1.5421686746987953,6.506024096385542,1.7412630288166768,-6.95340282035561,7.08522378908645,3.0,0.604062604062604,1655.457552370452,-0.2619893945574272,-0.27993706660451073,0.38435988578754154,1394.8717948717947,-1.0,67.52575903283417,0.6047639078724795,
2023-08-16 13:48:18.546000,-6.975903614457832,1.530120481927711,6.493975903614458,1.8491722869405272,-7.026977314530963,7.117106069895769,3.0,0.604062604062604,1655.457552370452,-0.04498572344268966,-0.38435988578754154,0.06025289901520896,1390.4761904761904,-1.0,67.52575903283417,0.604755979236423,
2023-08-16 13:48:18.554000,-6.987951807228916,1.5060240963855422,6.506024096385542,1.812385039852851,-6.975475168608216,7.0999386879215205,3.0,0.6036186036186036,1656.6752482530342,-0.012586679097954637,-0.08810675368568247,-0.11001689878212224,1383.8827838827838,-1.0,67.52575903283417,0.6047481317715131,
2023-08-16 13:48:18.562000,-7.0,1.5180722891566265,6.518072289156627,1.7510729613733904,-7.0,7.119558553034947,3.0,0.604062604062604,1655.457552370452,-0.025522988170851784,-0.39310063516112165,0.1195734514305695,1377.2893772893772,-1.0,67.52575903283417,0.6047403684441687,
2023-08-16 13:48:18.569000,-7.0120481927710845,1.5180722891566265,6.506024096385542,1.7584304107909257,-7.041692213366033,7.112201103617412,3.0,0.604062604062604,1655.457552370452,-0.32981760969640417,-0.09603169978439496,-0.021094341821572188,1372.161172161172,-1.0,67.52575903283417,0.6047326920705359,
2023-08-16 13:48:18.577000,-7.0,1.530120481927711,6.493975903614458,1.7927651747394235,-7.044144696505211,7.126916002452483,3.0,0.604062604062604,1655.457552370452,0.11549443505623284,-0.16910436454752,-0.17469844414661145,1366.3003663003662,-1.0,67.52575903283417,0.6047251053399999,
2023-08-16 13:48:18.585000,-6.963855421686747,1.530120481927711,6.506024096385542,1.7461679950950337,-7.017167381974248,7.1293684855916615,3.0,0.604062604062604,1655.457552370452,0.20721403181632816,-0.13600606025289824,0.08437736728628875,1359.7069597069597,-1.0,67.52575903283417,0.6047176106785959,
2023-08-16 13:48:18.592000,-6.963855421686747,1.5542168674698795,6.481927710843374,1.753525444512569,-7.01471489883507,7.087676272225628,3.0,0.604062604062604,1655.457552370452,0.28599731950352464,-0.13344210710331636,0.09696404638424339,1354.5787545787546,-1.0,67.52575903283417,0.6047102102608538,
2023-08-16 13:48:18.600000,-6.987951807228916,1.5783132530120483,6.506024096385542,1.8933169834457386,-6.9656652360515015,7.090128755364806,3.0,0.604062604062604,1655.457552370452,0.34613367519375254,0.037760037293863916,-0.04253831361808732,1352.3809523809523,-1.0,67.52575903283417,0.6047029062879177,
2023-08-16 13:48:18.608000,-6.963855421686747,1.5783132530120483,6.506024096385542,1.854077253218884,-7.039239730226854,7.14653586756591,3.0,0.604062604062604,1655.457552370452,0.14474680962647835,-0.1576831186993772,0.0187634753219509,1354.5787545787546,-1.0,67.52575903283417,0.6046957008186429,
2023-08-16 13:48:18.615000,-6.987951807228916,1.5542168674698795,6.493975903614458,1.7976701410177804,-7.0,7.126916002452483,3.0,0.604062604062604,1655.457552370452,0.11153196200687572,-0.24660567565992728,-0.26991434065613884,1356.7765567765566,-1.0,67.52575903283417,0.604688595771168,
2023-08-16 13:48:18.623000,-6.963855421686747,1.530120481927711,6.493975903614458,1.765787860208461,-7.0,7.161250766400981,3.0,0.604062604062604,1655.457552370452,-0.011071615873200292,-0.03041780782005733,-0.28226793310413156,1358.974358974359,-1.0,67.52575903283417,0.6046815930423282,
2023-08-16 13:48:18.631000,-7.0120481927710845,1.5180722891566265,6.493975903614458,1.7608828939301042,-7.056407112201104,7.124463519313304,3.0,0.604062604062604,1655.457552370452,0.07924946098712153,0.03239904434473502,-0.27970397995454815,1363.3699633699632,-1.0,67.52575903283417,0.6046746943504763,
2023-08-16 13:48:18.638000,-7.024096385542169,1.530120481927711,6.481927710843374,1.7976701410177804,-6.987737584304107,7.092581238503985,3.0,0.604062604062604,1655.457552370452,0.11234776528174331,0.2483538255346433,-0.06433191538954626,1368.4981684981683,-1.0,67.52575903283417,0.6046679012277729,
2023-08-16 13:48:18.646000,-7.0361445783132535,1.5180722891566265,6.457831325301205,1.7976701410177804,-7.044144696505211,7.087676272225628,3.0,0.604062604062604,1655.457552370452,0.15581842549968036,-0.11561097838121367,-0.14101742322708463,1369.9633699633698,-1.0,67.52575903283417,0.604661215012697,
2023-08-16 13:48:18.654000,-7.0120481927710845,1.5180722891566265,6.481927710843374,1.8025751072961373,-6.990190067443286,7.104843654199877,3.0,0.604062604062604,1655.457552370452,0.04626770001748233,-0.1256337043295847,-0.35452479459238967,1370.6959706959706,-1.0,67.52575903283417,0.6046546368428434,
2023-08-16 13:48:18.661000,-7.0,1.530120481927711,6.506024096385542,1.7118332311465358,-7.01471489883507,7.05334150827713,3.0,0.604062604062604,1655.457552370452,0.36652875706543886,-0.10815220558242453,-0.27702348347998373,1370.6959706959706,-1.0,67.52575903283417,0.6046481675093026,
2023-08-16 13:48:18.669000,-6.987951807228916,1.5060240963855422,6.493975903614458,1.7976701410177804,-7.004904966278357,7.20784794604537,3.0,0.604062604062604,1655.457552370452,0.25709457490822163,-0.10733640230755867,-0.13845347007750144,1369.9633699633698,-1.0,67.52575903283417,0.6046418076093142,
2023-08-16 13:48:18.677000,-7.0,1.530120481927711,6.530120481927711,1.7927651747394235,-7.036787247087676,7.097486204782342,3.0,0.604062604062604,1655.457552370452,0.47176737952333725,0.06316648213973486,-0.24625604568498347,1367.7655677655678,-1.0,67.52575903283417,0.6046355576678465,
2023-08-16 13:48:18.684000,-7.0,1.530120481927711,6.481927710843374,1.748620478234212,-7.073574494175352,7.124463519313304,3.0,0.604062604062604,1655.457552370452,0.24182739933570255,0.1562845987996037,0.0748208146378415,1363.3699633699632,-1.0,67.52575903283417,0.6046294179829723,
2023-08-16 13:48:18.692000,-7.0,1.5180722891566265,6.481927710843374,1.7216431637032494,-7.022072348252605,7.1072961373390555,3.0,0.6036186036186036,1656.6752482530342,0.18110832702057048,2.3308664996167294E-4,-0.09509935318454632,1362.6373626373625,842.59033203125,71.20898225280695,0.6046233886210871,
2023-08-16 13:48:18.700000,-7.0,1.5180722891566265,6.457831325301205,1.7559779276517473,-7.019619865113427,7.117106069895769,3.0,0.604062604062604,1655.457552370452,0.08787366703572079,-0.19765747916788048,0.05757240254064452,1364.8351648351647,-1.0,71.20898225280695,0.6046174692634422,
2023-08-16 13:48:18.707000,-6.987951807228916,1.530120481927711,6.46987951807229,1.7388105456774983,-7.012262415695892,7.092581238503985,3.0,0.6031746031746031,1657.8947368421052,-0.09393391993473643,0.09474972320960402,0.07540353126274699,1369.230769230769,-1.0,71.20898225280695,0.604611659330037,
2023-08-16 13:48:18.715000,-6.987951807228916,1.530120481927711,6.481927710843374,1.8295524218270998,-6.997547516860821,7.082771305947271,3.0,0.6036186036186036,1656.6752482530342,-0.0597867257152854,-0.08810675368568247,0.28704620942835496,1378.021978021978,-1.0,71.20898225280695,0.6046059579758924,
2023-08-16 13:48:18.722000,-6.987951807228916,1.5421686746987953,6.481927710843374,1.8148375229920293,-7.019619865113427,7.102391171060699,3.0,0.6036186036186036,1656.6752482530342,-0.04347066021793532,-0.07050871161354318,-0.06666278188916733,1392.6739926739926,-1.0,71.20898225280695,0.6046003638964424,
2023-08-16 13:48:18.730000,-6.987951807228916,1.5421686746987953,6.481927710843374,1.8148375229920293,-6.914163090128755,7.087676272225628,3.0,0.6036186036186036,1656.6752482530342,0.09486626653458487,0.14509643960142257,-0.23553405978672567,1408.7912087912086,-1.0,71.20898225280695,0.6045948754944409,
2023-08-16 13:48:18.738000,-6.987951807228916,1.5542168674698795,6.493975903614458,1.7976701410177804,-7.026977314530963,7.117106069895769,3.0,0.6036186036186036,1656.6752482530342,0.06270030883981152,0.023425208321193255,-0.1885670998193579,1427.8388278388277,-1.0,71.20898225280695,0.6045894908876008,
2023-08-16 13:48:18.745000,-6.975903614457832,1.5180722891566265,6.493975903614458,1.8148375229920293,-7.039239730226854,7.090128755364806,3.0,0.6036186036186036,1656.6752482530342,0.06456500203950837,0.026571878095682785,-0.18891672979430105,1447.6190476190475,-1.0,71.20898225280695,0.604584207906389,
2023-08-16 13:48:18.753000,-7.0,1.530120481927711,6.481927710843374,1.7927651747394235,-7.046597179644389,7.072961373390558,3.0,0.6036186036186036,1656.6752482530342,-0.04160596701823846,-0.12178777460521016,-0.2799370666045103,1467.3992673992673,-1.0,71.20898225280695,0.6045790240925676,
2023-08-16 13:48:18.761000,-7.0,1.493975903614458,6.46987951807229,1.7706928264868178,-7.036787247087676,7.117106069895769,3.0,0.604062604062604,1655.457552370452,0.12540061767962304,0.35545714119223853,-0.26198939455742676,1485.7142857142856,-1.0,71.20898225280695,0.6045739366985305,
2023-08-16 13:48:18.768000,-7.0,1.5060240963855422,6.46987951807229,1.7731453096259961,-7.068669527896995,7.072961373390558,3.0,0.6036186036186036,1656.6752482530342,0.24718839228483144,0.6145329526251379,-0.0013985198997726411,1501.8315018315018,-1.0,71.20898225280695,0.6045689428367741,
2023-08-16 13:48:18.776000,-7.024096385542169,1.5060240963855422,6.481927710843374,1.731453096259963,-7.01471489883507,7.0410790925812385,3.0,0.6036186036186036,1656.6752482530342,-0.13623914690286165,0.3976458248353829,-0.3539420779674844,1514.2857142857142,-1.0,71.20898225280695,0.6045640393535263,
2023-08-16 13:48:18.784000,-7.0120481927710845,1.5060240963855422,6.493975903614458,1.7608828939301042,-7.031882280809319,7.087676272225628,3.0,0.6036186036186036,1656.6752482530342,0.2354175164617444,0.2595419847328244,0.014334828972670657,1523.8095238095236,-1.0,71.20898225280695,0.6045592226717821,
2023-08-16 13:48:18.791000,-7.0120481927710845,1.5180722891566265,6.46987951807229,1.7608828939301042,-7.017167381974248,7.1146535867565905,3.0,0.6036186036186036,1656.6752482530342,0.26839927743138536,0.33517860264553306,-0.1857700600198124,1531.135531135531,-1.0,71.20898225280695,0.6045544889331532,
2023-08-16 13:48:18.799000,-7.0,1.530120481927711,6.481927710843374,1.7755977927651747,-7.044144696505211,7.048436541998774,3.0,0.6036186036186036,1656.6752482530342,0.17819474389604262,-0.12516753102965963,-0.15092360585047482,1533.3333333333333,-1.0,71.20898225280695,0.6045498340019462,
2023-08-16 13:48:18.807000,-7.024096385542169,1.530120481927711,6.493975903614458,1.7706928264868178,-7.066217044757817,7.095033721643163,3.0,0.6036186036186036,1656.6752482530342,0.012120505798029556,0.13507371365304982,0.12458481440475501,1530.4029304029302,-1.0,71.20898225280695,0.6045452534702334,
2023-08-16 13:48:18.814000,-7.024096385542169,1.5421686746987953,6.493975903614458,1.7510729613733904,-7.041692213366033,7.097486204782342,3.0,0.6036186036186036,1656.6752482530342,0.10442281918303081,-0.11071615873200813,0.23238739001223702,1525.2747252747251,-1.0,71.20898225280695,0.6045407426639425,
2023-08-16 13:48:18.822000,-7.0361445783132535,1.5421686746987953,6.46987951807229,1.7633353770692826,-6.987737584304107,7.058246474555487,3.0,0.6036186036186036,1656.6752482530342,-0.04871510984208337,0.16385991492337196,-0.302196841675893,1515.7509157509157,-1.0,71.20898225280695,0.6045362966499787,
2023-08-16 13:48:18.830000,-7.048192771084338,1.5421686746987953,6.457831325301205,1.748620478234212,-7.053954629061924,7.043531575720417,3.0,0.6036186036186036,1656.6752482530342,-0.030068177845113085,-0.3108210477244914,-0.3763183963638482,1503.2967032967033,-1.0,71.20898225280695,0.6045319102443844,
2023-08-16 13:48:18.837000,-7.0361445783132535,1.5180722891566265,6.457831325301205,1.8148375229920293,-7.058859595340282,7.139178418148375,3.0,0.6036186036186036,1656.6752482530342,-0.16595769477303224,0.027271138045567803,-0.15849892197424395,1490.10989010989,-1.0,71.20898225280695,0.6045275780215542,
2023-08-16 13:48:18.845000,-7.0120481927710845,1.5180722891566265,6.46987951807229,1.807480073574494,-7.058859595340282,7.087676272225628,3.0,0.6036186036186036,1656.6752482530342,-0.3006817784511395,0.01083852922323862,-0.12854728745411126,1476.1904761904761,-1.0,71.20898225280695,0.6045232943244927,
2023-08-16 13:48:18.853000,-7.0120481927710845,1.5180722891566265,6.46987951807229,1.7142857142857142,-7.026977314530963,7.033721643163703,3.0,0.6036186036186036,1656.6752482530342,-0.5719946390070509,-0.06573043528931848,-0.22084960083911206,1463.7362637362637,-1.0,71.20898225280695,0.6045190532761203,
2023-08-16 13:48:18.860000,-7.0,1.5060240963855422,6.445783132530121,1.765787860208461,-6.980380134886572,7.0778663396689145,3.0,0.6031746031746031,1657.8947368421052,-0.30674203135015515,-0.016432608822329185,-0.1288969174290542,1447.6190476190475,-1.0,71.20898225280695,0.6045148487916103,
2023-08-16 13:48:18.868000,-7.0,1.5060240963855422,6.457831325301205,1.7216431637032494,-7.017167381974248,7.087676272225628,3.0,0.6031746031746031,1657.8947368421052,-0.05850474914049272,-0.18087524037060707,-0.09789639298409182,1432.2344322344322,-1.0,71.20898225280695,0.6045106745812028,
2023-08-16 13:48:18.876000,-7.024096385542169,1.5060240963855422,6.481927710843374,1.7265481299816063,-7.049049662783568,7.065603923973022,3.0,0.6031746031746031,1657.8947368421052,-0.24101159606083497,-0.42351844298117897,0.09882873958394024,1416.8498168498168,-1.0,71.20898225280695,0.6045065241222985,
2023-08-16 13:48:18.883000,-7.0,1.5060240963855422,6.481927710843374,1.8295524218270998,-7.026977314530963,7.092581238503985,3.0,0.6036186036186036,1656.6752482530342,-0.114329001806421,0.0393916438435991,-0.13414136705320226,1402.197802197802,-1.0,71.20898225280695,0.6045023905251062,
2023-08-16 13:48:18.891000,-6.987951807228916,1.5180722891566265,6.481927710843374,1.719190680564071,-6.990190067443286,7.124463519313304,3.0,0.6036186036186036,1656.6752482530342,-0.020161995221722892,-0.2483538255346433,0.1562845987996037,1390.4761904761904,-1.0,71.20898225280695,0.6044982667178076,
2023-08-16 13:48:18.899000,-6.987951807228916,1.493975903614458,6.481927710843374,1.753525444512569,-6.980380134886572,7.092581238503985,3.0,0.6036186036186036,1656.6752482530342,-0.06246722218984984,-0.3984616281102505,-0.07540353126274699,1383.8827838827838,-1.0,71.20898225280695,0.6044941456324467,
2023-08-16 13:48:18.906000,-7.024096385542169,1.5180722891566265,6.481927710843374,1.8025751072961373,-7.07602697731453,7.065603923973022,3.0,0.6036186036186036,1656.6752482530342,0.04778276324223494,-0.1501078025756072,0.0340306508944702,1378.7545787545787,-1.0,71.20898225280695,0.6044900200832858,
2023-08-16 13:48:18.914000,-7.0,1.530120481927711,6.433734939759036,1.7412630288166768,-7.07602697731453,7.072961373390558,3.0,0.6036186036186036,1656.6752482530342,0.021443971796515564,-0.48540294854612115,-0.28867781597808995,1375.8241758241757,-1.0,71.20898225280695,0.6044858827847558,
2023-08-16 13:48:18.922000,-7.0,1.530120481927711,6.457831325301205,1.7952176578786019,-7.068669527896995,7.0778663396689145,3.0,0.6036186036186036,1656.6752482530342,0.16094633179884585,-0.2534817318338088,0.17213449099702827,1375.8241758241757,-1.0,71.20898225280695,0.6044817263702201,
2023-08-16 13:48:18.929000,-7.0,1.530120481927711,6.445783132530121,1.7731453096259961,-7.041692213366033,7.026364193746168,3.0,0.6036186036186036,1656.6752482530342,0.11619369500611786,-0.3286521764465941,-0.1491754559757588,1378.7545787545787,-1.0,71.20898225280695,0.6044775435502412,
2023-08-16 13:48:18.937000,-7.0,1.530120481927711,6.46987951807229,1.73635806253832,-7.051502145922746,7.102391171060699,3.0,0.6036186036186036,1656.6752482530342,0.23937998951110154,-0.3866907522871635,-0.1177087582308722,1380.952380952381,-1.0,71.20898225280695,0.6044733269736783,
2023-08-16 13:48:18.945000,-7.0120481927710845,1.5180722891566265,6.46987951807229,1.7142857142857142,-7.019619865113427,7.065603923973022,3.0,0.6031746031746031,1657.8947368421052,0.22446244391352496,-0.6877221607132455,-0.19217994289377077,1382.4175824175823,-1.0,71.20898225280695,0.6044690691209497,
2023-08-16 13:48:18.952000,-7.0120481927710845,1.5180722891566265,6.457831325301205,1.7437155119558552,-6.975475168608216,7.065603923973022,3.0,0.6036186036186036,1656.6752482530342,0.2680496474564411,-0.43773672862886703,-0.14404754967659245,1380.952380952381,-1.0,71.20898225280695,0.6044647623252921,
2023-08-16 13:48:18.960000,-7.0120481927710845,1.5180722891566265,6.493975903614458,1.8099325567136726,-7.004904966278357,7.148988350705088,3.0,0.6036186036186036,1656.6752482530342,0.40149175455975744,0.13029543732882684,-0.22015034088922575,1380.952380952381,-1.0,71.20898225280695,0.6044603989219609,
2023-08-16 13:48:18.968000,-7.024096385542169,1.530120481927711,6.481927710843374,1.8050275904353157,-7.009809932556713,7.1072961373390555,3.0,0.6031746031746031,1657.8947368421052,0.39554804498572266,-0.5718780956820702,0.04055707709340963,1383.8827838827838,-1.0,71.20898225280695,0.6044559714293943,
2023-08-16 13:48:18.975000,-7.0,1.5421686746987953,6.518072289156627,1.7437155119558552,-7.049049662783568,7.109748620478234,3.0,0.6036186036186036,1656.6752482530342,0.2843657129537912,-0.49134665812015593,-0.17598042072140324,1384.6153846153845,-1.0,71.20898225280695,0.6044514724223401,
2023-08-16 13:48:18.983000,-7.024096385542169,1.530120481927711,6.506024096385542,1.7976701410177804,-7.066217044757817,7.124463519313304,3.0,0.6031746031746031,1657.8947368421052,0.02132742847153473,-0.18390536682011577,-0.3128022842491695,1386.8131868131868,-1.0,71.20898225280695,0.6044468945228696,
2023-08-16 13:48:18.991000,-7.024096385542169,1.5421686746987953,6.506024096385542,1.8270999386879214,-7.078479460453709,7.112201103617412,3.0,0.6036186036186036,1656.6752482530342,0.007225686148825746,-0.18145795699551298,-0.3394907056698327,1387.5457875457876,-1.0,71.20898225280695,0.6044422303053609,
2023-08-16 13:48:18.998000,-7.0,1.5180722891566265,6.506024096385542,1.7559779276517473,-6.995095033721642,7.072961373390558,3.0,0.6036186036186036,1656.6752482530342,0.3431035487442456,-0.5011362974185654,-0.13787075345259597,1389.0109890109889,-1.0,71.20898225280695,0.6044374725959296,
2023-08-16 13:48:19.006000,-7.0,1.5421686746987953,6.506024096385542,1.8295524218270998,-7.007357449417535,7.134273451870018,3.0,0.6036186036186036,1656.6752482530342,0.16945399452246426,-0.20569896859157383,-0.058388205815511886,1389.0109890109889,-1.0,71.20898225280695,0.6044326144950263,
2023-08-16 13:48:19.014000,-6.987951807228916,1.5180722891566265,6.493975903614458,1.7854077253218883,-7.046597179644389,7.0999386879215205,3.0,0.6027306027306027,1659.1160220994475,0.24567332906007885,-0.2342520832119343,-0.3481149117184311,1388.278388278388,-1.0,71.20898225280695,0.6044276492724164,
2023-08-16 13:48:19.021000,-7.024096385542169,1.5421686746987953,6.493975903614458,1.7755977927651747,-6.980380134886572,7.097486204782342,3.0,0.6031746031746031,1657.8947368421052,0.24520715576015376,-0.23297010663714163,-0.34426898199405653,1388.278388278388,-1.0,71.20898225280695,0.6044225703585646,
2023-08-16 13:48:19.029000,-7.024096385542169,1.5060240963855422,6.46987951807229,1.778050275904353,-7.01471489883507,7.117106069895769,3.0,0.6031746031746031,1657.8947368421052,0.13565643027795574,-0.3372763824951933,-0.29578695880193484,1386.080586080586,-1.0,71.20898225280695,0.6044173711651939,
2023-08-16 13:48:19.037000,-7.0,1.5060240963855422,6.518072289156627,1.8148375229920293,-7.026977314530963,7.1072961373390555,3.0,0.6036186036186036,1656.6752482530342,0.19614241594312615,-0.5475205407610285,0.057922032515587675,1383.150183150183,-1.0,71.20898225280695,0.6044120452766573,
2023-08-16 13:48:19.044000,-7.024096385542169,1.5180722891566265,6.46987951807229,1.8001226241569588,-7.009809932556713,7.075413856529736,3.0,0.6036186036186036,1656.6752482530342,0.11910727813064571,-0.32981760969640417,-0.3062758580502301,1383.150183150183,-1.0,71.20898225280695,0.6044065866299764,
2023-08-16 13:48:19.052000,-7.0361445783132535,1.530120481927711,6.445783132530121,1.7706928264868178,-7.002452483139178,7.134273451870018,3.0,0.6031746031746031,1657.8947368421052,0.18099178369558963,-0.3433366353942073,-0.379348522813356,1386.080586080586,-1.0,71.20898225280695,0.6044009895561295,
2023-08-16 13:48:19.060000,-7.0120481927710845,1.5180722891566265,6.493975903614458,1.7510729613733904,-7.036787247087676,7.087676272225628,3.0,0.6036186036186036,1656.6752482530342,0.5467047374861609,-0.09544898315948905,-0.17667968067128959,1389.0109890109889,-1.0,71.20898225280695,0.6043952485122615,
2023-08-16 13:48:19.067000,-6.987951807228916,1.530120481927711,6.46987951807229,1.7976701410177804,-7.007357449417535,7.124463519313304,3.0,0.6031746031746031,1657.8947368421052,0.17481498747159316,-0.15756657537439464,0.02249286172134483,1390.4761904761904,-1.0,71.20898225280695,0.6043893582286275,
2023-08-16 13:48:19.075000,-6.987951807228916,1.5180722891566265,6.506024096385542,1.8025751072961373,-6.995095033721642,7.1931330472103,3.0,0.6036186036186036,1656.6752482530342,0.12889691742905507,-0.1100168987821231,-0.2825010197540935,1389.0109890109889,-1.0,71.20898225280695,0.6043833137369763,
2023-08-16 13:48:19.083000,-7.0,1.530120481927711,6.506024096385542,1.7584304107909257,-7.051502145922746,7.072961373390558,3.0,0.6031746031746031,1657.8947368421052,0.23297010663714163,-0.42922906590525034,-0.06468154536448921,1386.8131868131868,-1.0,71.20898225280695,0.6043771103769207,
2023-08-16 13:48:19.090000,-6.987951807228916,1.493975903614458,6.506024096385542,1.7461679950950337,-7.036787247087676,7.134273451870018,3.0,0.6036186036186036,1656.6752482530342,0.351611211467864,-0.03321484761960261,-0.1834391935201911,1384.6153846153845,-1.0,71.20898225280695,0.6043707438223804,
2023-08-16 13:48:19.098000,-7.0,1.5060240963855422,6.506024096385542,1.7388105456774983,-7.01471489883507,7.092581238503985,3.0,0.6031746031746031,1657.8947368421052,-0.01654915214731002,-0.09509935318454654,-0.013635569022784335,1380.952380952381,-1.0,71.20898225280695,0.6043642100859131,
2023-08-16 13:48:19.105000,-6.975903614457832,1.5060240963855422,6.493975903614458,1.824647455548743,-6.987737584304107,7.122011036174126,3.0,0.6031746031746031,1657.8947368421052,-0.004778276324222974,0.16269448167356187,-0.02890274459530342,1382.4175824175823,-1.0,71.20898225280695,0.6043575055430186,
2023-08-16 13:48:19.113000,-7.0120481927710845,1.5180722891566265,6.506024096385542,1.7731453096259961,-7.044144696505211,7.095033721643163,3.0,0.6031746031746031,1657.8947368421052,0.13122778392867526,-0.1774954839461576,-0.25627877163335494,1385.3479853479853,-1.0,71.20898225280695,0.6043506267849516,
2023-08-16 13:48:19.121000,-6.987951807228916,1.5060240963855422,6.481927710843374,1.7633353770692826,-6.995095033721642,7.134273451870018,3.0,0.6031746031746031,1657.8947368421052,-0.5422760911368805,0.1741157275217064,0.17423227084668724,1389.7435897435896,-1.0,71.20898225280695,0.6043435707681433,
2023-08-16 13:48:19.128000,-7.0,1.5060240963855422,6.46987951807229,1.8148375229920293,-7.0,7.104843654199877,3.0,0.6031746031746031,1657.8947368421052,0.00967309597342852,0.3389079890449268,0.08332847736145906,1392.6739926739926,-1.0,71.20898225280695,0.6043363348235812,
2023-08-16 13:48:19.136000,-7.0120481927710845,1.5180722891566265,6.506024096385542,1.7240956468424278,-6.990190067443286,7.102391171060699,3.0,0.6031746031746031,1657.8947368421052,0.03764349396888308,-0.12213740458015267,0.29695239205174495,1391.9413919413919,-1.0,71.20898225280695,0.6043289166648698,
2023-08-16 13:48:19.144000,-7.0,1.5180722891566265,6.506024096385542,1.8050275904353157,-7.056407112201104,7.0680564071122,3.0,0.6031746031746031,1657.8947368421052,-0.30079832177612037,0.4264320261057051,0.28063632655439663,1385.3479853479853,-1.0,71.20898225280695,0.6043213143949577,
2023-08-16 13:48:19.151000,-6.987951807228916,1.530120481927711,6.46987951807229,1.7461679950950337,-7.063764561618639,7.097486204782342,3.0,0.6031746031746031,1657.8947368421052,-0.06876056173882716,0.05360992949128891,0.3214264902977683,1375.8241758241757,-1.0,71.20898225280695,0.6043135265115188,
2023-08-16 13:48:19.159000,-7.024096385542169,1.530120481927711,6.46987951807229,1.7805027590435314,-7.012262415695892,7.0410790925812385,3.0,0.6031746031746031,1657.8947368421052,-0.25115086533418857,0.21863527766447097,0.26024124468271076,1367.032967032967,-1.0,71.20898225280695,0.6043055519109828,
2023-08-16 13:48:19.167000,-7.024096385542169,1.5421686746987953,6.481927710843374,1.778050275904353,-6.992642550582464,7.1293684855916615,3.0,0.6027306027306027,1659.1160220994475,0.03985781714352244,0.19765747916788048,-0.03018472117009479,1361.1721611721612,-1.0,71.20898225280695,0.6042973897524696,
2023-08-16 13:48:19.174000,-7.0120481927710845,1.5421686746987953,6.481927710843374,1.8442673206621703,-7.046597179644389,7.1293684855916615,3.0,0.6031746031746031,1657.8947368421052,0.024357554921041684,0.4066196608589247,0.03135015441990576,1358.2417582417581,-1.0,71.20898225280695,0.6042890396077163,
2023-08-16 13:48:19.182000,-6.963855421686747,1.530120481927711,6.457831325301205,1.7952176578786019,-7.004904966278357,7.112201103617412,3.0,0.6031746031746031,1657.8947368421052,-0.06829438843890208,0.2342520832119343,-0.046966959967367786,1358.2417582417581,-1.0,71.20898225280695,0.6042805016957424,
2023-08-16 13:48:19.190000,-6.975903614457832,1.530120481927711,6.457831325301205,1.7584304107909257,-6.997547516860821,7.087676272225628,3.0,0.6031746031746031,1657.8947368421052,0.039624730493560766,0.27504224695530516,0.1819241302954372,1356.0439560439559,-1.0,71.20898225280695,0.6042717766046513,
2023-08-16 13:48:19.197000,-7.0120481927710845,1.5180722891566265,6.481927710843374,1.7952176578786019,-7.019619865113427,7.119558553034947,3.0,0.6031746031746031,1657.8947368421052,-0.03717732066895799,-0.049880543091895206,-0.018297302022026906,1353.113553113553,-1.0,71.20898225280695,0.6042628651717991,
2023-08-16 13:48:19.205000,-7.024096385542169,1.530120481927711,6.46987951807229,1.7706928264868178,-6.990190067443286,7.122011036174126,3.0,0.6031746031746031,1657.8947368421052,-0.052327952916496244,0.11619369500611786,-0.06433191538954583,1351.6483516483515,-1.0,71.20898225280695,0.6042537686288721,
2023-08-16 13:48:19.213000,-6.987951807228916,1.530120481927711,6.493975903614458,1.7633353770692826,-7.088289393010423,7.1146535867565905,3.0,0.6031746031746031,1657.8947368421052,-0.0057106229240714,-0.0533768428413255,0.012003962473049587,1353.113553113553,-1.0,71.20898225280695,0.6042444885964688,
2023-08-16 13:48:19.220000,-7.0120481927710845,1.5180722891566265,6.46987951807229,1.807480073574494,-7.039239730226854,7.072961373390558,3.0,0.6031746031746031,1657.8947368421052,-0.21816910436454764,-0.10022725948371375,0.14824310937591037,1353.113553113553,-1.0,71.20898225280695,0.6042350270775046,
2023-08-16 13:48:19.228000,-7.0120481927710845,1.530120481927711,6.518072289156627,1.836909871244635,-7.041692213366033,7.0999386879215205,3.0,0.6031746031746031,1657.8947368421052,-0.061884505564943924,-0.11444554513140184,0.04125633704329595,1352.3809523809523,-1.0,71.20898225280695,0.6042253864495043,
2023-08-16 13:48:19.236000,-7.0,1.530120481927711,6.457831325301205,1.7461679950950337,-7.007357449417535,7.08522378908645,3.0,0.6031746031746031,1657.8947368421052,-0.2753918769302494,-0.2688654507313087,-0.06642969523920522,1352.3809523809523,-1.0,71.20898225280695,0.6042155694558268,
2023-08-16 13:48:19.243000,-6.975903614457832,1.5180722891566265,6.481927710843374,1.7903126916002452,-6.987737584304107,7.0778663396689145,3.0,0.6027306027306027,1659.1160220994475,0.017714585397121858,0.055707709340947445,-0.08286230406153484,1353.8461538461538,-1.0,71.20898225280695,0.6042055791958802,
2023-08-16 13:48:19.251000,-6.987951807228916,1.530120481927711,6.493975903614458,1.7805027590435314,-6.941140404659717,7.0705088902513795,3.0,0.6031746031746031,1657.8947368421052,-0.16444263154827787,0.1165433249810621,0.17772857059611927,1356.7765567765566,-1.0,71.20898225280695,0.6041954189650939,
2023-08-16 13:48:19.259000,-6.987951807228916,1.5180722891566265,6.46987951807229,1.7412630288166768,-6.958307786633966,7.082771305947271,3.0,0.6031746031746031,1657.8947368421052,0.2644368043820282,-0.06724549851407281,-0.15978089854903574,1360.4395604395604,-1.0,71.20898225280695,0.6041850923707185,
2023-08-16 13:48:19.266000,-7.0,1.5421686746987953,6.46987951807229,1.753525444512569,-7.036787247087676,7.095033721643163,3.0,0.6031746031746031,1657.8947368421052,-0.10395664588310746,-0.3865742089621809,-0.3128022842491695,1364.102564102564,-1.0,71.20898225280695,0.604174603478323,
2023-08-16 13:48:19.274000,-7.0,1.5180722891566265,6.46987951807229,1.7927651747394235,-6.990190067443286,7.08522378908645,3.0,0.6031746031746031,1657.8947368421052,-0.0102558125983327,0.015616805547461593,-0.17260066429695248,1367.032967032967,-1.0,71.20898225280695,0.6041639566596714,
2023-08-16 13:48:19.282000,-7.024096385542169,1.5060240963855422,6.46987951807229,1.7584304107909257,-7.004904966278357,7.092581238503985,3.0,0.6031746031746031,1657.8947368421052,0.11351319853155341,-0.36314900064098765,-0.31047141774954845,1369.9633699633698,-1.0,71.20898225280695,0.6041531565786756,
2023-08-16 13:48:19.289000,-7.0120481927710845,1.530120481927711,6.457831325301205,1.7878602084610666,-7.029429797670141,7.1072961373390555,3.0,0.6031746031746031,1657.8947368421052,0.2680496474564411,-0.48085775887185983,-0.2931064623273704,1372.8937728937728,-1.0,71.20898225280695,0.6041422081767504,
2023-08-16 13:48:19.297000,-6.987951807228916,1.530120481927711,6.481927710843374,1.7584304107909257,-7.046597179644389,7.092581238503985,3.0,0.6027306027306027,1659.1160220994475,0.26362100110716236,-0.4750305926228076,-0.29287337567740784,1375.091575091575,-1.0,71.20898225280695,0.6041311166576456,
2023-08-16 13:48:19.305000,-7.0120481927710845,1.530120481927711,6.481927710843374,1.8172900061312078,-7.053954629061924,7.0778663396689145,3.0,0.6031746031746031,1657.8947368421052,0.1835557368451715,-0.17889400384592938,-0.03193287104481081,1377.2893772893772,-1.0,71.20898225280695,0.6041198873225384,
2023-08-16 13:48:19.312000,-7.0,1.5060240963855422,6.493975903614458,1.7755977927651747,-7.019619865113427,7.075413856529736,3.0,0.6031746031746031,1657.8947368421052,0.15150632247538073,0.11642678165608127,-0.2454402424101163,1378.021978021978,-1.0,71.20898225280695,0.6041085256814639,
2023-08-16 13:48:19.320000,-7.024096385542169,1.530120481927711,6.481927710843374,1.7216431637032494,-6.995095033721642,7.043531575720417,3.0,0.6027306027306027,1659.1160220994475,0.013868655672745575,-0.2615232212575021,-0.27341064040557084,1379.4871794871794,-1.0,71.20898225280695,0.6040970375959734,
2023-08-16 13:48:19.328000,-6.987951807228916,1.5060240963855422,6.518072289156627,1.8172900061312078,-7.004904966278357,7.139178418148375,3.0,0.6027306027306027,1659.1160220994475,-0.04638424334246317,0.15698385874949047,0.08076452421187588,1382.4175824175823,-1.0,71.20898225280695,0.6040854291131544,
2023-08-16 13:48:19.335000,-7.0,1.5060240963855422,6.481927710843374,1.8099325567136726,-6.995095033721642,7.112201103617412,3.0,0.6031746031746031,1657.8947368421052,0.12132160130528508,-0.5594079599090963,-0.056640055940795866,1383.8827838827838,-1.0,71.20898225280695,0.604073706406554,
2023-08-16 13:48:19.343000,-6.975903614457832,1.530120481927711,6.481927710843374,1.8197424892703862,-7.019619865113427,7.095033721643163,3.0,0.6027306027306027,1659.1160220994475,-0.24928617213449172,-0.07715168113746301,0.08123069751180009,1381.6849816849815,-1.0,71.20898225280695,0.604061875897655,
2023-08-16 13:48:19.351000,-7.0,1.530120481927711,6.46987951807229,1.7559779276517473,-7.024524831391783,7.0680564071122,3.0,0.6031746031746031,1657.8947368421052,-0.14288211642678147,-0.4083678107336407,0.20313501544199067,1377.2893772893772,-1.0,71.20898225280695,0.6040499441108158,
2023-08-16 13:48:19.358000,-7.0,1.5421686746987953,6.481927710843374,1.807480073574494,-7.053954629061924,7.055793991416309,3.0,0.6031746031746031,1657.8947368421052,0.14847619602587203,-0.11083270205698896,-0.009556552648446815,1372.8937728937728,-1.0,71.20898225280695,0.6040379176456939,
2023-08-16 13:48:19.366000,-7.0,1.530120481927711,6.493975903614458,1.73635806253832,-6.992642550582464,7.08522378908645,3.0,0.6031746031746031,1657.8947368421052,0.06817784511392125,0.09125342346017198,-0.1177087582308722,1368.4981684981683,-1.0,71.20898225280695,0.6040258033199104,
2023-08-16 13:48:19.374000,-7.0,1.5180722891566265,6.457831325301205,1.765787860208461,-7.053954629061924,7.082771305947271,3.0,0.6031746031746031,1657.8947368421052,0.2041839053668195,-0.14905891265077795,-0.2527824718839229,1367.032967032967,-1.0,71.20898225280695,0.6040136080138938,
2023-08-16 13:48:19.381000,-7.0120481927710845,1.5180722891566265,6.46987951807229,1.7388105456774983,-7.034334763948498,7.0999386879215205,3.0,0.6027306027306027,1659.1160220994475,0.13985198997727452,0.13041198065380769,-0.25126740865916897,1367.032967032967,-1.0,71.20898225280695,0.6040013386546041,
2023-08-16 13:48:19.389000,-7.0,1.5180722891566265,6.493975903614458,1.7682403433476395,-7.024524831391783,7.126916002452483,3.0,0.6031746031746031,1657.8947368421052,-0.045684983392576414,-0.0051279062991672186,0.07435464133791729,1367.7655677655678,-1.0,71.20898225280695,0.6039890020501688,
2023-08-16 13:48:19.397000,-6.987951807228916,1.493975903614458,6.457831325301205,1.812385039852851,-7.031882280809319,7.082771305947271,3.0,0.6027306027306027,1659.1160220994475,0.19672513256803206,-0.1846046267700025,0.04451955014276544,1371.4285714285713,-1.0,71.20898225280695,0.6039766050015016,
2023-08-16 13:48:19.404000,-7.0,1.493975903614458,6.481927710843374,1.7755977927651747,-7.041692213366033,7.124463519313304,3.0,0.6027306027306027,1659.1160220994475,0.04160596701823846,-0.010372355923315273,-0.2596585280578057,1375.8241758241757,-1.0,71.20898225280695,0.6039641541577486,
2023-08-16 13:48:19.412000,-6.975903614457832,1.5060240963855422,6.493975903614458,1.8221949724095645,-7.01471489883507,7.119558553034947,3.0,0.6027306027306027,1659.1160220994475,0.14626187285123268,-0.3136180875240367,-0.25895926810791936,1380.2197802197802,-1.0,71.20898225280695,0.6039516559995683,
2023-08-16 13:48:19.420000,-6.987951807228916,1.5180722891566265,6.506024096385542,1.7854077253218883,-7.041692213366033,7.161250766400981,3.0,0.6031746031746031,1657.8947368421052,0.036011887419147896,-0.26432026105704737,-0.16094633179884626,1381.6849816849815,-1.0,71.20898225280695,0.6039391170890651,
2023-08-16 13:48:19.427000,-6.987951807228916,1.5180722891566265,6.506024096385542,1.807480073574494,-6.96811771919068,7.1735131820968725,3.0,0.6031746031746031,1657.8947368421052,0.4926286346949486,-0.3042946215255524,-0.20418390536682035,1382.4175824175823,-1.0,71.20898225280695,0.6039265439151685,
2023-08-16 13:48:19.435000,-7.0120481927710845,1.530120481927711,6.493975903614458,1.8270999386879214,-6.990190067443286,7.122011036174126,3.0,0.6027306027306027,1659.1160220994475,-0.16887127789755835,-0.08752403706077655,0.2118757648155703,1381.6849816849815,-1.0,71.20898225280695,0.6039139430591955,
2023-08-16 13:48:19.443000,-7.0,1.530120481927711,6.46987951807229,1.8270999386879214,-6.975475168608216,7.072961373390558,3.0,0.6031746031746031,1657.8947368421052,0.21245848144047624,0.08204650078666682,-0.1086183788823496,1382.4175824175823,-1.0,71.20898225280695,0.6039013210211522,
2023-08-16 13:48:19.450000,-6.987951807228916,1.5421686746987953,6.46987951807229,1.7903126916002452,-7.034334763948498,7.1293684855916615,3.0,0.6027306027306027,1659.1160220994475,0.0079249460987125,0.14299865975176232,0.09370083328477347,1383.150183150183,-1.0,71.20898225280695,0.6038886841855219,
2023-08-16 13:48:19.458000,-7.0,1.530120481927711,6.481927710843374,1.765787860208461,-7.07602697731453,7.095033721643163,3.0,0.6027306027306027,1659.1160220994475,-0.15989744187401658,0.3587203542917072,-0.10349047258318282,1382.4175824175823,-1.0,71.20898225280695,0.6038760388193544,
2023-08-16 13:48:19.466000,-7.0,1.5060240963855422,6.457831325301205,1.7952176578786019,-6.985285101164929,7.1072961373390555,3.0,0.6027306027306027,1659.1160220994475,0.15861546529922566,0.1281976574791683,-0.007225686148825746,1380.952380952381,-1.0,71.20898225280695,0.6038633909007263,
2023-08-16 13:48:19.473000,-7.0361445783132535,1.5060240963855422,6.481927710843374,1.8320049049662783,-7.071122011036174,7.08522378908645,3.0,0.6022866022866022,1660.3391079985256,-0.026921508070625294,0.09719713303420506,0.026105704795757703,1379.4871794871794,-1.0,71.20898225280695,0.6038507462457559,
2023-08-16 13:48:19.481000,-7.024096385542169,1.5060240963855422,6.481927710843374,1.8221949724095645,-7.034334763948498,7.08522378908645,3.0,0.6027306027306027,1659.1160220994475,-0.1499912592506264,-0.3763183963638482,-0.06293339548977318,1378.7545787545787,-1.0,71.20898225280695,0.6038381104870398,
2023-08-16 13:48:19.488000,-7.024096385542169,1.5060240963855422,6.493975903614458,1.7461679950950337,-7.051502145922746,7.065603923973022,3.0,0.6027306027306027,1659.1160220994475,0.015616805547461593,-0.4803915855719365,0.1981236524678047,1378.7545787545787,-1.0,71.20898225280695,0.6038254890316777,
2023-08-16 13:48:19.496000,-7.0361445783132535,1.5060240963855422,6.493975903614458,1.7976701410177804,-7.07602697731453,7.1072961373390555,3.0,0.6027306027306027,1659.1160220994475,-0.07855020103723478,-0.44333080822795934,-0.13740458015267176,1375.8241758241757,-1.0,71.20898225280695,0.6038128870831164,
2023-08-16 13:48:19.504000,-7.024096385542169,1.5421686746987953,6.457831325301205,1.8197424892703862,-6.997547516860821,7.095033721643163,3.0,0.6027306027306027,1659.1160220994475,0.17877746052094853,-0.25756074820814673,-0.2865800361284305,1371.4285714285713,-1.0,71.20898225280695,0.6038003096426448,
2023-08-16 13:48:19.511000,-7.0,1.5783132530120483,6.457831325301205,1.8295524218270998,-7.0,7.058246474555487,3.0,0.6027306027306027,1659.1160220994475,-0.05535807936600493,-0.16525843482314548,-0.3286521764465941,1369.230769230769,-1.0,71.20898225280695,0.6037877615011945,
2023-08-16 13:48:19.519000,-6.975903614457832,1.566265060240964,6.46987951807229,1.854077253218884,-6.955855303494788,7.095033721643163,3.0,0.6027306027306027,1659.1160220994475,-0.04405337684284123,-0.41023250393333754,0.11899073480566401,1367.7655677655678,-1.0,71.20898225280695,0.6037752472320156,
2023-08-16 13:48:19.527000,-6.987951807228916,1.5542168674698795,6.493975903614458,1.812385039852851,-6.963212752912323,7.124463519313304,3.0,0.6027306027306027,1659.1160220994475,-0.2130411980653804,-0.2710797739059498,-0.08076452421187588,1364.8351648351647,-1.0,71.20898225280695,0.6037627711842453,
2023-08-16 13:48:19.534000,-6.975903614457832,1.5180722891566265,6.518072289156627,1.7903126916002452,-6.963212752912323,7.102391171060699,3.0,0.6027306027306027,1659.1160220994475,-0.18075869704562622,-0.2419439426606834,-0.2765573101800595,1363.3699633699632,-1.0,71.20898225280695,0.6037503374773932,
2023-08-16 13:48:19.542000,-6.987951807228916,1.5180722891566265,6.518072289156627,1.8172900061312078,-6.96811771919068,7.124463519313304,3.0,0.6027306027306027,1659.1160220994475,0.03449682419439355,-0.07272303478818254,-0.20884563836606249,1363.3699633699632,-1.0,71.20898225280695,0.6037379499967551,
2023-08-16 13:48:19.550000,-7.0120481927710845,1.5180722891566265,6.493975903614458,1.765787860208461,-7.083384426732066,7.175965665236051,3.0,0.6027306027306027,1659.1160220994475,-0.090204533535341,-0.08799021036070162,-0.1118815919818191,1361.904761904762,-1.0,71.20898225280695,0.6037256123897589,
2023-08-16 13:48:19.557000,-7.024096385542169,1.5180722891566265,6.46987951807229,1.7927651747394235,-7.004904966278357,7.092581238503985,3.0,0.6027306027306027,1659.1160220994475,0.01666569547229259,0.17085251442223603,-0.1554687955247361,1361.904761904762,-1.0,71.20898225280695,0.6037133280632547,
2023-08-16 13:48:19.565000,-7.0361445783132535,1.5180722891566265,6.46987951807229,1.8025751072961373,-7.073574494175352,7.119558553034947,3.0,0.6027306027306027,1659.1160220994475,-0.13658877687780416,-0.1196899947555499,-0.23052269681254017,1364.102564102564,-1.0,71.20898225280695,0.6037011001817506,
2023-08-16 13:48:19.573000,-7.024096385542169,1.5180722891566265,6.445783132530121,1.8491722869405272,-7.036787247087676,7.097486204782342,3.0,0.6027306027306027,1659.1160220994475,-0.1361226035778808,-0.12027271138045581,-0.22690985373812728,1367.032967032967,834.930419921875,71.86227566797032,0.6036889316665831,
2023-08-16 13:48:19.580000,-7.0,1.5060240963855422,6.506024096385542,1.7927651747394235,-7.073574494175352,7.080318822808093,3.0,0.6027306027306027,1659.1160220994475,0.30476079482547574,-0.07283957811316338,0.09626478643435707,1369.9633699633698,-1.0,71.86227566797032,0.6036768251960201,
2023-08-16 13:48:19.588000,-7.0120481927710845,1.5180722891566265,6.481927710843374,1.7240956468424278,-7.046597179644389,7.087676272225628,3.0,0.6027306027306027,1659.1160220994475,0.1960258726181453,0.11106578870695237,0.03414719421945104,1373.6263736263736,-1.0,71.86227566797032,0.6036647832062855,
2023-08-16 13:48:19.596000,-7.0,1.5180722891566265,6.481927710843374,1.748620478234212,-7.071122011036174,7.0999386879215205,3.0,0.6027306027306027,1659.1160220994475,0.05827166249053105,0.04953091311695096,-0.3155993240487152,1378.021978021978,-1.0,71.86227566797032,0.6036528078934869,
2023-08-16 13:48:19.603000,-6.987951807228916,1.5180722891566265,6.46987951807229,1.7976701410177804,-7.056407112201104,7.065603923973022,3.0,0.6027306027306027,1659.1160220994475,0.31909562379814643,0.0037293863993937094,0.10080997610861837,1383.150183150183,-1.0,71.86227566797032,0.6036409012164281,
2023-08-16 13:48:19.611000,-7.0361445783132535,1.5180722891566265,6.46987951807229,1.778050275904353,-6.995095033721642,7.090128755364806,3.0,0.6027306027306027,1659.1160220994475,0.21199230814055114,-0.23891381621117644,0.2687489074063283,1388.278388278388,-1.0,71.86227566797032,0.6036290649002837,
2023-08-16 13:48:19.619000,-7.0120481927710845,1.5180722891566265,6.445783132530121,1.7805027590435314,-7.009809932556713,7.097486204782342,3.0,0.6027306027306027,1659.1160220994475,0.10418973253306914,-0.25219975525901783,0.09999417283375078,1397.8021978021977,-1.0,71.86227566797032,0.6036173004411056,
2023-08-16 13:48:19.626000,-7.024096385542169,1.530120481927711,6.481927710843374,1.78295524218271,-7.01471489883507,7.080318822808093,3.0,0.6022866022866022,1660.3391079985256,-0.2320377600372932,-0.0981294796340535,0.2661849542567451,1406.5934065934066,-1.0,71.86227566797032,0.603605609111138,
2023-08-16 13:48:19.634000,-6.987951807228916,1.530120481927711,6.457831325301205,1.8467198038013488,-7.019619865113427,7.1146535867565905,3.0,0.6027306027306027,1659.1160220994475,-0.0170153254472351,-0.35580677116718107,0.26303828448225647,1418.3150183150183,-1.0,71.86227566797032,0.603593991954352,
2023-08-16 13:48:19.642000,-7.0120481927710845,1.5421686746987953,6.457831325301205,1.778050275904353,-6.992642550582464,7.045984058859595,3.0,0.6027306027306027,1659.1160220994475,-0.21513897791504066,-0.4736320727230341,-0.014917545597575707,1431.5018315018315,-1.0,71.86227566797032,0.6035824499003004,
2023-08-16 13:48:19.649000,-6.975903614457832,1.530120481927711,6.493975903614458,1.78295524218271,-6.977927651747394,7.1072961373390555,3.0,0.6027306027306027,1659.1160220994475,0.19917254239263485,-0.4514888409766335,-0.12120505798030425,1446.8864468864467,-1.0,71.86227566797032,0.6035709836438211,
2023-08-16 13:48:19.657000,-6.975903614457832,1.5180722891566265,6.46987951807229,1.807480073574494,-6.995095033721642,7.122011036174126,3.0,0.6027306027306027,1659.1160220994475,-0.04580152671755725,-0.47806071907231457,-0.013519025697803066,1459.3406593406592,-1.0,71.86227566797032,0.6035595935357434,
2023-08-16 13:48:19.665000,-6.963855421686747,1.5060240963855422,6.506024096385542,1.7559779276517473,-7.004904966278357,7.0680564071122,3.0,0.6027306027306027,1659.1160220994475,-0.06071907231513382,-0.5503175805605738,-0.3052269681254004,1472.5274725274724,-1.0,71.86227566797032,0.6035482797403776,
2023-08-16 13:48:19.672000,-6.987951807228916,1.493975903614458,6.506024096385542,1.73635806253832,-7.007357449417535,7.1146535867565905,3.0,0.6027306027306027,1659.1160220994475,0.1712021443971803,-0.11805838820581471,-0.3956645883107044,1487.179487179487,-1.0,71.86227566797032,0.6035370422442783,
2023-08-16 13:48:19.680000,-7.0,1.5060240963855422,6.518072289156627,1.7339055793991416,-7.053954629061924,7.082771305947271,3.0,0.6027306027306027,1659.1160220994475,0.1562845987996037,-0.26921508070625294,-0.4996212341938114,1504.0293040293038,-1.0,71.86227566797032,0.6035258808655419,
2023-08-16 13:48:19.688000,-6.987951807228916,1.4819277108433735,6.506024096385542,1.7142857142857142,-7.022072348252605,7.14653586756591,3.0,0.6027306027306027,1659.1160220994475,0.295786958801934,-0.15838237864926225,-0.344035895344094,1520.14652014652,-1.0,71.86227566797032,0.6035147952635872,
2023-08-16 13:48:19.695000,-7.0,1.493975903614458,6.481927710843374,1.78295524218271,-7.022072348252605,7.112201103617412,3.0,0.6027306027306027,1659.1160220994475,0.6462327370199878,-0.26140667793252126,-0.141367053202028,1535.5311355311355,-1.0,71.86227566797032,0.6035037849493746,
2023-08-16 13:48:19.703000,-6.987951807228916,1.530120481927711,6.481927710843374,1.765787860208461,-7.034334763948498,7.1293684855916615,3.0,0.6027306027306027,1659.1160220994475,0.06223413553988644,0.23063924013752143,-0.17050288444729308,1548.7179487179485,-1.0,71.86227566797032,0.6034928492960199,
2023-08-16 13:48:19.711000,-7.024096385542169,1.530120481927711,6.493975903614458,1.778050275904353,-7.009809932556713,7.1293684855916615,3.0,0.6027306027306027,1659.1160220994475,0.18425499679505827,-0.19858982576772893,0.25977507138278655,1558.974358974359,-1.0,71.86227566797032,0.6034819875497484,
2023-08-16 13:48:19.718000,-7.0120481927710845,1.530120481927711,6.46987951807229,1.7805027590435314,-7.058859595340282,7.104843654199877,3.0,0.6027306027306027,1659.1160220994475,0.3192121671231272,-0.13379173707825887,0.060952158965095066,1564.102564102564,-1.0,71.86227566797032,0.6034711988411454,
2023-08-16 13:48:19.726000,-7.0120481927710845,1.5542168674698795,6.518072289156627,1.7755977927651747,-7.039239730226854,7.119558553034947,3.0,0.6027306027306027,1659.1160220994475,0.17854437387098687,-0.37620185303886733,0.04848202319212169,1564.102564102564,-1.0,71.86227566797032,0.6034604821966483,
2023-08-16 13:48:19.734000,-7.024096385542169,1.530120481927711,6.481927710843374,1.78295524218271,-7.07602697731453,7.0778663396689145,3.0,0.6027306027306027,1659.1160220994475,0.28331682302896016,-0.49449332789464545,0.14031816327719832,1558.974358974359,-1.0,71.86227566797032,0.6034498364114804,
2023-08-16 13:48:19.741000,-7.0120481927710845,1.530120481927711,6.46987951807229,1.8320049049662783,-7.019619865113427,7.097486204782342,3.0,0.6027306027306027,1659.1160220994475,-0.17656313734630918,-0.4728162694481665,0.09276848668492503,1548.7179487179485,-1.0,71.86227566797032,0.6034392602206101,
2023-08-16 13:48:19.749000,-6.987951807228916,1.530120481927711,6.481927710843374,1.841814837522992,-7.004904966278357,7.141630901287553,3.0,0.6027306027306027,1659.1160220994475,0.06911019171376967,-0.4979896276440775,0.015383718897500353,1533.3333333333333,-1.0,71.86227566797032,0.6034287524382796,
2023-08-16 13:48:19.757000,-7.0,1.5421686746987953,6.506024096385542,1.7854077253218883,-7.012262415695892,7.095033721643163,3.0,0.6027306027306027,1659.1160220994475,-0.19089796631897982,-0.2175863877396417,0.16758930132276653,1517.216117216117,-1.0,71.86227566797032,0.6034183118208664,
2023-08-16 13:48:19.764000,-7.0120481927710845,1.530120481927711,6.518072289156627,1.7976701410177804,-7.031882280809319,7.119558553034947,3.0,0.6027306027306027,1659.1160220994475,-0.3428704620942839,-0.3221257502476551,0.07365538138803097,1501.8315018315018,-1.0,71.86227566797032,0.603407937079026,
2023-08-16 13:48:19.772000,-6.987951807228916,1.530120481927711,6.481927710843374,1.8148375229920293,-7.01471489883507,7.1293684855916615,3.0,0.6027306027306027,1659.1160220994475,-0.27865509002971806,-0.25429753510867636,-0.11106578870695194,1488.6446886446886,-1.0,71.86227566797032,0.603397626889775,
2023-08-16 13:48:19.780000,-7.0,1.5060240963855422,6.46987951807229,1.7461679950950337,-7.029429797670141,7.092581238503985,3.0,0.6022866022866022,1660.3391079985256,-0.015500262222480757,-0.42922906590525034,-0.13973544665229282,1474.7252747252746,-1.0,71.86227566797032,0.6033873799084577,
2023-08-16 13:48:19.787000,-7.0,1.530120481927711,6.506024096385542,1.78295524218271,-7.009809932556713,7.080318822808093,3.0,0.6022866022866022,1660.3391079985256,-0.15418681894994518,-0.48225627877163335,-0.048715109842083805,1458.6080586080584,-1.0,71.86227566797032,0.6033771947700067,
2023-08-16 13:48:19.795000,-6.975903614457832,1.5180722891566265,6.493975903614458,1.7388105456774983,-6.985285101164929,7.119558553034947,3.0,0.6022866022866022,1660.3391079985256,-0.044752636792727986,-0.3221257502476551,-0.1388031000524444,1439.5604395604394,-1.0,71.86227566797032,0.6033670700582776,
2023-08-16 13:48:19.803000,-6.987951807228916,1.5180722891566265,6.493975903614458,1.753525444512569,-7.07602697731453,7.122011036174126,3.0,0.6027306027306027,1659.1160220994475,0.12516753102965963,-0.4831886253714818,-0.3671114736903443,1422.7106227106226,-1.0,71.86227566797032,0.6033570041677042,
2023-08-16 13:48:19.810000,-6.975903614457832,1.493975903614458,6.493975903614458,1.7854077253218883,-6.990190067443286,7.14653586756591,3.0,0.6022866022866022,1660.3391079985256,0.21677058446477412,-0.35638948779208696,-0.10488899248295545,1408.058608058608,-1.0,71.86227566797032,0.6033469954832325,
2023-08-16 13:48:19.818000,-6.987951807228916,1.5060240963855422,6.493975903614458,1.748620478234212,-7.06131207847946,7.124463519313304,3.0,0.6022866022866022,1660.3391079985256,-0.044752636792727986,-0.4117475671580902,-0.02575607482081476,1398.5347985347985,-1.0,71.86227566797032,0.6033370424104396,
2023-08-16 13:48:19.826000,-7.0,1.5421686746987953,6.46987951807229,1.778050275904353,-7.019619865113427,6.977314530962599,3.0,0.6027306027306027,1659.1160220994475,0.0170153254472351,-0.2700308839811205,0.14521298292640297,1391.2087912087911,-1.0,71.86227566797032,0.6033271432242867,
2023-08-16 13:48:19.833000,-6.987951807228916,1.530120481927711,6.481927710843374,1.8172900061312078,-7.024524831391783,7.1146535867565905,3.0,0.6027306027306027,1659.1160220994475,-0.014451372297651493,-0.4631431734747397,-0.20826292174115743,1386.080586080586,-1.0,71.86227566797032,0.6033172963644724,
2023-08-16 13:48:19.841000,-7.0,1.530120481927711,6.46987951807229,1.8270999386879214,-7.007357449417535,7.122011036174126,3.0,0.6027306027306027,1659.1160220994475,-0.01503408892255741,-0.5056814870928266,-0.1626944816735623,1381.6849816849815,-1.0,71.86227566797032,0.6033075004640231,
2023-08-16 13:48:19.849000,-7.0,1.5060240963855422,6.530120481927711,1.753525444512569,-6.995095033721642,7.117106069895769,3.0,0.6022866022866022,1660.3391079985256,-0.01666569547229259,-0.49950469086883015,-0.1616455917487326,1375.8241758241757,-1.0,71.86227566797032,0.6032977542183386,
2023-08-16 13:48:19.856000,-6.987951807228916,1.493975903614458,6.518072289156627,1.73635806253832,-7.078479460453709,7.112201103617412,3.0,0.6022866022866022,1660.3391079985256,0.1333255637783338,-0.5392459646873717,0.09917836955888362,1371.4285714285713,-1.0,71.86227566797032,0.6032880562432612,
2023-08-16 13:48:19.864000,-7.024096385542169,1.530120481927711,6.530120481927711,1.8050275904353157,-7.01471489883507,7.112201103617412,3.0,0.6022866022866022,1660.3391079985256,0.20371773206689614,-0.060136355690227905,-0.16176213507371343,1369.230769230769,-1.0,71.86227566797032,0.6032784050601184,
2023-08-16 13:48:19.871000,-6.987951807228916,1.5060240963855422,6.46987951807229,1.6799509503372163,-6.982832618025751,7.1440833844267315,3.0,0.6027306027306027,1659.1160220994475,0.07703513781248217,-0.5919235475788123,-0.09941145620884573,1370.6959706959706,-1.0,71.86227566797032,0.6032687992392455,
2023-08-16 13:48:19.879000,-6.975903614457832,1.5180722891566265,6.481927710843374,1.6995708154506437,-7.053954629061924,7.104843654199877,3.0,0.6027306027306027,1659.1160220994475,-0.07738476778742467,-0.4338907989044925,0.023774838296136636,1371.4285714285713,-1.0,71.86227566797032,0.603259237553405,
2023-08-16 13:48:19.887000,-6.987951807228916,1.5421686746987953,6.518072289156627,1.6848559166155732,-7.053954629061924,7.109748620478234,3.0,0.6027306027306027,1659.1160220994475,-0.0030301264495069553,-0.9048423751529638,-0.11199813530680036,1375.091575091575,-1.0,71.86227566797032,0.60324971900314,
2023-08-16 13:48:19.894000,-6.987951807228916,1.5060240963855422,6.493975903614458,1.765787860208461,-7.007357449417535,7.036174126302881,3.0,0.6022866022866022,1660.3391079985256,-0.2336693665870284,-0.2999825185012528,0.05687314259075798,1379.4871794871794,-1.0,71.86227566797032,0.603240242682548,
2023-08-16 13:48:19.902000,-6.987951807228916,1.493975903614458,6.493975903614458,1.778050275904353,-7.044144696505211,7.134273451870018,3.0,0.6027306027306027,1659.1160220994475,-0.06491463201445088,-0.17516461744653566,-0.1550026222248119,1383.8827838827838,-1.0,71.86227566797032,0.6032308076340664,
2023-08-16 13:48:19.910000,-7.0,1.5180722891566265,6.493975903614458,1.8001226241569588,-7.026977314530963,7.082771305947271,3.0,0.6027306027306027,1659.1160220994475,0.08694132043587237,-0.4188567099819351,-0.07691859448750091,1389.7435897435896,-1.0,71.86227566797032,0.6032214129795305,
2023-08-16 13:48:19.917000,-7.0,1.5060240963855422,6.46987951807229,1.7706928264868178,-6.997547516860821,7.08522378908645,3.0,0.6022866022866022,1660.3391079985256,-0.34170502884447207,-0.01759804207214102,-0.059670182390303694,1391.9413919413919,-1.0,71.86227566797032,0.6032120580823175,
2023-08-16 13:48:19.925000,-6.975903614457832,1.493975903614458,6.506024096385542,1.807480073574494,-6.975475168608216,7.060698957694665,3.0,0.6022866022866022,1660.3391079985256,-0.0802983509119508,-0.07994872093700829,0.0924188567099821,1393.4065934065934,-1.0,71.86227566797032,0.6032027422619076,
2023-08-16 13:48:19.933000,-6.987951807228916,1.4698795180722892,6.493975903614458,1.6382587369711832,-6.963212752912323,7.021459227467811,3.0,0.6022866022866022,1660.3391079985256,-0.35417516461744586,-0.2316881300623507,-0.13484062700308858,1394.139194139194,-1.0,71.86227566797032,0.6031934647742054,
2023-08-16 13:48:19.940000,-6.963855421686747,1.4337349397590362,6.518072289156627,1.702023298589822,-7.068669527896995,7.163703249540159,3.0,0.6022866022866022,1660.3391079985256,-0.25989161470776695,0.2736437270555334,-0.4086008973836024,1394.139194139194,-1.0,71.86227566797032,0.6031842249504151,
2023-08-16 13:48:19.948000,-7.0843373493975905,1.5421686746987953,6.506024096385542,1.8172900061312078,-7.2035561005518085,7.124463519313304,3.0,0.6022866022866022,1660.3391079985256,-0.4554513140259889,-1.3016723967134776,0.19019870636909264,1392.6739926739926,-1.0,71.86227566797032,0.6031750221966085,
2023-08-16 13:48:19.956000,-7.048192771084338,1.4819277108433735,6.506024096385542,1.6848559166155732,-6.987737584304107,7.038626609442059,3.0,0.6022866022866022,1660.3391079985256,0.5717615523570894,-0.04288794359303113,1.2571528465707125,1391.9413919413919,-1.0,71.86227566797032,0.6031658559927577,
2023-08-16 13:48:19.963000,-6.927710843373494,1.4819277108433735,6.518072289156627,1.7510729613733904,-6.990190067443286,7.171060698957694,3.0,0.6022866022866022,1660.3391079985256,0.14113396655206545,-0.5933220674785857,-0.1722510343220091,1393.4065934065934,-1.0,71.86227566797032,0.6031567258912731,
2023-08-16 13:48:19.971000,-6.975903614457832,1.530120481927711,6.506024096385542,1.8172900061312078,-6.990190067443286,7.122011036174126,3.0,0.6022866022866022,1660.3391079985256,-0.22411281393858243,-0.4024241011596059,0.17959326379581614,1395.6043956043954,-1.0,71.86227566797032,0.6031476315150625,
2023-08-16 13:48:19.979000,-7.0120481927710845,1.566265060240964,6.445783132530121,1.854077253218884,-7.056407112201104,7.087676272225628,3.0,0.6027306027306027,1659.1160220994475,0.3294679797214617,-0.3709574034147193,0.3933337218110833,1398.5347985347985,-1.0,71.86227566797032,0.6031385725551532,
2023-08-16 13:48:19.986000,-6.975903614457832,1.530120481927711,6.457831325301205,1.7903126916002452,-6.980380134886572,7.080318822808093,3.0,0.6022866022866022,1660.3391079985256,0.03834275391876983,-0.67501893829031,0.39007050871161336,1402.9304029304028,-1.0,71.86227566797032,0.6031295489172108,
2023-08-16 13:48:19.994000,-6.975903614457832,1.5180722891566265,6.518072289156627,1.8050275904353157,-6.977927651747394,7.0999386879215205,3.0,0.6022866022866022,1660.3391079985256,-0.45102266767670846,-0.8675485111590233,0.01934619194685617,1407.3260073260071,-1.0,71.86227566797032,0.6031205605909731,
2023-08-16 13:48:20.002000,-6.963855421686747,1.493975903614458,6.55421686746988,1.7265481299816063,-6.997547516860821,7.156345800122624,3.0,0.6022866022866022,1660.3391079985256,-0.4787599790222013,-0.5242118757648161,0.0023308664996210685,1410.989010989011,-1.0,71.86227566797032,0.6031116074878489,
2023-08-16 13:48:20.009000,-6.987951807228916,1.530120481927711,6.493975903614458,1.8148375229920293,-7.034334763948498,7.1072961373390555,3.0,0.6022866022866022,1660.3391079985256,0.763475321950935,-0.03321484761960261,0.2617563079074646,1413.9194139194137,-1.0,71.86227566797032,0.6031026895760966,
2023-08-16 13:48:20.017000,-6.987951807228916,1.5542168674698795,6.506024096385542,1.8099325567136726,-7.024524831391783,7.148988350705088,3.0,0.6022866022866022,1660.3391079985256,0.34613367519375254,-0.5360992949128839,0.5503175805605733,1413.9194139194137,-1.0,71.86227566797032,0.6030938068770106,
2023-08-16 13:48:20.025000,-6.951807228915663,1.5421686746987953,6.518072289156627,1.824647455548743,-6.963212752912323,7.153893316983446,3.0,0.6022866022866022,1660.3391079985256,-0.2659518676067826,-0.5010197540935845,0.28483188625371497,1414.6520146520145,-1.0,71.86227566797032,0.6030849594608912,
2023-08-16 13:48:20.032000,-6.963855421686747,1.5421686746987953,6.518072289156627,1.7584304107909257,-6.958307786633966,7.1440833844267315,3.0,0.6022866022866022,1660.3391079985256,-0.1252840743546422,-0.19136413961890317,0.34193811549443504,1412.4542124542124,-1.0,71.86227566797032,0.6030761475815992,
2023-08-16 13:48:20.040000,-6.975903614457832,1.5542168674698795,6.506024096385542,1.7927651747394235,-6.992642550582464,7.14653586756591,3.0,0.6022866022866022,1660.3391079985256,0.27306101043062747,-0.006992599498864074,0.20045451896742622,1406.5934065934066,-1.0,71.86227566797032,0.6030673716518541,
2023-08-16 13:48:20.048000,-6.987951807228916,1.5542168674698795,6.518072289156627,1.748620478234212,-6.948497854077253,7.117106069895769,3.0,0.6022866022866022,1660.3391079985256,0.027620768020512047,-0.34473515529398074,0.230639240137521,1400.7326007326005,-1.0,71.86227566797032,0.603058631952083,
2023-08-16 13:48:20.055000,-6.975903614457832,1.5542168674698795,6.506024096385542,1.7731453096259961,-7.002452483139178,7.139178418148375,3.0,0.6022866022866022,1660.3391079985256,0.18040906707068372,-0.2966027620768016,0.19672513256803206,1395.6043956043954,-1.0,71.86227566797032,0.6030499286474541,
2023-08-16 13:48:20.063000,-6.963855421686747,1.5542168674698795,6.518072289156627,1.7559779276517473,-6.963212752912323,7.1293684855916615,3.0,0.6022866022866022,1660.3391079985256,0.2561622283083732,0.10220849600839145,-0.08181341413670515,1391.2087912087911,-1.0,71.86227566797032,0.6030412620710662,
2023-08-16 13:48:20.071000,-6.963855421686747,1.5542168674698795,6.530120481927711,1.8344573881054567,-7.029429797670141,7.075413856529736,3.0,0.6022866022866022,1660.3391079985256,0.2577938348581084,-0.003962473049355383,-0.036128430744129164,1385.3479853479853,-1.0,71.86227566797032,0.6030326326987624,
2023-08-16 13:48:20.078000,-6.963855421686747,1.566265060240964,6.506024096385542,1.8442673206621703,-6.955855303494788,7.0778663396689145,3.0,0.6022866022866022,1660.3391079985256,0.19555969931822195,-0.06398228541460245,-0.17248412097197122,1377.2893772893772,-1.0,71.86227566797032,0.6030240409964059,
2023-08-16 13:48:20.086000,-6.963855421686747,1.5783132530120483,6.493975903614458,1.8687921520539545,-7.056407112201104,7.178418148375229,3.0,0.6018426018426019,1661.5639985245296,-0.18716857991958438,-0.3369267525202491,-0.050579803041780655,1369.9633699633698,-1.0,71.86227566797032,0.6030154874163833,
2023-08-16 13:48:20.094000,-6.951807228915663,1.5542168674698795,6.493975903614458,1.824647455548743,-6.970570202329859,7.1146535867565905,3.0,0.6018426018426019,1661.5639985245296,-0.06235067886486727,0.04626770001748233,0.07202377483829622,1364.102564102564,-1.0,71.86227566797032,0.6030069723835215,
