Shimmer_F5D4_Timestamp_FormattedUnix_CAL,Shimmer_F5D4_Accel_LN_X_CAL,Shimmer_F5D4_Accel_LN_Y_CAL,Shimmer_F5D4_Accel_LN_Z_CAL,Shimmer_F5D4_Accel_WR_X_CAL,Shimmer_F5D4_Accel_WR_Y_CAL,Shimmer_F5D4_Accel_WR_Z_CAL,Shimmer_F5D4_GSR_Range_CAL,Shimmer_F5D4_GSR_Skin_Conductance_CAL,Shimmer_F5D4_GSR_Skin_Resistance_CAL,Shimmer_F5D4_Gyro_X_CAL,Shimmer_F5D4_Gyro_Y_CAL,Shimmer_F5D4_Gyro_Z_CAL,Shimmer_F5D4_PPG_A13_CAL,Shimmer_F5D4_PPG_IBI_CAL,Shimmer_F5D4_PPGtoHR_CAL,Shimmer_F5D4_GSR_Skin_Conductance_LPF_CAL,
yyyy/mm/dd hh:mm:ss.000,m/(s^2),m/(s^2),m/(s^2),m/(s^2),m/(s^2),m/(s^2),no_units,uS,kOhms,deg/s,deg/s,deg/s,mV,ms,BPM,uS,
2023-08-09 18:07:33.050000,-5.132530120481928,0.1566265060240964,-8.542168674698795,0.19865113427345185,-4.770692826486818,-8.272225628448805,2.0,3.8923076923076927,256.9169960474308,-0.0018646931996968547,-0.0533768428413255,-0.21875182098945267,1273.9926739926739,-1.0,66.38125464244716,3.9348491490355735,
2023-08-09 18:07:33.058000,-5.1084337349397595,0.16867469879518074,-8.530120481927712,0.24034334763948498,-4.719190680564071,-8.24770079705702,2.0,3.8923076923076927,256.9169960474308,0.13495717032806898,-0.4968241943942657,-0.018180758697045635,1272.5274725274724,-1.0,66.38125464244716,3.934374179940741,
2023-08-09 18:07:33.065000,-5.1084337349397595,0.16867469879518074,-8.518072289156628,0.20846106683016552,-4.773145309625996,-8.286940527283875,2.0,3.8923076923076927,256.9169960474308,-0.18507080006992585,0.04183905366820187,-0.06514771866441342,1269.5970695970695,-1.0,66.38125464244716,3.9339002634871525,
2023-08-09 18:07:33.073000,-5.1084337349397595,0.14457831325301207,-8.506024096385543,0.21827099938687922,-4.800122624156959,-8.240343347639485,2.0,3.8923076923076927,256.9169960474308,-0.13705495017772923,-0.0961482431093758,-0.06456500203950837,1268.8644688644688,-1.0,66.38125464244716,3.9334274137482055,
2023-08-09 18:07:33.080000,-5.096385542168675,0.1566265060240964,-8.493975903614459,0.24034334763948498,-4.7290006131207845,-8.304107909258123,2.0,3.8908424908424912,257.01374505742797,0.0791329176621407,-0.23413553988695346,-0.033564477594545554,1267.3992673992673,-1.0,66.38125464244716,3.932955643377239,
2023-08-09 18:07:33.088000,-5.120481927710844,0.16867469879518074,-8.506024096385543,0.2035561005518087,-4.755977927651747,-8.284488044144696,2.0,3.8908424908424912,257.01374505742797,0.01596643552240584,-0.018996561971912792,-0.15418681894994474,1264.4688644688645,-1.0,66.38125464244716,3.9324849637038968,
2023-08-09 18:07:33.096000,-5.132530120481928,0.14457831325301207,-8.518072289156628,0.25015328019619865,-4.746167995095034,-8.301655426118945,2.0,3.8908424908424912,257.01374505742797,-0.016082978847386676,-0.08041489423693338,0.13658877687780416,1263.7362637362637,-1.0,66.38125464244716,3.9320153847270687,
2023-08-09 18:07:33.103000,-5.1084337349397595,0.16867469879518074,-8.493975903614459,0.21091354996934394,-4.839362354383813,-8.291845493562231,2.0,3.8893772893772898,257.110566961763,-0.030184721170095657,0.24007924946098655,-0.44484587145271237,1263.7362637362637,-1.0,66.38125464244716,3.9315469152122713,
2023-08-09 18:07:33.111000,-5.1084337349397595,0.18072289156626506,-8.506024096385543,0.26486817903126914,-4.819742489270386,-8.255058246474555,2.0,3.8908424908424912,257.01374505742797,0.1695705378474451,0.223180467338734,0.24590641571004007,1261.5384615384614,-1.0,66.38125464244716,3.9310795627886908,
2023-08-09 18:07:33.119000,-5.1084337349397595,0.16867469879518074,-8.518072289156628,0.29429797670141017,-4.743715511955855,-8.264868179031268,2.0,3.8908424908424912,257.01374505742797,0.19789056581784217,0.037060777343977155,-0.15360410232503927,1263.7362637362637,-1.0,66.38125464244716,3.9306133344338248,
2023-08-09 18:07:33.126000,-5.132530120481928,0.1566265060240964,-8.493975903614459,0.2795830778663397,-4.802575107296137,-8.240343347639485,2.0,3.8893772893772898,257.110566961763,-0.016316065497348348,0.31466697744886596,2.3308664996210684E-4,1268.131868131868,-1.0,66.38125464244716,3.930148236182582,
2023-08-09 18:07:33.134000,-5.132530120481928,0.1566265060240964,-8.506024096385543,0.2035561005518087,-4.802575107296137,-8.240343347639485,2.0,3.8893772893772898,257.110566961763,-0.01538371889749992,0.083678107336402,-0.13635569022784205,1273.9926739926739,-1.0,66.38125464244716,3.929684272377296,
2023-08-09 18:07:33.142000,-5.120481927710844,0.16867469879518074,-8.518072289156628,0.2207234825260576,-4.770692826486818,-8.289393010423053,2.0,3.8893772893772898,257.110566961763,0.03041780782005733,0.20686440184138394,0.13833692675252018,1278.3882783882782,-1.0,66.38125464244716,3.92922144667374,
2023-08-09 18:07:33.149000,-5.132530120481928,0.18072289156626506,-8.506024096385543,0.25015328019619865,-4.795217657878601,-8.267320662170446,2.0,3.8893772893772898,257.110566961763,0.24602295903502136,0.05465881941611818,-0.3364605792203253,1280.5860805860805,-1.0,66.38125464244716,3.928759762553197,
2023-08-09 18:07:33.157000,-5.132530120481928,0.18072289156626506,-8.493975903614459,0.23543838136112813,-4.78295524218271,-8.284488044144696,2.0,3.887912087912088,257.20746184284906,-0.048015849892196615,0.12971272070392093,0.19963871569255862,1282.051282051282,-1.0,66.38125464244716,3.9282992229541454,
2023-08-09 18:07:33.165000,-5.120481927710844,0.16867469879518074,-8.518072289156628,0.22562844880441446,-4.812385039852851,-8.286940527283875,2.0,3.887912087912088,257.20746184284906,0.42631548278072423,0.1305285239787885,0.016082978847386676,1281.3186813186812,-1.0,66.38125464244716,3.927839830359909,
2023-08-09 18:07:33.172000,-5.1084337349397595,0.16867469879518074,-8.566265060240964,0.16676885346413242,-4.7363580625383195,-8.240343347639485,2.0,3.887912087912088,257.20746184284906,0.20872909504108078,-0.11537789173125026,0.10675368568265231,1281.3186813186812,-1.0,66.38125464244716,3.9273815867796698,
2023-08-09 18:07:33.180000,-5.0843373493975905,0.14457831325301207,-8.530120481927712,0.269773145309626,-4.758430410790925,-8.274678111587983,2.0,3.887912087912088,257.20746184284906,0.1906648796690164,-0.17959326379581614,0.2589592681079189,1280.5860805860805,-1.0,66.38125464244716,3.9269244938309593,
2023-08-09 18:07:33.188000,-5.120481927710844,0.1566265060240964,-8.518072289156628,0.2869405272838749,-4.773145309625996,-8.289393010423053,2.0,3.8849816849816854,257.40147086554776,-0.0090903793485226,-0.242759745935551,0.2101276149408543,1280.5860805860805,-1.0,66.38125464244716,3.926468551938085,
2023-08-09 18:07:33.195000,-5.120481927710844,0.1566265060240964,-8.506024096385543,0.22317596566523604,-4.839362354383813,-8.250153280196198,2.0,3.8864468864468873,257.3044297832233,-0.17667968067129,-0.10453936250801164,-0.004894819649204678,1282.051282051282,-1.0,66.38125464244716,3.9260137605081744,
2023-08-09 18:07:33.203000,-5.132530120481928,0.1566265060240964,-8.518072289156628,0.25260576333537704,-4.775597792765175,-8.289393010423053,2.0,3.8864468864468873,257.3044297832233,-0.037876580618844746,-0.17970980712079695,0.07272303478818254,1281.3186813186812,-1.0,66.38125464244716,3.9255601173984678,
2023-08-09 18:07:33.211000,-5.1084337349397595,0.16867469879518074,-8.493975903614459,0.24279583077866337,-4.78295524218271,-8.220723482526058,2.0,3.8864468864468873,257.3044297832233,0.17621350737136493,0.06468154536448921,0.2097779849659109,1281.3186813186812,-1.0,66.38125464244716,3.9251076215729306,
2023-08-09 18:07:33.218000,-5.1084337349397595,0.16867469879518074,-8.530120481927712,0.22808093194359289,-4.785407725321888,-8.228080931943593,2.0,3.8864468864468873,257.3044297832233,0.1119981353068008,0.307557834625021,-0.006176796223996482,1279.8534798534797,-1.0,66.38125464244716,3.9246562729853616,
2023-08-09 18:07:33.226000,-5.096385542168675,0.14457831325301207,-8.530120481927712,0.19619865113427343,-4.792765174739423,-8.286940527283875,2.0,3.8849816849816854,257.40147086554776,0.017714585397121858,0.044752636792727986,0.08484354058621296,1273.9926739926739,-1.0,66.38125464244716,3.9242060722505636,
2023-08-09 18:07:33.234000,-5.096385542168675,0.14457831325301207,-8.530120481927712,0.21336603310852237,-4.817290006131207,-8.259963212752911,2.0,3.8849816849816854,257.40147086554776,0.23075578346250228,0.1632771982984678,-0.08484354058621296,1265.9340659340658,-1.0,66.38125464244716,3.9237570214455593,
2023-08-09 18:07:33.241000,-5.120481927710844,0.13253012048192772,-8.506024096385543,0.23789086450030655,-4.834457388105457,-8.193746167995094,2.0,3.8849816849816854,257.40147086554776,0.4419322883281858,0.34613367519375254,0.219451080939339,1260.8058608058607,-1.0,66.38125464244716,3.9233091221674883,
2023-08-09 18:07:33.249000,-5.120481927710844,0.1566265060240964,-8.506024096385543,0.22317596566523604,-4.836909871244635,-8.277130594727161,2.0,3.8849816849816854,257.40147086554776,0.13379173707825887,0.14194976982693305,0.09568206980945158,1256.4102564102564,-1.0,66.38125464244716,3.9228623756250425,
2023-08-09 18:07:33.257000,-5.120481927710844,0.14457831325301207,-8.518072289156628,0.17903126916002451,-4.768240343347639,-8.296750459840588,2.0,3.8835164835164844,257.4985851726089,0.34566750189382917,0.06339956878969827,0.061534875590000544,1250.5494505494505,-1.0,66.38125464244716,3.9224167823352016,
2023-08-09 18:07:33.264000,-5.120481927710844,0.16867469879518074,-8.506024096385543,0.23789086450030655,-4.802575107296137,-8.245248313917841,2.0,3.8835164835164844,257.4985851726089,0.3420546588194163,0.3231746401724844,0.12202086125517139,1244.6886446886447,-1.0,66.38125464244716,3.9219723408959806,
2023-08-09 18:07:33.272000,-5.072289156626506,0.16867469879518074,-8.493975903614459,0.26486817903126914,-4.711833231146535,-8.23298589822195,2.0,3.8835164835164844,257.4985851726089,0.03239904434473502,-0.04848202319212169,0.04277140026804986,1239.5604395604396,-1.0,66.38125464244716,3.9215290514277954,
2023-08-09 18:07:33.280000,-5.1084337349397595,0.18072289156626506,-8.493975903614459,0.23789086450030655,-4.817290006131207,-8.255058246474555,2.0,3.8835164835164844,257.4985851726089,0.3842433424625607,-0.004661732999242137,0.009206922673503872,1238.8278388278388,-1.0,66.38125464244716,3.921086918072991,
2023-08-09 18:07:33.287000,-5.0843373493975905,0.1927710843373494,-8.530120481927712,0.24034334763948498,-4.724095646842428,-8.245248313917841,2.0,3.8835164835164844,257.4985851726089,-0.4904143115203075,0.023891381621118337,0.19113105296894106,1239.5604395604396,-1.0,66.38125464244716,3.9206459441506056,
2023-08-09 18:07:33.295000,-5.132530120481928,0.16867469879518074,-8.518072289156628,0.2452483139178418,-4.832004904966278,-8.331085223789087,2.0,3.8835164835164844,257.4985851726089,-0.19672513256803206,-0.11479517510634608,0.17364955422178174,1240.2930402930401,-1.0,66.38125464244716,3.920206132895027,
2023-08-09 18:07:33.303000,-5.120481927710844,0.1566265060240964,-8.530120481927712,0.2550582464745555,-4.768240343347639,-8.284488044144696,2.0,3.882051282051283,257.5957727873183,-0.14777693607598702,0.00967309597342852,-0.025872618145795594,1243.956043956044,-1.0,66.38125464244716,3.9197674901998747,
2023-08-09 18:07:33.310000,-5.1084337349397595,0.1566265060240964,-8.506024096385543,0.17167381974248927,-4.7657878602084605,-8.267320662170446,2.0,3.882051282051283,257.5957727873183,0.23471825651185765,0.024590641571003356,-0.07237340481323917,1245.4212454212454,-1.0,66.38125464244716,3.9193300225828356,
2023-08-09 18:07:33.318000,-5.1084337349397595,0.16867469879518074,-8.518072289156628,0.23053341508277128,-4.733905579399141,-8.228080931943593,2.0,3.882051282051283,257.5957727873183,0.4334246256045691,0.08682477711089152,0.6156983858749489,1242.4908424908424,-1.0,66.38125464244716,3.918893735745168,
2023-08-09 18:07:33.326000,-5.1084337349397595,0.18072289156626506,-8.518072289156628,0.2575107296137339,-4.68976088289393,-8.24770079705702,2.0,3.882051282051283,257.5957727873183,0.4322591923547573,0.08565934386107969,0.6102208496008391,1241.0256410256409,-1.0,66.38125464244716,3.918458635161512,
2023-08-09 18:07:33.333000,-5.120481927710844,0.1566265060240964,-8.542168674698795,0.3261802575107296,-4.7657878602084605,-8.306560392397301,2.0,3.882051282051283,257.5957727873183,0.23075578346250228,-0.033564477594545124,0.26956471068119586,1238.8278388278388,-1.0,66.38125464244716,3.9180247261701457,
2023-08-09 18:07:33.341000,-5.1084337349397595,0.1566265060240964,-8.55421686746988,0.22562844880441446,-4.7290006131207845,-8.29429797670141,2.0,3.8805860805860815,257.6930337927128,0.10710331565759526,-0.15383718897500093,0.1017423227084668,1235.8974358974358,-1.0,66.38125464244716,3.9175920140918516,
2023-08-09 18:07:33.349000,-5.0843373493975905,0.14457831325301207,-8.590361445783133,0.20846106683016552,-4.805027590435316,-8.316370324954015,2.0,3.8805860805860815,257.6930337927128,-0.15197249577530408,0.09451663655964061,0.02400792494609874,1235.164835164835,-1.0,66.38125464244716,3.917160504273771,
2023-08-09 18:07:33.356000,-5.1084337349397595,0.13253012048192772,-8.566265060240964,0.23789086450030655,-4.780502759043531,-8.321275291232372,2.0,3.8805860805860815,257.6930337927128,-0.027853854670473722,0.021210885146553893,-0.15896509527416816,1235.164835164835,-1.0,66.38125464244716,3.9167302025166335,
2023-08-09 18:07:33.364000,-5.0843373493975905,0.14457831325301207,-8.518072289156628,0.24770079705702022,-4.724095646842428,-8.255058246474555,2.0,3.8805860805860815,257.6930337927128,0.1843715401200391,0.16036361517394165,0.01095507254821989,1238.095238095238,-1.0,66.38125464244716,3.916301115957279,
2023-08-09 18:07:33.372000,-5.096385542168675,0.14457831325301207,-8.518072289156628,0.21827099938687922,-4.716738197424893,-8.245248313917841,2.0,3.8805860805860815,257.6930337927128,0.10477244915797505,-0.07039216828856061,-0.23343627993706673,1241.0256410256409,-1.0,66.38125464244716,3.9158732530029092,
2023-08-09 18:07:33.379000,-5.072289156626506,0.14457831325301207,-8.506024096385543,0.1765787860208461,-4.746167995095034,-8.220723482526058,2.0,3.8805860805860815,257.6930337927128,0.10384010255812663,-0.009906182623390191,-0.27644076685507823,1246.8864468864467,865.570068359375,69.3184782991926,3.9154466241830863,
2023-08-09 18:07:33.387000,-5.096385542168675,0.1566265060240964,-8.46987951807229,0.16922133660331085,-4.763335377069282,-8.223175965665236,2.0,3.8805860805860815,257.6930337927128,-0.14136705320202714,-0.011421245848144537,-0.3668783870403822,1257.8754578754579,-1.0,69.3184782991926,3.915021240121861,
2023-08-09 18:07:33.395000,-5.0843373493975905,0.1566265060240964,-8.493975903614459,0.2550582464745555,-4.760882893930104,-8.264868179031268,2.0,3.8805860805860815,257.6930337927128,0.15185595245032324,-0.4243342462560448,-0.08892255696055006,1274.7252747252746,-1.0,69.3184782991926,3.91459711076981,
2023-08-09 18:07:33.402000,-5.1084337349397595,0.14457831325301207,-8.518072289156628,0.27467811158798283,-4.778050275904353,-8.237890864500306,2.0,3.8805860805860815,257.6930337927128,-0.09323465998484969,-0.1905483363440356,-0.25616222830837365,1298.168498168498,-1.0,69.3184782991926,3.91417424730602,
2023-08-09 18:07:33.410000,-5.072289156626506,0.13253012048192772,-8.506024096385543,0.2599632127529123,-4.755977927651747,-8.237890864500306,2.0,3.8805860805860815,257.6930337927128,-0.10710331565759526,0.19474389604335438,0.003612843074412873,1328.937728937729,-1.0,69.3184782991926,3.913752660698385,
2023-08-09 18:07:33.418000,-5.096385542168675,0.16867469879518074,-8.481927710843374,0.17412630288166767,-4.7290006131207845,-8.242795830778663,2.0,3.8805860805860815,257.6930337927128,0.25826000815803346,0.3883223588368969,-0.18040906707068372,1367.032967032967,-1.0,69.3184782991926,3.9133323622995246,
2023-08-09 18:07:33.425000,-5.144578313253012,0.16867469879518074,-8.493975903614459,0.25260576333537704,-4.795217657878601,-8.235438381361128,2.0,3.8805860805860815,257.6930337927128,-0.003263213099470364,0.12609987762950806,-0.13495717032806942,1411.7216117216117,-1.0,69.3184782991926,3.912913365183171,
2023-08-09 18:07:33.433000,-5.120481927710844,0.18072289156626506,-8.481927710843374,0.2599632127529123,-4.834457388105457,-8.274678111587983,2.0,3.8805860805860815,257.6930337927128,0.028086941320435394,0.32550550667210454,-0.02738768137054951,1460.07326007326,-1.0,69.3184782991926,3.9124956808381595,
2023-08-09 18:07:33.441000,-5.120481927710844,0.18072289156626506,-8.481927710843374,0.2673206621704476,-4.800122624156959,-8.267320662170446,2.0,3.879120879120879,257.79036827195466,0.1968416758930129,0.4302779558300796,-0.04382029019287913,1509.1575091575091,-1.0,69.3184782991926,3.9120793185932303,
2023-08-09 18:07:33.448000,-5.132530120481928,0.1566265060240964,-8.530120481927712,0.2599632127529123,-4.768240343347639,-8.274678111587983,2.0,3.879120879120879,257.79036827195466,-0.12493444437969795,0.06200104888992476,-0.08950527358545554,1559.7069597069597,-1.0,69.3184782991926,3.911664290876369,
2023-08-09 18:07:33.456000,-5.120481927710844,0.16867469879518074,-8.518072289156628,0.21336603310852237,-4.78295524218271,-8.245248313917841,2.0,3.879120879120879,257.79036827195466,0.10617096905774683,0.3679272769652123,0.03414719421945104,1610.989010989011,-1.0,69.3184782991926,3.911250614094547,
2023-08-09 18:07:33.463000,-5.144578313253012,0.16867469879518074,-8.542168674698795,0.19619865113427343,-4.800122624156959,-8.23298589822195,2.0,3.879120879120879,257.79036827195466,0.04405337684284123,0.028669657945341313,-0.15232212575024745,1664.4688644688645,-1.0,69.3184782991926,3.910838305550607,
2023-08-09 18:07:33.471000,-5.120481927710844,0.1566265060240964,-8.518072289156628,0.2550582464745555,-4.802575107296137,-8.284488044144696,2.0,3.879120879120879,257.79036827195466,0.13216013052852368,0.023891381621118337,0.107802575607482,1716.4835164835163,-1.0,69.3184782991926,3.910427382507272,
2023-08-09 18:07:33.479000,-5.120481927710844,0.1566265060240964,-8.518072289156628,0.2673206621704476,-4.851624770079705,-8.267320662170446,2.0,3.879120879120879,257.79036827195466,0.12994580735388434,0.12749839752928155,0.1829730202202669,1765.5677655677655,-1.0,69.3184782991926,3.9100178617762698,
2023-08-09 18:07:33.486000,-5.132530120481928,0.16867469879518074,-8.518072289156628,0.18638871857755976,-4.780502759043531,-8.196198651134273,2.0,3.879120879120879,257.79036827195466,-0.20942835499096754,0.033564477594545124,0.028436571295379204,1810.989010989011,-1.0,69.3184782991926,3.9096097598305204,
2023-08-09 18:07:33.494000,-5.096385542168675,0.1566265060240964,-8.493975903614459,0.2550582464745555,-4.792765174739423,-8.291845493562231,2.0,3.876190476190477,257.98525798525793,0.0363615173940904,0.1551191655497936,0.1504574325505506,1849.084249084249,-1.0,69.3184782991926,3.9092030933357615,
2023-08-09 18:07:33.502000,-5.0843373493975905,0.18072289156626506,-8.530120481927712,0.25260576333537704,-4.75107296137339,-8.245248313917841,2.0,3.876190476190477,257.98525798525793,-0.2387972728861956,9.323465998484274E-4,0.1494085426257209,1879.120879120879,-1.0,69.3184782991926,3.9087978782034516,
2023-08-09 18:07:33.509000,-5.0602409638554215,0.1927710843373494,-8.530120481927712,0.20110361741263028,-4.7657878602084605,-8.306560392397301,2.0,3.877655677655678,257.88777630833175,-0.03682769069401549,-0.10500553580793673,0.02470718489598506,1903.296703296703,-1.0,69.3184782991926,3.9083941290263655,
2023-08-09 18:07:33.517000,-5.0361445783132535,0.16867469879518074,-8.542168674698795,0.2869405272838749,-4.721643163703249,-8.284488044144696,2.0,3.877655677655678,257.88777630833175,-0.01911310529689363,0.2206165141891504,0.34648330516869635,1919.4139194139193,-1.0,69.3184782991926,3.907991861496693,
2023-08-09 18:07:33.525000,-5.072289156626506,0.16867469879518074,-8.530120481927712,0.23543838136112813,-4.760882893930104,-8.245248313917841,2.0,3.877655677655678,257.88777630833175,-0.6747858516403467,-0.32538896334712375,0.10034380280869416,1922.344322344322,-1.0,69.3184782991926,3.90759109377356,
2023-08-09 18:07:33.532000,-5.0843373493975905,0.16867469879518074,-8.530120481927712,0.24279583077866337,-4.6995708154506435,-8.267320662170446,2.0,3.877655677655678,257.88777630833175,0.1712021443971803,-0.3026630149758172,-0.3129188275741508,1914.2857142857142,-1.0,69.3184782991926,3.907191844940892,
2023-08-09 18:07:33.540000,-5.1084337349397595,0.14457831325301207,-8.518072289156628,0.18638871857755976,-4.780502759043531,-8.242795830778663,2.0,3.877655677655678,257.88777630833175,-0.1196899947555499,-0.017714585397121858,-0.09440009323465978,1893.040293040293,-1.0,69.3184782991926,3.9067941340659513,
2023-08-09 18:07:33.548000,-5.1084337349397595,0.1566265060240964,-8.506024096385543,0.24279583077866337,-4.795217657878601,-8.26241569589209,2.0,3.876190476190477,257.98525798525793,-0.07400501136297348,-0.4246838762309891,-0.4123302837829965,1865.201465201465,-1.0,69.3184782991926,3.9063979806996922,
2023-08-09 18:07:33.555000,-5.0602409638554215,0.18072289156626506,-8.506024096385543,0.23053341508277128,-4.75107296137339,-8.203556100551808,2.0,3.876190476190477,257.98525798525793,0.03274867431967753,-0.11223122195676248,-0.10185886603344807,1832.9670329670328,-1.0,69.3184782991926,3.906003404358253,
2023-08-09 18:07:33.563000,-5.0602409638554215,0.18072289156626506,-8.518072289156628,0.23543838136112813,-4.731453096259963,-8.210913549969343,2.0,3.876190476190477,257.98525798525793,0.3229415535225227,-0.2150224345900581,-0.19136413961890317,1799.2673992673992,-1.0,69.3184782991926,3.9056104230872393,
2023-08-09 18:07:33.571000,-5.048192771084338,0.1927710843373494,-8.530120481927712,0.21827099938687922,-4.697118332311465,-8.274678111587983,2.0,3.876190476190477,257.98525798525793,0.032049414369792514,-0.5202494027154589,-0.47899306567216343,1763.3699633699632,-1.0,69.3184782991926,3.9052190554658086,
2023-08-09 18:07:33.578000,-5.0602409638554215,0.16867469879518074,-8.518072289156628,0.22808093194359289,-4.778050275904353,-8.272225628448805,2.0,3.876190476190477,257.98525798525793,-0.09008799021036015,-0.28914398927801416,-0.38202901928792043,1728.2051282051282,-1.0,69.3184782991926,3.9048293227917896,
2023-08-09 18:07:33.586000,-5.1084337349397595,0.1566265060240964,-8.518072289156628,0.24034334763948498,-4.836909871244635,-8.32618025751073,2.0,3.8747252747252747,258.0828133862734,0.10756948895752033,-0.1495250859507013,-0.25697803158324123,1691.5750915750914,-1.0,69.3184782991926,3.9044412456112196,
2023-08-09 18:07:33.594000,-5.144578313253012,0.14457831325301207,-8.542168674698795,0.23543838136112813,-4.809932556713672,-8.289393010423053,2.0,3.8747252747252747,258.0828133862734,-4.661732999250815E-4,-0.08600897383602393,-0.16176213507371343,1659.3406593406592,-1.0,69.3184782991926,3.9040548429843684,
2023-08-09 18:07:33.601000,-5.156626506024097,0.16867469879518074,-8.506024096385543,0.24770079705702022,-4.785407725321888,-8.301655426118945,2.0,3.8747252747252747,258.0828133862734,-0.0012819765747909368,-0.08088106753685671,-0.15908163859914942,1628.5714285714284,-1.0,69.3184782991926,3.90367013199173,
2023-08-09 18:07:33.609000,-5.120481927710844,0.16867469879518074,-8.506024096385543,0.2452483139178418,-4.760882893930104,-8.299202942979766,2.0,3.8747252747252747,258.0828133862734,0.07691859448750134,-0.307557834625021,0.0090903793485226,1600.7326007326005,-1.0,69.3184782991926,3.9032871307817474,
2023-08-09 18:07:33.617000,-5.144578313253012,0.1566265060240964,-8.493975903614459,0.22808093194359289,-4.773145309625996,-8.257510729613733,2.0,3.8747252747252747,258.0828133862734,0.060136355690227905,-0.25849309480799515,-0.5101101334421071,1575.091575091575,-1.0,69.3184782991926,3.9029058605735476,
2023-08-09 18:07:33.624000,-5.120481927710844,0.16867469879518074,-8.506024096385543,0.22562844880441446,-4.792765174739423,-8.29429797670141,2.0,3.8747252747252747,258.0828133862734,0.19812365246780558,-0.3326146494959495,0.2702639706310822,1553.113553113553,-1.0,69.3184782991926,3.9025263427076515,
2023-08-09 18:07:33.632000,-5.144578313253012,0.13253012048192772,-8.481927710843374,0.21827099938687922,-4.790312691600245,-8.198651134273451,2.0,3.8747252747252747,258.0828133862734,0.18134141367053214,-0.4044053376842836,-0.100460346133675,1530.4029304029302,-1.0,69.3184782991926,3.902148597701525,
2023-08-09 18:07:33.640000,-5.120481927710844,0.12048192771084337,-8.530120481927712,0.21336603310852237,-4.819742489270386,-8.250153280196198,2.0,3.8747252747252747,258.0828133862734,-0.004312103024299628,-0.4750305926228076,-0.07050871161354232,1511.3553113553112,-1.0,69.3184782991926,3.9017726449315497,
2023-08-09 18:07:33.647000,-5.132530120481928,0.14457831325301207,-8.481927710843374,0.19619865113427343,-4.738810545677498,-8.277130594727161,2.0,3.871794871794871,258.2781456953643,0.10325738593322072,-0.058388205815511886,-0.0713245148884099,1492.3076923076922,-1.0,69.3184782991926,3.901398502731095,
2023-08-09 18:07:33.655000,-5.120481927710844,0.16867469879518074,-8.46987951807229,0.2035561005518087,-4.792765174739423,-8.282035561005518,2.0,3.871794871794871,258.2781456953643,0.22364664063865736,0.2482372822096607,0.26222248120738884,1473.9926739926739,-1.0,69.3184782991926,3.901026186650879,
2023-08-09 18:07:33.663000,-5.120481927710844,0.14457831325301207,-8.493975903614459,0.27713059472716123,-4.84426732066217,-8.259963212752911,2.0,3.8732600732600724,258.1804425950445,0.14521298292640342,0.1851873433949067,0.3517277547928444,1459.3406593406592,-1.0,69.3184782991926,3.9006557131988044,
2023-08-09 18:07:33.670000,-5.1084337349397595,0.16867469879518074,-8.518072289156628,0.24034334763948498,-4.75107296137339,-8.257510729613733,2.0,3.8732600732600724,258.1804425950445,0.24695530563486978,0.3808635860381095,0.4259658528057804,1446.153846153846,-1.0,69.3184782991926,3.9002871018279754,
2023-08-09 18:07:33.678000,-5.1084337349397595,0.16867469879518074,-8.506024096385543,0.24279583077866337,-4.812385039852851,-8.30901287553648,2.0,3.8732600732600724,258.1804425950445,0.13775421012761427,0.1764465940213266,0.34566750189382917,1435.8974358974358,-1.0,69.3184782991926,3.8999203729928875,
2023-08-09 18:07:33.686000,-5.096385542168675,0.1566265060240964,-8.518072289156628,0.1618638871857756,-4.775597792765175,-8.304107909258123,2.0,3.871794871794871,258.2781456953643,0.25802692150807005,0.4154769535574856,0.6160480158498922,1424.9084249084249,-1.0,69.3184782991926,3.8995555471261474,
2023-08-09 18:07:33.693000,-5.120481927710844,0.1566265060240964,-8.518072289156628,0.23789086450030655,-4.719190680564071,-8.26241569589209,2.0,3.871794871794871,258.2781456953643,0.01048889924829611,0.34893071499329953,0.640638657420896,1416.117216117216,-1.0,69.3184782991926,3.8991926428034263,
2023-08-09 18:07:33.701000,-5.120481927710844,0.1566265060240964,-8.506024096385543,0.24770079705702022,-4.755977927651747,-8.255058246474555,2.0,3.871794871794871,258.2781456953643,0.20628168521647974,0.37363789988928375,0.19451080939339183,1410.989010989011,-1.0,69.3184782991926,3.898831677257509,
2023-08-09 18:07:33.709000,-5.120481927710844,0.16867469879518074,-8.506024096385543,0.21336603310852237,-4.785407725321888,-8.20110361741263,2.0,3.8732600732600724,258.1804425950445,0.3100052444496238,0.5216479226152324,0.265951867606783,1409.5238095238094,-1.0,69.3184782991926,3.8984726668853633,
2023-08-09 18:07:33.716000,-5.096385542168675,0.16867469879518074,-8.55421686746988,0.27713059472716123,-4.763335377069282,-8.267320662170446,2.0,3.871794871794871,258.2781456953643,0.39776236816036376,0.36291591399102596,0.36967542683992793,1407.3260073260071,-1.0,69.3184782991926,3.8981156291943657,
2023-08-09 18:07:33.724000,-5.096385542168675,0.1566265060240964,-8.530120481927712,0.269773145309626,-4.773145309625996,-8.245248313917841,2.0,3.871794871794871,258.2781456953643,-0.019812365246780383,0.16141250509877092,-0.01619952217236751,1405.128205128205,-1.0,69.3184782991926,3.897760582679767,
2023-08-09 18:07:33.732000,-5.0843373493975905,0.16867469879518074,-8.530120481927712,0.21091354996934394,-4.7069282648681785,-8.301655426118945,2.0,3.871794871794871,258.2781456953643,0.3162985839986011,0.039624730493560766,0.1687547345725775,1402.197802197802,-1.0,69.3184782991926,3.897407545299582,
2023-08-09 18:07:33.739000,-5.072289156626506,0.16867469879518074,-8.530120481927712,0.16676885346413242,-4.775597792765175,-8.277130594727161,2.0,3.871794871794871,258.2781456953643,0.3436862653691515,0.14777693607598702,0.36419789056581775,1396.3369963369962,-1.0,69.3184782991926,3.8970565353412367,
2023-08-09 18:07:33.747000,-5.0843373493975905,0.1566265060240964,-8.506024096385543,0.23543838136112813,-4.733905579399141,-8.252605763335376,2.0,3.871794871794871,258.2781456953643,0.14404754967659159,-0.003962473049355383,-0.1281976574791679,1391.9413919413919,-1.0,69.3184782991926,3.896707570882368,
2023-08-09 18:07:33.755000,-5.1084337349397595,0.16867469879518074,-8.506024096385543,0.27713059472716123,-4.787860208461066,-8.272225628448805,2.0,3.871794871794871,258.2781456953643,0.1889167297943004,-0.3229415535225227,0.07202377483829622,1389.0109890109889,-1.0,69.3184782991926,3.8963606674896973,
2023-08-09 18:07:33.762000,-5.096385542168675,0.1566265060240964,-8.542168674698795,0.25015328019619865,-4.780502759043531,-8.304107909258123,2.0,3.871794871794871,258.2781456953643,0.2036011887419153,-0.4271312860555918,-0.06409882873958372,1384.6153846153845,-1.0,69.3184782991926,3.8960158407980807,
2023-08-09 18:07:33.770000,-5.0843373493975905,0.1566265060240964,-8.493975903614459,0.22562844880441446,-4.800122624156959,-8.304107909258123,2.0,3.871794871794871,258.2781456953643,0.18728512324456695,-0.5606899364838873,-0.18308956354524772,1378.7545787545787,-1.0,69.3184782991926,3.8956731081464664,
2023-08-09 18:07:33.778000,-5.096385542168675,0.1566265060240964,-8.542168674698795,0.23789086450030655,-4.746167995095034,-8.274678111587983,2.0,3.87032967032967,258.3759227711528,0.09474972320960402,-0.3267874832468972,-0.22481207388846788,1372.8937728937728,-1.0,69.3184782991926,3.8953324865964163,
2023-08-09 18:07:33.785000,-5.0843373493975905,0.14457831325301207,-8.518072289156628,0.21336603310852237,-4.773145309625996,-8.237890864500306,2.0,3.87032967032967,258.3759227711528,0.12411864110483035,-0.565002039508187,-0.6634811491171843,1368.4981684981683,-1.0,69.3184782991926,3.894993992852128,
2023-08-09 18:07:33.793000,-5.1084337349397595,0.13253012048192772,-8.493975903614459,0.2575107296137339,-4.814837522992029,-8.223175965665236,2.0,3.871794871794871,258.2781456953643,0.1984732824427481,-0.4823728220966142,-0.2744595303304001,1364.102564102564,-1.0,69.3184782991926,3.8946576421952757,
2023-08-09 18:07:33.801000,-5.096385542168675,0.14457831325301207,-8.493975903614459,0.23053341508277128,-4.785407725321888,-8.213366033108523,2.0,3.868864468864468,258.47377390645715,0.028902744595302985,-0.3851756890624091,-0.241827399335703,1357.5091575091574,-1.0,69.3184782991926,3.8943234485739353,
2023-08-09 18:07:33.808000,-5.1084337349397595,0.14457831325301207,-8.493975903614459,0.2795830778663397,-4.854077253218884,-8.274678111587983,2.0,3.868864468864468,258.47377390645715,0.19730784919293798,-0.015500262222480757,-0.39170211526134857,1352.3809523809523,-1.0,69.3184782991926,3.8939914247218956,
2023-08-09 18:07:33.816000,-5.132530120481928,0.13253012048192772,-8.530120481927712,0.20600858369098712,-4.802575107296137,-8.213366033108523,2.0,3.87032967032967,258.3759227711528,0.08880601363556921,-0.2607074179826345,-0.35708874774197286,1346.5201465201465,-1.0,69.3184782991926,3.893661582453916,
2023-08-09 18:07:33.824000,-5.120481927710844,0.14457831325301207,-8.493975903614459,0.2575107296137339,-4.790312691600245,-8.191293684855916,2.0,3.87032967032967,258.3759227711528,0.08507662723617551,0.09148651011013366,-0.15616805547462287,1340.6593406593406,-1.0,69.3184782991926,3.8933339335216113,
2023-08-09 18:07:33.831000,-5.144578313253012,0.13253012048192772,-8.481927710843374,0.2158185162477008,-4.787860208461066,-8.291845493562231,2.0,3.87032967032967,258.3759227711528,0.11339665520657258,-0.04696695996736735,-0.3674611036652877,1336.9963369963368,-1.0,69.3184782991926,3.893008488745295,
2023-08-09 18:07:33.839000,-5.168674698795181,0.1566265060240964,-8.493975903614459,0.2673206621704476,-4.871244635193133,-8.242795830778663,2.0,3.87032967032967,258.3759227711528,-0.16351028494842945,-0.10733640230755867,-0.5486859740108386,1331.8681318681317,-1.0,69.3184782991926,3.8926852580953604,
2023-08-09 18:07:33.846000,-5.156626506024097,0.14457831325301207,-8.46987951807229,0.2918454935622317,-4.787860208461066,-8.277130594727161,2.0,3.87032967032967,258.3759227711528,-0.04113979371831512,-0.04859856651710253,0.11258085193170542,1326.007326007326,-1.0,69.3184782991926,3.892364251126913,
2023-08-09 18:07:33.854000,-5.156626506024097,0.1566265060240964,-8.506024096385543,0.2329858982219497,-4.8295524218271,-8.284488044144696,2.0,3.87032967032967,258.3759227711528,-0.055008449391060685,0.07109142823844736,-0.408251267408659,1321.6117216117216,-1.0,69.3184782991926,3.8920454765011363,
2023-08-09 18:07:33.862000,-5.168674698795181,0.1566265060240964,-8.481927710843374,0.269773145309626,-4.780502759043531,-8.257510729613733,2.0,3.868864468864468,258.47377390645715,0.06782821513897873,0.09894528290892109,0.1288969174290542,1316.4835164835165,-1.0,69.3184782991926,3.891728942457494,
2023-08-09 18:07:33.869000,-5.132530120481928,0.1566265060240964,-8.493975903614459,0.22317596566523604,-4.785407725321888,-8.230533415082771,2.0,3.87032967032967,258.3759227711528,-0.1931122894936192,0.11293048190664923,0.23320319328710462,1311.3553113553112,-1.0,69.3184782991926,3.8914146562688896,
2023-08-09 18:07:33.877000,-5.120481927710844,0.13253012048192772,-8.518072289156628,0.2158185162477008,-4.770692826486818,-8.24770079705702,2.0,3.868864468864468,258.47377390645715,-0.19357846279354426,0.11083270205698896,0.22982343686265383,1306.227106227106,-1.0,69.3184782991926,3.8911026241900037,
2023-08-09 18:07:33.885000,-5.120481927710844,0.14457831325301207,-8.481927710843374,0.25260576333537704,-4.775597792765175,-8.259963212752911,2.0,3.87032967032967,258.3759227711528,0.06782821513897873,0.27632422353009783,0.07353883806305013,1301.098901098901,-1.0,69.3184782991926,3.890792851968451,
2023-08-09 18:07:33.892000,-5.120481927710844,0.13253012048192772,-8.518072289156628,0.23789086450030655,-4.78295524218271,-8.274678111587983,2.0,3.87032967032967,258.3759227711528,0.11164850533185655,0.07248994813822088,0.1626944816735623,1298.9010989010987,-1.0,69.3184782991926,3.8904853447623298,
2023-08-09 18:07:33.900000,-5.096385542168675,0.1566265060240964,-8.530120481927712,0.23053341508277128,-4.795217657878601,-8.277130594727161,2.0,3.868864468864468,258.47377390645715,0.21455626129013475,0.14707767612610026,0.18914981644426293,1298.168498168498,-1.0,69.3184782991926,3.8901801072002544,
2023-08-09 18:07:33.908000,-5.120481927710844,0.12048192771084337,-8.518072289156628,0.2918454935622317,-4.755977927651747,-8.299202942979766,2.0,3.868864468864468,258.47377390645715,0.2887943593030716,0.17504807412155482,0.11001689878212224,1300.3663003663003,-1.0,69.3184782991926,3.8898771429177623,
2023-08-09 18:07:33.915000,-5.1084337349397595,0.14457831325301207,-8.493975903614459,0.25015328019619865,-4.809932556713672,-8.230533415082771,2.0,3.87032967032967,258.3759227711528,-0.0051279062991672186,0.38564186236233244,-0.013519025697803066,1301.098901098901,-1.0,69.3184782991926,3.889576454448794,
2023-08-09 18:07:33.923000,-5.0843373493975905,0.14457831325301207,-8.506024096385543,0.21091354996934394,-4.768240343347639,-8.259963212752911,2.0,3.868864468864468,258.47377390645715,0.10127614940854301,0.30452770817551406,0.18530388671988796,1303.2967032967033,-1.0,69.3184782991926,3.8892780437154175,
2023-08-09 18:07:33.931000,-5.0843373493975905,0.14457831325301207,-8.518072289156628,0.18884120171673818,-4.733905579399141,-8.213366033108523,2.0,3.868864468864468,258.47377390645715,-0.2209661441640929,-0.17388264087174474,-0.04545189674261387,1302.5641025641025,-1.0,69.3184782991926,3.888981911640442,
2023-08-09 18:07:33.938000,-5.1084337349397595,0.1566265060240964,-8.518072289156628,0.21091354996934394,-4.738810545677498,-8.250153280196198,2.0,3.868864468864468,258.47377390645715,-0.03904201386865485,0.37480333313909386,0.29298991900238913,1299.6336996336995,-1.0,69.3184782991926,3.888688058115488,
2023-08-09 18:07:33.946000,-5.1084337349397595,0.14457831325301207,-8.518072289156628,0.22808093194359289,-4.84426732066217,-8.304107909258123,2.0,3.87032967032967,258.3759227711528,0.15814929199930056,0.12773148417924324,-0.07598624788765204,1295.970695970696,-1.0,69.3184782991926,3.888396482428806,
2023-08-09 18:07:33.954000,-5.072289156626506,0.1566265060240964,-8.518072289156628,0.2035561005518087,-4.7290006131207845,-8.333537706928265,2.0,3.8673992673992674,258.5716991854518,0.13973544665229368,0.3871569255870868,0.2484703688596237,1287.179487179487,-1.0,69.3184782991926,3.8881071833089424,
2023-08-09 18:07:33.961000,-5.072289156626506,0.1566265060240964,-8.518072289156628,0.2452483139178418,-4.780502759043531,-8.24770079705702,2.0,3.8673992673992674,258.5716991854518,-0.014101742322708983,0.18542043004486836,0.17108560107219858,1278.3882783882782,-1.0,69.3184782991926,3.887820158972786,
2023-08-09 18:07:33.969000,-5.096385542168675,0.14457831325301207,-8.542168674698795,0.2795830778663397,-4.746167995095034,-8.282035561005518,2.0,3.868864468864468,258.47377390645715,0.21280811141541875,0.1086183788823496,-0.1497581726006643,1271.7948717948716,-1.0,69.3184782991926,3.8875354064418746,
2023-08-09 18:07:33.977000,-5.096385542168675,0.13253012048192772,-8.506024096385543,0.27467811158798283,-4.792765174739423,-8.24770079705702,2.0,3.868864468864468,258.47377390645715,0.02622224812073854,0.017248412097196776,-0.22597750713827885,1266.6666666666665,-1.0,69.3184782991926,3.887252922018847,
2023-08-09 18:07:33.984000,-5.120481927710844,0.14457831325301207,-8.518072289156628,0.23789086450030655,-4.78295524218271,-8.245248313917841,2.0,3.868864468864468,258.47377390645715,-0.37049123011479596,-0.19474389604335438,-0.13285939047841044,1263.7362637362637,-1.0,69.3184782991926,3.8869727014135607,
2023-08-09 18:07:33.992000,-5.096385542168675,0.1566265060240964,-8.518072289156628,0.18638871857755976,-4.775597792765175,-8.259963212752911,2.0,3.868864468864468,258.47377390645715,-0.16863819124759666,-0.23868072956121478,-0.02389138162111747,1261.5384615384614,-1.0,69.3184782991926,3.8866947393454363,
2023-08-09 18:07:34,-5.1084337349397595,0.13253012048192772,-8.506024096385543,0.20110361741263028,-4.719190680564071,-8.299202942979766,2.0,3.868864468864468,258.47377390645715,-0.1513897791503999,0.10127614940854301,0.053027212866383,1261.5384615384614,-1.0,69.3184782991926,3.886419030063119,
2023-08-09 18:07:34.007000,-5.132530120481928,0.14457831325301207,-8.493975903614459,0.2673206621704476,-4.839362354383813,-8.193746167995094,2.0,3.87032967032967,258.3759227711528,0.015150632247538248,-0.17306683759687713,-0.18961598974418759,1261.5384615384614,-1.0,69.3184782991926,3.886145566882839,
2023-08-09 18:07:34.015000,-5.132530120481928,0.12048192771084337,-8.46987951807229,0.21336603310852237,-4.778050275904353,-8.24770079705702,2.0,3.868864468864468,258.47377390645715,0.015616805547461593,0.07272303478818254,0.02552298817085265,1263.003663003663,-1.0,69.3184782991926,3.885874342783182,
2023-08-09 18:07:34.023000,-5.132530120481928,0.1566265060240964,-8.506024096385543,0.19619865113427343,-4.792765174739423,-8.304107909258123,2.0,3.868864468864468,258.47377390645715,-0.029951634520132248,0.02622224812073854,-0.1875182098945282,1263.7362637362637,-1.0,69.3184782991926,3.8856053504767316,
2023-08-09 18:07:34.030000,-5.120481927710844,0.1566265060240964,-8.481927710843374,0.23053341508277128,-4.792765174739423,-8.269773145309626,2.0,3.87032967032967,258.3759227711528,0.21234193811549365,0.20802983509119577,-0.18378882349513448,1264.4688644688645,-1.0,69.3184782991926,3.885338581923857,
2023-08-09 18:07:34.038000,-5.120481927710844,0.14457831325301207,-8.518072289156628,0.18638871857755976,-4.7363580625383195,-8.291845493562231,2.0,3.868864468864468,258.47377390645715,0.17772857059611927,0.25021851873434015,0.10745294563253907,1265.9340659340658,-1.0,69.3184782991926,3.8850740292912302,
2023-08-09 18:07:34.046000,-5.120481927710844,0.1566265060240964,-8.493975903614459,0.2158185162477008,-4.746167995095034,-8.237890864500306,2.0,3.868864468864468,258.47377390645715,0.023541751646174093,0.09265194335994377,0.3493968882932229,1271.062271062271,-1.0,69.3184782991926,3.8848116841197533,
2023-08-09 18:07:34.053000,-5.1084337349397595,0.14457831325301207,-8.493975903614459,0.14224402207234824,-4.795217657878601,-8.223175965665236,2.0,3.87032967032967,258.3759227711528,0.023192121671231584,-0.04848202319212169,0.11619369500611873,1274.7252747252746,-1.0,69.3184782991926,3.88455153733998,
2023-08-09 18:07:34.061000,-5.1084337349397595,0.14457831325301207,-8.46987951807229,0.18884120171673818,-4.807480073574494,-8.240343347639485,2.0,3.868864468864468,258.47377390645715,0.19008216304411224,0.43995105180350813,-0.16129596177378921,1277.6556776556777,-1.0,69.3184782991926,3.8842935802389906,
2023-08-09 18:07:34.069000,-5.120481927710844,0.1566265060240964,-8.506024096385543,0.19619865113427343,-4.753525444512569,-8.198651134273451,2.0,3.868864468864468,258.47377390645715,-0.08600897383602393,0.21898490763941522,-0.08402773731134537,1279.120879120879,-1.0,69.3184782991926,3.884037803636056,
2023-08-09 18:07:34.076000,-5.096385542168675,0.14457831325301207,-8.530120481927712,0.23543838136112813,-4.814837522992029,-8.257510729613733,2.0,3.87032967032967,258.3759227711528,-0.04183905366820187,0.04953091311695096,-0.12982926402890263,1279.8534798534797,-1.0,69.3184782991926,3.883784197447202,
2023-08-09 18:07:34.084000,-5.0843373493975905,0.14457831325301207,-8.518072289156628,0.2158185162477008,-4.755977927651747,-8.335990190067443,2.0,3.868864468864468,258.47377390645715,-0.11980653808053073,0.6131344327253662,0.2521997552590174,1278.3882783882782,-1.0,69.3184782991926,3.883532752183479,
2023-08-09 18:07:34.092000,-5.120481927710844,0.14457831325301207,-8.506024096385543,0.22317596566523604,-4.800122624156959,-8.27958307786634,2.0,3.868864468864468,258.47377390645715,-0.11922382145562654,0.22481207388846747,-0.10127614940854258,1274.7252747252746,-1.0,69.3184782991926,3.883283458553184,
2023-08-09 18:07:34.099000,-5.1084337349397595,0.14457831325301207,-8.542168674698795,0.20846106683016552,-4.760882893930104,-8.316370324954015,2.0,3.87032967032967,258.3759227711528,0.17096905774721688,0.39065322533651886,0.06608006526426184,1272.5274725274724,-1.0,69.3184782991926,3.8830363065389784,
2023-08-09 18:07:34.107000,-5.096385542168675,0.14457831325301207,-8.518072289156628,0.22317596566523604,-4.748620478234212,-8.282035561005518,2.0,3.868864468864468,258.47377390645715,0.2907755958277493,0.4784103490472588,0.23436862653691515,1270.3296703296703,-1.0,69.3184782991926,3.882791286442568,
2023-08-09 18:07:34.115000,-5.096385542168675,0.14457831325301207,-8.493975903614459,0.1912936848559166,-4.800122624156959,-8.30901287553648,2.0,3.868864468864468,258.47377390645715,0.08892255696055006,0.0640988287395833,-0.015267175572519083,1268.131868131868,-1.0,69.3184782991926,3.8825483894732686,
2023-08-09 18:07:34.122000,-5.1084337349397595,0.14457831325301207,-8.493975903614459,0.27713059472716123,-4.7290006131207845,-8.250153280196198,2.0,3.868864468864468,258.47377390645715,0.1343744537031648,0.29403880892721795,0.09335120330983052,1264.4688644688645,-1.0,69.3184782991926,3.88230760718129,
2023-08-09 18:07:34.130000,-5.0843373493975905,0.13253012048192772,-8.506024096385543,0.2550582464745555,-4.714285714285714,-8.277130594727161,2.0,3.87032967032967,258.3759227711528,-0.2172367577646992,-0.028786201270322147,0.4881999883456673,1262.2710622710622,-1.0,69.3184782991926,3.8820689310306076,
2023-08-09 18:07:34.138000,-5.0843373493975905,0.14457831325301207,-8.542168674698795,0.2035561005518087,-4.758430410790925,-8.289393010423053,2.0,3.87032967032967,258.3759227711528,0.027620768020512047,-0.0417225103432193,-0.050113629741856444,1262.2710622710622,-1.0,69.3184782991926,3.881832352989393,
2023-08-09 18:07:34.145000,-5.0602409638554215,0.12048192771084337,-8.530120481927712,0.23053341508277128,-4.7363580625383195,-8.299202942979766,2.0,3.87032967032967,258.3759227711528,0.14847619602587203,0.03531262746926114,-0.03577880076918579,1265.2014652014652,-1.0,69.3184782991926,3.881597865697162,
2023-08-09 18:07:34.153000,-5.0843373493975905,0.12048192771084337,-8.542168674698795,0.18148375229920294,-4.758430410790925,-8.299202942979766,2.0,3.87032967032967,258.3759227711528,0.1466115028261752,0.0363615173940904,-0.034729910844356525,1270.3296703296703,-1.0,69.3184782991926,3.88136546210453,
2023-08-09 18:07:34.161000,-5.072289156626506,0.14457831325301207,-8.542168674698795,0.17903126916002451,-4.763335377069282,-8.257510729613733,2.0,3.87032967032967,258.3759227711528,-0.03682769069401549,0.06677932521414773,-0.20523279529164962,1275.4578754578754,-1.0,69.3184782991926,3.881135136026231,
2023-08-09 18:07:34.168000,-5.0843373493975905,0.14457831325301207,-8.530120481927712,0.14224402207234824,-4.6922133660331085,-8.291845493562231,2.0,3.87032967032967,258.3759227711528,-0.053143756191363835,0.15861546529922566,-0.33984033564477606,1279.8534798534797,-1.0,69.3184782991926,3.880906882166395,
2023-08-09 18:07:34.176000,-5.072289156626506,0.14457831325301207,-8.518072289156628,0.26486817903126914,-4.770692826486818,-8.255058246474555,2.0,3.87032967032967,258.3759227711528,-0.18786783986947114,0.2039508187168578,-0.2152555212400211,1282.051282051282,-1.0,69.3184782991926,3.8806806957198563,
2023-08-09 18:07:34.184000,-5.0843373493975905,0.16867469879518074,-8.481927710843374,0.2550582464745555,-4.743715511955855,-8.277130594727161,2.0,3.87032967032967,258.3759227711528,-0.0941670065846981,0.20127032224229335,0.06176796223996266,1280.5860805860805,-1.0,69.3184782991926,3.8804565729203966,
2023-08-09 18:07:34.191000,-5.1084337349397595,0.14457831325301207,-8.493975903614459,0.27467811158798283,-4.758430410790925,-8.24770079705702,2.0,3.87032967032967,258.3759227711528,-0.12341938115494361,0.014917545597576574,0.24625604568498347,1274.7252747252746,-1.0,69.3184782991926,3.8802345110600074,
2023-08-09 18:07:34.199000,-5.0843373493975905,0.1566265060240964,-8.493975903614459,0.24770079705702022,-4.787860208461066,-8.304107909258123,2.0,3.87032967032967,258.3759227711528,-0.5967018239030352,0.1806421537206454,-0.04428646349280334,1265.9340659340658,-1.0,69.3184782991926,3.880014508083046,
2023-08-09 18:07:34.207000,-5.120481927710844,0.1566265060240964,-8.55421686746988,0.22562844880441446,-4.768240343347639,-8.269773145309626,2.0,3.87032967032967,258.3759227711528,0.10791911893246285,0.0102558125983327,-0.12050579803041792,1257.8754578754579,-1.0,69.3184782991926,3.879796563126096,
2023-08-09 18:07:34.214000,-5.120481927710844,0.14457831325301207,-8.518072289156628,0.22317596566523604,-4.805027590435316,-8.267320662170446,2.0,3.87032967032967,258.3759227711528,-0.26047433133267284,-0.480041955596994,-0.05815511916554978,1252.014652014652,-1.0,69.3184782991926,3.8795806765277145,
2023-08-09 18:07:34.222000,-5.120481927710844,0.13253012048192772,-8.506024096385543,0.16922133660331085,-4.863887185775598,-8.259963212752911,2.0,3.87032967032967,258.3759227711528,0.09311811665986884,-0.21665404113979328,-0.22422935726356286,1246.153846153846,-1.0,69.3184782991926,3.879366849411918,
2023-08-09 18:07:34.229000,-5.144578313253012,0.14457831325301207,-8.530120481927712,0.2795830778663397,-4.78295524218271,-8.289393010423053,2.0,3.87032967032967,258.3759227711528,-0.014451372297651493,-0.4571994639007049,-0.03950818716857993,1243.2234432234432,-1.0,69.3184782991926,3.879155083758389,
2023-08-09 18:07:34.237000,-5.132530120481928,0.1566265060240964,-8.518072289156628,0.2207234825260576,-4.753525444512569,-8.24770079705702,2.0,3.87032967032967,258.3759227711528,0.12237049123011434,-0.42305226968125387,0.05291066954140216,1243.2234432234432,-1.0,69.3184782991926,3.8789453829245035,
2023-08-09 18:07:34.245000,-5.1084337349397595,0.1566265060240964,-8.542168674698795,0.2599632127529123,-4.719190680564071,-8.245248313917841,2.0,3.871794871794871,258.2781456953643,-0.030301264495076495,-0.3882058155119161,0.005943709574033941,1244.6886446886447,-1.0,69.3184782991926,3.878737751636049,
2023-08-09 18:07:34.252000,-5.096385542168675,0.14457831325301207,-8.530120481927712,0.18884120171673818,-4.785407725321888,-8.230533415082771,2.0,3.871794871794871,258.2781456953643,-0.08857292698560755,-0.6117359128255926,0.06852747508886418,1247.6190476190475,-1.0,69.3184782991926,3.878532196043242,
2023-08-09 18:07:34.260000,-5.132530120481928,0.12048192771084337,-8.530120481927712,0.19619865113427343,-4.724095646842428,-8.272225628448805,2.0,3.87032967032967,258.3759227711528,-0.1792436338208736,-0.31594895402365863,-0.17563079074645987,1249.8168498168498,-1.0,69.3184782991926,3.8783287238419395,
2023-08-09 18:07:34.268000,-5.120481927710844,0.12048192771084337,-8.55421686746988,0.2329858982219497,-4.775597792765175,-8.316370324954015,2.0,3.87032967032967,258.3759227711528,-0.2981178253015559,-0.1298292640289035,0.07039216828856147,1254.9450549450548,-1.0,69.3184782991926,3.8781273442864133,
2023-08-09 18:07:34.275000,-5.1084337349397595,0.14457831325301207,-8.518072289156628,0.24770079705702022,-4.753525444512569,-8.245248313917841,2.0,3.87032967032967,258.3759227711528,-0.2939222656022371,-0.034729910844356955,0.22341355398869525,1260.07326007326,-1.0,69.3184782991926,3.8779280680237784,
2023-08-09 18:07:34.283000,-5.1084337349397595,0.1566265060240964,-8.506024096385543,0.24279583077866337,-4.753525444512569,-8.27958307786634,2.0,3.871794871794871,258.2781456953643,-0.20045451896742578,-0.049997086416876044,0.054076102791212693,1264.4688644688645,-1.0,69.3184782991926,3.8777309066041954,
2023-08-09 18:07:34.291000,-5.120481927710844,0.14457831325301207,-8.518072289156628,0.17167381974248927,-4.775597792765175,-8.242795830778663,2.0,3.871794871794871,258.2781456953643,-0.44088339840335655,-0.2785385467047372,-0.22108268748907417,1266.6666666666665,-1.0,69.3184782991926,3.87753587300281,
2023-08-09 18:07:34.298000,-5.072289156626506,0.1566265060240964,-8.493975903614459,0.18393623543838136,-4.743715511955855,-8.196198651134273,2.0,3.871794871794871,258.2781456953643,-0.04486918011770882,-0.4287628926053253,0.05687314259075798,1270.3296703296703,880.889892578125,68.11293954616318,3.8773429817128697,
2023-08-09 18:07:34.306000,-5.0843373493975905,0.14457831325301207,-8.493975903614459,0.2575107296137339,-4.778050275904353,-8.230533415082771,2.0,3.871794871794871,258.2781456953643,-0.016082978847386676,0.18448808344501993,-0.43074412913000426,1277.6556776556777,-1.0,68.11293954616318,3.877152248306057,
2023-08-09 18:07:34.314000,-5.0843373493975905,0.13253012048192772,-8.518072289156628,0.21091354996934394,-4.733905579399141,-8.267320662170446,2.0,3.871794871794871,258.2781456953643,-0.17038634112231268,0.25965852805780526,0.04568498339257598,1291.5750915750914,-1.0,68.11293954616318,3.8769636894431416,
2023-08-09 18:07:34.321000,-5.120481927710844,0.13253012048192772,-8.493975903614459,0.23789086450030655,-4.721643163703249,-8.203556100551808,2.0,3.871794871794871,258.2781456953643,0.10687022900763359,0.15115669250043648,0.07540353126274699,1311.3553113553112,-1.0,68.11293954616318,3.8767773233350704,
2023-08-09 18:07:34.329000,-5.1084337349397595,0.14457831325301207,-8.518072289156628,0.26486817903126914,-4.780502759043531,-8.203556100551808,2.0,3.871794871794871,258.2781456953643,-0.05920400909037948,0.1355398869529749,-0.24101159606083541,1338.4615384615383,-1.0,68.11293954616318,3.876593169671649,
2023-08-09 18:07:34.337000,-5.120481927710844,0.1566265060240964,-8.542168674698795,0.2329858982219497,-4.795217657878601,-8.259963212752911,2.0,3.871794871794871,258.2781456953643,0.24928617213449172,0.3337800827457613,-0.0816968708117243,1372.8937728937728,-1.0,68.11293954616318,3.8764112491219755,
2023-08-09 18:07:34.344000,-5.096385542168675,0.1566265060240964,-8.518072289156628,0.24279583077866337,-4.6995708154506435,-8.296750459840588,2.0,3.871794871794871,258.2781456953643,0.03484645416933779,0.025756074820815194,-0.002447409824602339,1413.9194139194137,-1.0,68.11293954616318,3.876231583777861,
2023-08-09 18:07:34.352000,-5.096385542168675,0.14457831325301207,-8.55421686746988,0.23789086450030655,-4.748620478234212,-8.296750459840588,2.0,3.8732600732600724,258.1804425950445,-0.11782530155585304,-0.11293048190664923,0.303944991550609,1460.07326007326,-1.0,68.11293954616318,3.8760541970647644,
2023-08-09 18:07:34.360000,-5.096385542168675,0.13253012048192772,-8.506024096385543,0.20846106683016552,-4.7657878602084605,-8.30901287553648,2.0,3.871794871794871,258.2781456953643,-0.3171143872734687,-0.2487034555095858,0.1494085426257209,1509.1575091575091,-1.0,68.11293954616318,3.8758791137171835,
2023-08-09 18:07:34.367000,-5.144578313253012,0.13253012048192772,-8.506024096385543,0.18638871857755976,-4.775597792765175,-8.289393010423053,2.0,3.8732600732600724,258.1804425950445,-0.05594079599090911,0.08927218693549256,-0.20383427539187698,1556.0439560439559,-1.0,68.11293954616318,3.875706359326083,
2023-08-09 18:07:34.375000,-5.156626506024097,0.13253012048192772,-8.530120481927712,0.25015328019619865,-4.814837522992029,-8.331085223789087,2.0,3.8732600732600724,258.1804425950445,-0.23786492628634717,-0.3834275391876931,0.11864110483072063,1601.4652014652013,-1.0,68.11293954616318,3.8755359607256894,
2023-08-09 18:07:34.383000,-5.120481927710844,0.14457831325301207,-8.506024096385543,0.23789086450030655,-4.768240343347639,-8.240343347639485,2.0,3.8732600732600724,258.1804425950445,-0.14416409300157415,-0.38098012936309034,-0.03647806071907211,1646.8864468864467,-1.0,68.11293954616318,3.875367946410793,
2023-08-09 18:07:34.390000,-5.120481927710844,0.13253012048192772,-8.506024096385543,0.16922133660331085,-4.7657878602084605,-8.255058246474555,2.0,3.8732600732600724,258.1804425950445,0.11677641163102377,-0.42386807295612144,0.00769185944874996,1690.10989010989,-1.0,68.11293954616318,3.8752023455440416,
2023-08-09 18:07:34.398000,-5.1084337349397595,0.14457831325301207,-8.506024096385543,0.22808093194359289,-4.711833231146535,-8.20110361741263,2.0,3.8732600732600724,258.1804425950445,-0.2368160363615179,-0.7870170735971092,-0.2545306217586389,1731.135531135531,-1.0,68.11293954616318,3.8750391879076096,
2023-08-09 18:07:34.406000,-5.096385542168675,0.13253012048192772,-8.518072289156628,0.24279583077866337,-4.787860208461066,-8.289393010423053,2.0,3.8732600732600724,258.1804425950445,-0.3565060311170678,-0.4329584523046441,0.05221140959151584,1768.4981684981683,-1.0,68.11293954616318,3.874878504306882,
2023-08-09 18:07:34.413000,-5.096385542168675,0.13253012048192772,-8.530120481927712,0.22562844880441446,-4.755977927651747,-8.272225628448805,2.0,3.871794871794871,258.2781456953643,-0.15651768544956537,-0.736320727230348,0.01946273527183744,1799.9999999999998,-1.0,68.11293954616318,3.8747203264436045,
2023-08-09 18:07:34.421000,-5.0843373493975905,0.13253012048192772,-8.530120481927712,0.2452483139178418,-4.807480073574494,-8.264868179031268,2.0,3.8732600732600724,258.1804425950445,-0.09556552648446988,-0.31688130062350706,-0.08740749373579615,1823.4432234432234,-1.0,68.11293954616318,3.8745646867859405,
2023-08-09 18:07:34.429000,-5.096385542168675,0.14457831325301207,-8.481927710843374,0.2329858982219497,-4.792765174739423,-8.328632740649908,2.0,3.8732600732600724,258.1804425950445,-0.09335120330983052,-0.31128722102441647,-0.08799021036070162,1836.6300366300366,-1.0,68.11293954616318,3.8744116183309503,
2023-08-09 18:07:34.436000,-5.1084337349397595,0.13253012048192772,-8.481927710843374,0.20846106683016552,-4.802575107296137,-8.274678111587983,2.0,3.8732600732600724,258.1804425950445,-0.12365246780490702,-0.6588194161179425,-0.2866965794534118,1838.8278388278386,-1.0,68.11293954616318,3.874261154149136,
2023-08-09 18:07:34.444000,-5.120481927710844,0.1566265060240964,-8.506024096385543,0.24034334763948498,-4.719190680564071,-8.267320662170446,2.0,3.8732600732600724,258.1804425950445,-0.07715168113746301,-0.6510110133442109,-0.20826292174115743,1833.6996336996335,-1.0,68.11293954616318,3.874113327346757,
2023-08-09 18:07:34.452000,-5.1084337349397595,0.14457831325301207,-8.530120481927712,0.26486817903126914,-4.851624770079705,-8.252605763335376,2.0,3.8732600732600724,258.1804425950445,0.061884505564943924,-0.3981119981353063,-0.29846745527649887,1819.047619047619,-1.0,68.11293954616318,3.8739681709888063,
2023-08-09 18:07:34.459000,-5.132530120481928,0.1566265060240964,-8.493975903614459,0.24770079705702022,-4.785407725321888,-8.213366033108523,2.0,3.8732600732600724,258.1804425950445,-0.138453470077501,-0.40941670065846997,-0.1898490763941497,1799.2673992673992,-1.0,68.11293954616318,3.873825718475791,
2023-08-09 18:07:34.467000,-5.1084337349397595,0.16867469879518074,-8.518072289156628,0.2893930104230533,-4.755977927651747,-8.237890864500306,2.0,3.8732600732600724,258.1804425950445,0.16828856127265243,-0.08239613076161106,-0.24905308548452873,1776.5567765567764,-1.0,68.11293954616318,3.873686003391824,
2023-08-09 18:07:34.475000,-5.120481927710844,0.18072289156626506,-8.481927710843374,0.2820355610055181,-4.7363580625383195,-8.245248313917841,2.0,3.8732600732600724,258.1804425950445,-0.1537206456500201,0.13274284715342963,-0.30918944117475666,1753.113553113553,-1.0,68.11293954616318,3.8735490589285564,
2023-08-09 18:07:34.482000,-5.120481927710844,0.16867469879518074,-8.530120481927712,0.26241569589209074,-4.741263028816677,-8.225628448804414,2.0,3.8747252747252747,258.0828133862734,-0.3657129537905712,0.025639531495834356,-0.2905425091777868,1728.2051282051282,-1.0,68.11293954616318,3.8734149177986072,
2023-08-09 18:07:34.490000,-5.132530120481928,0.16867469879518074,-8.46987951807229,0.2329858982219497,-4.792765174739423,-8.259963212752911,2.0,3.8732600732600724,258.1804425950445,-0.07225686148825747,0.19497698269331604,-0.04242177029310648,1702.5641025641025,-1.0,68.11293954616318,3.8732836130969064,
2023-08-09 18:07:34.498000,-5.144578313253012,0.1566265060240964,-8.493975903614459,0.32127529123237275,-4.819742489270386,-8.23298589822195,2.0,3.8747252747252747,258.0828133862734,-0.012586679097954637,-0.004079016374337954,-0.2553464250335061,1676.1904761904761,-1.0,68.11293954616318,3.87315517772165,
2023-08-09 18:07:34.505000,-5.156626506024097,0.1566265060240964,-8.493975903614459,0.26486817903126914,-4.770692826486818,-8.269773145309626,2.0,3.8747252747252747,258.0828133862734,0.0026804964745644456,-0.17015325447234927,-0.06876056173882629,1646.8864468864467,-1.0,68.11293954616318,3.87302964376124,
2023-08-09 18:07:34.513000,-5.120481927710844,0.14457831325301207,-8.506024096385543,0.2893930104230533,-4.787860208461066,-8.269773145309626,2.0,3.8747252747252747,258.0828133862734,-0.09113688013518942,0.35091195151797727,0.10115960608356175,1615.3846153846152,-1.0,68.11293954616318,3.8729070429347323,
2023-08-09 18:07:34.521000,-5.1084337349397595,0.18072289156626506,-8.506024096385543,0.2452483139178418,-4.841814837522992,-8.274678111587983,2.0,3.8747252747252747,258.0828133862734,-0.2590758114328993,-0.3236408134724077,0.1314608705786378,1585.3479853479853,-1.0,68.11293954616318,3.872787406048765,
2023-08-09 18:07:34.528000,-5.1084337349397595,0.1566265060240964,-8.518072289156628,0.18638871857755976,-4.738810545677498,-8.259963212752911,2.0,3.8747252747252747,258.0828133862734,-0.013402482372822228,0.0017481498747160184,0.041839053668201,1556.0439560439559,-1.0,68.11293954616318,3.872670763370251,
2023-08-09 18:07:34.536000,-5.096385542168675,0.14457831325301207,-8.518072289156628,0.23053341508277128,-4.719190680564071,-8.24770079705702,2.0,3.8747252747252747,258.0828133862734,0.13379173707825887,0.060952158965095496,0.07318920808810676,1528.2051282051282,-1.0,68.11293954616318,3.872557144474437,
2023-08-09 18:07:34.544000,-5.1084337349397595,0.13253012048192772,-8.518072289156628,0.2035561005518087,-4.773145309625996,-8.235438381361128,2.0,3.8747252747252747,258.0828133862734,-0.23285356331216078,0.547287454111065,0.07062525493852358,1498.168498168498,-1.0,68.11293954616318,3.872446577672888,
2023-08-09 18:07:34.551000,-5.1084337349397595,0.13253012048192772,-8.493975903614459,0.2673206621704476,-4.768240343347639,-8.321275291232372,2.0,3.8747252747252747,258.0828133862734,-0.17143523104714195,0.3907697686614997,-0.006642969523920696,1469.5970695970695,-1.0,68.11293954616318,3.8723390899349535,
2023-08-09 18:07:34.559000,-5.144578313253012,0.14457831325301207,-8.493975903614459,0.21336603310852237,-4.8295524218271,-8.269773145309626,2.0,3.8747252747252747,258.0828133862734,-0.07959909096206579,0.46127848027504287,0.21956762426432028,1445.4212454212454,-1.0,68.11293954616318,3.8722347068105853,
2023-08-09 18:07:34.567000,-5.096385542168675,0.16867469879518074,-8.518072289156628,0.15695892090741875,-4.75107296137339,-8.220723482526058,2.0,3.8732600732600724,258.1804425950445,0.012353592447992964,0.16712312802284232,0.2936891789522755,1424.1758241758241,-1.0,68.11293954616318,3.872133452812782,
2023-08-09 18:07:34.574000,-5.120481927710844,0.18072289156626506,-8.481927710843374,0.22808093194359289,-4.807480073574494,-8.26241569589209,2.0,3.8732600732600724,258.1804425950445,0.25849309480799515,0.5461220208612549,0.015383718897500353,1409.5238095238094,-1.0,68.11293954616318,3.8720353512423333,
2023-08-09 18:07:34.582000,-5.120481927710844,0.16867469879518074,-8.530120481927712,0.2844880441446965,-4.812385039852851,-8.245248313917841,2.0,3.8747252747252747,258.0828133862734,0.3173474739234304,0.5381970747625424,0.1491754559757588,1400.0,-1.0,68.11293954616318,3.871940423489435,
2023-08-09 18:07:34.590000,-5.120481927710844,0.1566265060240964,-8.530120481927712,0.21091354996934394,-4.741263028816677,-8.3408951563458,2.0,3.8747252747252747,258.0828133862734,-0.06794475846395957,0.4251500495309124,0.46582366994930374,1394.8717948717947,-1.0,68.11293954616318,3.871848689426408,
2023-08-09 18:07:34.597000,-5.096385542168675,0.1566265060240964,-8.55421686746988,0.21091354996934394,-4.721643163703249,-8.257510729613733,2.0,3.8747252747252747,258.0828133862734,0.19241302954373243,-0.03717732066895799,0.4298117825301554,1392.6739926739926,-1.0,68.11293954616318,3.8717601674162365,
2023-08-09 18:07:34.605000,-5.096385542168675,0.13253012048192772,-8.542168674698795,0.24770079705702022,-4.738810545677498,-8.250153280196198,2.0,3.8747252747252747,258.0828133862734,0.12936309072897842,-0.11386282850649766,0.0588543791154361,1389.7435897435896,-1.0,68.11293954616318,3.871674873798533,
2023-08-09 18:07:34.612000,-5.096385542168675,0.1566265060240964,-8.506024096385543,0.19865113427345185,-4.768240343347639,-8.225628448804414,2.0,3.8747252747252747,258.0828133862734,0.0973136763591859,-0.06782821513897873,-0.00396247304935625,1386.8131868131868,-1.0,68.11293954616318,3.8715928228362557,
2023-08-09 18:07:34.620000,-5.096385542168675,0.1566265060240964,-8.493975903614459,0.2550582464745555,-4.773145309625996,-8.284488044144696,2.0,3.8747252747252747,258.0828133862734,-0.04079016374337087,0.29671930540178243,0.3319153895460636,1386.080586080586,-1.0,68.11293954616318,3.8715140271235735,
2023-08-09 18:07:34.628000,-5.0843373493975905,0.16867469879518074,-8.518072289156628,0.164316370324954,-4.834457388105457,-8.259963212752911,2.0,3.876190476190477,257.98525798525793,0.12738185420430073,-0.028203484645416232,-0.17842783054600558,1386.080586080586,-1.0,68.11293954616318,3.871438497472187,
2023-08-09 18:07:34.635000,-5.1084337349397595,0.1566265060240964,-8.493975903614459,0.2158185162477008,-4.6995708154506435,-8.252605763335376,2.0,3.876190476190477,257.98525798525793,0.11211467863178164,0.07621933453761458,-0.12936309072897842,1386.080586080586,-1.0,68.11293954616318,3.8713662428731004,
2023-08-09 18:07:34.643000,-5.0843373493975905,0.14457831325301207,-8.518072289156628,0.20846106683016552,-4.785407725321888,-8.267320662170446,2.0,3.8747252747252747,258.0828133862734,-0.23903035953615728,0.30138103840102626,-0.1903152496940739,1385.3479853479853,-1.0,68.11293954616318,3.8712972709920095,
2023-08-09 18:07:34.651000,-5.096385542168675,0.13253012048192772,-8.530120481927712,0.21336603310852237,-4.778050275904353,-8.338442673206622,2.0,3.876190476190477,257.98525798525793,0.11339665520657258,-0.2849484295786954,-0.03682769069401549,1384.6153846153845,-1.0,68.11293954616318,3.871231586668332,
2023-08-09 18:07:34.658000,-5.0843373493975905,0.13253012048192772,-8.542168674698795,0.24770079705702022,-4.822194972409564,-8.240343347639485,2.0,3.8747252747252747,258.0828133862734,-0.2688654507313087,-0.543091894411748,-0.006642969523920696,1382.4175824175823,-1.0,68.11293954616318,3.8711691918939652,
2023-08-09 18:07:34.666000,-5.120481927710844,0.14457831325301207,-8.518072289156628,0.2550582464745555,-4.792765174739423,-8.331085223789087,2.0,3.876190476190477,257.98525798525793,0.08554280053609885,-0.2473049356098123,0.08694132043587192,1381.6849816849815,-1.0,68.11293954616318,3.8711100867792916,
2023-08-09 18:07:34.674000,-5.120481927710844,0.14457831325301207,-8.530120481927712,0.23789086450030655,-4.809932556713672,-8.250153280196198,2.0,3.876190476190477,257.98525798525793,-0.3114037643493973,-0.47328244274809156,-0.24695530563486978,1383.150183150183,-1.0,68.11293954616318,3.8710542694366166,
2023-08-09 18:07:34.681000,-5.1084337349397595,0.14457831325301207,-8.518072289156628,0.2673206621704476,-4.760882893930104,-8.313917841814837,2.0,3.876190476190477,257.98525798525793,-0.5365654682128073,-0.2532486451838471,0.07878328768719775,1384.6153846153845,-1.0,68.11293954616318,3.8710017360096596,
2023-08-09 18:07:34.689000,-5.1084337349397595,0.13253012048192772,-8.481927710843374,0.20600858369098712,-4.7290006131207845,-8.228080931943593,2.0,3.876190476190477,257.98525798525793,-0.19590932929316449,-0.14323174640172398,0.05034671639181855,1386.080586080586,-1.0,68.11293954616318,3.8709524802174604,
2023-08-09 18:07:34.697000,-5.120481927710844,0.13253012048192772,-8.542168674698795,0.23789086450030655,-4.760882893930104,-8.235438381361128,2.0,3.876190476190477,257.98525798525793,-0.6965794534118064,-0.20010488899248327,0.024241011596060846,1385.3479853479853,-1.0,68.11293954616318,3.870906493818914,
2023-08-09 18:07:34.704000,-5.072289156626506,0.13253012048192772,-8.493975903614459,0.21091354996934394,-4.824647455548742,-8.282035561005518,2.0,3.876190476190477,257.98525798525793,-0.6914515471126392,-0.19590932929316449,0.029135831245265524,1380.952380952381,-1.0,68.11293954616318,3.870863766557146,
2023-08-09 18:07:34.712000,-5.096385542168675,0.1566265060240964,-8.518072289156628,0.2844880441446965,-4.711833231146535,-8.237890864500306,2.0,3.876190476190477,257.98525798525793,-0.3947322417108568,-0.023541751646174093,-0.2594254414078431,1375.8241758241757,-1.0,68.11293954616318,3.870824285687807,
2023-08-09 18:07:34.720000,-5.0843373493975905,0.14457831325301207,-8.493975903614459,0.17903126916002451,-4.721643163703249,-8.230533415082771,2.0,3.8747252747252747,258.0828133862734,-0.22154886078899882,0.08764058038575911,-0.10244158265835313,1367.7655677655678,-1.0,68.11293954616318,3.870788036004417,
2023-08-09 18:07:34.727000,-5.1084337349397595,0.14457831325301207,-8.481927710843374,0.25015328019619865,-4.863887185775598,-8.250153280196198,2.0,3.8747252747252747,258.0828133862734,-0.033681020919527696,0.1052386224578984,0.023658294971155364,1361.1721611721612,-1.0,68.11293954616318,3.870755000291229,
2023-08-09 18:07:34.735000,-5.120481927710844,0.1566265060240964,-8.530120481927712,0.2575107296137339,-4.8295524218271,-8.286940527283875,2.0,3.8747252747252747,258.0828133862734,-0.12516753102965963,-0.09253540003496293,-0.08309539071149695,1355.3113553113553,-1.0,68.11293954616318,3.87072515869287,
2023-08-09 18:07:34.743000,-5.144578313253012,0.14457831325301207,-8.518072289156628,0.22317596566523604,-4.702023298589822,-8.237890864500306,2.0,3.876190476190477,257.98525798525793,-0.274459530330401,0.13775421012761427,-0.18763475321950945,1347.985347985348,-1.0,68.11293954616318,3.870698488295715,
2023-08-09 18:07:34.750000,-5.120481927710844,0.13253012048192772,-8.506024096385543,0.29675045984058857,-4.746167995095034,-8.284488044144696,2.0,3.8747252747252747,258.0828133862734,-0.17807820057106177,0.03123361109492492,-0.07610279121263332,1342.1245421245421,-1.0,68.11293954616318,3.8706749641529608,
2023-08-09 18:07:34.758000,-5.1084337349397595,0.14457831325301207,-8.506024096385543,0.1618638871857756,-4.775597792765175,-8.257510729613733,2.0,3.876190476190477,257.98525798525793,-0.17551424742147817,-0.3046442515004949,-0.16758930132276653,1336.263736263736,-1.0,68.11293954616318,3.8706545589069146,
2023-08-09 18:07:34.766000,-5.132530120481928,0.14457831325301207,-8.518072289156628,0.21827099938687922,-4.787860208461066,-8.286940527283875,2.0,3.876190476190477,257.98525798525793,-0.2184021910145093,-0.4419322883281858,0.06374919876464077,1331.8681318681317,-1.0,68.11293954616318,3.870637243260807,
2023-08-09 18:07:34.773000,-5.120481927710844,0.14457831325301207,-8.530120481927712,0.18638871857755976,-4.809932556713672,-8.318822808093193,2.0,3.876190476190477,257.98525798525793,-0.3218926635976917,-0.16677349804789982,-0.409999417283375,1325.2747252747251,-1.0,68.11293954616318,3.8706229864909587,
2023-08-09 18:07:34.781000,-5.1084337349397595,0.14457831325301207,-8.506024096385543,0.14469650521152666,-4.770692826486818,-8.255058246474555,2.0,3.876190476190477,257.98525798525793,-0.3178136472233555,-0.4291125225802695,-0.01083852922323862,1320.8791208791208,-1.0,68.11293954616318,3.8706117555583064,
2023-08-09 18:07:34.789000,-5.1084337349397595,0.13253012048192772,-8.493975903614459,0.16922133660331085,-4.7657878602084605,-8.267320662170446,2.0,3.876190476190477,257.98525798525793,-0.2075636617912707,-0.5045160538430165,0.18646931996969893,1317.216117216117,-1.0,68.11293954616318,3.8706035151732836,
2023-08-09 18:07:34.796000,-5.1084337349397595,0.1566265060240964,-8.493975903614459,0.20846106683016552,-4.75107296137339,-8.272225628448805,2.0,3.876190476190477,257.98525798525793,-0.4032399044344735,-0.2605908746576537,-0.06386574208962162,1317.216117216117,-1.0,68.11293954616318,3.8705982283212603,
2023-08-09 18:07:34.804000,-5.096385542168675,0.16867469879518074,-8.481927710843374,0.2722256284488044,-4.778050275904353,-8.235438381361128,2.0,3.876190476190477,257.98525798525793,-0.26094050463259794,-0.24695530563486978,0.041722510343220165,1313.5531135531135,-1.0,68.11293954616318,3.8705958562654272,
2023-08-09 18:07:34.812000,-5.1084337349397595,0.14457831325301207,-8.506024096385543,0.24279583077866337,-4.846719803801348,-8.252605763335376,2.0,3.876190476190477,257.98525798525793,0.03169978439484827,-0.1105996154070273,-0.05174523629159119,1306.9597069597069,-1.0,68.11293954616318,3.870596358131058,
2023-08-09 18:07:34.819000,-5.1084337349397595,0.16867469879518074,-8.493975903614459,0.22808093194359289,-4.827099938687922,-8.213366033108523,2.0,3.876190476190477,257.98525798525793,-0.2872792960783173,-0.2473049356098123,0.08332847736145906,1299.6336996336995,-1.0,68.11293954616318,3.87059969098415,
2023-08-09 18:07:34.827000,-5.096385542168675,0.1566265060240964,-8.493975903614459,0.2722256284488044,-4.78295524218271,-8.267320662170446,2.0,3.876190476190477,257.98525798525793,-0.02447409824602252,-0.06421537206456586,-0.05722277256570135,1293.7728937728937,-1.0,68.11293954616318,3.8706058099116696,
2023-08-09 18:07:34.835000,-5.144578313253012,0.1566265060240964,-8.46987951807229,0.17903126916002451,-4.805027590435316,-8.318822808093193,2.0,3.876190476190477,257.98525798525793,-0.16059670182390334,-0.0019812365246776914,0.07959909096206534,1287.179487179487,-1.0,68.11293954616318,3.870614668103282,
2023-08-09 18:07:34.842000,-5.120481927710844,0.1566265060240964,-8.481927710843374,0.24034334763948498,-4.787860208461066,-8.26241569589209,2.0,3.876190476190477,257.98525798525793,-0.32597167997202964,-0.10920109550725551,-0.030534351145038167,1282.7838827838827,-1.0,68.11293954616318,3.8706262173923274,
2023-08-09 18:07:34.850000,-5.1084337349397595,0.18072289156626506,-8.518072289156628,0.19865113427345185,-4.758430410790925,-8.252605763335376,2.0,3.876190476190477,257.98525798525793,-0.04941436979197012,0.1503408892255689,0.05722277256570135,1279.8534798534797,-1.0,68.11293954616318,3.8706404082729424,
2023-08-09 18:07:34.858000,-5.120481927710844,0.16867469879518074,-8.506024096385543,0.22562844880441446,-4.792765174739423,-8.284488044144696,2.0,3.876190476190477,257.98525798525793,-0.048831653167064205,-0.1259833343045272,0.08822329701066374,1277.6556776556777,-1.0,68.11293954616318,3.87065718949718,
2023-08-09 18:07:34.865000,-5.132530120481928,0.1566265060240964,-8.493975903614459,0.22317596566523604,-4.817290006131207,-8.21827099938688,2.0,3.876190476190477,257.98525798525793,-0.07889983101217903,0.13507371365304982,0.0844939106112696,1280.5860805860805,-1.0,68.11293954616318,3.8706765081652086,
2023-08-09 18:07:34.873000,-5.144578313253012,0.18072289156626506,-8.493975903614459,0.27713059472716123,-4.790312691600245,-8.252605763335376,2.0,3.8747252747252747,258.0828133862734,0.014334828972670657,-0.2926402890274462,0.0543091894411748,1284.2490842490843,-1.0,68.11293954616318,3.8706983098157792,
2023-08-09 18:07:34.881000,-5.132530120481928,0.1566265060240964,-8.493975903614459,0.23053341508277128,-4.768240343347639,-8.26241569589209,2.0,3.8747252747252747,258.0828133862734,-0.3531262746926166,-0.2742264436804376,0.2541809917836955,1287.9120879120878,-1.0,68.11293954616318,3.870722538482058,
2023-08-09 18:07:34.888000,-5.132530120481928,0.1566265060240964,-8.493975903614459,0.19865113427345185,-4.800122624156959,-8.24770079705702,2.0,3.8747252747252747,258.0828133862734,0.10663714235767191,-0.19486043936833522,-0.15814929199930056,1290.10989010989,-1.0,68.11293954616318,3.8707491366429125,
2023-08-09 18:07:34.896000,-5.144578313253012,0.16867469879518074,-8.493975903614459,0.26241569589209074,-4.800122624156959,-8.21827099938688,2.0,3.876190476190477,257.98525798525793,-0.030534351145038167,-0.31326845754909416,0.2101276149408543,1290.10989010989,-1.0,68.11293954616318,3.8707780452775538,
2023-08-09 18:07:34.904000,-5.096385542168675,0.16867469879518074,-8.493975903614459,0.2550582464745555,-4.790312691600245,-8.291845493562231,2.0,3.876190476190477,257.98525798525793,-0.07470427131286024,-0.32538896334712375,0.04195559699318227,1288.6446886446886,-1.0,68.11293954616318,3.8708092044462887,
2023-08-09 18:07:34.911000,-5.1084337349397595,0.16867469879518074,-8.493975903614459,0.2599632127529123,-4.814837522992029,-8.210913549969343,2.0,3.876190476190477,257.98525798525793,-0.041372880368276785,-0.22993998018763467,0.07377192471301224,1287.179487179487,-1.0,68.11293954616318,3.870842553449413,
2023-08-09 18:07:34.919000,-5.096385542168675,0.18072289156626506,-8.481927710843374,0.26486817903126914,-4.760882893930104,-8.299202942979766,2.0,3.876190476190477,257.98525798525793,-0.09929491288386533,-0.15022434590058806,0.1200396247304937,1286.4468864468863,-1.0,68.11293954616318,3.8708780304601857,
2023-08-09 18:07:34.927000,-5.096385542168675,0.14457831325301207,-8.46987951807229,0.21827099938687922,-4.733905579399141,-8.250153280196198,2.0,3.876190476190477,257.98525798525793,-0.006293339548977319,-0.17633005069634577,0.21082687489074062,1287.179487179487,-1.0,68.11293954616318,3.870915572614852,
2023-08-09 18:07:34.934000,-5.120481927710844,0.1566265060240964,-8.506024096385543,0.20600858369098712,-4.773145309625996,-8.240343347639485,2.0,3.876190476190477,257.98525798525793,-0.11164850533185655,0.10255812598333396,0.16502534817318337,1285.7142857142856,-1.0,68.11293954616318,3.8709551161018756,
2023-08-09 18:07:34.942000,-5.1084337349397595,0.16867469879518074,-8.493975903614459,0.2673206621704476,-4.812385039852851,-8.237890864500306,2.0,3.8747252747252747,258.0828133862734,0.19357846279354426,-0.23495134316182106,-0.019579278596818277,1284.9816849816848,-1.0,68.11293954616318,3.870996596250283,
2023-08-09 18:07:34.950000,-5.120481927710844,0.14457831325301207,-8.493975903614459,0.27713059472716123,-4.795217657878601,-8.321275291232372,2.0,3.876190476190477,257.98525798525793,0.13146087057863695,-0.3672280170153256,-0.06281685216479235,1282.051282051282,-1.0,68.11293954616318,3.871039947124544,
2023-08-09 18:07:34.957000,-5.1084337349397595,0.1566265060240964,-8.506024096385543,0.2158185162477008,-4.746167995095034,-8.257510729613733,2.0,3.876190476190477,257.98525798525793,-0.3714235767146444,0.003496299749432037,0.16630732474797516,1280.5860805860805,-1.0,68.11293954616318,3.8710851020317594,
2023-08-09 18:07:34.965000,-5.120481927710844,0.1566265060240964,-8.506024096385543,0.22562844880441446,-4.824647455548742,-8.242795830778663,2.0,3.876190476190477,257.98525798525793,0.04545189674261474,-0.28308373637899853,-0.04661732999242484,1279.8534798534797,-1.0,68.11293954616318,3.871131994132061,
2023-08-09 18:07:34.972000,-5.132530120481928,0.1566265060240964,-8.493975903614459,0.27713059472716123,-4.785407725321888,-8.282035561005518,2.0,3.876190476190477,257.98525798525793,0.13740458015267176,-0.20255229881708603,-0.1821572169453993,1280.5860805860805,-1.0,68.11293954616318,3.871180556065227,
2023-08-09 18:07:34.980000,-5.144578313253012,0.1927710843373494,-8.493975903614459,0.24770079705702022,-4.827099938687922,-8.259963212752911,2.0,3.876190476190477,257.98525798525793,0.13880310005244526,-0.19952217236757736,-0.1816910436454751,1281.3186813186812,-1.0,68.11293954616318,3.871230720492337,
2023-08-09 18:07:34.988000,-5.144578313253012,0.16867469879518074,-8.506024096385543,0.23053341508277128,-4.814837522992029,-8.245248313917841,2.0,3.876190476190477,257.98525798525793,-0.05967018239030283,-0.3956645883107052,0.03193287104481081,1279.8534798534797,-1.0,68.11293954616318,3.8712824201115694,
2023-08-09 18:07:34.995000,-5.096385542168675,0.16867469879518074,-8.481927710843374,0.25015328019619865,-4.814837522992029,-8.286940527283875,2.0,3.876190476190477,257.98525798525793,-0.3054600547753625,-0.16444263154827787,0.1530213857001342,1276.923076923077,-1.0,68.11293954616318,3.871335587252207,
2023-08-09 18:07:35.003000,-5.168674698795181,0.16867469879518074,-8.506024096385543,0.2550582464745555,-4.827099938687922,-8.213366033108523,2.0,3.876190476190477,257.98525798525793,-0.028786201270322147,-0.13379173707825887,0.31979488374803317,1270.3296703296703,-1.0,68.11293954616318,3.8713901539600353,
2023-08-09 18:07:35.011000,-5.132530120481928,0.1566265060240964,-8.506024096385543,0.2722256284488044,-4.817290006131207,-8.269773145309626,2.0,3.876190476190477,257.98525798525793,0.12376901112988785,-0.20768020511625152,0.058388205815511886,1262.2710622710622,-1.0,68.11293954616318,3.8714460520814624,
2023-08-09 18:07:35.018000,-5.156626506024097,0.14457831325301207,-8.518072289156628,0.23543838136112813,-4.724095646842428,-8.331085223789087,2.0,3.876190476190477,257.98525798525793,-0.25791037818308926,-0.191480682943884,-0.05023017306683771,1256.4102564102564,-1.0,68.11293954616318,3.871503213346425,
2023-08-09 18:07:35.026000,-5.120481927710844,0.13253012048192772,-8.506024096385543,0.18884120171673818,-4.800122624156959,-8.289393010423053,2.0,3.8747252747252747,258.0828133862734,-0.025989161470776866,-0.4636093467746631,0.17947672047083485,1250.5494505494505,-1.0,68.11293954616318,3.871561569450106,
2023-08-09 18:07:35.034000,-5.132530120481928,0.1566265060240964,-8.530120481927712,0.21336603310852237,-4.795217657878601,-8.284488044144696,2.0,3.8747252747252747,258.0828133862734,0.2954373288269915,0.014101742322708983,-0.23541751646174483,1249.084249084249,-1.0,68.11293954616318,3.8716210525565855,
2023-08-09 18:07:35.041000,-5.120481927710844,0.10843373493975904,-8.566265060240964,0.24034334763948498,-4.800122624156959,-8.255058246474555,2.0,3.8747252747252747,258.0828133862734,-0.05547462269098577,0.2605908746576537,-0.11281393858166752,1249.084249084249,-1.0,68.11293954616318,3.8716815951715993,
2023-08-09 18:07:35.049000,-5.1084337349397595,0.16867469879518074,-8.481927710843374,0.2550582464745555,-4.778050275904353,-8.193746167995094,2.0,3.876190476190477,257.98525798525793,0.11514480508128859,0.15441990559990684,-0.3400734222947382,1252.014652014652,-1.0,68.11293954616318,3.871743129238613,
2023-08-09 18:07:35.057000,-5.096385542168675,0.16867469879518074,-8.481927710843374,0.2035561005518087,-4.809932556713672,-8.237890864500306,2.0,3.876190476190477,257.98525798525793,-0.1899656197191314,0.26163976458248295,-0.0599032690402658,1256.4102564102564,-1.0,68.11293954616318,3.871805586777219,
2023-08-09 18:07:35.064000,-5.132530120481928,0.16867469879518074,-8.46987951807229,0.2158185162477008,-4.787860208461066,-8.24770079705702,2.0,3.876190476190477,257.98525798525793,0.05687314259075754,-0.21315774139036126,-0.08892255696055006,1263.7362637362637,-1.0,68.11293954616318,3.8718689005192766,
2023-08-09 18:07:35.072000,-5.132530120481928,0.16867469879518074,-8.481927710843374,0.25015328019619865,-4.822194972409564,-8.255058246474555,2.0,3.876190476190477,257.98525798525793,-0.03274867431967753,0.31175339432433985,0.18553697336985006,1269.5970695970695,-1.0,68.11293954616318,3.8719330035257475,
2023-08-09 18:07:35.080000,-5.132530120481928,0.13253012048192772,-8.506024096385543,0.22317596566523604,-4.78295524218271,-8.331085223789087,2.0,3.876190476190477,257.98525798525793,-0.09323465998484969,0.08297884738651524,0.015733348872443296,1273.260073260073,-1.0,68.11293954616318,3.871997829259984,
2023-08-09 18:07:35.087000,-5.120481927710844,0.14457831325301207,-8.518072289156628,0.2207234825260576,-4.78295524218271,-8.250153280196198,2.0,3.876190476190477,257.98525798525793,0.13717149350271007,0.053143756191363835,0.16747275799778572,1275.4578754578754,-1.0,68.11293954616318,3.872063312117471,
2023-08-09 18:07:35.095000,-5.120481927710844,0.1566265060240964,-8.493975903614459,0.27713059472716123,-4.824647455548742,-8.255058246474555,2.0,3.876190476190477,257.98525798525793,0.5026513606433196,0.3026630149758172,-0.07598624788765204,1273.260073260073,-1.0,68.11293954616318,3.87212938742918,
2023-08-09 18:07:35.103000,-5.132530120481928,0.1566265060240964,-8.493975903614459,0.23789086450030655,-4.809932556713672,-8.220723482526058,2.0,3.876190476190477,257.98525798525793,0.40731892080881144,0.1199230814055133,0.10721985898257697,1271.062271062271,-1.0,68.11293954616318,3.872195991042547,
2023-08-09 18:07:35.110000,-5.120481927710844,0.18072289156626506,-8.481927710843374,0.24770079705702022,-4.834457388105457,-8.269773145309626,2.0,3.876190476190477,257.98525798525793,0.3301672396713484,0.16887127789755835,0.10710331565759569,1266.6666666666665,-1.0,68.11293954616318,3.8722630593933,
2023-08-09 18:07:35.118000,-5.144578313253012,0.16867469879518074,-8.518072289156628,0.25260576333537704,-4.792765174739423,-8.296750459840588,2.0,3.876190476190477,257.98525798525793,0.04079016374337087,0.17236757764699037,0.16933745119748256,1263.7362637362637,-1.0,68.11293954616318,3.872330529575506,
2023-08-09 18:07:35.126000,-5.120481927710844,0.16867469879518074,-8.530120481927712,0.23543838136112813,-4.814837522992029,-8.318822808093193,2.0,3.876190476190477,257.98525798525793,-0.400559407959909,0.020045451896742058,0.16817201794767203,1260.8058608058607,-1.0,68.11293954616318,3.8723983398677864,
2023-08-09 18:07:35.133000,-5.132530120481928,0.14457831325301207,-8.518072289156628,0.17167381974248927,-4.832004904966278,-8.296750459840588,2.0,3.876190476190477,257.98525798525793,-0.19695821921799375,0.130178894003846,0.3052269681254004,1257.8754578754579,-1.0,68.11293954616318,3.8724664297327327,
2023-08-09 18:07:35.141000,-5.132530120481928,0.14457831325301207,-8.542168674698795,0.22317596566523604,-4.817290006131207,-8.257510729613733,2.0,3.876190476190477,257.98525798525793,-0.028086941320435394,0.14544606957636508,0.03204941436979208,1257.8754578754579,-1.0,68.11293954616318,3.872534739393599,
2023-08-09 18:07:35.149000,-5.144578313253012,0.1566265060240964,-8.530120481927712,0.2599632127529123,-4.817290006131207,-8.23298589822195,2.0,3.876190476190477,257.98525798525793,0.0802983509119508,-0.16013052852397824,0.07750131111240595,1260.07326007326,-1.0,68.11293954616318,3.8726032099014156,
2023-08-09 18:07:35.156000,-5.144578313253012,0.16867469879518074,-8.493975903614459,0.18638871857755976,-4.790312691600245,-8.235438381361128,2.0,3.876190476190477,257.98525798525793,0.0055940795990905645,-0.050579803041780225,0.30592622807528713,1263.7362637362637,-1.0,68.11293954616318,3.872671783199959,
2023-08-09 18:07:35.164000,-5.132530120481928,0.14457831325301207,-8.481927710843374,0.2575107296137339,-4.780502759043531,-8.286940527283875,2.0,3.876190476190477,257.98525798525793,-0.114329001806421,-0.5677990793077322,-0.1086183788823496,1270.3296703296703,-1.0,68.11293954616318,3.872740402188559,
2023-08-09 18:07:35.172000,-5.132530120481928,0.14457831325301207,-8.530120481927712,0.15695892090741875,-4.792765174739423,-8.277130594727161,2.0,3.876190476190477,257.98525798525793,-0.23471825651185765,-0.4396014218285639,-0.002214323174640232,1280.5860805860805,-1.0,68.11293954616318,3.872809010782825,
2023-08-09 18:07:35.179000,-5.1084337349397595,0.13253012048192772,-8.493975903614459,0.1618638871857756,-4.716738197424893,-8.225628448804414,2.0,3.8747252747252747,258.0828133862734,0.22586096381329673,-0.03682769069401549,-0.11141541868189489,1293.040293040293,-1.0,68.11293954616318,3.872877553973312,
2023-08-09 18:07:35.187000,-5.096385542168675,0.12048192771084337,-8.481927710843374,0.23543838136112813,-4.7363580625383195,-8.188841201716738,2.0,3.8747252747252747,258.0828133862734,-0.17306683759687713,0.2563953149583349,-0.050929433016724035,1312.087912087912,-1.0,68.11293954616318,3.8729459783052627,
2023-08-09 18:07:35.195000,-5.1084337349397595,0.14457831325301207,-8.481927710843374,0.23789086450030655,-4.770692826486818,-8.183936235438381,2.0,3.8747252747252747,258.0828133862734,0.28669657945341137,0.5321368218635285,0.041722510343220165,1339.9267399267399,-1.0,68.11293954616318,3.8730142317265797,
2023-08-09 18:07:35.202000,-5.144578313253012,0.12048192771084337,-8.493975903614459,0.21091354996934394,-4.89086450030656,-8.250153280196198,2.0,3.8747252747252747,258.0828133862734,0.14731076277606195,0.7585805023017312,0.07400501136297435,1373.6263736263736,-1.0,68.11293954616318,3.8730822626582406,
2023-08-09 18:07:35.210000,-5.144578313253012,0.14457831325301207,-8.493975903614459,0.18393623543838136,-4.861434702636419,-8.252605763335376,2.0,3.876190476190477,257.98525798525793,0.12749839752928155,1.0914282384476424,-0.1709690577472173,1413.1868131868132,-1.0,68.11293954616318,3.873150020113473,
2023-08-09 18:07:35.218000,-5.144578313253012,0.14457831325301207,-8.518072289156628,0.26486817903126914,-4.7363580625383195,-8.235438381361128,2.0,3.8747252747252747,258.0828133862734,-0.11584406503117535,0.6112697395256692,0.058621292465474,1457.142857142857,919.189453125,65.27490039840637,3.8732174547269307,
2023-08-09 18:07:35.225000,-5.156626506024097,0.14457831325301207,-8.493975903614459,0.24034334763948498,-4.797670141017781,-8.272225628448805,2.0,3.876190476190477,257.98525798525793,0.23530097313676357,1.2302313385000876,0.19532661266825943,1505.4945054945053,-1.0,65.27490039840637,3.8732845188328846,
2023-08-09 18:07:35.233000,-5.168674698795181,0.1566265060240964,-8.506024096385543,0.20846106683016552,-4.768240343347639,-8.345800122624157,2.0,3.8747252747252747,258.0828133862734,0.08262921741157274,0.9608997144688538,0.14649495950119434,1556.7765567765566,-1.0,65.27490039840637,3.8733511664039475,
2023-08-09 18:07:35.241000,-5.132530120481928,0.1566265060240964,-8.530120481927712,0.2158185162477008,-4.822194972409564,-8.29429797670141,2.0,3.8747252747252747,258.0828133862734,0.1287803741040725,0.5695472291824483,0.37422061651418925,1608.058608058608,-1.0,65.27490039840637,3.873417352635624,
2023-08-09 18:07:35.248000,-5.132530120481928,0.1566265060240964,-8.518072289156628,0.2575107296137339,-4.805027590435316,-8.313917841814837,2.0,3.876190476190477,257.98525798525793,0.14509643960142257,0.6851582075636619,0.37188975001456775,1660.07326007326,-1.0,65.27490039840637,3.8734830330002974,
2023-08-09 18:07:35.256000,-5.132530120481928,0.13253012048192772,-8.542168674698795,0.2158185162477008,-4.863887185775598,-8.299202942979766,2.0,3.8747252747252747,258.0828133862734,0.14486335295145916,0.6779325214148362,0.3692092535400033,1709.8901098901097,-1.0,65.27490039840637,3.873548164756444,
2023-08-09 18:07:35.264000,-5.132530120481928,0.13253012048192772,-8.55421686746988,0.18638871857755976,-4.805027590435316,-8.30901287553648,2.0,3.876190476190477,257.98525798525793,-0.05430918944117393,0.2872792960783173,0.21432317464017264,1757.5091575091574,-1.0,65.27490039840637,3.873612706979556,
2023-08-09 18:07:35.271000,-5.1084337349397595,0.14457831325301207,-8.518072289156628,0.20110361741263028,-4.697118332311465,-8.27958307786634,2.0,3.8747252747252747,258.0828133862734,0.1290134607540359,0.19183031291882827,0.5014859273935087,1798.5347985347985,-1.0,65.27490039840637,3.873676620065331,
2023-08-09 18:07:35.279000,-5.0843373493975905,0.14457831325301207,-8.530120481927712,0.18884120171673818,-4.785407725321888,-8.274678111587983,2.0,3.876190476190477,257.98525798525793,0.06573043528931848,0.34275391876930306,0.20814637841617617,1833.6996336996335,-1.0,65.27490039840637,3.8737398657922726,
2023-08-09 18:07:35.287000,-5.096385542168675,0.14457831325301207,-8.493975903614459,0.2207234825260576,-4.768240343347639,-8.220723482526058,2.0,3.8747252747252747,258.0828133862734,-0.012353592447992964,0.035196084144280305,0.45253773090146276,1859.3406593406592,-1.0,65.27490039840637,3.8738024073120463,
2023-08-09 18:07:35.294000,-5.096385542168675,0.18072289156626506,-8.493975903614459,0.2795830778663397,-4.770692826486818,-8.264868179031268,2.0,3.8747252747252747,258.0828133862734,-0.22656022376318347,0.08099761086183756,0.0372938639939397,1879.8534798534797,-1.0,65.27490039840637,3.8738642092067614,
2023-08-09 18:07:35.302000,-5.0843373493975905,0.16867469879518074,-8.506024096385543,0.26486817903126914,-4.758430410790925,-8.257510729613733,2.0,3.8747252747252747,258.0828133862734,-0.0745877279878794,0.3842433424625607,0.3101217877746051,1891.5750915750914,-1.0,65.27490039840637,3.873925236981545,
2023-08-09 18:07:35.310000,-5.096385542168675,0.14457831325301207,-8.506024096385543,0.20846106683016552,-4.7657878602084605,-8.240343347639485,2.0,3.8747252747252747,258.0828133862734,-0.24136122603577922,0.27177903385583657,0.04859856651710253,1893.040293040293,-1.0,65.27490039840637,3.873985457537378,
2023-08-09 18:07:35.317000,-5.120481927710844,0.1566265060240964,-8.518072289156628,0.18638871857755976,-4.753525444512569,-8.242795830778663,2.0,3.8747252747252747,258.0828133862734,-0.2234135539886957,0.28692966610337306,-0.291008682477711,1885.7142857142856,-1.0,65.27490039840637,3.874044839641324,
2023-08-09 18:07:35.325000,-5.120481927710844,0.1566265060240964,-8.506024096385543,0.25015328019619865,-4.760882893930104,-8.282035561005518,2.0,3.877655677655678,257.88777630833175,-0.00827457607365501,0.4246838762309891,-0.04428646349280334,1871.7948717948716,-1.0,65.27490039840637,3.874103353869103,
2023-08-09 18:07:35.333000,-5.1084337349397595,0.18072289156626506,-8.493975903614459,0.26241569589209074,-4.78295524218271,-8.328632740649908,2.0,3.8732600732600724,258.1804425950445,-0.006409882873958155,0.4231688130062347,-0.043470660217936184,1846.153846153846,-1.0,65.27490039840637,3.8741609726516275,
2023-08-09 18:07:35.340000,-5.120481927710844,0.18072289156626506,-8.46987951807229,0.2820355610055181,-4.758430410790925,-8.179031269160024,2.0,3.871794871794871,258.2781456953643,0.19264611619369584,0.5894761377542095,-0.31991142707301445,1820.5128205128203,-1.0,65.27490039840637,3.874217669933178,
2023-08-09 18:07:35.348000,-5.096385542168675,0.1927710843373494,-8.493975903614459,0.22808093194359289,-4.7290006131207845,-8.274678111587983,2.0,3.8732600732600724,258.1804425950445,-0.11129887535691405,0.4354058621292468,-0.33354699609579874,1791.2087912087911,-1.0,65.27490039840637,3.8742734199173987,
2023-08-09 18:07:35.355000,-5.096385542168675,0.18072289156626506,-8.506024096385543,0.23789086450030655,-4.731453096259963,-8.274678111587983,2.0,3.8747252747252747,258.0828133862734,-0.15500262222481276,0.20383427539187698,0.14206631315191431,1761.172161172161,-1.0,65.27490039840637,3.8743281974220776,
2023-08-09 18:07:35.363000,-5.0843373493975905,0.18072289156626506,-8.518072289156628,0.2893930104230533,-4.733905579399141,-8.250153280196198,2.0,3.8747252747252747,258.0828133862734,-0.09265194335994377,-0.011770875823087047,-0.0553580793660045,1730.4029304029302,-1.0,65.27490039840637,3.874381978963535,
2023-08-09 18:07:35.371000,-5.096385542168675,0.18072289156626506,-8.530120481927712,0.2893930104230533,-4.812385039852851,-8.272225628448805,2.0,3.8747252747252747,258.0828133862734,0.028786201270322147,0.17015325447234927,0.08344502068644033,1699.6336996336995,-1.0,65.27490039840637,3.874434742854964,
2023-08-09 18:07:35.378000,-5.120481927710844,0.18072289156626506,-8.506024096385543,0.2722256284488044,-4.775597792765175,-8.277130594727161,2.0,3.8747252747252747,258.0828133862734,-0.24567332906007885,-0.07423809801293689,0.08111415418681882,1668.8644688644688,-1.0,65.27490039840637,3.8744864687425467,
2023-08-09 18:07:35.386000,-5.1084337349397595,0.16867469879518074,-8.518072289156628,0.2158185162477008,-4.741263028816677,-8.240343347639485,2.0,3.8747252747252747,258.0828133862734,-0.22935726356272876,0.1529048423751525,-0.17831128722102432,1638.095238095238,-1.0,65.27490039840637,3.874537137597341,
2023-08-09 18:07:35.394000,-5.144578313253012,0.1566265060240964,-8.493975903614459,0.24770079705702022,-4.731453096259963,-8.313917841814837,2.0,3.8747252747252747,258.0828133862734,-0.1361226035778808,0.05768894586562513,-0.23844764291125223,1606.5934065934066,-1.0,65.27490039840637,3.874586731705204,
2023-08-09 18:07:35.401000,-5.132530120481928,0.1566265060240964,-8.518072289156628,0.21336603310852237,-4.780502759043531,-8.257510729613733,2.0,3.8732600732600724,258.1804425950445,-0.1637433715983911,-0.403589534409416,-0.29776819532661253,1577.2893772893772,-1.0,65.27490039840637,3.8746352351128053,
2023-08-09 18:07:35.409000,-5.120481927710844,0.1566265060240964,-8.493975903614459,0.1912936848559166,-4.785407725321888,-8.252605763335376,2.0,3.8747252747252747,258.0828133862734,0.05046325971679939,-0.5893595944292286,-0.022725948371306936,1549.4505494505493,-1.0,65.27490039840637,3.8746826325963517,
2023-08-09 18:07:35.417000,-5.1084337349397595,0.14457831325301207,-8.46987951807229,0.2158185162477008,-4.773145309625996,-8.250153280196198,2.0,3.8732600732600724,258.1804425950445,-0.19590932929316449,-0.4351727754792852,-0.5260765689645125,1524.5421245421244,-1.0,65.27490039840637,3.874728910103868,
2023-08-09 18:07:35.424000,-5.120481927710844,0.14457831325301207,-8.493975903614459,0.21091354996934394,-4.755977927651747,-8.245248313917841,2.0,3.8747252747252747,258.0828133862734,0.15651768544956537,-0.10127614940854301,-0.5677990793077327,1500.3663003663003,-1.0,65.27490039840637,3.874774054737652,
2023-08-09 18:07:35.432000,-5.132530120481928,0.1566265060240964,-8.506024096385543,0.27467811158798283,-4.775597792765175,-8.259963212752911,2.0,3.8747252747252747,258.0828133862734,0.17085251442223603,-0.0874074937357957,-0.12143814463026635,1479.8534798534797,-1.0,65.27490039840637,3.874818054277117,
2023-08-09 18:07:35.440000,-5.132530120481928,0.14457831325301207,-8.518072289156628,0.2207234825260576,-4.824647455548742,-8.291845493562231,2.0,3.8732600732600724,258.1804425950445,0.06293339548977318,-0.08892255696055006,-0.3196783404230523,1462.2710622710622,-1.0,65.27490039840637,3.874860898633542,
2023-08-09 18:07:35.447000,-5.132530120481928,0.14457831325301207,-8.506024096385543,0.19619865113427343,-4.836909871244635,-8.264868179031268,2.0,3.8732600732600724,258.1804425950445,0.04720004661733076,0.013752112347764738,0.01643260882232962,1449.8168498168498,-1.0,65.27490039840637,3.8749025788106173,
2023-08-09 18:07:35.455000,-5.156626506024097,0.16867469879518074,-8.493975903614459,0.24279583077866337,-4.871244635193133,-8.277130594727161,2.0,3.8732600732600724,258.1804425950445,0.13880310005244526,0.2682827341064045,-0.1685216479226154,1437.3626373626373,-1.0,65.27490039840637,3.8749430858637215,
2023-08-09 18:07:35.463000,-5.168674698795181,0.16867469879518074,-8.481927710843374,0.299202942979767,-4.792765174739423,-8.284488044144696,2.0,3.8732600732600724,258.1804425950445,0.44449624147776945,0.41582658353242813,0.0441699201678225,1425.6410256410256,-1.0,65.27490039840637,3.8749824118582614,
2023-08-09 18:07:35.470000,-5.156626506024097,0.1566265060240964,-8.493975903614459,0.20110361741263028,-4.819742489270386,-8.26241569589209,2.0,3.8732600732600724,258.1804425950445,0.6394732241710854,0.22621059378824096,-0.1256337043295847,1416.8498168498168,-1.0,65.27490039840637,3.8750205502646056,
2023-08-09 18:07:35.478000,-5.120481927710844,0.18072289156626506,-8.457831325301205,0.269773145309626,-4.819742489270386,-8.259963212752911,2.0,3.8732600732600724,258.1804425950445,0.4841209719713302,-0.4023075578346251,-0.05034671639181855,1412.4542124542124,-1.0,65.27490039840637,3.875057495438492,
2023-08-09 18:07:35.486000,-5.096385542168675,0.20481927710843376,-8.481927710843374,0.2869405272838749,-4.84426732066217,-8.321275291232372,2.0,3.87032967032967,258.3759227711528,0.06794475846395957,-0.047316589942311596,0.0849600839111938,1407.3260073260071,-1.0,65.27490039840637,3.87509324213505,
2023-08-09 18:07:35.493000,-5.120481927710844,0.18072289156626506,-8.542168674698795,0.23789086450030655,-4.819742489270386,-8.264868179031268,2.0,3.871794871794871,258.2781456953643,-0.07190723151331495,0.014101742322708983,-0.02494027154594717,1405.128205128205,-1.0,65.27490039840637,3.875127785477356,
2023-08-09 18:07:35.501000,-5.144578313253012,0.14457831325301207,-8.542168674698795,0.19374616799509503,-4.84426732066217,-8.272225628448805,2.0,3.871794871794871,258.2781456953643,0.08158032748674347,0.13740458015267176,-0.025289901520890546,1405.8608058608058,-1.0,65.27490039840637,3.875161121628673,
2023-08-09 18:07:35.509000,-5.132530120481928,0.14457831325301207,-8.530120481927712,0.19374616799509503,-4.773145309625996,-8.277130594727161,2.0,3.871794871794871,258.2781456953643,0.12749839752928155,0.2887943593030716,0.15593496882466076,1406.5934065934066,-1.0,65.27490039840637,3.875193247300424,
2023-08-09 18:07:35.516000,-5.144578313253012,0.16867469879518074,-8.518072289156628,0.15695892090741875,-4.797670141017781,-8.274678111587983,2.0,3.871794871794871,258.2781456953643,0.2342520832119343,0.08659169046092811,0.13868655672746355,1407.3260073260071,-1.0,65.27490039840637,3.8752241593280714,
2023-08-09 18:07:35.524000,-5.132530120481928,0.1566265060240964,-8.542168674698795,0.22562844880441446,-4.805027590435316,-8.264868179031268,2.0,3.871794871794871,258.2781456953643,0.07994872093700829,-0.3391410756948902,0.24497406911019165,1405.8608058608058,-1.0,65.27490039840637,3.8752538551245426,
2023-08-09 18:07:35.532000,-5.096385542168675,0.1566265060240964,-8.530120481927712,0.3139178418148375,-4.805027590435316,-8.210913549969343,2.0,3.871794871794871,258.2781456953643,0.10873492220733044,-0.6904026571878099,0.09113688013519029,1402.197802197802,-1.0,65.27490039840637,3.875282332640371,
2023-08-09 18:07:35.539000,-5.096385542168675,0.1566265060240964,-8.481927710843374,0.22562844880441446,-4.719190680564071,-8.259963212752911,2.0,3.871794871794871,258.2781456953643,0.1086183788823496,-0.6853912942136235,0.09043762018530396,1399.2673992673992,-1.0,65.27490039840637,3.875309590323521,
2023-08-09 18:07:35.547000,-5.072289156626506,0.1566265060240964,-8.518072289156628,0.16676885346413242,-4.802575107296137,-8.259963212752911,2.0,3.871794871794871,258.2781456953643,-0.24147776936076004,-0.5883107045043994,0.3342462560456851,1396.3369963369962,-1.0,65.27490039840637,3.8753356266212133,
2023-08-09 18:07:35.555000,-5.0843373493975905,0.14457831325301207,-8.481927710843374,0.16922133660331085,-4.743715511955855,-8.255058246474555,2.0,3.871794871794871,258.2781456953643,-0.22527824718839254,0.04615115669249976,0.041839053668201,1390.4761904761904,-1.0,65.27490039840637,3.875360440464905,
2023-08-09 18:07:35.562000,-5.120481927710844,0.13253012048192772,-8.542168674698795,0.22317596566523604,-4.741263028816677,-8.228080931943593,2.0,3.871794871794871,258.2781456953643,0.1576831186993772,-0.012353592447992964,-0.17260066429695248,1380.952380952381,-1.0,65.27490039840637,3.875384031651659,
2023-08-09 18:07:35.570000,-5.120481927710844,0.16867469879518074,-8.518072289156628,0.2207234825260576,-4.809932556713672,-8.210913549969343,2.0,3.871794871794871,258.2781456953643,0.37049123011479596,0.006526426198938992,0.18122487034555088,1369.230769230769,-1.0,65.27490039840637,3.875406399855126,
2023-08-09 18:07:35.578000,-5.096385542168675,0.13253012048192772,-8.493975903614459,0.23543838136112813,-4.822194972409564,-8.23298589822195,2.0,3.871794871794871,258.2781456953643,0.5518326437853264,-0.35860381096672633,-0.3067420313501543,1356.0439560439559,-1.0,65.27490039840637,3.875427545113079,
2023-08-09 18:07:35.585000,-5.096385542168675,0.1566265060240964,-8.518072289156628,0.2550582464745555,-4.719190680564071,-8.250153280196198,2.0,3.871794871794871,258.2781456953643,0.24509061243517294,-0.12260357788007775,-0.22819183031291865,1346.5201465201465,-1.0,65.27490039840637,3.8754474682120508,
2023-08-09 18:07:35.593000,-5.1084337349397595,0.14457831325301207,-8.518072289156628,0.2550582464745555,-4.778050275904353,-8.257510729613733,2.0,3.87032967032967,258.3759227711528,0.4144280636326546,-0.025756074820815194,-0.07283957811316338,1337.7289377289376,-1.0,65.27490039840637,3.8754661697022867,
2023-08-09 18:07:35.601000,-5.120481927710844,0.1566265060240964,-8.518072289156628,0.26486817903126914,-4.822194972409564,-8.282035561005518,2.0,3.87032967032967,258.3759227711528,0.30476079482547574,-0.12889691742905507,-0.05360992949128848,1330.4029304029302,-1.0,65.27490039840637,3.8754836498972507,
2023-08-09 18:07:35.608000,-5.132530120481928,0.14457831325301207,-8.518072289156628,0.2452483139178418,-4.785407725321888,-8.255058246474555,2.0,3.87032967032967,258.3759227711528,0.15208903910028493,0.13169395722860036,-0.11106578870695194,1326.7399267399267,-1.0,65.27490039840637,3.8754999091913676,
2023-08-09 18:07:35.616000,-5.168674698795181,0.1566265060240964,-8.518072289156628,0.30656039239730226,-4.839362354383813,-8.230533415082771,2.0,3.87032967032967,258.3759227711528,0.01538371889749992,0.2981178253015559,-0.1555853388497174,1323.076923076923,-1.0,65.27490039840637,3.875514947533189,
2023-08-09 18:07:35.624000,-5.156626506024097,0.1566265060240964,-8.518072289156628,0.21336603310852237,-4.898221949724095,-8.274678111587983,2.0,3.87032967032967,258.3759227711528,0.09323465998484969,-0.1165433249810621,-0.20022143231746412,1319.4139194139193,-1.0,65.27490039840637,3.875528764917899,
2023-08-09 18:07:35.631000,-5.168674698795181,0.1566265060240964,-8.542168674698795,0.23543838136112813,-4.763335377069282,-8.27958307786634,2.0,3.87032967032967,258.3759227711528,-0.12062234135539832,-0.03671114736903465,-0.13507371365305068,1318.6813186813185,-1.0,65.27490039840637,3.87554136177752,
2023-08-09 18:07:35.639000,-5.120481927710844,0.16867469879518074,-8.506024096385543,0.20846106683016552,-4.863887185775598,-8.154506437768239,2.0,3.8673992673992674,258.5716991854518,0.17225103432200956,-0.4484587145271248,-0.27271138045568455,1318.6813186813185,-1.0,65.27490039840637,3.875552738002038,
2023-08-09 18:07:35.647000,-5.156626506024097,0.1566265060240964,-8.493975903614459,0.2329858982219497,-4.8295524218271,-8.24770079705702,2.0,3.8673992673992674,258.5716991854518,0.050579803041780225,-0.5050987704679207,0.0032632130994699297,1317.9487179487178,-1.0,65.27490039840637,3.875562892452947,
2023-08-09 18:07:35.654000,-5.156626506024097,0.1566265060240964,-8.518072289156628,0.23053341508277128,-4.824647455548742,-8.196198651134273,2.0,3.8673992673992674,258.5716991854518,-0.22551133383835423,-0.4831886253714818,-0.08973836023541765,1315.018315018315,-1.0,65.27490039840637,3.8755718232160334,
2023-08-09 18:07:35.662000,-5.156626506024097,0.1566265060240964,-8.481927710843374,0.2673206621704476,-4.743715511955855,-8.237890864500306,2.0,3.868864468864468,258.47377390645715,-0.038808927218693175,-0.20628168521647974,-0.24194394266068425,1312.8205128205127,-1.0,65.27490039840637,3.875579527992447,
2023-08-09 18:07:35.670000,-5.132530120481928,0.14457831325301207,-8.481927710843374,0.22317596566523604,-4.819742489270386,-8.183936235438381,2.0,3.868864468864468,258.47377390645715,0.0825126740865919,0.005477536274109728,0.12633296427947102,1311.3553113553112,-1.0,65.27490039840637,3.8755860041028583,
2023-08-09 18:07:35.677000,-5.156626506024097,0.14457831325301207,-8.493975903614459,0.2452483139178418,-4.768240343347639,-8.228080931943593,2.0,3.868864468864468,258.47377390645715,-0.17609696404638409,-0.026455334770700212,-0.041839053668201,1308.4249084249084,-1.0,65.27490039840637,3.875591248597852,
2023-08-09 18:07:35.685000,-5.132530120481928,0.14457831325301207,-8.493975903614459,0.24770079705702022,-4.780502759043531,-8.26241569589209,2.0,3.868864468864468,258.47377390645715,0.03752695064390224,0.2759745935551536,0.04824893654215959,1304.7619047619046,-1.0,65.27490039840637,3.8755952582667197,
2023-08-09 18:07:35.693000,-5.132530120481928,0.14457831325301207,-8.493975903614459,0.24770079705702022,-4.809932556713672,-8.206008583690986,2.0,3.868864468864468,258.47377390645715,0.07983217761202745,0.3028961016257789,0.2316881300623507,1301.8315018315018,-1.0,65.27490039840637,3.8755980296146904,
2023-08-09 18:07:35.700000,-5.096385542168675,0.12048192771084337,-8.518072289156628,0.23789086450030655,-4.7290006131207845,-8.284488044144696,2.0,3.8673992673992674,258.5716991854518,0.307557834625021,0.5136064331915391,0.4592972437503643,1299.6336996336995,-1.0,65.27490039840637,3.8755995588436103,
2023-08-09 18:07:35.708000,-5.120481927710844,0.14457831325301207,-8.493975903614459,0.19619865113427343,-4.743715511955855,-8.215818516247701,2.0,3.8673992673992674,258.5716991854518,0.2548802517335823,0.7832876871977154,0.08950527358545554,1296.7032967032967,-1.0,65.27490039840637,3.8755998413435027,
2023-08-09 18:07:35.716000,-5.132530120481928,0.1566265060240964,-8.530120481927712,0.2918454935622317,-4.785407725321888,-8.29429797670141,2.0,3.868864468864468,258.47377390645715,0.4468271079773914,0.9592681079191187,0.36373171726589354,1293.040293040293,-1.0,65.27490039840637,3.875598871608363,
2023-08-09 18:07:35.723000,-5.120481927710844,0.1566265060240964,-8.530120481927712,0.22808093194359289,-4.800122624156959,-8.277130594727161,2.0,3.8673992673992674,258.5716991854518,0.3493968882932229,0.753452596002564,0.00769185944874996,1289.3772893772893,-1.0,65.27490039840637,3.875596644172969,
2023-08-09 18:07:35.731000,-5.120481927710844,0.1566265060240964,-8.506024096385543,0.19619865113427343,-4.7657878602084605,-8.358062538320048,2.0,3.8673992673992674,258.5716991854518,0.2997494318512911,0.824777110890973,0.2814521298292642,1285.7142857142856,-1.0,65.27490039840637,3.8755931531820442,
2023-08-09 18:07:35.738000,-5.168674698795181,0.1566265060240964,-8.542168674698795,0.2207234825260576,-4.809932556713672,-8.291845493562231,2.0,3.8673992673992674,258.5716991854518,0.2365829497115545,0.7276965211817488,-0.23984616281102486,1282.051282051282,-1.0,65.27490039840637,3.875588391858892,
2023-08-09 18:07:35.746000,-5.132530120481928,0.1566265060240964,-8.506024096385543,0.21091354996934394,-4.849172286940527,-8.284488044144696,2.0,3.865934065934066,258.6696986924389,0.2342520832119343,0.7366703572052905,0.09696404638424339,1279.120879120879,-1.0,65.27490039840637,3.8755823529606133,
2023-08-09 18:07:35.754000,-5.132530120481928,0.13253012048192772,-8.493975903614459,0.20600858369098712,-4.805027590435316,-8.343347639484978,2.0,3.8673992673992674,258.5716991854518,0.5055649437678458,0.35032923489307133,0.07924946098712198,1276.1904761904761,-1.0,65.27490039840637,3.8755750282864736,
2023-08-09 18:07:35.761000,-5.120481927710844,0.13253012048192772,-8.506024096385543,0.2599632127529123,-4.797670141017781,-8.245248313917841,2.0,3.865934065934066,258.6696986924389,0.10372355923314405,0.4546355107511213,-0.07493735796282278,1275.4578754578754,-1.0,65.27490039840637,3.875566409103162,
2023-08-09 18:07:35.769000,-5.120481927710844,0.14457831325301207,-8.493975903614459,0.23543838136112813,-4.805027590435316,-8.291845493562231,2.0,3.865934065934066,258.6696986924389,0.2850649729036762,0.3265543965969356,0.1682885612726533,1272.5274725274724,-1.0,65.27490039840637,3.875556486185247,
2023-08-09 18:07:35.777000,-5.096385542168675,0.16867469879518074,-8.506024096385543,0.2329858982219497,-4.817290006131207,-8.264868179031268,2.0,3.865934065934066,258.6696986924389,0.1287803741040725,0.39683002156051533,0.12132160130528508,1268.131868131868,-1.0,65.27490039840637,3.8755452492969944,
2023-08-09 18:07:35.784000,-5.1084337349397595,0.16867469879518074,-8.518072289156628,0.18148375229920294,-4.75107296137339,-8.257510729613733,2.0,3.865934065934066,258.6696986924389,0.033914107569489364,0.4991550608938876,0.13216013052852413,1264.4688644688645,-1.0,65.27490039840637,3.8755326872026514,
2023-08-09 18:07:35.792000,-5.120481927710844,0.13253012048192772,-8.481927710843374,0.21091354996934394,-4.770692826486818,-8.235438381361128,2.0,3.864468864468864,258.76777251184836,0.19928908571761567,0.0643319153895467,-0.17469844414661145,1261.5384615384614,-1.0,65.27490039840637,3.8755187877473563,
2023-08-09 18:07:35.800000,-5.120481927710844,0.1566265060240964,-8.518072289156628,0.22808093194359289,-4.792765174739423,-8.27958307786634,2.0,3.8630036630036626,258.8659207282382,0.07412155468795606,0.6856243808635852,0.056640055940795866,1260.8058608058607,-1.0,65.27490039840637,3.875503538327798,
2023-08-09 18:07:35.807000,-5.144578313253012,0.14457831325301207,-8.506024096385543,0.25015328019619865,-4.778050275904353,-8.250153280196198,2.0,3.864468864468864,258.76777251184836,0.19264611619369584,0.37270555328943533,0.07062525493852358,1261.5384615384614,-1.0,65.27490039840637,3.8754869252770017,
2023-08-09 18:07:35.815000,-5.144578313253012,0.1566265060240964,-8.518072289156628,0.18393623543838136,-4.758430410790925,-8.335990190067443,2.0,3.864468864468864,258.76777251184836,0.18914981644426382,0.3675776469902681,0.07004253831361809,1263.003663003663,-1.0,65.27490039840637,3.8754689342697666,
2023-08-09 18:07:35.823000,-5.096385542168675,0.14457831325301207,-8.518072289156628,0.18393623543838136,-4.805027590435316,-8.267320662170446,2.0,3.864468864468864,258.76777251184836,-0.0564069692908342,0.5009032107686037,0.35883689761668885,1263.7362637362637,-1.0,65.27490039840637,3.8754495504119424,
2023-08-09 18:07:35.830000,-5.120481927710844,0.14457831325301207,-8.530120481927712,0.19865113427345185,-4.743715511955855,-8.264868179031268,2.0,3.864468864468864,258.76777251184836,0.0791329176621407,0.4489248878270499,0.28005360992949113,1264.4688644688645,-1.0,65.27490039840637,3.8754287578747455,
2023-08-09 18:07:35.838000,-5.1084337349397595,0.1566265060240964,-8.542168674698795,0.25015328019619865,-4.775597792765175,-8.306560392397301,2.0,3.8630036630036626,258.8659207282382,-0.07447118466289857,0.3986947147602122,0.1550026222248119,1267.3992673992673,-1.0,65.27490039840637,3.8754065404110527,
2023-08-09 18:07:35.846000,-5.120481927710844,0.1566265060240964,-8.530120481927712,0.2207234825260576,-4.746167995095034,-8.311465358675658,2.0,3.864468864468864,258.76777251184836,-0.15162286580036158,0.5630208029835092,0.07773439776236805,1271.7948717948716,-1.0,65.27490039840637,3.875382880889971,
2023-08-09 18:07:35.853000,-5.120481927710844,0.1566265060240964,-8.518072289156628,0.24034334763948498,-4.763335377069282,-8.284488044144696,2.0,3.8630036630036626,258.8659207282382,-0.2447409824602304,0.11456208845638441,0.24450789581026744,1274.7252747252746,-1.0,65.27490039840637,3.8753577617482184,
2023-08-09 18:07:35.861000,-5.1084337349397595,0.1566265060240964,-8.518072289156628,0.19374616799509503,-4.780502759043531,-8.21827099938688,2.0,3.8630036630036626,258.8659207282382,-0.13658877687780416,0.22108268748907375,0.33436279937066593,1275.4578754578754,-1.0,65.27490039840637,3.8753311650564894,
2023-08-09 18:07:35.869000,-5.0843373493975905,0.14457831325301207,-8.518072289156628,0.25015328019619865,-4.716738197424893,-8.259963212752911,2.0,3.8630036630036626,258.8659207282382,0.0012819765747909368,0.46209428354991045,0.16420954489831577,1272.5274725274724,-1.0,65.27490039840637,3.8753030720269925,
2023-08-09 18:07:35.876000,-5.096385542168675,0.1566265060240964,-8.506024096385543,0.19865113427345185,-4.800122624156959,-8.198651134273451,2.0,3.8630036630036626,258.8659207282382,0.06153487559000141,-0.10593788240778515,-0.14206631315191431,1267.3992673992673,-1.0,65.27490039840637,3.8752734635069843,
2023-08-09 18:07:35.884000,-5.0843373493975905,0.16867469879518074,-8.530120481927712,0.20600858369098712,-4.760882893930104,-8.23298589822195,2.0,3.8630036630036626,258.8659207282382,-0.16805547462269074,-0.23017306683759636,-0.1256337043295847,1261.5384615384614,-1.0,65.27490039840637,3.875242320017478,
2023-08-09 18:07:35.892000,-5.0843373493975905,0.13253012048192772,-8.530120481927712,0.2207234825260576,-4.768240343347639,-8.282035561005518,2.0,3.8630036630036626,258.8659207282382,0.04405337684284123,-0.017481498747158448,0.12120505798030425,1254.9450549450548,-1.0,65.27490039840637,3.8752096213370506,
2023-08-09 18:07:35.899000,-5.1084337349397595,0.13253012048192772,-8.493975903614459,0.1496014714898835,-4.760882893930104,-8.29429797670141,2.0,3.8630036630036626,258.8659207282382,-0.01678223879727343,0.04148942369325762,-0.049181283142008016,1248.3516483516482,-1.0,65.27490039840637,3.8751753470716586,
2023-08-09 18:07:35.907000,-5.0843373493975905,0.14457831325301207,-8.493975903614459,0.18884120171673818,-4.792765174739423,-8.24770079705702,2.0,3.8630036630036626,258.8659207282382,-0.12400209777984952,0.14486335295145916,-0.3223588368976168,1243.956043956044,-1.0,65.27490039840637,3.8751394766655265,
2023-08-09 18:07:35.915000,-5.072289156626506,0.14457831325301207,-8.493975903614459,0.18148375229920294,-4.770692826486818,-8.27958307786634,2.0,3.861538461538461,258.96414342629487,-0.07808402773731143,0.048831653167064205,0.07703513781248174,1243.956043956044,-1.0,65.27490039840637,3.8751019890269345,
2023-08-09 18:07:35.922000,-5.1084337349397595,0.14457831325301207,-8.506024096385543,0.21336603310852237,-4.719190680564071,-8.299202942979766,2.0,3.861538461538461,258.96414342629487,0.18145795699551298,0.4580152671755725,-0.36606258376551465,1246.153846153846,-1.0,65.27490039840637,3.875062862578013,
2023-08-09 18:07:35.930000,-5.120481927710844,0.16867469879518074,-8.518072289156628,0.21827099938687922,-4.790312691600245,-8.198651134273451,2.0,3.861538461538461,258.96414342629487,0.11794184488083388,0.5134898898665583,-0.210011071615873,1252.014652014652,-1.0,65.27490039840637,3.875022075235804,
2023-08-09 18:07:35.938000,-5.132530120481928,0.1566265060240964,-8.493975903614459,0.23543838136112813,-4.834457388105457,-8.230533415082771,2.0,3.861538461538461,258.96414342629487,0.11665986830604294,0.7514713594778862,-0.42083794650661366,1259.3406593406592,-1.0,65.27490039840637,3.874979604921214,
2023-08-09 18:07:35.945000,-5.120481927710844,0.1566265060240964,-8.518072289156628,0.23543838136112813,-4.787860208461066,-8.240343347639485,2.0,3.8600732600732592,259.0624406908332,0.038226210593788994,0.42480041955596987,-0.0654973486393568,1265.9340659340658,-1.0,65.27490039840637,3.874935429612802,
2023-08-09 18:07:35.953000,-5.120481927710844,0.18072289156626506,-8.493975903614459,0.2158185162477008,-4.8295524218271,-8.235438381361128,2.0,3.8586080586080582,259.16081260679704,0.23751529631140295,0.15908163859914898,-0.1722510343220091,1271.062271062271,-1.0,65.27490039840637,3.8748895273683597,
2023-08-09 18:07:35.961000,-5.132530120481928,0.18072289156626506,-8.506024096385543,0.22317596566523604,-4.775597792765175,-8.242795830778663,2.0,3.8600732600732592,259.0624406908332,0.037876580618844746,0.10803566225744368,-0.049530913116951396,1276.1904761904761,-1.0,65.27490039840637,3.874841875293886,
2023-08-09 18:07:35.968000,-5.120481927710844,0.14457831325301207,-8.518072289156628,0.2673206621704476,-4.773145309625996,-8.215818516247701,2.0,3.8600732600732592,259.0624406908332,0.003845929724374546,-0.07726822446244384,0.2114095915156461,1279.8534798534797,-1.0,65.27490039840637,3.874792450056599,
2023-08-09 18:07:35.976000,-5.1084337349397595,0.14457831325301207,-8.506024096385543,0.20110361741263028,-4.787860208461066,-8.26241569589209,2.0,3.8600732600732592,259.0624406908332,0.3243400734222945,-0.003845929724374546,-0.06561389196433763,1280.5860805860805,-1.0,65.27490039840637,3.874741228958983,
2023-08-09 18:07:35.984000,-5.120481927710844,0.18072289156626506,-8.46987951807229,0.22808093194359289,-4.743715511955855,-8.291845493562231,2.0,3.8600732600732592,259.0624406908332,0.24613950236000218,0.13064506730376935,0.28436571295379076,1279.120879120879,-1.0,65.27490039840637,3.8746881895388268,
2023-08-09 18:07:35.991000,-5.120481927710844,0.1566265060240964,-8.530120481927712,0.23543838136112813,-4.800122624156959,-8.27958307786634,2.0,3.8600732600732592,259.0624406908332,0.07691859448750134,0.40149175455975744,0.020977798496590917,1276.1904761904761,-1.0,65.27490039840637,3.874633309628717,
2023-08-09 18:07:35.999000,-5.096385542168675,0.16867469879518074,-8.542168674698795,0.2575107296137339,-4.731453096259963,-8.269773145309626,2.0,3.8600732600732592,259.0624406908332,0.014334828972670657,-0.20150340889225504,-0.16246139502360019,1272.5274725274724,-1.0,65.27490039840637,3.8745765674170474,
2023-08-09 18:07:36.007000,-5.096385542168675,0.14457831325301207,-8.542168674698795,0.19374616799509503,-4.746167995095034,-8.32618025751073,2.0,3.8586080586080582,259.16081260679704,-0.17178486102208446,-0.26385408775712405,0.2213157741390363,1268.131868131868,-1.0,65.27490039840637,3.874517941510452,
2023-08-09 18:07:36.014000,-5.096385542168675,0.12048192771084337,-8.542168674698795,0.21827099938687922,-4.733905579399141,-8.32372777437155,2.0,3.8586080586080582,259.16081260679704,0.1188741914806823,0.010372355923315273,0.09964454285880783,1263.003663003663,-1.0,65.27490039840637,3.874457410504921,
2023-08-09 18:07:36.022000,-5.120481927710844,0.10843373493975904,-8.530120481927712,0.18884120171673818,-4.817290006131207,-8.316370324954015,2.0,3.8586080586080582,259.16081260679704,-0.06479808868947004,0.08344502068644033,-0.00780840277373123,1257.142857142857,-1.0,65.27490039840637,3.8743949525207753,
2023-08-09 18:07:36.030000,-5.1084337349397595,0.13253012048192772,-8.530120481927712,0.25015328019619865,-4.753525444512569,-8.23298589822195,2.0,3.8586080586080582,259.16081260679704,0.22329701066371485,-0.0882232970106633,0.06794475846395914,1251.2820512820513,-1.0,65.27490039840637,3.8743305462463002,
2023-08-09 18:07:36.037000,-5.120481927710844,0.14457831325301207,-8.493975903614459,0.2869405272838749,-4.805027590435316,-8.242795830778663,2.0,3.8571428571428568,259.2592592592593,0.03764349396888308,-0.1843715401200391,0.12959617737894052,1247.6190476190475,-1.0,65.27490039840637,3.874264170962086,
