Shimmer_F5D4_Timestamp_FormattedUnix_CAL,Shimmer_F5D4_Accel_LN_X_CAL,Shimmer_F5D4_Accel_LN_Y_CAL,Shimmer_F5D4_Accel_LN_Z_CAL,Shimmer_F5D4_Accel_WR_X_CAL,Shimmer_F5D4_Accel_WR_Y_CAL,Shimmer_F5D4_Accel_WR_Z_CAL,Shimmer_F5D4_GSR_Range_CAL,Shimmer_F5D4_GSR_Skin_Conductance_CAL,Shimmer_F5D4_GSR_Skin_Resistance_CAL,Shimmer_F5D4_Gyro_X_CAL,Shimmer_F5D4_Gyro_Y_CAL,Shimmer_F5D4_Gyro_Z_CAL,Shimmer_F5D4_PPG_A13_CAL,Shimmer_F5D4_PPG_IBI_CAL,Shimmer_F5D4_PPGtoHR_CAL,Shimmer_F5D4_GSR_Skin_Conductance_LPF_CAL,Shimmer_F5D4_GSR_Skin_Resistance_LPF_CAL,
yyyy/mm/dd hh:mm:ss.000,m/(s^2),m/(s^2),m/(s^2),m/(s^2),m/(s^2),m/(s^2),no_units,uS,kOhms,deg/s,deg/s,deg/s,mV,ms,BPM,uS,kOhms,
2023-12-19 12:21:55.873000,-7.819277108433735,-5.698795180722892,-2.0,-5.738810545677498,-7.664622930717351,-1.5229920294297976,2.0,4.24981684981685,235.3042578865713,0.8311869937649329,1.0741798263504456,-0.4756133092477131,1410.2564102564102,-1.0,82.45250576640805,4.031821360253132,248.0989900506759,
2023-12-19 12:21:55.881000,-7.867469879518072,-5.674698795180723,-1.9156626506024097,-5.68976088289393,-7.74310239117106,-1.5303494788473329,2.0,4.251282051282051,235.22316043425815,1.4588893421129296,0.8133558650428302,-0.16327719829846735,1409.5238095238094,-1.0,82.45250576640805,4.034153114903261,247.95553706078815,
2023-12-19 12:21:55.889000,-7.879518072289157,-5.662650602409639,-1.927710843373494,-5.714285714285714,-7.738197424892704,-1.4592274678111588,2.0,4.252747252747253,235.1421188630491,1.3531845463551078,-0.059320552415360314,-0.4618611968999475,1410.989010989011,-1.0,82.45250576640805,4.036485320747631,247.81220854577134,
2023-12-19 12:21:55.896000,-7.867469879518072,-5.674698795180723,-1.9518072289156627,-5.704475781729,-7.711220110361741,-1.4641324340895157,2.0,4.255677655677656,234.98020313306938,1.0225511333838362,-0.9118349746518262,-0.28494842957869626,1412.4542124542124,-1.0,82.45250576640805,4.038817756625425,247.66901813555467,
2023-12-19 12:21:55.904000,-7.807228915662651,-5.686746987951808,-1.9397590361445785,-5.6995708154506435,-7.659717964438994,-1.5058246474555486,2.0,4.257142857142857,234.8993288590604,0.31548278072373354,-1.5006118524561507,-0.41652584348231403,1411.7216117216117,-1.0,82.45250576640805,4.041150204868503,247.52597919514338,
2023-12-19 12:21:55.912000,-7.771084337349398,-5.710843373493976,-1.9397590361445785,-5.763335377069282,-7.5738810545677495,-1.496014714898835,2.0,4.2586080586080595,234.81851023567864,0.23821455626129143,-1.658877687780432,-0.5309713886137172,1410.989010989011,-1.0,82.45250576640805,4.043482451903518,247.3831047859828,
2023-12-19 12:21:55.919000,-7.734939759036145,-5.710843373493976,-1.927710843373494,-5.7363580625383195,-7.549356223175965,-1.4788473329245861,2.0,4.26007326007326,234.737747205503,1.2177612027271139,-1.5859215663422879,0.04288794359303026,1410.2564102564102,-1.0,82.45250576640805,4.04581428740838,247.24040771888963,
2023-12-19 12:21:55.927000,-7.72289156626506,-5.686746987951808,-1.9156626506024097,-5.768240343347639,-7.54199877375843,-1.4248927038626609,2.0,4.2615384615384615,234.65703971119135,1.5059728454052779,-1.071615873200862,-0.11887419148068318,1407.3260073260071,-1.0,82.45250576640805,4.048145504411778,247.09790054870064,
2023-12-19 12:21:55.935000,-7.72289156626506,-5.650602409638554,-1.8915662650602412,-5.697118332311465,-7.576333537706928,-1.4347026364193745,2.0,4.263003663003663,234.57638769548032,2.0349629974943166,-0.897733232329119,0.251850125284074,1404.3956043956043,-1.0,82.45250576640805,4.050475899385115,246.95559556942985,
2023-12-19 12:21:55.942000,-7.783132530120482,-5.674698795180723,-1.8674698795180724,-5.665236051502146,-7.6033108522378905,-1.437155119558553,2.0,4.264468864468864,234.49579110118538,2.3614008507662714,-0.5571936367344552,0.2838995396538661,1402.197802197802,-1.0,82.45250576640805,4.052805272326675,246.81350480993765,
2023-12-19 12:21:55.950000,-7.807228915662651,-5.674698795180723,-1.8674698795180724,-5.714285714285714,-7.654812998160637,-1.4273451870018392,2.0,4.265934065934066,234.41524987120042,1.6119107278130647,-0.44589476137754297,0.8012353592447994,1400.0,-1.0,82.45250576640805,4.055133426837913,246.6716400301148,
2023-12-19 12:21:55.957000,-7.819277108433735,-5.698795180722892,-1.8795180722891567,-5.714285714285714,-7.645003065603923,-1.466584917228694,2.0,4.267399267399267,234.33476394849785,1.5349921333255634,-0.762193345376144,0.643901870520366,1397.8021978021977,-1.0,82.45250576640805,4.0574601701917965,246.53001271758185,
2023-12-19 12:21:55.965000,-7.83132530120482,-5.72289156626506,-1.8554216867469882,-5.778050275904353,-7.721030042918454,-1.4028203556100551,2.0,4.268864468864469,234.25433327612836,1.152263854087757,-0.6028786201270316,0.7011246430860668,1394.139194139194,-1.0,82.45250576640805,4.059785313393063,246.38863408490647,
2023-12-19 12:21:55.973000,-7.867469879518072,-5.734939759036145,-1.8674698795180724,-5.763335377069282,-7.6695278969957075,-1.4150827713059473,2.0,4.271794871794872,234.093637454982,2.205116251966668,-0.36582949711555207,0.4220033797564246,1391.9413919413919,-1.0,82.45250576640805,4.062108671230238,246.24751506734154,
2023-12-19 12:21:55.980000,-7.891566265060241,-5.710843373493976,-1.8433734939759037,-5.726548129981606,-7.674432863274064,-1.366033108522379,2.0,4.271794871794872,234.093637454982,2.5522988170852514,-0.055008449391060685,0.6654623856418623,1391.9413919413919,-1.0,82.45250576640805,4.064430063270014,246.1066662631917,
2023-12-19 12:21:55.988000,-7.879518072289157,-5.662650602409639,-1.8313253012048194,-5.660331085223789,-7.706315144083384,-1.3513182096873084,2.0,4.273260073260073,234.01337219269672,2.7568323524270166,-0.3111706776994339,0.7412155468795527,1394.139194139194,-1.0,82.45250576640805,4.066749313404965,245.96609796020027,
2023-12-19 12:21:55.996000,-7.867469879518072,-5.63855421686747,-1.8192771084337351,-5.682403433476394,-7.694052728387492,-1.3586756591048437,2.0,4.274725274725275,233.9331619537275,2.1236524678049054,-0.1715517743721228,0.2955538721519723,1398.5347985347985,-1.0,82.45250576640805,4.069066248867756,245.82582019655453,
2023-12-19 12:21:56.003000,-7.795180722891566,-5.590361445783133,-1.8313253012048194,-5.613733905579399,-7.578786020846106,-1.4224402207234825,2.0,4.274725274725275,233.9331619537275,1.3264961249344425,0.07214031816327662,-0.11782530155585347,1403.6630036630036,-1.0,82.45250576640805,4.071380700254031,245.68584276612995,
2023-12-19 12:21:56.011000,-7.734939759036145,-5.590361445783133,-1.8433734939759037,-5.655426118945432,-7.5567136725935,-1.4469650521152666,2.0,4.276190476190476,233.85300668151447,0.6545073130936446,0.09649787308431831,-0.11293048190664837,1407.3260073260071,-1.0,82.45250576640805,4.07369250202649,245.5461751793832,
2023-12-19 12:21:56.019000,-7.72289156626506,-5.602409638554217,-1.9156626506024097,-5.618638871857756,-7.49540159411404,-1.4003678724708768,2.0,4.277655677655678,233.77290631957527,0.0102558125983327,1.0664879669016964,-0.37119049006468186,1412.4542124542124,-1.0,82.45250576640805,4.0760014923433285,245.4068266749334,
2023-12-19 12:21:56.026000,-7.734939759036145,-5.614457831325302,-1.9156626506024097,-5.655426118945432,-7.5567136725935,-1.4837522992029428,2.0,4.279120879120879,233.6928608115049,-0.18903327311928123,1.7403414719421946,-0.2151389779150398,1416.8498168498168,-1.0,82.45250576640805,4.0783075125928985,245.26780625744914,
2023-12-19 12:21:56.034000,-7.746987951807229,-5.650602409638554,-1.9759036144578315,-5.6922133660331085,-7.5665236051502145,-1.5573267933782955,2.0,4.282051282051282,233.53293413173654,-0.20441699201678115,1.7219276265951862,-0.21199230814055114,1422.7106227106226,-1.0,82.45250576640805,4.080610407866646,245.12912266658165,
2023-12-19 12:21:56.042000,-7.771084337349398,-5.650602409638554,-1.9879518072289157,-5.6848559166155725,-7.654812998160637,-1.5622317596566522,2.0,4.282051282051282,233.53293413173654,0.11875764815570147,1.7503641978905657,0.020045451896742925,1426.3736263736262,-1.0,82.45250576640805,4.082910027422482,244.99078435274703,
2023-12-19 12:21:56.049000,-7.807228915662651,-5.602409638554217,-2.0,-5.6480686695278965,-7.708767627222563,-1.513182096873084,2.0,4.283516483516483,233.45305284761417,0.1987063690927115,2.1334421071033165,-0.19171376959384656,1428.5714285714284,-1.0,82.45250576640805,4.085206223767725,244.85279953395727,
2023-12-19 12:21:56.057000,-7.855421686746988,-5.63855421686747,-1.9518072289156627,-5.687308399754752,-7.667075413856529,-1.5916615573267934,2.0,4.286446886446886,233.29345411040848,-0.13134432725365783,1.9480216770584462,-0.8590408484354057,1426.3736263736262,-1.0,82.45250576640805,4.08749885215394,244.71517622367486,
2023-12-19 12:21:56.065000,-7.891566265060241,-5.63855421686747,-1.963855421686747,-5.746167995095034,-7.770079705702023,-1.4347026364193745,2.0,4.286446886446886,233.29345411040848,-0.3693257968649841,1.5172775479284415,-0.6809626478643436,1421.245421245421,-1.0,82.45250576640805,4.089787771959541,244.57792215054428,
2023-12-19 12:21:56.072000,-7.879518072289157,-5.650602409638554,-1.9036144578313254,-5.694665849172287,-7.794604537093807,-1.461679950950337,2.0,4.287912087912088,233.21373654536137,-0.8639356680846086,0.9527416817201797,-0.8095099353184544,1417.5824175824175,-1.0,82.45250576640805,4.092072846200635,244.44104478631778,
2023-12-19 12:21:56.080000,-7.855421686746988,-5.626506024096386,-1.9397590361445785,-5.6848559166155725,-7.674432863274064,-1.5229920294297976,2.0,4.289377289377289,233.134073441503,-1.1605384301614121,0.6204766621991726,-1.0894470019229647,1417.5824175824175,-1.0,82.45250576640805,4.09435394093006,244.30455137989864,
2023-12-19 12:21:56.088000,-7.795180722891566,-5.626506024096386,-1.9518072289156627,-5.613733905579399,-7.576333537706928,-1.6063764561618639,2.0,4.290842490842491,233.05446474304253,-1.405978672571529,0.30394499155060817,-1.1845463551075113,1419.7802197802198,-1.0,82.45250576640805,4.0966309256119064,244.16844893830026,
2023-12-19 12:21:56.095000,-7.759036144578314,-5.63855421686747,-1.963855421686747,-5.628448804414469,-7.613120784794604,-1.5009196811771919,2.0,4.292307692307692,232.97491039426524,-1.7826466989103216,0.6922673503875068,-1.126624322591923,1423.4432234432234,-1.0,82.45250576640805,4.098903673031123,244.03274423294525,
2023-12-19 12:21:56.103000,-7.759036144578314,-5.650602409638554,-2.0,-5.6627835683629675,-7.5738810545677495,-1.554874310239117,2.0,4.293772893772894,232.8954103395325,-2.2628051978322947,0.5575432667093995,-1.512499271604219,1429.3040293040292,-1.0,82.45250576640805,4.101172059196329,243.8974438063539,
2023-12-19 12:21:56.111000,-7.759036144578314,-5.674698795180723,-2.0,-5.719190680564071,-7.534641324340895,-1.4886572654812997,2.0,4.295238095238095,232.8159645232816,-2.113513198531553,0.6859740108385295,-0.7792086708233783,1435.8974358974358,-1.0,82.45250576640805,4.103435963236391,243.76255397919732,
2023-12-19 12:21:56.118000,-7.746987951807229,-5.710843373493976,-1.963855421686747,-5.721643163703249,-7.6180257510729605,-1.5328019619865112,2.0,4.296703296703297,232.73657289002557,-1.9311228949361918,0.5244449624147777,-1.1957345143056928,1444.6886446886447,-1.0,82.45250576640805,4.105695266833258,243.62808088812562,
2023-12-19 12:21:56.126000,-7.771084337349398,-5.72289156626506,-1.9759036144578315,-5.726548129981606,-7.608215818516247,-1.5646842427958307,2.0,4.296703296703297,232.73657289002557,-1.4616863819124766,0.9752345434415245,-0.8158032748674321,1451.2820512820513,-1.0,82.45250576640805,4.107949854174555,243.49403048897457,
2023-12-19 12:21:56.134000,-7.819277108433735,-5.734939759036145,-1.9397590361445785,-5.785407725321888,-7.686695278969957,-1.5058246474555486,2.0,4.298168498168498,232.65723538435316,-1.4994464192063406,0.873608764058039,-0.8662665345842315,1457.8754578754579,-1.0,82.45250576640805,4.11019961182984,243.36040855893268,
2023-12-19 12:21:56.141000,-7.819277108433735,-5.72289156626506,-1.9156626506024097,-5.7363580625383195,-7.649908031882281,-1.4469650521152666,2.0,4.2996336996336995,232.57795195092862,-1.1978322941553525,0.6358603810966726,-0.7506555562030183,1464.4688644688645,-1.0,82.45250576640805,4.112444428550987,243.22722070890674,
2023-12-19 12:21:56.149000,-7.83132530120482,-5.734939759036145,-1.9156626506024097,-5.753525444512569,-7.645003065603923,-1.4592274678111588,2.0,4.302564102564102,232.41954707985698,-1.1413087815395375,0.14229939980187556,-0.6984441466115024,1471.7948717948716,758.331298828125,79.12109139200773,4.1146841951361175,243.09447239798237,
2023-12-19 12:21:56.157000,-7.795180722891566,-5.746987951807229,-1.8674698795180724,-5.812385039852851,-7.642550582464745,-1.407725321888412,2.0,4.2996336996336995,232.57795195092862,-1.3468912068061305,0.08286230406153441,-1.0740632830254648,1475.4578754578754,-1.0,79.12109139200773,4.116918804850379,242.96216891144329,
2023-12-19 12:21:56.164000,-7.795180722891566,-5.759036144578314,-1.8674698795180724,-5.679950950337216,-7.630288166768853,-1.3709380748007356,2.0,4.302564102564102,232.41954707985698,-1.2162461395023594,-0.20651477186644143,-0.6849251209136994,1476.1904761904761,-1.0,79.12109139200773,4.119148152824745,242.83031538336726,
2023-12-19 12:21:56.172000,-7.795180722891566,-5.734939759036145,-1.8915662650602412,-5.738810545677498,-7.6180257510729605,-1.4322501532801961,2.0,4.304029304029304,232.34042553191492,-1.0689353767262975,-0.20208612551716096,-0.4957753044694364,1472.5274725274724,-1.0,79.12109139200773,4.121372135207587,242.69891685044365,
2023-12-19 12:21:56.180000,-7.72289156626506,-5.72289156626506,-1.8554216867469882,-5.738810545677498,-7.576333537706928,-1.4347026364193745,2.0,4.305494505494505,232.26135783563043,-0.7423809801293637,0.107802575607482,-0.2146728046151156,1468.8644688644688,-1.0,79.12109139200773,4.123590650031243,242.56797821185125,
2023-12-19 12:21:56.187000,-7.734939759036145,-5.698795180722892,-1.8915662650602412,-5.731453096259963,-7.515021459227468,-1.4788473329245861,2.0,4.305494505494505,232.26135783563043,-0.8273410640405566,0.5046325971679974,-0.6679097954664642,1465.9340659340658,-1.0,79.12109139200773,4.1258035966346736,242.4375042616051,
2023-12-19 12:21:56.195000,-7.72289156626506,-5.686746987951808,-1.927710843373494,-5.778050275904353,-7.576333537706928,-1.5033721643163702,2.0,4.306959706959707,232.18234393604357,-0.864751471359478,0.7447118466289839,-0.4453120447526366,1464.4688644688645,-1.0,79.12109139200773,4.128010875084049,242.3074997206316,
2023-12-19 12:21:56.203000,-7.746987951807229,-5.698795180722892,-1.927710843373494,-5.702023298589822,-7.564071122011036,-1.4469650521152666,2.0,4.306959706959707,232.18234393604357,-1.1614707767612604,0.4778276324223529,-0.25336518850882794,1463.7362637362637,-1.0,79.12109139200773,4.130212386435927,242.17796921832107,
2023-12-19 12:21:56.210000,-7.759036144578314,-5.72289156626506,-1.9397590361445785,-5.694665849172287,-7.622930717351318,-1.5205395462906193,2.0,4.308424908424908,232.103383778269,-0.999708641687547,0.3813297593380346,-0.2631548278072373,1463.7362637362637,-1.0,79.12109139200773,4.132408032084149,242.04891733480622,
2023-12-19 12:21:56.218000,-7.783132530120482,-5.734939759036145,-1.927710843373494,-5.79767014101778,-7.6106683016554255,-1.525444512568976,2.0,4.30989010989011,232.0244773074962,-0.884913466581201,0.8351494668142883,-0.1354233436279932,1463.7362637362637,-1.0,79.12109139200773,4.1345977135970005,241.92034861057195,
2023-12-19 12:21:56.226000,-7.807228915662651,-5.734939759036145,-1.9397590361445785,-5.773145309625996,-7.6621704475781724,-1.5303494788473329,2.0,4.30989010989011,232.0244773074962,-0.4239846162811023,0.275158790280286,0.1446302663014975,1463.003663003663,-1.0,79.12109139200773,4.136781333503242,241.79226749992796,
2023-12-19 12:21:56.233000,-7.795180722891566,-5.734939759036145,-1.927710843373494,-5.758430410790925,-7.615573267933782,-1.5229920294297976,2.0,4.311355311355311,231.94562446898897,-0.25872618145795684,0.007225686148825746,-0.036944234018996755,1463.7362637362637,-1.0,79.12109139200773,4.138958794181261,241.66467843785128,
2023-12-19 12:21:56.241000,-7.783132530120482,-5.698795180722892,-1.8795180722891567,-5.7363580625383195,-7.593500919681177,-1.4445125689760883,2.0,4.312820512820513,231.86682520808563,0.13495717032806898,-0.19614241594312615,-0.09265194335994463,1463.7362637362637,-1.0,79.12109139200773,4.141129997240813,241.53758587942056,
2023-12-19 12:21:56.249000,-7.783132530120482,-5.698795180722892,-1.8795180722891567,-5.78295524218271,-7.578786020846106,-1.4297976701410178,2.0,4.312820512820513,231.86682520808563,0.2044169920167829,-0.42666511275566676,-0.16444263154827787,1463.003663003663,-1.0,79.12109139200773,4.1432948443812405,241.41099424870254,
2023-12-19 12:21:56.256000,-7.746987951807229,-5.674698795180723,-1.9036144578313254,-5.721643163703249,-7.500306560392397,-1.4763948497854076,2.0,4.312820512820513,231.86682520808563,0.23122195676242735,-0.5465881941611801,-0.2918244857525786,1463.7362637362637,-1.0,79.12109139200773,4.145453237234145,241.28490794314945,
2023-12-19 12:21:56.264000,-7.734939759036145,-5.674698795180723,-1.8915662650602412,-5.623543838136112,-7.5738810545677495,-1.4028203556100551,2.0,4.314285714285714,231.78807947019868,-0.032049414369792514,0.05116251966668614,-0.10011071615873249,1463.7362637362637,-1.0,79.12109139200773,4.147605076191286,241.15933140352448,
2023-12-19 12:21:56.272000,-7.72289156626506,-5.674698795180723,-1.9036144578313254,-5.6627835683629675,-7.534641324340895,-1.4984671980380133,2.0,4.3157509157509155,231.7093872008148,-0.28017015325447236,0.3420546588194163,-0.12062234135539919,1462.2710622710622,-1.0,79.12109139200773,4.149750260711349,241.0342690982238,
2023-12-19 12:21:56.279000,-7.710843373493976,-5.674698795180723,-1.9518072289156627,-5.719190680564071,-7.551808706315144,-1.5205395462906193,2.0,4.3157509157509155,231.7093872008148,-0.1953266126682603,0.10850183555736877,-0.5358662082629214,1460.07326007326,-1.0,79.12109139200773,4.151888689665477,240.90972550584908,
2023-12-19 12:21:56.287000,-7.710843373493976,-5.686746987951808,-1.9879518072289157,-5.714285714285714,-7.54199877375843,-1.4886572654812997,2.0,4.3157509157509155,231.7093872008148,-0.40137521123477665,0.9761668900413729,-0.3387914457199468,1452.7472527472526,-1.0,79.12109139200773,4.154020260774482,240.78570514623846,
2023-12-19 12:21:56.295000,-7.734939759036145,-5.674698795180723,-1.9759036144578315,-5.746167995095034,-7.5665236051502145,-1.4935622317596566,2.0,4.317216117216117,231.63074834549468,-0.023541751646174093,1.1633354699609573,-0.33051686964629096,1447.6190476190475,-1.0,79.12109139200773,4.156144870405319,240.6622125873377,
2023-12-19 12:21:56.302000,-7.807228915662651,-5.698795180722892,-1.9879518072289157,-5.78295524218271,-7.630288166768853,-1.496014714898835,2.0,4.318681318681318,231.5521628498728,-0.04405337684284123,1.2086708233785912,-0.26373754443214237,1441.7582417582416,-1.0,79.12109139200773,4.15826241337392,240.53925246245578,
2023-12-19 12:21:56.310000,-7.807228915662651,-5.686746987951808,-1.9156626506024097,-5.7363580625383195,-7.711220110361741,-1.4273451870018392,2.0,4.317216117216117,231.63074834549468,0.14859273935085288,1.0413146087057854,0.06060252899015212,1434.4322344322343,-1.0,79.12109139200773,4.160372782893783,240.41682947883916,
2023-12-19 12:21:56.317000,-7.843373493975904,-5.72289156626506,-1.927710843373494,-5.792765174739423,-7.728387492335989,-1.5229920294297976,2.0,4.317216117216117,231.63074834549468,0.14136705320202714,1.0282617563079075,0.06281685216479235,1425.6410256410256,-1.0,79.12109139200773,4.162475870497392,240.29494841194094,
2023-12-19 12:21:56.325000,-7.83132530120482,-5.698795180722892,-1.9036144578313254,-5.748620478234212,-7.691600245248313,-1.4935622317596566,2.0,4.32014652014652,231.47363065965746,0.5444904143115198,0.6338791445719949,0.18367228017015322,1416.8498168498168,-1.0,79.12109139200773,4.1645715652648025,240.17361414859107,
2023-12-19 12:21:56.333000,-7.843373493975904,-5.686746987951808,-1.927710843373494,-5.763335377069282,-7.691600245248313,-1.5082771305947271,2.0,4.32014652014652,231.47363065965746,0.38389371248761817,0.2283083736378995,0.010605442573276513,1408.7912087912086,-1.0,79.12109139200773,4.166659754640107,240.0528316493133,
2023-12-19 12:21:56.340000,-7.783132530120482,-5.662650602409639,-1.927710843373494,-5.7363580625383195,-7.62047823421214,-1.496014714898835,2.0,4.321611721611721,231.39515172063062,0.19509352601829688,0.024707184895985928,-0.2661849542567451,1402.9304029304028,-1.0,79.12109139200773,4.16874032441288,239.93260595021002,
2023-12-19 12:21:56.348000,-7.72289156626506,-5.674698795180723,-1.927710843373494,-5.704475781729,-7.576333537706928,-1.4763948497854076,2.0,4.321611721611721,231.39515172063062,-0.15978089854903574,-0.23833109958627052,-0.293922265602238,1401.4652014652013,-1.0,79.12109139200773,4.1708131577261165,239.81294222168742,
2023-12-19 12:21:56.356000,-7.698795180722892,-5.674698795180723,-1.963855421686747,-5.682403433476394,-7.512568976088289,-1.513182096873084,2.0,4.323076923076923,231.3167259786477,-0.04125633704329595,0.46500786667443655,-0.5198997727405165,1402.9304029304028,-1.0,79.12109139200773,4.172878135535318,239.69384573897366,
2023-12-19 12:21:56.363000,-7.674698795180723,-5.686746987951808,-1.9759036144578315,-5.721643163703249,-7.54199877375843,-1.496014714898835,2.0,4.323076923076923,231.3167259786477,-0.199055999067654,0.7188392284831878,-0.438319445253773,1404.3956043956043,-1.0,79.12109139200773,4.174935136516433,239.5753218878932,
2023-12-19 12:21:56.371000,-7.698795180722892,-5.698795180722892,-1.9759036144578315,-5.741263028816676,-7.615573267933782,-1.4984671980380133,2.0,4.323076923076923,231.3167259786477,-0.23413553988695346,0.9373579628226797,0.100460346133675,1408.058608058608,-1.0,79.12109139200773,4.176984037054883,239.45737616594013,
2023-12-19 12:21:56.379000,-7.72289156626506,-5.686746987951808,-1.9879518072289157,-5.760882893930104,-7.554261189454322,-1.5082771305947271,2.0,4.324542124542124,231.2383533796375,0.14474680962647835,1.2281335586504292,0.07039216828856147,1410.989010989011,-1.0,79.12109139200773,4.179024710684455,239.34001421306957,
2023-12-19 12:21:56.386000,-7.759036144578314,-5.686746987951808,-1.9518072289156627,-5.733905579399141,-7.605763335377069,-1.4935622317596566,2.0,4.326007326007326,231.16003386960205,-0.19963871569255817,1.4881417166831767,-0.22015034088922575,1413.1868131868132,-1.0,79.12109139200773,4.181057028063516,239.2232418182396,
2023-12-19 12:21:56.394000,-7.795180722891566,-5.710843373493976,-1.9397590361445785,-5.7363580625383195,-7.605763335377069,-1.537706928264868,2.0,4.326007326007326,231.16003386960205,-0.31058796107452974,1.3192704387856184,-0.3845929724375036,1416.117216117216,-1.0,79.12109139200773,4.183080857981521,239.10706486071385,
2023-12-19 12:21:56.402000,-7.783132530120482,-5.698795180722892,-1.9759036144578315,-5.748620478234212,-7.62047823421214,-1.5303494788473329,2.0,4.327472527472527,231.08176739461658,-0.6679097954664651,1.3340714410582124,-0.27259483713070326,1419.047619047619,-1.0,79.12109139200773,4.185096066903473,238.99148933510241,
2023-12-19 12:21:56.409000,-7.783132530120482,-5.710843373493976,-1.9879518072289157,-5.787860208461066,-7.62047823421214,-1.5499693439607602,2.0,4.327472527472527,231.08176739461658,-0.7448283899539647,1.0917778684225865,-0.28506497290367666,1421.9780219780218,-1.0,79.12109139200773,4.187102518986043,238.87652135085406,
2023-12-19 12:21:56.417000,-7.746987951807229,-5.72289156626506,-2.0,-5.68976088289393,-7.5959534028203555,-1.513182096873084,2.0,4.327472527472527,231.08176739461658,-0.9105529980770353,0.6529922498688886,-0.6152322125750246,1421.245421245421,-1.0,79.12109139200773,4.1891000761078745,238.76216713123193,
2023-12-19 12:21:56.425000,-7.759036144578314,-5.72289156626506,-2.036144578313253,-5.770692826486818,-7.627835683629675,-1.5597792765174738,2.0,4.328937728937729,231.00355390082925,-0.6163976458248347,0.7654565584756127,-0.6210593788240781,1420.5128205128203,-1.0,79.12109139200773,4.191088596963538,238.64843306668237,
2023-12-19 12:21:56.432000,-7.759036144578314,-5.746987951807229,-2.036144578313253,-5.75107296137339,-7.608215818516247,-1.5328019619865112,2.0,4.330402930402931,230.92539333446118,-0.6759512848901584,-0.008624206048599255,-0.06304993881475446,1418.3150183150183,-1.0,79.12109139200773,4.193067938068148,238.53532565630294,
2023-12-19 12:21:56.440000,-7.783132530120482,-5.734939759036145,-1.9879518072289157,-5.812385039852851,-7.615573267933782,-1.5646842427958307,2.0,4.330402930402931,230.92539333446118,-0.16700658469786148,-0.09125342346017198,0.004195559699317924,1416.8498168498168,-1.0,79.12109139200773,4.195037954318551,238.42285147840303,
2023-12-19 12:21:56.448000,-7.807228915662651,-5.72289156626506,-1.963855421686747,-5.805027590435316,-7.6106683016554255,-1.5990190067443286,2.0,4.331868131868132,230.8472856418062,0.4120971971330344,-0.09801293630907265,0.6961132801118813,1416.117216117216,-1.0,79.12109139200773,4.196998498198074,238.31101723775046,
2023-12-19 12:21:56.455000,-7.795180722891566,-5.72289156626506,-1.9518072289156627,-5.741263028816676,-7.6327406499080315,-1.4567749846719804,2.0,4.333333333333333,230.76923076923077,0.17842783054600603,-0.41221374045801523,0.5561447468096264,1416.117216117216,-1.0,79.12109139200773,4.1989494203674305,238.1998297291719,
2023-12-19 12:21:56.463000,-7.771084337349398,-5.710843373493976,-1.9518072289156627,-5.778050275904353,-7.600858369098712,-1.4788473329245861,2.0,4.330402930402931,230.92539333446118,0.14253248645183897,-0.5204824893654223,0.5532311636850998,1413.1868131868132,-1.0,79.12109139200773,4.200890569812834,238.08929583464874,
2023-12-19 12:21:56.471000,-7.771084337349398,-5.734939759036145,-1.9397590361445785,-5.763335377069282,-7.6400980993255665,-1.537706928264868,2.0,4.331868131868132,230.8472856418062,-0.5007866674436211,-0.6618495425674494,0.5208321193403649,1410.989010989011,-1.0,79.12109139200773,4.202821793093495,237.97942255826132,
2023-12-19 12:21:56.478000,-7.759036144578314,-5.734939759036145,-1.9036144578313254,-5.741263028816676,-7.6033108522378905,-1.4886572654812997,2.0,4.333333333333333,230.76923076923077,-0.6927335236874301,-0.26618495425674427,0.41314608705786365,1412.4542124542124,-1.0,79.12109139200773,4.204742934729408,237.8702170016264,
2023-12-19 12:21:56.486000,-7.72289156626506,-5.746987951807229,-1.9397590361445785,-5.763335377069282,-7.5665236051502145,-1.5303494788473329,2.0,4.3347985347985345,230.69122866317392,-0.669774488666162,-0.464192063399569,0.7775770642736436,1413.9194139194137,-1.0,79.12109139200773,4.206653838301884,237.76168631019073,
2023-12-19 12:21:56.494000,-7.674698795180723,-5.771084337349398,-1.9518072289156627,-5.7657878602084605,-7.517473942366646,-1.4739423666462292,2.0,4.333333333333333,230.76923076923077,-0.7080006992599492,0.33168230289610107,0.5895926810791912,1413.1868131868132,-1.0,79.12109139200773,4.2085543461962285,237.65383769168483,
2023-12-19 12:21:56.501000,-7.674698795180723,-5.746987951807229,-1.9879518072289157,-5.800122624156959,-7.524831391784181,-1.5524218270999386,2.0,4.3347985347985345,230.69122866317392,-0.7776936075986248,0.6789814113396654,0.6770001748149873,1416.117216117216,-1.0,79.12109139200773,4.210444298934604,237.5466784509256,
2023-12-19 12:21:56.509000,-7.674698795180723,-5.734939759036145,-2.0120481927710845,-5.819742489270386,-7.519926425505824,-1.5622317596566522,2.0,4.336263736263737,230.613279270147,-1.203542917079424,1.161004603461337,0.5798030417807822,1419.047619047619,-1.0,79.12109139200773,4.212323535751739,237.44021595454885,
2023-12-19 12:21:56.517000,-7.698795180722892,-5.759036144578314,-2.024096385542169,-5.836909871244635,-7.5738810545677495,-1.5180870631514407,2.0,4.336263736263737,230.613279270147,-0.5447235009614831,0.9396888293222999,1.0321076860322824,1421.245421245421,-1.0,79.12109139200773,4.214191895319851,237.334457596752,
2023-12-19 12:21:56.524000,-7.72289156626506,-5.771084337349398,-2.036144578313253,-5.760882893930104,-7.58859595340282,-1.5450643776824033,2.0,4.337728937728937,230.53538253673366,-0.28669657945341137,0.5674494493327897,1.0869995920983628,1424.1758241758241,-1.0,79.12109139200773,4.216049216027838,237.22941077960857,
2023-12-19 12:21:56.532000,-7.759036144578314,-5.771084337349398,-2.036144578313253,-5.763335377069282,-7.62047823421214,-1.5107296137339055,2.0,4.337728937728937,230.53538253673366,-0.060952158965095496,0.6395897674960663,1.0022725948371307,1424.1758241758241,-1.0,79.12109139200773,4.21789533662599,237.12508287465099,
2023-12-19 12:21:56.540000,-7.795180722891566,-5.759036144578314,-2.0,-5.773145309625996,-7.613120784794604,-1.4886572654812997,2.0,4.337728937728937,230.53538253673366,0.017714585397121858,-0.036244974069109565,1.1465532311636848,1424.1758241758241,-1.0,79.12109139200773,4.219730095968423,237.02148124142522,
2023-12-19 12:21:56.547000,-7.819277108433735,-5.759036144578314,-1.9759036144578315,-5.79767014101778,-7.642550582464745,-1.5475168608215817,2.0,4.337728937728937,230.53538253673366,0.06398228541460245,-0.9309480799487215,0.6483305168696464,1426.3736263736262,-1.0,79.12109139200773,4.221553332307933,236.91861326910384,
2023-12-19 12:21:56.555000,-7.771084337349398,-5.734939759036145,-1.963855421686747,-5.755977927651747,-7.686695278969957,-1.4984671980380133,2.0,4.339194139194139,230.45753840958974,-0.08973836023541765,-1.5319620068760564,0.7476254297535109,1427.8388278388277,-1.0,79.12109139200773,4.223364884003813,236.8164863340524,
2023-12-19 12:21:56.563000,-7.734939759036145,-5.72289156626506,-1.9518072289156627,-5.743715511955855,-7.576333537706928,-1.496014714898835,2.0,4.339194139194139,230.45753840958974,-0.32200920692267254,-1.668900413728803,0.4644251500495311,1430.7692307692307,-1.0,79.12109139200773,4.225164590200947,236.71510776385404,
2023-12-19 12:21:56.570000,-7.710843373493976,-5.710843373493976,-1.9759036144578315,-5.748620478234212,-7.512568976088289,-1.542611894543225,2.0,4.339194139194139,230.45753840958974,-0.9479634053959549,-1.334187984383195,0.2739933570304759,1432.9670329670328,-1.0,79.12109139200773,4.226952290670313,236.61448484981153,
2023-12-19 12:21:56.578000,-7.686746987951808,-5.710843373493976,-2.0,-5.746167995095034,-7.551808706315144,-1.5793991416309012,2.0,4.339194139194139,230.45753840958974,-1.0781422993998027,-0.8039158557193634,0.5427422644368046,1432.9670329670328,-1.0,79.12109139200773,4.228727826077023,236.51462482799835,
2023-12-19 12:21:56.586000,-7.686746987951808,-5.710843373493976,-2.0120481927710845,-5.704475781729,-7.5567136725935,-1.5867565910484365,2.0,4.34065934065934,230.37974683544306,-1.082221315774139,-0.7952916496707658,0.3824951925878447,1429.3040293040292,-1.0,79.12109139200773,4.230491038182321,236.41553486863646,
2023-12-19 12:21:56.593000,-7.710843373493976,-5.72289156626506,-2.036144578313253,-5.770692826486818,-7.539546290619252,-1.6063764561618639,2.0,4.34065934065934,230.37974683544306,-1.068003030126451,-0.784569663772508,0.3759687663889048,1421.9780219780218,-1.0,79.12109139200773,4.2322417705754845,236.31722203709535,
2023-12-19 12:21:56.601000,-7.734939759036145,-5.72289156626506,-2.036144578313253,-5.75107296137339,-7.561618638871857,-1.5990190067443286,2.0,4.34065934065934,230.37974683544306,-1.1597226268865444,-0.37876580618845096,0.5991492337276384,1413.1868131868132,-1.0,79.12109139200773,4.233979868951575,236.21969327925137,
2023-12-19 12:21:56.609000,-7.771084337349398,-5.72289156626506,-2.0120481927710845,-5.785407725321888,-7.671980380134886,-1.5058246474555486,2.0,4.342124542124542,230.3020077610933,-0.5639531495833576,-0.37480333313909386,0.8225627877163336,1408.058608058608,-1.0,79.12109139200773,4.235705180441606,236.12295546095925,
2023-12-19 12:21:56.616000,-7.819277108433735,-5.734939759036145,-1.963855421686747,-5.7657878602084605,-7.701410177805027,-1.5009196811771919,2.0,4.339194139194139,230.45753840958974,-0.613250976050347,-0.48050812889691735,1.148651011013344,1404.3956043956043,-1.0,79.12109139200773,4.237417554382923,236.02701532665682,
2023-12-19 12:21:56.624000,-7.819277108433735,-5.734939759036145,-1.963855421686747,-5.760882893930104,-7.676885346413243,-1.5352544451256898,2.0,4.34065934065934,230.37974683544306,-0.8476196025872621,-1.0122953207855017,1.0310587961074527,1406.5934065934066,-1.0,79.12109139200773,4.239116842595747,235.93187947627158,
2023-12-19 12:21:56.632000,-7.807228915662651,-5.746987951807229,-1.927710843373494,-5.753525444512569,-7.622930717351318,-1.4935622317596566,2.0,4.342124542124542,230.3020077610933,-0.8201153778917308,-1.1279062991667153,0.8532136821863526,1410.2564102564102,-1.0,79.12109139200773,4.240802899413824,235.837554364394,
2023-12-19 12:21:56.639000,-7.771084337349398,-5.710843373493976,-1.9397590361445785,-5.792765174739423,-7.546903740036787,-1.5352544451256898,2.0,4.342124542124542,230.3020077610933,-1.3748616048015851,-1.8201736495542222,0.9065905250276795,1413.9194139194137,-1.0,79.12109139200773,4.242475582446955,235.74404626796405,
2023-12-19 12:21:56.647000,-7.746987951807229,-5.710843373493976,-1.963855421686747,-5.760882893930104,-7.546903740036787,-1.5082771305947271,2.0,4.342124542124542,230.3020077610933,-1.1915389546063753,-1.3172892022609408,0.823495134316182,1416.8498168498168,-1.0,79.12109139200773,4.244134752917652,235.65136126410147,
2023-12-19 12:21:56.655000,-7.72289156626506,-5.734939759036145,-1.963855421686747,-5.790312691600245,-7.559166155732679,-1.5180870631514407,2.0,4.343589743589744,230.22432113341205,-1.469145154711264,-1.5340597867257149,0.9077559582774896,1416.8498168498168,-1.0,79.12109139200773,4.245780275397541,235.55950524431603,
2023-12-19 12:21:56.662000,-7.72289156626506,-5.734939759036145,-1.9518072289156627,-5.7657878602084605,-7.58859595340282,-1.5033721643163702,2.0,4.342124542124542,230.3020077610933,-0.8441233028378301,-1.0635743837771685,1.1608880601363554,1416.117216117216,-1.0,79.12109139200773,4.247412018064468,235.46848390473133,
2023-12-19 12:21:56.670000,-7.734939759036145,-5.72289156626506,-1.9518072289156627,-5.773145309625996,-7.627835683629675,-1.4862047823421214,2.0,4.343589743589744,230.22432113341205,-0.5130237165666349,-0.9120680613017896,1.185711788357322,1413.9194139194137,-1.0,79.12109139200773,4.249029852529076,235.37830275494633,
2023-12-19 12:21:56.678000,-7.734939759036145,-5.698795180722892,-1.963855421686747,-5.79767014101778,-7.546903740036787,-1.5033721643163702,2.0,4.343589743589744,230.22432113341205,-0.8592739350853683,-0.5784045218810091,1.131402598916147,1411.7216117216117,-1.0,79.12109139200773,4.250633654039267,235.28896710691768,
2023-12-19 12:21:56.685000,-7.759036144578314,-5.698795180722892,-1.963855421686747,-5.672593500919681,-7.654812998160637,-1.537706928264868,2.0,4.343589743589744,230.22432113341205,-1.0967892313967713,-0.4475263679272764,1.125458889342113,1413.9194139194137,-1.0,79.12109139200773,4.252223302235715,235.2004820346768,
2023-12-19 12:21:56.693000,-7.807228915662651,-5.72289156626506,-1.963855421686747,-5.778050275904353,-7.6817903126916,-1.5156345800122624,2.0,4.345054945054945,230.14668689934246,-1.3630907289784981,-0.596119107278131,1.4999125925062644,1416.117216117216,-1.0,79.12109139200773,4.2537986813708955,235.11285235886692,
2023-12-19 12:21:56.700000,-7.807228915662651,-5.710843373493976,-1.9518072289156627,-5.746167995095034,-7.613120784794604,-1.4886572654812997,2.0,4.345054945054945,230.14668689934246,-1.0928267583474158,-0.8476196025872621,0.9089213915273001,1419.7802197802198,-1.0,79.12109139200773,4.255359680941508,235.02608261368854,
2023-12-19 12:21:56.708000,-7.771084337349398,-5.698795180722892,-1.963855421686747,-5.758430410790925,-7.559166155732679,-1.5156345800122624,2.0,4.345054945054945,230.14668689934246,-0.798205232795292,-1.193403647806072,0.7196550317580563,1421.9780219780218,-1.0,79.12109139200773,4.256906195466882,234.94017706254243,
2023-12-19 12:21:56.716000,-7.771084337349398,-5.710843373493976,-1.927710843373494,-5.704475781729,-7.568976088289393,-1.5229920294297976,2.0,4.345054945054945,230.14668689934246,-1.0089155643610503,-0.8521647922615234,0.5153545830662547,1424.1758241758241,-1.0,79.12109139200773,4.258438124221955,234.85513971210997,
2023-12-19 12:21:56.723000,-7.759036144578314,-5.698795180722892,-1.9518072289156627,-5.758430410790925,-7.5567136725935,-1.5475168608215817,2.0,4.345054945054945,230.14668689934246,-0.5921566342287738,-0.6511275566691916,0.6047433133267298,1426.3736263736262,-1.0,79.12109139200773,4.2599553718726435,234.7709742751153,
2023-12-19 12:21:56.731000,-7.734939759036145,-5.686746987951808,-1.963855421686747,-5.7363580625383195,-7.554261189454322,-1.5695892090741874,2.0,4.345054945054945,230.14668689934246,-0.8924887827049709,-0.8037993123943825,0.5089447001922961,1427.106227106227,-1.0,79.12109139200773,4.261457848572361,234.68768416580403,
2023-12-19 12:21:56.739000,-7.710843373493976,-5.710843373493976,-2.0,-5.755977927651747,-7.529736358062538,-1.5278969957081545,2.0,4.346520146520146,230.06910500589922,-0.7889983101217886,-0.6186119689994758,0.4141949769826929,1428.5714285714284,-1.0,79.12109139200773,4.262945470081293,234.60527249403484,
2023-12-19 12:21:56.746000,-7.710843373493976,-5.698795180722892,-2.0120481927710845,-5.770692826486818,-7.54199877375843,-1.5205395462906193,2.0,4.346520146520146,230.06910500589922,-0.8553114620360112,-0.5257269389895687,0.7180234252083215,1427.8388278388277,-1.0,79.12109139200773,4.264418158330932,234.52374203602167,
2023-12-19 12:21:56.754000,-7.746987951807229,-5.698795180722892,-1.963855421686747,-5.768240343347639,-7.58859595340282,-1.5744941753525443,2.0,4.346520146520146,230.06910500589922,-0.43400734222947335,-0.11083270205698896,0.8067128955189096,1428.5714285714284,-1.0,79.12109139200773,4.26587584113191,234.44309525371148,
2023-12-19 12:21:56.762000,-7.783132530120482,-5.698795180722892,-1.9879518072289157,-5.724095646842428,-7.637645616186388,-1.5450643776824033,2.0,4.346520146520146,230.06910500589922,-0.3661791270904946,-0.036011887419147896,0.7395839403298171,1428.5714285714284,-1.0,79.12109139200773,4.2673184522920256,234.36333428525674,
2023-12-19 12:21:56.769000,-7.807228915662651,-5.72289156626506,-1.9759036144578315,-5.817290006131207,-7.627835683629675,-1.554874310239117,2.0,4.345054945054945,230.14668689934246,0.3576714643668779,-0.4197890565817852,0.8103257385933215,1424.1758241758241,-1.0,79.12109139200773,4.268745931193788,234.2844609714769,
2023-12-19 12:21:56.777000,-7.819277108433735,-5.686746987951808,-1.9759036144578315,-5.75107296137339,-7.657265481299816,-1.5352544451256898,2.0,4.345054945054945,230.14668689934246,0.4175747334071441,-0.47806071907231457,0.46862070974884945,1419.7802197802198,-1.0,79.12109139200773,4.27015822334155,234.2064768201899,
2023-12-19 12:21:56.785000,-7.795180722891566,-5.698795180722892,-1.9518072289156627,-5.7363580625383195,-7.6621704475781724,-1.542611894543225,2.0,4.346520146520146,230.06910500589922,0.41722510343220165,-0.7357380106054421,0.46827107977390564,1415.3846153846152,-1.0,79.12109139200773,4.271555280651676,234.129382989044,
2023-12-19 12:21:56.792000,-7.759036144578314,-5.674698795180723,-1.9036144578313254,-5.743715511955855,-7.6327406499080315,-1.4592274678111588,2.0,4.346520146520146,230.06910500589922,0.16549152147310714,-0.6714060952158971,0.5887768778043231,1408.7912087912086,-1.0,79.12109139200773,4.272937060988568,234.0531803212157,
2023-12-19 12:21:56.800000,-7.72289156626506,-5.662650602409639,-1.927710843373494,-5.7290006131207845,-7.5444512568976085,-1.4739423666462292,2.0,4.346520146520146,230.06910500589922,0.05057980304178196,-0.6394732241710854,0.5393625080123539,1401.4652014652013,-1.0,79.12109139200773,4.274303528282757,233.97786933938616,
2023-12-19 12:21:56.808000,-7.734939759036145,-5.686746987951808,-1.9397590361445785,-5.802575107296137,-7.58859595340282,-1.5107296137339055,2.0,4.347985347985348,229.9915754001685,-0.10628751238272767,-0.44169920167822413,0.7647572985257264,1397.8021978021977,-1.0,79.12109139200773,4.275654652107273,233.9034502684512,
2023-12-19 12:21:56.815000,-7.686746987951808,-5.72289156626506,-1.9879518072289157,-5.785407725321888,-7.568976088289393,-1.5033721643163702,2.0,4.347985347985348,229.9915754001685,-0.0794825476370832,-0.015616805547461593,0.6351611211467858,1397.069597069597,-1.0,79.12109139200773,4.276990408188117,233.829923008822,
2023-12-19 12:21:56.823000,-7.710843373493976,-5.746987951807229,-1.9518072289156627,-5.795217657878601,-7.6327406499080315,-1.471489883507051,2.0,4.347985347985348,229.9915754001685,0.36058504749140574,-0.1905483363440356,1.0136938406852751,1400.0,-1.0,79.12109139200773,4.27831077893619,233.7572871054608,
2023-12-19 12:21:56.831000,-7.746987951807229,-5.771084337349398,-1.927710843373494,-5.741263028816676,-7.512568976088289,-1.4886572654812997,2.0,4.347985347985348,229.9915754001685,0.8255929141658406,-0.01083852922323862,1.0787250160247064,1402.9304029304028,-1.0,79.12109139200773,4.279615752914147,233.6855417769835,
2023-12-19 12:21:56.838000,-7.734939759036145,-5.734939759036145,-1.9518072289156627,-5.773145309625996,-7.5370938074800735,-1.5156345800122624,2.0,4.349450549450549,229.91409802930775,1.0399160888060137,-0.30522696812540084,1.2973602936891795,1405.8608058608058,-1.0,79.12109139200773,4.280905324783444,233.61468591917736,
2023-12-19 12:21:56.846000,-7.746987951807229,-5.72289156626506,-1.9518072289156627,-5.743715511955855,-7.6033108522378905,-1.4862047823421214,2.0,4.347985347985348,229.9915754001685,0.9149816444263157,0.4281801759804211,0.7800244740982455,1407.3260073260071,-1.0,79.12109139200773,4.282179495697213,233.5447180851335,
2023-12-19 12:21:56.854000,-7.759036144578314,-5.698795180722892,-1.9397590361445785,-5.68976088289393,-7.642550582464745,-1.542611894543225,2.0,4.347985347985348,229.9915754001685,0.7421478934794002,0.9335120330983052,0.7536856826525266,1410.2564102564102,-1.0,79.12109139200773,4.283438272345013,233.4756365395618,
2023-12-19 12:21:56.861000,-7.771084337349398,-5.698795180722892,-1.9397590361445785,-5.758430410790925,-7.5738810545677495,-1.5843041079092581,2.0,4.347985347985348,229.9915754001685,0.354058621292465,0.0022143231746411,0.4524211875764811,1414.6520146520145,-1.0,79.12109139200773,4.284681666830298,233.4074392626584,
2023-12-19 12:21:56.869000,-7.759036144578314,-5.698795180722892,-1.9879518072289157,-5.758430410790925,-7.576333537706928,-1.6063764561618639,2.0,4.349450549450549,229.91409802930775,0.3489307149932978,0.010372355923315273,0.44437969815278816,1419.047619047619,-1.0,79.12109139200773,4.285909696992613,233.34012393399632,
2023-12-19 12:21:56.877000,-7.710843373493976,-5.698795180722892,-2.024096385542169,-5.704475781729,-7.458614347026364,-1.5793991416309012,2.0,4.347985347985348,229.9915754001685,0.17737894062117676,0.21607132451488736,0.026571878095681484,1424.1758241758241,-1.0,79.12109139200773,4.28712238633113,233.27368794029653,
2023-12-19 12:21:56.884000,-7.72289156626506,-5.698795180722892,-2.0481927710843375,-5.741263028816676,-7.551808706315144,-1.567136725935009,2.0,4.347985347985348,229.9915754001685,0.16723967134782317,0.3889050754618028,-0.40440533768428444,1429.3040293040292,-1.0,79.12109139200773,4.288319763953306,233.20812837564802,
2023-12-19 12:21:56.892000,-7.734939759036145,-5.72289156626506,-2.0481927710843375,-5.778050275904353,-7.600858369098712,-1.5695892090741874,2.0,4.349450549450549,229.91409802930775,0.5132568032165966,0.2225977507138281,-0.34123885554454875,1437.3626373626373,-1.0,79.12109139200773,4.289501863883006,233.14344207901794,
2023-12-19 12:21:56.900000,-7.771084337349398,-5.734939759036145,-2.024096385542169,-5.721643163703249,-7.554261189454322,-1.5990190067443286,2.0,4.349450549450549,229.91409802930775,0.9018122487034552,0.21886836431443438,-0.17399918419672555,1446.8864468864467,-1.0,79.12109139200773,4.29066872587056,233.07962559216898,
2023-12-19 12:21:56.907000,-7.771084337349398,-5.72289156626506,-2.0,-5.746167995095034,-7.649908031882281,-1.5573267933782955,2.0,4.349450549450549,229.91409802930775,0.9796631897908049,-0.23413553988695346,0.02377483829613707,1457.142857142857,-1.0,79.12109139200773,4.2918203952816665,233.01667516643332,
2023-12-19 12:21:56.915000,-7.795180722891566,-5.710843373493976,-2.0120481927710845,-5.768240343347639,-7.630288166768853,-1.5573267933782955,2.0,4.349450549450549,229.91409802930775,1.7691276732125167,-0.6119689994755543,-0.22376318396363776,1466.6666666666665,-1.0,79.12109139200773,4.292956922031319,232.9545868226267,
2023-12-19 12:21:56.923000,-7.819277108433735,-5.734939759036145,-1.9759036144578315,-5.775597792765175,-7.598405885959534,-1.5156345800122624,2.0,4.346520146520146,230.06910500589922,1.3611094924538185,-0.7287454111065781,-0.3940329817609692,1473.9926739926739,-1.0,79.12109139200773,4.294078360917735,232.89335633102795,
2023-12-19 12:21:56.930000,-7.807228915662651,-5.72289156626506,-1.963855421686747,-5.753525444512569,-7.676885346413243,-1.542611894543225,2.0,4.347985347985348,229.9915754001685,1.10098479109609,-1.1648505331857117,-0.42130411980653787,1479.120879120879,-1.0,79.12109139200773,4.295184771354022,232.83297922090492,
2023-12-19 12:21:56.938000,-7.807228915662651,-5.710843373493976,-1.9518072289156627,-5.812385039852851,-7.671980380134886,-1.5524218270999386,2.0,4.347985347985348,229.9915754001685,0.7839869471476022,-1.4564419322883269,-0.2664180409067077,1479.120879120879,-1.0,79.12109139200773,4.296276216955613,232.77345080661985,
2023-12-19 12:21:56.946000,-7.795180722891566,-5.710843373493976,-1.9397590361445785,-5.795217657878601,-7.657265481299816,-1.4641324340895157,2.0,4.349450549450549,229.91409802930775,1.2521414835965265,-1.7750713827865516,-0.10990035545714054,1478.3882783882782,-1.0,79.12109139200773,4.297352765400347,232.71476620136022,
2023-12-19 12:21:56.953000,-7.771084337349398,-5.72289156626506,-1.8795180722891567,-5.726548129981606,-7.564071122011036,-1.4739423666462292,2.0,4.349450549450549,229.91409802930775,1.12394382611736,-1.9512848901579165,0.030417807820057763,1477.6556776556777,-1.0,79.12109139200773,4.298414488318644,232.6569203232774,
2023-12-19 12:21:56.961000,-7.746987951807229,-5.686746987951808,-1.9156626506024097,-5.719190680564071,-7.613120784794604,-1.5033721643163702,2.0,4.347985347985348,229.9915754001685,0.2736437270555334,-1.4229939980187625,0.3721228366645294,1478.3882783882782,-1.0,79.12109139200773,4.2994614612149284,232.59990789995385,
2023-12-19 12:21:56.969000,-7.72289156626506,-5.674698795180723,-1.927710843373494,-5.753525444512569,-7.568976088289393,-1.496014714898835,2.0,4.349450549450549,229.91409802930775,-0.3415884855194912,-1.2980595536390647,0.603228250101975,1480.5860805860805,-1.0,79.12109139200773,4.300493762824645,232.5437235001018,
2023-12-19 12:21:56.976000,-7.710843373493976,-5.674698795180723,-1.963855421686747,-5.68976088289393,-7.551808706315144,-1.5769466584917229,2.0,4.347985347985348,229.9915754001685,-0.4815570188217466,-1.0660217936017713,1.13839519841501,1477.6556776556777,834.930419921875,71.86227566797032,4.301511475313859,232.48836152373408,
2023-12-19 12:21:56.984000,-7.710843373493976,-5.686746987951808,-2.0120481927710845,-5.682403433476394,-7.559166155732679,-1.567136725935009,2.0,4.349450549450549,229.91409802930775,-1.1923547578812428,-0.40650311753394386,1.529980770351378,1473.260073260073,-1.0,71.86227566797032,4.30251468412449,232.43381621090202,
2023-12-19 12:21:56.992000,-7.72289156626506,-5.698795180722892,-2.036144578313253,-5.721643163703249,-7.502759043531575,-1.5843041079092581,2.0,4.349450549450549,229.91409802930775,-1.4825476370840862,-0.1771458539712151,1.4776528174348815,1468.8644688644688,-1.0,71.86227566797032,4.303503477715259,232.38008165605518,
2023-12-19 12:21:56.999000,-7.72289156626506,-5.710843373493976,-2.024096385542169,-5.748620478234212,-7.62047823421214,-1.6063764561618639,2.0,4.349450549450549,229.91409802930775,-1.5395373229998246,0.5370316415127324,0.9224404172251032,1466.6666666666665,-1.0,71.86227566797032,4.304477947900296,232.32715179063146,
2023-12-19 12:21:57.007000,-7.771084337349398,-5.72289156626506,-2.096385542168675,-5.805027590435316,-7.608215818516247,-1.5328019619865112,2.0,4.349450549450549,229.91409802930775,-1.3562146728046147,0.6513606433191533,1.1161354233436274,1463.7362637362637,-1.0,71.86227566797032,4.305438189629541,232.27502039279062,
2023-12-19 12:21:57.015000,-7.795180722891566,-5.710843373493976,-2.036144578313253,-5.7290006131207845,-7.686695278969957,-1.5229920294297976,2.0,4.349450549450549,229.91409802930775,-0.7372530738301964,-0.07307266476312506,1.045626711730086,1463.003663003663,-1.0,71.86227566797032,4.306384300281114,232.2236811281066,
2023-12-19 12:21:57.022000,-7.819277108433735,-5.72289156626506,-1.9759036144578315,-5.711833231146535,-7.657265481299816,-1.4739423666462292,2.0,4.347985347985348,229.9915754001685,-0.26525260765689584,-0.48645183847095214,0.899248295553872,1463.003663003663,-1.0,71.86227566797032,4.307316379483768,232.17312755934105,
2023-12-19 12:21:57.030000,-7.807228915662651,-5.674698795180723,-1.927710843373494,-5.709380748007357,-7.600858369098712,-1.5229920294297976,2.0,4.347985347985348,229.9915754001685,-0.6564885496183206,-1.4083095390711493,0.553464250335062,1466.6666666666665,-1.0,71.86227566797032,4.308234528415178,232.12335318403288,
2023-12-19 12:21:57.038000,-7.771084337349398,-5.662650602409639,-1.9759036144578315,-5.738810545677498,-7.608215818516247,-1.4518700183936235,2.0,4.349450549450549,229.91409802930775,-0.6796806712895521,-1.7834625021851875,0.3488141716683174,1469.5970695970695,-1.0,71.86227566797032,4.309138849559289,232.07435144765617,
2023-12-19 12:21:57.045000,-7.72289156626506,-5.662650602409639,-1.9397590361445785,-5.6848559166155725,-7.5959534028203555,-1.5180870631514407,2.0,4.349450549450549,229.91409802930775,-1.160654973486393,-2.1403181632771977,0.2678165608064803,1473.9926739926739,-1.0,71.86227566797032,4.310029447908345,232.02611567813048,
2023-12-19 12:21:57.053000,-7.710843373493976,-5.662650602409639,-1.9397590361445785,-5.716738197424893,-7.571428571428571,-1.5058246474555486,2.0,4.347985347985348,229.9915754001685,-1.085717615523571,-1.9900938173766096,0.05174523629159119,1474.7252747252746,-1.0,71.86227566797032,4.31090643034267,231.9786391215733,
2023-12-19 12:21:57.061000,-7.698795180722892,-5.686746987951808,-1.9759036144578315,-5.702023298589822,-7.534641324340895,-1.5156345800122624,2.0,4.347985347985348,229.9915754001685,-1.086883048773381,-1.9904434473515522,-0.02692150807062616,1469.5970695970695,-1.0,71.86227566797032,4.311769904525195,231.9319150009712,
2023-12-19 12:21:57.068000,-7.686746987951808,-5.686746987951808,-1.963855421686747,-5.7069282648681785,-7.554261189454322,-1.4935622317596566,2.0,4.349450549450549,229.91409802930775,-0.6781656080647979,-1.5338267000757533,-0.06433191538954583,1461.5384615384614,-1.0,71.86227566797032,4.312619978645263,231.88593653003784,
2023-12-19 12:21:57.076000,-7.710843373493976,-5.698795180722892,-1.9879518072289157,-5.726548129981606,-7.564071122011036,-1.537706928264868,2.0,4.346520146520146,230.06910500589922,-0.5185012528407429,-0.6866732707884162,-0.20709748849134604,1452.014652014652,-1.0,71.86227566797032,4.313456761762527,231.84069689742063,
2023-12-19 12:21:57.083000,-7.771084337349398,-5.698795180722892,-1.9397590361445785,-5.7363580625383195,-7.679337829552422,-1.491109748620478,2.0,4.346520146520146,230.06910500589922,0.09428354990967895,-0.4606957636501369,0.321892663597693,1443.2234432234432,-1.0,71.86227566797032,4.314280364157074,231.79618924144836,
2023-12-19 12:21:57.091000,-7.83132530120482,-5.698795180722892,-1.8915662650602412,-5.7290006131207845,-7.703862660944206,-1.4518700183936235,2.0,4.346520146520146,230.06910500589922,-0.01736495542217761,-0.1166598683060412,0.5087116135423335,1435.8974358974358,-1.0,71.86227566797032,4.315090896424933,231.75240669891548,
2023-12-19 12:21:57.099000,-7.819277108433735,-5.674698795180723,-1.9036144578313254,-5.7657878602084605,-7.671980380134886,-1.4322501532801961,2.0,4.347985347985348,229.9915754001685,-0.465940213274285,-0.32713711322183975,-0.0090903793485226,1431.5018315018315,-1.0,71.86227566797032,4.315888468822761,231.7093424467509,
2023-12-19 12:21:57.106000,-7.771084337349398,-5.674698795180723,-1.927710843373494,-5.721643163703249,-7.637645616186388,-1.4763948497854076,2.0,4.347985347985348,229.9915754001685,-0.5476370840860093,-0.319212167123129,0.31699784394848873,1428.5714285714284,-1.0,71.86227566797032,4.3166731921284605,231.6669896541172,
2023-12-19 12:21:57.114000,-7.783132530120482,-5.686746987951808,-1.9156626506024097,-5.7290006131207845,-7.630288166768853,-1.4445125689760883,2.0,4.347985347985348,229.9915754001685,0.03927510051861826,0.054192646116194836,0.5916904609288501,1428.5714285714284,-1.0,71.86227566797032,4.317445177559966,231.6253414868093,
2023-12-19 12:21:57.122000,-7.795180722891566,-5.698795180722892,-1.9036144578313254,-5.753525444512569,-7.667075413856529,-1.3979153893316982,2.0,4.347985347985348,229.9915754001685,0.1188741914806823,-0.1695705378474451,0.7475088864285301,1429.3040293040292,-1.0,71.86227566797032,4.31820453621082,231.58439113709798,
2023-12-19 12:21:57.129000,-7.771084337349398,-5.674698795180723,-1.9518072289156627,-5.6995708154506435,-7.6327406499080315,-1.4886572654812997,2.0,4.347985347985348,229.9915754001685,-0.13682186352776582,-0.2706136006060247,0.5476370840860093,1432.9670329670328,-1.0,71.86227566797032,4.318951378916189,231.54413183087243,
2023-12-19 12:21:57.137000,-7.746987951807229,-5.662650602409639,-1.9518072289156627,-5.68976088289393,-7.546903740036787,-1.5033721643163702,2.0,4.347985347985348,229.9915754001685,-0.06654623856418607,-0.21467280461511734,0.7947089330458599,1435.8974358974358,-1.0,71.86227566797032,4.319685815703453,231.504556858656,
2023-12-19 12:21:57.145000,-7.746987951807229,-5.686746987951808,-1.963855421686747,-5.753525444512569,-7.532188841201716,-1.5058246474555486,2.0,4.349450549450549,229.91409802930775,-0.07353883806305013,-0.20558242526659298,0.7797913874482834,1437.3626373626373,-1.0,71.86227566797032,4.320407956198936,231.46565955178673,
2023-12-19 12:21:57.152000,-7.746987951807229,-5.698795180722892,-2.0,-5.7069282648681785,-7.5812385039852845,-1.5278969957081545,2.0,4.347985347985348,229.9915754001685,-0.3683934502651357,0.13763766680263342,0.7962239962706142,1437.3626373626373,-1.0,71.86227566797032,4.32111791046615,231.42743323611836,
2023-12-19 12:21:57.160000,-7.759036144578314,-5.698795180722892,-2.0120481927710845,-5.738810545677498,-7.527283874923359,-1.537706928264868,2.0,4.347985347985348,229.9915754001685,-0.21793601771458596,0.4134957170328062,0.660101392692733,1438.8278388278388,-1.0,71.86227566797032,4.321815787991344,231.38987128781227,
2023-12-19 12:21:57.168000,-7.746987951807229,-5.734939759036145,-2.0,-5.746167995095034,-7.654812998160637,-1.542611894543225,2.0,4.349450549450549,229.91409802930775,-0.055008449391060685,0.12190431793019099,0.5067303770176568,1437.3626373626373,-1.0,71.86227566797032,4.322501696643002,231.35296719012487,
2023-12-19 12:21:57.175000,-7.783132530120482,-5.710843373493976,-1.9759036144578315,-5.755977927651747,-7.559166155732679,-1.5401594114040464,2.0,4.347985347985348,229.9915754001685,0.06176796223996309,0.04405337684284123,0.6168638191247598,1437.3626373626373,-1.0,71.86227566797032,4.323175744063832,231.31671445752625,
2023-12-19 12:21:57.183000,-7.759036144578314,-5.710843373493976,-1.9879518072289157,-5.758430410790925,-7.649908031882281,-1.542611894543225,2.0,4.347985347985348,229.9915754001685,0.10232503933337228,-0.0026804964745644456,0.26944816735621463,1436.6300366300366,-1.0,71.86227566797032,4.323838037173291,231.281106661921,
2023-12-19 12:21:57.191000,-7.783132530120482,-5.710843373493976,-1.963855421686747,-5.7290006131207845,-7.5812385039852845,-1.5352544451256898,2.0,4.349450549450549,229.91409802930775,-0.31303537089913247,-0.33681020919527,0.33890798904492725,1437.3626373626373,-1.0,71.86227566797032,4.3244886816098065,231.2461374619478,
2023-12-19 12:21:57.198000,-7.795180722891566,-5.710843373493976,-1.9759036144578315,-5.770692826486818,-7.6327406499080315,-1.5205395462906193,2.0,4.347985347985348,229.9915754001685,-0.5885437911543611,-0.46687255987413345,-0.11479517510634608,1438.8278388278388,-1.0,71.86227566797032,4.325127782622983,231.21180055567896,
2023-12-19 12:21:57.206000,-7.746987951807229,-5.698795180722892,-1.9759036144578315,-5.704475781729,-7.549356223175965,-1.5082771305947271,2.0,4.347985347985348,229.9915754001685,-0.6485636035196081,-0.8077617854437379,-0.31921216712312855,1441.0256410256409,-1.0,71.86227566797032,4.325755444638513,231.1780897033969,
2023-12-19 12:21:57.214000,-7.734939759036145,-5.710843373493976,-1.9759036144578315,-5.726548129981606,-7.529736358062538,-1.5107296137339055,2.0,4.349450549450549,229.91409802930775,-0.35930307091661307,-0.9494784686207093,-0.16957053784744422,1443.2234432234432,-1.0,71.86227566797032,4.32637177115108,231.1449987313418,
2023-12-19 12:21:57.221000,-7.759036144578314,-5.72289156626506,-2.0,-5.760882893930104,-7.546903740036787,-1.5328019619865112,2.0,4.349450549450549,229.91409802930775,-0.4222364664063863,-0.7395839403298184,0.085659343861081,1446.153846153846,-1.0,71.86227566797032,4.326976865153564,231.11252151076772,
2023-12-19 12:21:57.229000,-7.734939759036145,-5.72289156626506,-2.0120481927710845,-5.75107296137339,-7.622930717351318,-1.5475168608215817,2.0,4.346520146520146,230.06910500589922,-0.27014742730610136,-0.3903035953615763,0.12609987762950936,1446.8864468864467,-1.0,71.86227566797032,4.3275708292236175,231.08065195308112,
2023-12-19 12:21:57.237000,-7.759036144578314,-5.72289156626506,-2.0,-5.746167995095034,-7.605763335377069,-1.5205395462906193,2.0,4.347985347985348,229.9915754001685,-0.5126740865916907,-0.38366062583765476,0.3209603169978433,1443.956043956044,-1.0,71.86227566797032,4.328153764989601,231.04938403449387,
2023-12-19 12:21:57.244000,-7.759036144578314,-5.710843373493976,-2.0,-5.7290006131207845,-7.627835683629675,-1.5229920294297976,2.0,4.347985347985348,229.9915754001685,-0.660451022667676,-0.16525843482314548,0.3907697686614997,1441.7582417582416,-1.0,71.86227566797032,4.328725772923249,231.0187118088791,
2023-12-19 12:21:57.252000,-7.759036144578314,-5.710843373493976,-2.0,-5.790312691600245,-7.58859595340282,-1.5573267933782955,2.0,4.347985347985348,229.9915754001685,-0.6055591166015961,-0.4385525319037346,0.56640055940796,1439.5604395604394,-1.0,71.86227566797032,4.329286952875127,230.9886293809338,
2023-12-19 12:21:57.260000,-7.807228915662651,-5.734939759036145,-1.9518072289156627,-5.748620478234212,-7.654812998160637,-1.4886572654812997,2.0,4.347985347985348,229.9915754001685,-0.4588310704504401,-0.19241302954373418,0.6179127090495891,1439.5604395604394,-1.0,71.86227566797032,4.3298374036336185,230.95913092922729,
2023-12-19 12:21:57.267000,-7.795180722891566,-5.710843373493976,-1.9759036144578315,-5.768240343347639,-7.703862660944206,-1.496014714898835,2.0,4.347985347985348,229.9915754001685,-0.40452188100926445,-0.6208262921741152,0.3931006351611212,1441.0256410256409,-1.0,71.86227566797032,4.330377222524842,230.93021072858477,
2023-12-19 12:21:57.275000,-7.783132530120482,-5.710843373493976,-2.0,-5.667688534641324,-7.586143470263641,-1.5352544451256898,2.0,4.347985347985348,229.9915754001685,-0.2914748557776361,0.04253831361808689,0.20185303886719885,1442.4908424908424,-1.0,71.86227566797032,4.3309065059666905,230.90186311866324,
2023-12-19 12:21:57.283000,-7.771084337349398,-5.686746987951808,-1.9518072289156627,-5.702023298589822,-7.6400980993255665,-1.4862047823421214,2.0,4.347985347985348,229.9915754001685,-0.7612609987762956,-0.35032923489307133,-0.049297826466989284,1444.6886446886447,-1.0,71.86227566797032,4.3314253495013695,230.87408250193553,
2023-12-19 12:21:57.290000,-7.72289156626506,-5.686746987951808,-1.927710843373494,-5.7069282648681785,-7.627835683629675,-1.5033721643163702,2.0,4.347985347985348,229.9915754001685,-1.135131985315541,-0.2075636617912707,-0.21024415826583512,1445.4212454212454,-1.0,71.86227566797032,4.331933847868229,230.84686333947056,
2023-12-19 12:21:57.298000,-7.72289156626506,-5.710843373493976,-1.9397590361445785,-5.733905579399141,-7.519926425505824,-1.513182096873084,2.0,4.347985347985348,229.9915754001685,-0.6679097954664651,-0.39508187168579934,-0.26175630790746424,1446.8864468864467,-1.0,71.86227566797032,4.332432095504983,230.82020012263743,
2023-12-19 12:21:57.306000,-7.72289156626506,-5.710843373493976,-2.0,-5.7290006131207845,-7.5370938074800735,-1.5009196811771919,2.0,4.347985347985348,229.9915754001685,-0.6440184138453467,-0.5185012528407429,-0.16024707184895953,1446.153846153846,-1.0,71.86227566797032,4.332920186105578,230.79408739781275,
2023-12-19 12:21:57.313000,-7.72289156626506,-5.710843373493976,-1.9879518072289157,-5.7290006131207845,-7.58859595340282,-1.4886572654812997,2.0,4.347985347985348,229.9915754001685,-0.46768836314900103,0.18402191014509658,-0.12015616805547454,1445.4212454212454,-1.0,71.86227566797032,4.333398212709752,230.7685197612611,
2023-12-19 12:21:57.321000,-7.759036144578314,-5.710843373493976,-1.963855421686747,-5.733905579399141,-7.62047823421214,-1.5082771305947271,2.0,4.347985347985348,229.9915754001685,-0.5201328593904782,0.2847153429287337,-0.10850183555736834,1443.956043956044,-1.0,71.86227566797032,4.333866268219511,230.74349183007953,
2023-12-19 12:21:57.329000,-7.759036144578314,-5.710843373493976,-1.9759036144578315,-5.807480073574494,-7.5959534028203555,-1.4886572654812997,2.0,4.347985347985348,229.9915754001685,-0.5110424800419555,-0.1954431559932394,-0.09696404638424339,1443.956043956044,-1.0,71.86227566797032,4.334324445428745,230.71899824047028,
2023-12-19 12:21:57.336000,-7.795180722891566,-5.698795180722892,-1.9759036144578315,-5.682403433476394,-7.605763335377069,-1.5573267933782955,2.0,4.347985347985348,229.9915754001685,-0.5140726064914625,-0.6289843249227911,-0.37468678981411346,1439.5604395604394,-1.0,71.86227566797032,4.334772836600047,230.69503367132265,
2023-12-19 12:21:57.344000,-7.771084337349398,-5.734939759036145,-2.0,-5.7363580625383195,-7.615573267933782,-1.525444512568976,2.0,4.347985347985348,229.9915754001685,-0.8845638366062584,-0.2835499096789236,-0.5294563253889637,1435.8974358974358,-1.0,71.86227566797032,4.335211533571019,230.671592838187,
2023-12-19 12:21:57.352000,-7.783132530120482,-5.710843373493976,-2.0,-5.78295524218271,-7.627835683629675,-1.5328019619865112,2.0,4.347985347985348,229.9915754001685,-0.5512499271604222,-0.1712021443971803,-0.34928034496824206,1430.03663003663,-1.0,71.86227566797032,4.335640628285386,230.64867046351435,
2023-12-19 12:21:57.359000,-7.807228915662651,-5.72289156626506,-1.9879518072289157,-5.743715511955855,-7.6033108522378905,-1.5475168608215817,2.0,4.347985347985348,229.9915754001685,-0.3604685041664232,-0.12272012120505858,-0.323407726822446,1423.4432234432234,-1.0,71.86227566797032,4.336060212835074,230.62626127424693,
2023-12-19 12:21:57.367000,-7.807228915662651,-5.710843373493976,-1.963855421686747,-5.75107296137339,-7.615573267933782,-1.5328019619865112,2.0,4.347985347985348,229.9915754001685,-0.32282501019754184,0.0071091428238449095,-0.2537148184837713,1418.3150183150183,-1.0,71.86227566797032,4.336470379047272,230.60436002474822,
2023-12-19 12:21:57.375000,-7.783132530120482,-5.698795180722892,-1.9518072289156627,-5.7363580625383195,-7.551808706315144,-1.5033721643163702,2.0,4.347985347985348,229.9915754001685,-0.37818308956354507,-0.22842491696288034,0.06025289901520874,1415.3846153846152,-1.0,71.86227566797032,4.336871218598908,230.5829614903436,
2023-12-19 12:21:57.382000,-7.783132530120482,-5.698795180722892,-1.963855421686747,-5.738810545677498,-7.630288166768853,-1.537706928264868,2.0,4.346520146520146,230.06910500589922,-0.70811724258493,-0.21607132451488736,-0.005827166249053105,1413.1868131868132,-1.0,71.86227566797032,4.337262823095934,230.56206046277038,
2023-12-19 12:21:57.390000,-7.771084337349398,-5.698795180722892,-2.0,-5.709380748007357,-7.615573267933782,-1.525444512568976,2.0,4.345054945054945,230.14668689934246,-0.7272303478818254,0.13449099702814563,0.31000524444962424,1412.4542124542124,-1.0,71.86227566797032,4.33764528460965,230.54165171898455,
2023-12-19 12:21:57.398000,-7.759036144578314,-5.710843373493976,-2.0120481927710845,-5.716738197424893,-7.539546290619252,-1.537706928264868,2.0,4.346520146520146,230.06910500589922,-1.0387506555562036,-0.049763999766912634,0.6975118000116542,1411.7216117216117,-1.0,71.86227566797032,4.338018695054787,230.52173005416543,
2023-12-19 12:21:57.405000,-7.783132530120482,-5.686746987951808,-2.024096385542169,-5.760882893930104,-7.63519313304721,-1.554874310239117,2.0,4.346520146520146,230.06910500589922,-0.8753569139327549,-0.08099761086183756,0.42421770293106464,1412.4542124542124,-1.0,71.86227566797032,4.338383145738487,230.50229030896622,
2023-12-19 12:21:57.413000,-7.807228915662651,-5.710843373493976,-2.024096385542169,-5.6995708154506435,-7.627835683629675,-1.5818516247700796,2.0,4.346520146520146,230.06910500589922,-0.5936716974535282,-0.020045451896742058,0.7338733174057457,1415.3846153846152,-1.0,71.86227566797032,4.338738728027544,230.48332733361238,
2023-12-19 12:21:57.421000,-7.807228915662651,-5.698795180722892,-2.024096385542169,-5.75107296137339,-7.69650521152667,-1.6088289393010422,2.0,4.346520146520146,230.06910500589922,-0.5894761377542095,-0.006992599498864074,0.7203542917079424,1420.5128205128203,-1.0,71.86227566797032,4.33908553348478,230.46483597905336,
2023-12-19 12:21:57.428000,-7.807228915662651,-5.674698795180723,-1.9879518072289157,-5.694665849172287,-7.659717964438994,-1.5352544451256898,2.0,4.346520146520146,230.06910500589922,-0.876638890507546,-0.2720121205057982,0.704271312860556,1425.6410256410256,-1.0,71.86227566797032,4.339423654390387,230.44681106795687,
2023-12-19 12:21:57.436000,-7.807228915662651,-5.650602409638554,-1.9759036144578315,-5.621091354996934,-7.645003065603923,-1.5793991416309012,2.0,4.346520146520146,230.06910500589922,-0.8998310121787775,-0.2591923547578819,0.5812015616805548,1428.5714285714284,-1.0,71.86227566797032,4.339753183311626,230.42924741835841,
2023-12-19 12:21:57.444000,-7.795180722891566,-5.650602409638554,-2.0,-5.679950950337216,-7.600858369098712,-1.5892090741876148,2.0,4.346520146520146,230.06910500589922,-0.8774546937824135,-0.17586387739642242,0.6310821047724492,1432.2344322344322,-1.0,71.86227566797032,4.340074213196024,230.4121398383688,
2023-12-19 12:21:57.451000,-7.795180722891566,-5.63855421686747,-2.024096385542169,-5.682403433476394,-7.524831391784181,-1.5695892090741874,2.0,4.346520146520146,230.06910500589922,-1.5536390653225336,-0.4448458714527119,0.48248936542159543,1438.095238095238,-1.0,71.86227566797032,4.340386837883688,230.3954830977268,
2023-12-19 12:21:57.459000,-7.771084337349398,-5.662650602409639,-1.9759036144578315,-5.655426118945432,-7.62047823421214,-1.5401594114040464,2.0,4.345054945054945,230.14668689934246,-1.426257211118233,-0.48272245207155845,0.21805256103956636,1442.4908424908424,-1.0,71.86227566797032,4.340691152125268,230.37927192667274,
2023-12-19 12:21:57.466000,-7.795180722891566,-5.674698795180723,-2.0120481927710845,-5.704475781729,-7.706315144083384,-1.613733905579399,2.0,4.345054945054945,230.14668689934246,-1.530446943651302,-0.6752520249402717,0.30569314142532483,1445.4212454212454,-1.0,71.86227566797032,4.34098725110512,230.36350104101408,
2023-12-19 12:21:57.474000,-7.783132530120482,-5.674698795180723,-1.9518072289156627,-5.6848559166155725,-7.649908031882281,-1.5107296137339055,2.0,4.345054945054945,230.14668689934246,-1.175922149058912,-0.6686090554163502,0.22469553056348707,1444.6886446886447,-1.0,71.86227566797032,4.3412752303825375,230.3481651450532,
2023-12-19 12:21:57.482000,-7.795180722891566,-5.674698795180723,-1.9518072289156627,-5.738810545677498,-7.6400980993255665,-1.537706928264868,2.0,4.345054945054945,230.14668689934246,-1.3174057455859216,-0.47980886894703056,0.7242002214323174,1443.2234432234432,-1.0,71.86227566797032,4.341555186354835,230.33325890688556,
2023-12-19 12:21:57.489000,-7.771084337349398,-5.650602409638554,-1.9518072289156627,-5.697118332311465,-7.62047823421214,-1.4518700183936235,2.0,4.345054945054945,230.14668689934246,-1.0775595827748967,-0.5489190606608002,0.4404172251034321,1441.7582417582416,-1.0,71.86227566797032,4.341827216258923,230.31877695812867,
2023-12-19 12:21:57.497000,-7.795180722891566,-5.662650602409639,-1.9397590361445785,-5.743715511955855,-7.657265481299816,-1.4812998160637645,2.0,4.345054945054945,230.14668689934246,-1.2210244158265842,-0.5120913699667847,0.7722160713245149,1437.3626373626373,-1.0,71.86227566797032,4.3420914181691135,230.30471389385048,
2023-12-19 12:21:57.505000,-7.795180722891566,-5.650602409638554,-1.927710843373494,-5.716738197424893,-7.627835683629675,-1.4837522992029428,2.0,4.343589743589744,230.22432113341205,-1.2873375677408068,-0.7289784977565414,0.47409824602295897,1430.7692307692307,-1.0,71.86227566797032,4.342347890991034,230.29106427270776,
2023-12-19 12:21:57.512000,-7.795180722891566,-5.674698795180723,-1.963855421686747,-5.748620478234212,-7.6106683016554255,-1.5180870631514407,2.0,4.343589743589744,230.22432113341205,-1.3994522463725885,-0.6513606433191533,0.42316881300623516,1424.9084249084249,-1.0,71.86227566797032,4.3425967335008675,230.2778226685028,
2023-12-19 12:21:57.520000,-7.783132530120482,-5.674698795180723,-1.9879518072289157,-5.731453096259963,-7.593500919681177,-1.5058246474555486,2.0,4.342124542124542,230.3020077610933,-1.4986306159314728,-0.12773148417924324,0.09708058970922445,1422.7106227106226,-1.0,71.86227566797032,4.342838044783972,230.2649836457946,
2023-12-19 12:21:57.528000,-7.783132530120482,-5.674698795180723,-1.9879518072289157,-5.709380748007357,-7.6180257510729605,-1.5401594114040464,2.0,4.343589743589744,230.22432113341205,-0.9202260940504637,-0.08286230406153441,0.47922615232212573,1422.7106227106226,-1.0,71.86227566797032,4.343071924597136,230.25254173976452,
2023-12-19 12:21:57.535000,-7.759036144578314,-5.674698795180723,-2.0,-5.7290006131207845,-7.5665236051502145,-1.5156345800122624,2.0,4.34065934065934,230.37974683544306,-0.6647631256919756,0.3406561389196428,0.5230464425150049,1422.7106227106226,-1.0,71.86227566797032,4.343298473268145,230.2404914622388,
2023-12-19 12:21:57.543000,-7.759036144578314,-5.63855421686747,-1.9759036144578315,-5.714285714285714,-7.6253832004904964,-1.5303494788473329,2.0,4.34065934065934,230.37974683544306,-0.2720121205057982,0.5631373463084901,0.5506672105355167,1420.5128205128203,-1.0,71.86227566797032,4.34351779165991,230.22882730265314,
2023-12-19 12:21:57.551000,-7.771084337349398,-5.63855421686747,-1.963855421686747,-5.682403433476394,-7.561618638871857,-1.5107296137339055,2.0,4.34065934065934,230.37974683544306,-0.24800419555969905,0.9009964454285876,0.808227958743663,1419.047619047619,-1.0,71.86227566797032,4.343729980462779,230.21754376552147,
2023-12-19 12:21:57.558000,-7.795180722891566,-5.650602409638554,-1.9156626506024097,-5.687308399754752,-7.591048436541999,-1.461679950950337,2.0,4.34065934065934,230.37974683544306,-0.4680379931239453,0.679797214614533,0.9379406794475845,1419.7802197802198,-1.0,71.86227566797032,4.343935140568231,230.206635351263,
2023-12-19 12:21:57.566000,-7.759036144578314,-5.674698795180723,-1.9397590361445785,-5.711833231146535,-7.6033108522378905,-1.4788473329245861,2.0,4.34065934065934,230.37974683544306,-0.5042829671930549,0.8830487733815041,0.7010080997610862,1417.5824175824175,-1.0,71.86227566797032,4.3441333730133485,230.19609655895223,
2023-12-19 12:21:57.574000,-7.771084337349398,-5.674698795180723,-1.9518072289156627,-5.721643163703249,-7.6033108522378905,-1.4518700183936235,2.0,4.34065934065934,230.37974683544306,-0.34345317871918984,0.42701474273060924,0.6774663481149117,1413.9194139194137,-1.0,71.86227566797032,4.3443247784617425,230.18592191435965,
2023-12-19 12:21:57.581000,-7.759036144578314,-5.674698795180723,-1.9759036144578315,-5.760882893930104,-7.583690987124463,-1.5009196811771919,2.0,4.339194139194139,230.45753840958974,-0.4481090845521823,0.5569605500844936,0.3472991084435637,1408.7912087912086,-1.0,71.86227566797032,4.344509457662002,230.17610594465125,
2023-12-19 12:21:57.589000,-7.783132530120482,-5.686746987951808,-1.9879518072289157,-5.733905579399141,-7.6180257510729605,-1.496014714898835,2.0,4.339194139194139,230.45753840958974,-0.4613950236000237,0.8119573451430567,0.5865625546296838,1402.9304029304028,-1.0,71.86227566797032,4.344687511304597,230.16664318518508,
2023-12-19 12:21:57.597000,-7.795180722891566,-5.72289156626506,-1.9879518072289157,-5.763335377069282,-7.598405885959534,-1.5303494788473329,2.0,4.339194139194139,230.45753840958974,-0.42887943593030786,0.8206980945166368,0.6090554163510286,1397.069597069597,-1.0,71.86227566797032,4.344859038923748,230.15752823896892,
2023-12-19 12:21:57.604000,-7.783132530120482,-5.734939759036145,-2.0,-5.7657878602084605,-7.654812998160637,-1.5695892090741874,2.0,4.337728937728937,230.53538253673366,-0.0759862478876529,0.6003146669774481,0.8908571761552357,1392.6739926739926,-1.0,71.86227566797032,4.345024139795533,230.1487557280856,
2023-12-19 12:21:57.612000,-7.807228915662651,-5.734939759036145,-1.9759036144578315,-5.731453096259963,-7.676885346413243,-1.5475168608215817,2.0,4.339194139194139,230.45753840958974,-0.10826874890740709,0.43039449915506045,0.8057805489190609,1391.2087912087911,-1.0,71.86227566797032,4.345182912777579,230.14032030147604,
2023-12-19 12:21:57.620000,-7.819277108433735,-5.72289156626506,-2.024096385542169,-5.719190680564071,-7.654812998160637,-1.6039239730226853,2.0,4.337728937728937,230.53538253673366,0.2152555212400198,0.18542043004486836,0.9367752461977743,1392.6739926739926,-1.0,71.86227566797032,4.345335456145424,230.13221664410162,
2023-12-19 12:21:57.627000,-7.843373493975904,-5.72289156626506,-2.024096385542169,-5.763335377069282,-7.652360515021459,-1.554874310239117,2.0,4.337728937728937,230.53538253673366,-0.09008799021036189,0.17050288444729353,1.1303537089913174,1397.069597069597,-1.0,71.86227566797032,4.345481867530354,230.1244394800704,
2023-12-19 12:21:57.635000,-7.83132530120482,-5.698795180722892,-2.024096385542169,-5.6995708154506435,-7.637645616186388,-1.567136725935009,2.0,4.337728937728937,230.53538253673366,-0.07435464133791772,0.1363556902278425,1.199463900705087,1406.5934065934066,-1.0,71.86227566797032,4.345622243292902,230.1169836057479,
2023-12-19 12:21:57.643000,-7.819277108433735,-5.662650602409639,-2.072289156626506,-5.667688534641324,-7.593500919681177,-1.6235438381361127,2.0,4.336263736263737,230.613279270147,0.048248936542160024,-0.20383427539187698,1.1445719946390065,1419.7802197802198,-1.0,71.86227566797032,4.345756678877708,230.10984387073466,
2023-12-19 12:21:57.650000,-7.819277108433735,-5.650602409638554,-2.0481927710843375,-5.716738197424893,-7.598405885959534,-1.6088289393010422,2.0,4.336263736263737,230.613279270147,-0.3840102558125973,-0.22621059378824096,0.8614882582600083,1432.9670329670328,-1.0,71.86227566797032,4.345885268216983,230.1030152094085,
2023-12-19 12:21:57.658000,-7.819277108433735,-5.63855421686747,-2.060240963855422,-5.64316370324954,-7.6327406499080315,-1.601471489883507,2.0,4.336263736263737,230.613279270147,-0.06363265543965994,-0.13787075345259683,0.96159897441874,1445.4212454212454,-1.0,71.86227566797032,4.346008103554529,230.09649265011163,
2023-12-19 12:21:57.666000,-7.819277108433735,-5.626506024096386,-2.060240963855422,-5.6701410177805025,-7.694052728387492,-1.5597792765174738,2.0,4.3347985347985345,230.69122866317392,-0.3891381621117645,-0.647398170269798,1.0768603228250102,1458.6080586080584,-1.0,71.86227566797032,4.3461252762530505,230.09027127161505,
2023-12-19 12:21:57.673000,-7.783132530120482,-5.614457831325302,-2.072289156626506,-5.697118332311465,-7.63519313304721,-1.6554261189454322,2.0,4.3347985347985345,230.69122866317392,-0.7075345259600242,-0.7679039683002155,0.8420255229881707,1472.5274725274724,-1.0,71.86227566797032,4.346236876127005,230.08434623852364,
2023-12-19 12:21:57.681000,-7.795180722891566,-5.63855421686747,-2.072289156626506,-5.7363580625383195,-7.5812385039852845,-1.613733905579399,2.0,4.3347985347985345,230.69122866317392,-0.8225627877163336,-1.0849018122487033,1.2656605092943303,1484.2490842490843,-1.0,71.86227566797032,4.346342990777018,230.07871283699822,
2023-12-19 12:21:57.689000,-7.783132530120482,-5.650602409638554,-2.0481927710843375,-5.697118332311465,-7.664622930717351,-1.6161863887185774,2.0,4.331868131868132,230.8472856418062,-0.9393391993473574,-0.9695239205174531,1.120797156342871,1492.3076923076922,-1.0,71.86227566797032,4.346443705486074,230.07336648049528,
2023-12-19 12:21:57.696000,-7.807228915662651,-5.662650602409639,-2.060240963855422,-5.6995708154506435,-7.654812998160637,-1.6088289393010422,2.0,4.331868131868132,230.8472856418062,-0.9349105529980752,-0.9608997144688538,1.1143872734689122,1501.098901098901,-1.0,71.86227566797032,4.346539103574057,230.06830268956878,
2023-12-19 12:21:57.704000,-7.819277108433735,-5.674698795180723,-2.0481927710843375,-5.726548129981606,-7.6695278969957075,-1.64316370324954,2.0,4.331868131868132,230.8472856418062,-0.8104422819183024,-1.4877920867082344,1.721577996620244,1508.4249084249084,-1.0,71.86227566797032,4.346629265984996,230.06351711385614,
2023-12-19 12:21:57.712000,-7.843373493975904,-5.674698795180723,-2.0,-5.758430410790925,-7.6695278969957075,-1.5278969957081545,2.0,4.331868131868132,230.8472856418062,-0.44065031175339486,-1.4782355340597866,1.5868539129421355,1514.2857142857142,-1.0,71.86227566797032,4.346714270697822,230.0590055644212,
2023-12-19 12:21:57.719000,-7.807228915662651,-5.63855421686747,-1.9759036144578315,-5.6480686695278965,-7.674432863274064,-1.5793991416309012,2.0,4.331868131868132,230.8472856418062,-0.46838762309888776,-1.6698327603286516,1.3905949536740285,1520.8791208791208,-1.0,71.86227566797032,4.346794193123913,230.05476399201658,
2023-12-19 12:21:57.727000,-7.795180722891566,-5.602409638554217,-2.0,-5.682403433476394,-7.657265481299816,-1.5597792765174738,2.0,4.330402930402931,230.92539333446118,-0.37538604976399803,-1.4909387564827221,1.423227084668726,1525.2747252747251,-1.0,71.86227566797032,4.3468691064747595,230.05078846703358,
2023-12-19 12:21:57.735000,-7.819277108433735,-5.602409638554217,-2.0120481927710845,-5.638258736971183,-7.6327406499080315,-1.5229920294297976,2.0,4.330402930402931,230.92539333446118,-0.6463492803449687,-1.5713536507196555,1.2577355631956186,1526.007326007326,-1.0,71.86227566797032,4.346939081117945,230.0470752137331,
2023-12-19 12:21:57.742000,-7.783132530120482,-5.602409638554217,-1.9879518072289157,-5.679950950337216,-7.664622930717351,-1.5205395462906193,2.0,4.330402930402931,230.92539333446118,-0.7038051395606304,-1.6369675426839931,1.2148476196025877,1526.007326007326,-1.0,71.86227566797032,4.347004184397451,230.04362061971943,
2023-12-19 12:21:57.750000,-7.783132530120482,-5.590361445783133,-2.0120481927710845,-5.638258736971183,-7.671980380134886,-1.5107296137339055,2.0,4.330402930402931,230.92539333446118,-0.7753627410990029,-1.8532719538488438,1.6753102966027626,1524.5421245421244,-1.0,71.86227566797032,4.347064480953457,230.04042121879274,
2023-12-19 12:21:57.758000,-7.759036144578314,-5.566265060240964,-1.9879518072289157,-5.667688534641324,-7.654812998160637,-1.5009196811771919,2.0,4.328937728937729,231.00355390082925,-0.4957753044694364,-1.2121671231280233,1.5543383252724194,1523.0769230769229,827.2705078125,72.52766710934041,4.347120032171052,230.03747372048608,
2023-12-19 12:21:57.765000,-7.795180722891566,-5.578313253012048,-1.963855421686747,-5.628448804414469,-7.63519313304721,-1.466584917228694,2.0,4.328937728937729,231.00355390082925,-0.016665695472290857,-0.8780374104073194,1.1600722568614878,1520.14652014652,-1.0,72.52766710934041,4.347170896095027,230.03477501424146,
2023-12-19 12:21:57.773000,-7.795180722891566,-5.566265060240964,-1.963855421686747,-5.579399141630901,-7.6327406499080315,-1.4567749846719804,2.0,4.328937728937729,231.00355390082925,0.19975525901753902,-0.6068410931763888,1.3636734456034023,1516.4835164835163,-1.0,72.52766710934041,4.34721712724932,230.03232217894714,
2023-12-19 12:21:57.781000,-7.795180722891566,-5.55421686746988,-1.9397590361445785,-5.599019006744328,-7.659717964438994,-1.491109748620478,2.0,4.327472527472527,231.08176739461658,-0.09906182623390192,-0.9970281452129826,1.0929433016723955,1509.1575091575091,-1.0,72.52766710934041,4.347258776569984,230.03011248661988,
2023-12-19 12:21:57.788000,-7.783132530120482,-5.55421686746988,-1.9156626506024097,-5.59656652360515,-7.600858369098712,-1.4322501532801961,2.0,4.327472527472527,231.08176739461658,0.16980362449740677,-1.0182390303595366,0.7758289143989286,1501.098901098901,-1.0,72.52766710934041,4.347295891348068,230.02814340515027,
2023-12-19 12:21:57.796000,-7.771084337349398,-5.55421686746988,-1.927710843373494,-5.599019006744328,-7.645003065603923,-1.4445125689760883,2.0,4.326007326007326,231.16003386960205,0.28401608297884867,-0.46104539362507946,0.6137171493502706,1492.3076923076922,-1.0,72.52766710934041,4.347328515536548,230.02641258166423,
2023-12-19 12:21:57.804000,-7.759036144578314,-5.55421686746988,-1.9156626506024097,-5.569589209074187,-7.637645616186388,-1.419987737584304,2.0,4.326007326007326,231.16003386960205,0.31909562379814815,-0.3655964104655904,0.4842375152963115,1481.3186813186812,-1.0,72.52766710934041,4.347356689154522,230.0249178744571,
2023-12-19 12:21:57.811000,-7.771084337349398,-5.55421686746988,-1.9518072289156627,-5.589209074187615,-7.529736358062538,-1.407725321888412,2.0,4.326007326007326,231.16003386960205,0.5362158382378648,-0.10267466930831479,0.3553405978672577,1467.3992673992673,-1.0,72.52766710934041,4.3473804477368745,230.0236573824461,
2023-12-19 12:21:57.819000,-7.771084337349398,-5.55421686746988,-1.9156626506024097,-5.589209074187615,-7.608215818516247,-1.525444512568976,2.0,4.324542124542124,231.2383533796375,1.0099644542858797,-0.14556261290134592,0.32072723034788114,1453.4798534798533,-1.0,72.52766710934041,4.347399823270453,230.0226293949327,
2023-12-19 12:21:57.827000,-7.795180722891566,-5.578313253012048,-1.963855421686747,-5.5744941753525445,-7.627835683629675,-1.496014714898835,2.0,4.324542124542124,231.2383533796375,0.7015908163859929,0.028902744595302985,-0.12679913757939482,1443.2234432234432,-1.0,72.52766710934041,4.347414844124121,230.02183239516896,
2023-12-19 12:21:57.834000,-7.843373493975904,-5.614457831325302,-1.9518072289156627,-5.6480686695278965,-7.708767627222563,-1.461679950950337,2.0,4.324542124542124,231.2383533796375,1.314841792436338,0.0939339199347347,0.2716624905308544,1435.164835164835,-1.0,72.52766710934041,4.3474255344654775,230.0212650915943,
2023-12-19 12:21:57.842000,-7.867469879518072,-5.578313253012048,-1.9518072289156627,-5.652973635806253,-7.77498467198038,-1.4126302881667687,2.0,4.321611721611721,231.39515172063062,1.8353242818017603,0.06829438843890208,0.0569896859157399,1427.8388278388277,-1.0,72.52766710934041,4.347431914286137,230.02092641651387,
2023-12-19 12:21:57.849000,-7.891566265060241,-5.602409638554217,-1.9518072289156627,-5.608828939301042,-7.713672593500919,-1.4641324340895157,2.0,4.321611721611721,231.39515172063062,2.2160713245148873,-0.050929433016724465,0.27317755375560876,1424.1758241758241,-1.0,72.52766710934041,4.347433999404164,230.0208155257899,
2023-12-19 12:21:57.857000,-7.903614457831326,-5.602409638554217,-1.9397590361445785,-5.6480686695278965,-7.69650521152667,-1.5156345800122624,2.0,4.321611721611721,231.39515172063062,1.8754151855952446,-0.2552298817085248,0.4228191830312922,1420.5128205128203,-1.0,72.52766710934041,4.347431801727718,230.02093178465523,
2023-12-19 12:21:57.865000,-7.891566265060241,-5.602409638554217,-1.963855421686747,-5.638258736971183,-7.733292458614347,-1.5058246474555486,2.0,4.321611721611721,231.39515172063062,2.039857817143522,-0.5761901987063698,0.3879727288619555,1416.8498168498168,-1.0,72.52766710934041,4.3474253287556355,230.02127479457823,
2023-12-19 12:21:57.872000,-7.855421686746988,-5.614457831325302,-1.9759036144578315,-5.59656652360515,-7.730839975475168,-1.5499693439607602,2.0,4.321611721611721,231.39515172063062,1.3604102325039336,-0.1994056290425965,0.5801526717557252,1418.3150183150183,-1.0,72.52766710934041,4.347414583720805,230.02184438556407,
2023-12-19 12:21:57.880000,-7.867469879518072,-5.590361445783133,-2.0,-5.650521152667075,-7.728387492335989,-1.5524218270999386,2.0,4.321611721611721,231.39515172063062,1.7700600198123653,-0.4361051220791336,0.6486801468445897,1424.1758241758241,-1.0,72.52766710934041,4.347399566133387,230.0226405870006,
2023-12-19 12:21:57.888000,-7.855421686746988,-5.590361445783133,-2.024096385542169,-5.625996321275291,-7.6989576946658485,-1.5499693439607602,2.0,4.321611721611721,231.39515172063062,1.5035254355806769,-0.3640813472408361,0.6524095332439841,1430.03663003663,-1.0,72.52766710934041,4.347380271880524,230.02366362232158,
2023-12-19 12:21:57.895000,-7.867469879518072,-5.602409638554217,-2.024096385542169,-5.625996321275291,-7.730839975475168,-1.5916615573267934,2.0,4.32014652014652,231.47363065965746,1.4067944758463968,-0.15383718897500093,0.7138278655090028,1437.3626373626373,-1.0,72.52766710934041,4.347356693305817,230.02491390474177,
2023-12-19 12:21:57.903000,-7.867469879518072,-5.578313253012048,-2.024096385542169,-5.652973635806253,-7.6989576946658485,-1.6161863887185774,2.0,4.32014652014652,231.47363065965746,1.3438610803566218,0.14521298292640342,1.2636792727696518,1441.7582417582416,-1.0,72.52766710934041,4.347328818845617,230.02639205676013,
2023-12-19 12:21:57.911000,-7.855421686746988,-5.602409638554217,-2.036144578313253,-5.660331085223789,-7.691600245248313,-1.5646842427958307,2.0,4.318681318681318,231.5521628498728,1.1774372122836663,0.15197249577530408,1.306683759687663,1443.956043956044,-1.0,72.52766710934041,4.347296633523671,230.0280988837077,
2023-12-19 12:21:57.918000,-7.879518072289157,-5.590361445783133,-2.024096385542169,-5.621091354996934,-7.716125076640098,-1.6112814224402205,2.0,4.318681318681318,231.5521628498728,0.26478643435697247,0.2316881300623507,1.4728745411106572,1442.4908424908424,-1.0,72.52766710934041,4.347260118544133,230.03003539556357,
2023-12-19 12:21:57.926000,-7.843373493975904,-5.626506024096386,-2.0120481927710845,-5.64316370324954,-7.738197424892704,-1.5622317596566522,2.0,4.318681318681318,231.5521628498728,0.4338907989044925,0.18588660334479346,1.1319853155410524,1438.8278388278388,-1.0,72.52766710934041,4.347219250930613,230.03220282628445,
2023-12-19 12:21:57.934000,-7.867469879518072,-5.614457831325302,-2.024096385542169,-5.716738197424893,-7.6989576946658485,-1.572041692213366,2.0,4.318681318681318,231.5521628498728,0.23238739001223746,-0.07412155468795431,0.9602004545189675,1435.164835164835,-1.0,72.52766710934041,4.347174004651719,230.03460257359055,
2023-12-19 12:21:57.941000,-7.867469879518072,-5.63855421686747,-2.024096385542169,-5.6848559166155725,-7.733292458614347,-1.5818516247700796,2.0,4.317216117216117,231.63074834549468,0.0,-0.7628926053260291,0.7435464133791738,1431.5018315018315,-1.0,72.52766710934041,4.347124350774718,230.03723619077377,
2023-12-19 12:21:57.949000,-7.855421686746988,-5.626506024096386,-2.024096385542169,-5.657878602084611,-7.62047823421214,-1.5475168608215817,2.0,4.317216117216117,231.63074834549468,0.07237340481324003,-1.1432900180642152,0.8807179068818837,1430.7692307692307,-1.0,72.52766710934041,4.347070257174524,230.04010540238784,
2023-12-19 12:21:57.957000,-7.819277108433735,-5.63855421686747,-2.036144578313253,-5.64316370324954,-7.642550582464745,-1.6358062538320048,2.0,4.3157509157509155,231.7093872008148,0.31571586737369695,-1.5384884330749953,0.9262863469494779,1430.7692307692307,-1.0,72.52766710934041,4.347011689099411,230.0432120740854,
2023-12-19 12:21:57.964000,-7.819277108433735,-5.63855421686747,-2.0,-5.682403433476394,-7.645003065603923,-1.5744941753525443,2.0,4.3157509157509155,231.7093872008148,0.09824602295903433,-1.870986539245964,1.048773381504574,1431.5018315018315,-1.0,72.52766710934041,4.346948608833183,230.04655823071948,
2023-12-19 12:21:57.972000,-7.819277108433735,-5.63855421686747,-2.0,-5.6774984671980375,-7.752912323727774,-1.5793991416309012,2.0,4.3157509157509155,231.7093872008148,0.2118757648155703,-2.029019287920284,0.882699143406562,1430.7692307692307,-1.0,72.52766710934041,4.346880975401193,230.05014607208264,
2023-12-19 12:21:57.980000,-7.843373493975904,-5.602409638554217,-1.963855421686747,-5.638258736971183,-7.723482526057633,-1.525444512568976,2.0,4.314285714285714,231.78807947019868,0.21304119806538216,-2.0168987821222544,0.8722102441582652,1431.5018315018315,-1.0,72.52766710934041,4.346808745760443,230.05397790929405,
2023-12-19 12:21:57.987000,-7.855421686746988,-5.614457831325302,-1.927710843373494,-5.6333537706928265,-7.654812998160637,-1.525444512568976,2.0,4.314285714285714,231.78807947019868,0.24357554921042032,-2.0030301264495085,0.8963347124293457,1432.9670329670328,-1.0,72.52766710934041,4.346731874522477,230.05805617978484,
2023-12-19 12:21:57.995000,-7.83132530120482,-5.566265060240964,-1.9156626506024097,-5.618638871857756,-7.6621704475781724,-1.5278969957081545,2.0,4.312820512820513,231.86682520808563,0.14614532952625184,-2.2131577413903614,0.8011188159198173,1436.6300366300366,-1.0,72.52766710934041,4.346650313683994,230.06238346170431,
2023-12-19 12:21:58.003000,-7.855421686746988,-5.578313253012048,-1.927710843373494,-5.6995708154506435,-7.706315144083384,-1.4837522992029428,2.0,4.312820512820513,231.86682520808563,-0.22784220033797614,-1.8243692092535408,0.6757181982401953,1441.0256410256409,-1.0,72.52766710934041,4.346564014263299,230.06696238677338,
2023-12-19 12:21:58.010000,-7.819277108433735,-5.614457831325302,-1.9156626506024097,-5.657878602084611,-7.652360515021459,-1.4641324340895157,2.0,4.312820512820513,231.86682520808563,-0.3096556144746813,-1.860381096672687,0.6844589476137747,1446.153846153846,-1.0,72.52766710934041,4.3464729263308834,230.07179563873484,
2023-12-19 12:21:58.018000,-7.819277108433735,-5.590361445783133,-1.927710843373494,-5.621091354996934,-7.615573267933782,-1.5033721643163702,2.0,4.312820512820513,231.86682520808563,-0.3286521764465941,-1.2537730901462616,0.5877279878794948,1448.3516483516482,-1.0,72.52766710934041,4.346376998307996,230.07688599055143,
2023-12-19 12:21:58.026000,-7.83132530120482,-5.578313253012048,-1.8915662650602412,-5.618638871857756,-7.703862660944206,-1.39546290619252,2.0,4.311355311355311,231.94562446898897,0.0692267350387505,-1.298292640289028,0.9187110308257084,1447.6190476190475,-1.0,72.52766710934041,4.346276177289418,230.08223628720546,
2023-12-19 12:21:58.033000,-7.843373493975904,-5.578313253012048,-1.9156626506024097,-5.572041692213365,-7.733292458614347,-1.4763948497854076,2.0,4.311355311355311,231.94562446898897,0.4217702931064629,-0.4752636792727693,0.9865392459646867,1443.956043956044,-1.0,72.52766710934041,4.346170409793248,230.08784940605395,
2023-12-19 12:21:58.041000,-7.867469879518072,-5.578313253012048,-1.9036144578313254,-5.584304107909258,-7.671980380134886,-1.491109748620478,2.0,4.311355311355311,231.94562446898897,0.3411223122195679,-0.10826874890740709,0.639007050871161,1438.8278388278388,-1.0,72.52766710934041,4.346059641884612,230.0937282502976,
2023-12-19 12:21:58.049000,-7.879518072289157,-5.566265060240964,-1.8795180722891567,-5.601471489883507,-7.652360515021459,-1.4297976701410178,2.0,4.30989010989011,232.0244773074962,0.550900297185478,-0.2814521298292633,0.7810733640230751,1435.164835164835,-1.0,72.52766710934041,4.34594381898516,230.09987575887607,
2023-12-19 12:21:58.056000,-7.879518072289157,-5.566265060240964,-1.8915662650602412,-5.608828939301042,-7.752912323727774,-1.4003678724708768,2.0,4.30989010989011,232.0244773074962,0.6942485869121845,-0.8837480333313891,0.8297884738651594,1434.4322344322343,-1.0,72.52766710934041,4.345822886176578,230.1062948906116,
2023-12-19 12:21:58.064000,-7.867469879518072,-5.578313253012048,-1.8554216867469882,-5.650521152667075,-7.723482526057633,-1.3709380748007356,2.0,4.308424908424908,232.103383778269,0.9285006701241189,-0.7477419730784926,0.9069401550026219,1433.6996336996335,-1.0,72.52766710934041,4.345696788400587,230.1129886136005,
2023-12-19 12:21:58.072000,-7.83132530120482,-5.55421686746988,-1.8674698795180724,-5.58185162477008,-7.664622930717351,-1.4469650521152666,2.0,4.308424908424908,232.103383778269,1.3745119748266426,-0.8114911718431316,0.6163976458248347,1432.9670329670328,-1.0,72.52766710934041,4.345565470728402,230.11995989092037,
2023-12-19 12:21:58.079000,-7.843373493975904,-5.55421686746988,-1.8313253012048194,-5.618638871857756,-7.642550582464745,-1.407725321888412,2.0,4.308424908424908,232.103383778269,1.0872326787483253,-1.085251442223646,0.5109259367169755,1433.6996336996335,-1.0,72.52766710934041,4.345428879017594,230.12721164574836,
2023-12-19 12:21:58.087000,-7.819277108433735,-5.566265060240964,-1.927710843373494,-5.6407112201103615,-7.674432863274064,-1.5229920294297976,2.0,4.306959706959707,232.18234393604357,0.8184837713419957,-1.533826700075755,0.2829671930540168,1434.4322344322343,-1.0,72.52766710934041,4.345286960604198,230.13474672423823,
2023-12-19 12:21:58.095000,-7.795180722891566,-5.55421686746988,-1.927710843373494,-5.606376456161864,-7.561618638871857,-1.4837522992029428,2.0,4.306959706959707,232.18234393604357,0.7548511159023374,-1.152846570712663,-0.3820290192879196,1434.4322344322343,-1.0,72.52766710934041,4.345139663588338,230.14256793382464,
2023-12-19 12:21:58.102000,-7.807228915662651,-5.566265060240964,-1.9759036144578315,-5.613733905579399,-7.627835683629675,-1.513182096873084,2.0,4.306959706959707,232.18234393604357,0.7519375327778114,-1.3675193753277786,-0.8878270497057279,1432.9670329670328,-1.0,72.52766710934041,4.344986937066491,230.15067803090926,
2023-12-19 12:21:58.110000,-7.807228915662651,-5.566265060240964,-1.9879518072289157,-5.616186388718577,-7.608215818516247,-1.471489883507051,2.0,4.306959706959707,232.18234393604357,0.867781597808985,-1.521006934327837,-0.8287395839403301,1429.3040293040292,-1.0,72.52766710934041,4.344828732309575,230.15907965789194,
2023-12-19 12:21:58.118000,-7.819277108433735,-5.55421686746988,-1.9759036144578315,-5.540159411404046,-7.5959534028203555,-1.5058246474555486,2.0,4.305494505494505,232.26135783563043,1.4553930423634993,-1.2457316007225683,-1.2408367810733645,1424.9084249084249,-1.0,72.52766710934041,4.344665002989812,230.16777533108151,
2023-12-19 12:21:58.125000,-7.807228915662651,-5.506024096385542,-1.9397590361445785,-5.464132434089516,-7.564071122011036,-1.5328019619865112,2.0,4.305494505494505,232.26135783563043,2.058271662490531,-1.2291824485752583,-1.3880310005244445,1422.7106227106226,-1.0,72.52766710934041,4.344495704455637,230.1767674795568,
2023-12-19 12:21:58.133000,-7.783132530120482,-5.481927710843374,-1.9759036144578315,-5.50337216431637,-7.6327406499080315,-1.4812998160637645,2.0,4.304029304029304,232.34042553191492,1.4358137637666788,-0.7563661791270901,-1.7770526193112293,1419.7802197802198,-1.0,72.52766710934041,4.344320793949894,230.18605843358623,
2023-12-19 12:21:58.141000,-7.807228915662651,-5.493975903614458,-1.9397590361445785,-5.500919681177192,-7.6989576946658485,-1.5278969957081545,2.0,4.305494505494505,232.26135783563043,0.8924887827049709,-0.21152613484062607,-1.7216945399452248,1419.047619047619,-1.0,72.52766710934041,4.344140231277945,230.19565038914905,
2023-12-19 12:21:58.148000,-7.867469879518072,-5.506024096385542,-1.927710843373494,-5.473942366646229,-7.684242795830778,-1.5450643776824033,2.0,4.302564102564102,232.41954707985698,0.4912301147951751,-0.2200337975642462,-1.9395140143348284,1418.3150183150183,-1.0,72.52766710934041,4.34395397897672,230.20554539851602,
2023-12-19 12:21:58.156000,-7.91566265060241,-5.518072289156627,-1.9518072289156627,-5.508277130594727,-7.6817903126916,-1.5205395462906193,2.0,4.302564102564102,232.41954707985698,0.3372763824951916,-0.07575316123768949,-1.5601654915214735,1416.8498168498168,-1.0,72.52766710934041,4.343762003038806,230.21574533217813,
2023-12-19 12:21:58.164000,-7.9397590361445785,-5.518072289156627,-1.9397590361445785,-5.547516860821582,-7.76026977314531,-1.5303494788473329,2.0,4.302564102564102,232.41954707985698,0.1364722335528233,0.4975234543441507,-1.4887244333080818,1415.3846153846152,-1.0,72.52766710934041,4.343564272402296,230.22625190639988,
2023-12-19 12:21:58.171000,-7.987951807228916,-5.530120481927711,-1.9518072289156627,-5.584304107909258,-7.860821581851624,-1.513182096873084,2.0,4.301098901098901,232.49872253449158,-0.39752928151040207,0.8701124643086052,-0.8843307499562966,1412.4542124542124,-1.0,72.52766710934041,4.343360758674693,230.2370666969624,
2023-12-19 12:21:58.179000,-8.024096385542169,-5.55421686746988,-1.9036144578313254,-5.5744941753525445,-7.846106683016554,-1.5156345800122624,2.0,4.301098901098901,232.49872253449158,-0.4376201853038862,0.6117359128255926,-0.5756074820814638,1410.2564102564102,-1.0,72.52766710934041,4.343151436371661,230.24819112688203,
2023-12-19 12:21:58.187000,-8.036144578313253,-5.590361445783133,-1.9518072289156627,-5.5744941753525445,-7.892703862660944,-1.5058246474555486,2.0,4.301098901098901,232.49872253449158,-1.0260474331332663,0.3547578812423501,-0.3293514363964806,1410.2564102564102,-1.0,72.52766710934041,4.342936283496471,230.259626435651,
2023-12-19 12:21:58.194000,-8.024096385542169,-5.602409638554217,-1.9397590361445785,-5.679950950337216,-7.779889638258736,-1.5205395462906193,2.0,4.301098901098901,232.49872253449158,-1.4263737544432138,-0.05326029951634467,-0.4234018996561977,1410.989010989011,-1.0,72.52766710934041,4.342715281685396,230.27137367097296,
2023-12-19 12:21:58.202000,-7.951807228915663,-5.614457831325302,-1.963855421686747,-5.667688534641324,-7.770079705702023,-1.5058246474555486,2.0,4.2996336996336995,232.57795195092862,-1.0480741215546878,-0.29275683235242705,0.21665404113979414,1413.1868131868132,-1.0,72.52766710934041,4.34248841686917,230.28343365359788,
2023-12-19 12:21:58.209000,-7.9397590361445785,-5.63855421686747,-1.9518072289156627,-5.672593500919681,-7.777437155119558,-1.4935622317596566,2.0,4.2996336996336995,232.57795195092862,-1.0410815220558238,-0.13449099702814563,0.9858399860148012,1413.1868131868132,-1.0,72.52766710934041,4.342255678870451,230.29580699908266,
2023-12-19 12:21:58.217000,-7.903614457831326,-5.626506024096386,-1.9759036144578315,-5.630901287553648,-7.772532188841201,-1.4445125689760883,2.0,4.2996336996336995,232.57795195092862,-0.530738301963755,-0.5296894120389241,1.1979488374803335,1411.7216117216117,-1.0,72.52766710934041,4.342017061024062,230.30849413789878,
2023-12-19 12:21:58.225000,-7.867469879518072,-5.614457831325302,-1.963855421686747,-5.625996321275291,-7.6695278969957075,-1.4812998160637645,2.0,4.2996336996336995,232.57795195092862,-0.3884389021618795,-0.22073305751413125,1.287337567740807,1408.7912087912086,-1.0,72.52766710934041,4.341772561225511,230.32149525925098,
2023-12-19 12:21:58.232000,-7.843373493975904,-5.590361445783133,-1.9518072289156627,-5.599019006744328,-7.752912323727774,-1.4690374003678723,2.0,4.298168498168498,232.65723538435316,0.027154594720586966,-0.1721344909970287,1.2710215022434588,1403.6630036630036,-1.0,72.52766710934041,4.341522181561039,230.33481033056958,
2023-12-19 12:21:58.240000,-7.795180722891566,-5.578313253012048,-1.9036144578313254,-5.579399141630901,-7.6400980993255665,-1.4248927038626609,2.0,4.298168498168498,232.65723538435316,-0.5515995571353647,-0.07552007458772783,1.071848959850825,1400.7326007326005,-1.0,72.52766710934041,4.34126592795983,230.34843911637554,
2023-12-19 12:21:58.248000,-7.783132530120482,-5.542168674698796,-1.8554216867469882,-5.527896995708154,-7.549356223175965,-1.4567749846719804,2.0,4.298168498168498,232.65723538435316,-0.5171027329409711,-0.37655148301380986,0.753452596002564,1400.7326007326005,-1.0,72.52766710934041,4.341003810677553,230.36238115262165,
2023-12-19 12:21:58.255000,-7.734939759036145,-5.530120481927711,-1.8554216867469882,-5.545064377682404,-7.564071122011036,-1.3758430410790925,2.0,4.296703296703297,232.73657289002557,-0.5145387797913875,-0.36827690694015486,0.7433133267292112,1404.3956043956043,-1.0,72.52766710934041,4.340735844802078,230.37663571926242,
2023-12-19 12:21:58.263000,-7.771084337349398,-5.530120481927711,-1.8674698795180724,-5.552421827099939,-7.6106683016554255,-1.3930104230533413,2.0,4.296703296703297,232.73657289002557,-0.6642969523920522,0.630266301497582,0.16968708117242637,1409.5238095238094,-1.0,72.52766710934041,4.340462049798403,230.39120186481725,
2023-12-19 12:21:58.271000,-7.795180722891566,-5.518072289156627,-1.8313253012048194,-5.552421827099939,-7.664622930717351,-1.3684855916615573,2.0,4.296703296703297,232.73657289002557,-0.27748965677990794,1.3482897267059024,-0.2922906590525024,1413.1868131868132,-1.0,72.52766710934041,4.34018244946397,230.4060784086952,
2023-12-19 12:21:58.278000,-7.807228915662651,-5.518072289156627,-1.8192771084337351,-5.572041692213365,-7.649908031882281,-1.3930104230533413,2.0,4.295238095238095,232.8159645232816,0.10675368568265274,1.3400151506322473,-0.12644950760445164,1415.3846153846152,-1.0,72.52766710934041,4.339897071940617,230.42126393989005,
2023-12-19 12:21:58.286000,-7.83132530120482,-5.493975903614458,-1.8313253012048194,-5.559779276517474,-7.615573267933782,-1.3218884120171672,2.0,4.295238095238095,232.8159645232816,-0.030184721170095657,1.5657595711205632,-1.0625254938523399,1413.1868131868132,-1.0,72.52766710934041,4.339605949290774,230.43675683990062,
2023-12-19 12:21:58.294000,-7.807228915662651,-5.518072289156627,-1.8313253012048194,-5.589209074187615,-7.622930717351318,-1.4396076026977314,2.0,4.295238095238095,232.8159645232816,-0.42922906590525034,1.267641745819009,-1.596410465590583,1410.989010989011,-1.0,72.52766710934041,4.339309117905166,230.4525552611035,
2023-12-19 12:21:58.301000,-7.819277108433735,-5.530120481927711,-1.8433734939759037,-5.638258736971183,-7.723482526057633,-1.361128142244022,2.0,4.292307692307692,232.97491039426524,-0.4617446535749662,1.6750772099527995,-1.9899772740516288,1408.058608058608,-1.0,72.52766710934041,4.339006618933218,230.4686571032701,
2023-12-19 12:21:58.309000,-7.855421686746988,-5.566265060240964,-1.8433734939759037,-5.635806253832005,-7.6989576946658485,-1.4543225015328018,2.0,4.292307692307692,232.97491039426524,-0.3531262746926166,1.5740341471942183,-1.6785735097022318,1406.5934065934066,-1.0,72.52766710934041,4.33869849771878,230.48506004458793,
2023-12-19 12:21:58.317000,-7.903614457831326,-5.578313253012048,-1.8554216867469882,-5.594114040465971,-7.787247087676271,-1.39546290619252,2.0,4.292307692307692,232.97491039426524,0.441815745003205,1.3963055765981007,-1.826700075753161,1407.3260073260071,-1.0,72.52766710934041,4.338384803542739,230.5017615553439,
2023-12-19 12:21:58.324000,-7.903614457831326,-5.590361445783133,-1.8674698795180724,-5.584304107909258,-7.74310239117106,-1.4150827713059473,2.0,4.292307692307692,232.97491039426524,0.6518268166190767,1.331973661208554,-1.4084260823961308,1409.5238095238094,-1.0,72.52766710934041,4.338065589527174,230.51875890169774,
2023-12-19 12:21:58.332000,-7.903614457831326,-5.578313253012048,-1.8674698795180724,-5.660331085223789,-7.770079705702023,-1.4150827713059473,2.0,4.292307692307692,232.97491039426524,0.8444729328127726,1.467280461511567,-1.7870753452596002,1412.4542124542124,-1.0,72.52766710934041,4.33774091263175,230.53604914575322,
2023-12-19 12:21:58.340000,-7.891566265060241,-5.590361445783133,-1.8795180722891567,-5.621091354996934,-7.706315144083384,-1.4297976701410178,2.0,4.292307692307692,232.97491039426524,1.0050696346366759,1.3993357030476077,-1.7657479167880659,1413.9194139194137,-1.0,72.52766710934041,4.337410834061935,230.5536291238195,
2023-12-19 12:21:58.347000,-7.903614457831326,-5.578313253012048,-1.8554216867469882,-5.628448804414469,-7.752912323727774,-1.491109748620478,2.0,4.292307692307692,232.97491039426524,0.9352601829730195,1.2521414835965265,-1.838237864926286,1413.9194139194137,-1.0,72.52766710934041,4.337075418718789,230.57149547540627,
2023-12-19 12:21:58.355000,-7.903614457831326,-5.566265060240964,-1.9156626506024097,-5.554874310239117,-7.762722256284488,-1.4248927038626609,2.0,4.290842490842491,233.05446474304253,1.2904842375152963,1.24596468737253,-1.6365013693840689,1413.1868131868132,-1.0,72.52766710934041,4.336734735166564,230.58964464481673,
2023-12-19 12:21:58.363000,-7.891566265060241,-5.55421686746988,-1.9036144578313254,-5.537706928264868,-7.806866952789699,-1.4543225015328018,2.0,4.290842490842491,233.05446474304253,1.7827632422353008,1.59174873259134,-1.7249577530446938,1409.5238095238094,-1.0,72.52766710934041,4.3363888555222205,230.608072887552,
2023-12-19 12:21:58.370000,-7.891566265060241,-5.481927710843374,-1.8915662650602412,-5.537706928264868,-7.752912323727774,-1.4862047823421214,2.0,4.290842490842491,233.05446474304253,2.1351902569780306,1.1565759571120566,-1.4766039275100522,1406.5934065934066,-1.0,72.52766710934041,4.336037855267567,230.62677628022766,
2023-12-19 12:21:58.378000,-7.91566265060241,-5.481927710843374,-1.9397590361445785,-5.498467198038013,-7.752912323727774,-1.4567749846719804,2.0,4.290842490842491,233.05446474304253,2.0575724025406443,1.3668201153778918,-1.2142649029776815,1404.3956043956043,-1.0,72.52766710934041,4.335681813123617,230.64575072645508,
2023-12-19 12:21:58.386000,-7.891566265060241,-5.46987951807229,-1.9518072289156627,-5.466584917228694,-7.748007357449417,-1.5278969957081545,2.0,4.290842490842491,233.05446474304253,1.5524736320727235,1.619369500611852,-1.1041314608705781,1402.9304029304028,-1.0,72.52766710934041,4.335320811445804,230.6649919358288,
2023-12-19 12:21:58.393000,-7.867469879518072,-5.46987951807229,-1.963855421686747,-5.469037400367872,-7.750459840588595,-1.4862047823421214,2.0,4.289377289377289,233.134073441503,1.3386166307324756,1.4577239088631195,-1.0868830487733816,1400.0,-1.0,72.52766710934041,4.334954936511717,230.68449540859666,
2023-12-19 12:21:58.401000,-7.903614457831326,-5.481927710843374,-1.9397590361445785,-5.562231759656652,-7.789699570815451,-1.5597792765174738,2.0,4.289377289377289,233.134073441503,1.1413087815395375,1.910494726414544,-0.594021327428472,1397.069597069597,-1.0,72.52766710934041,4.3345842774003795,230.70425649552251,
2023-12-19 12:21:58.409000,-7.9397590361445785,-5.493975903614458,-1.9759036144578315,-5.572041692213365,-7.770079705702023,-1.5303494788473329,2.0,4.289377289377289,233.134073441503,1.4162344851698618,1.4269564710681197,-0.6972787133616919,1394.8717948717947,-1.0,72.52766710934041,4.334208925324916,230.72427043316003,
2023-12-19 12:21:58.416000,-7.963855421686747,-5.506024096385542,-1.963855421686747,-5.493562231759657,-7.804414469650521,-1.5818516247700796,2.0,4.289377289377289,233.134073441503,1.705378474447876,1.2367577646990267,-0.603228250101975,1391.9413919413919,-1.0,72.52766710934041,4.333828974471646,230.74453229870824,
2023-12-19 12:21:58.424000,-7.987951807228916,-5.506024096385542,-1.9518072289156627,-5.591661557326793,-7.88289393010423,-1.5107296137339055,2.0,4.289377289377289,233.134073441503,1.9179534992133331,1.0788415593496876,-0.5226968125400611,1391.2087912087911,-1.0,72.52766710934041,4.333444522276361,230.76503699528877,
2023-12-19 12:21:58.432000,-7.987951807228916,-5.493975903614458,-1.9518072289156627,-5.562231759656652,-7.870631514408338,-1.5033721643163702,2.0,4.287912087912088,233.21373654536137,1.899772740516286,0.4030068177845101,-0.2595419847328244,1392.6739926739926,-1.0,72.52766710934041,4.333055668329496,230.7857793097282,
2023-12-19 12:21:58.439000,-7.987951807228916,-5.493975903614458,-1.927710843373494,-5.461679950950337,-7.8779889638258735,-1.496014714898835,2.0,4.287912087912088,233.21373654536137,1.5740341471942183,0.46302663014975887,-0.3037119049006469,1397.069597069597,-1.0,72.52766710934041,4.332662513806997,230.80675394327227,
2023-12-19 12:21:58.447000,-7.975903614457832,-5.481927710843374,-1.9036144578313254,-5.542611894543224,-7.826486817903127,-1.4862047823421214,2.0,4.287912087912088,233.21373654536137,1.4183322650195223,0.15616805547462287,-0.08880601363556966,1404.3956043956043,-1.0,72.52766710934041,4.332265161744268,230.8279554970955,
2023-12-19 12:21:58.455000,-7.963855421686747,-5.46987951807229,-1.9156626506024097,-5.473942366646229,-7.848559166155733,-1.4935622317596566,2.0,4.284981684981685,233.37322619251154,1.5386049763999763,0.32550550667210454,0.0638657420896214,1412.4542124542124,-1.0,72.52766710934041,4.3318637173446355,230.849378455198,
2023-12-19 12:21:58.462000,-7.951807228915663,-5.457831325301205,-1.9036144578313254,-5.493562231759657,-7.755364806866952,-1.437155119558553,2.0,4.284981684981685,233.37322619251154,1.3625080123535922,-0.012353592447992964,0.19905599906765314,1421.9780219780218,-1.0,72.52766710934041,4.331458287763227,230.87101719723537,
2023-12-19 12:21:58.470000,-7.91566265060241,-5.445783132530121,-1.8915662650602412,-5.483752299202942,-7.809319435928877,-1.4297976701410178,2.0,4.286446886446886,233.29345411040848,1.5395373229998246,-0.11899073480566487,0.392284831886254,1428.5714285714284,-1.0,72.52766710934041,4.331048981227208,230.89286604517136,
2023-12-19 12:21:58.478000,-7.891566265060241,-5.457831325301205,-1.8554216867469882,-5.498467198038013,-7.752912323727774,-1.437155119558553,2.0,4.286446886446886,233.29345411040848,1.7293863993939753,0.4606957636501369,0.4625604568498338,1435.164835164835,-1.0,72.52766710934041,4.330635907384733,230.9149192425618,
2023-12-19 12:21:58.485000,-7.891566265060241,-5.481927710843374,-1.8554216867469882,-5.525444512568976,-7.752912323727774,-1.390557939914163,2.0,4.284981684981685,233.37322619251154,1.5079540819299573,0.3489307149932978,0.4400675951284892,1443.2234432234432,-1.0,72.52766710934041,4.330219177268516,230.93717095625775,
2023-12-19 12:21:58.493000,-7.879518072289157,-5.506024096385542,-1.8313253012048194,-5.530349478847333,-7.74310239117106,-1.4273451870018392,2.0,4.284981684981685,233.37322619251154,1.7448866616164542,0.7126624322591931,0.11619369500611873,1452.014652014652,-1.0,72.52766710934041,4.329798902278243,230.95961533160468,
2023-12-19 12:21:58.501000,-7.891566265060241,-5.518072289156627,-1.8192771084337351,-5.54996934396076,-7.701410177805027,-1.3341508277130594,2.0,4.284981684981685,233.37322619251154,2.118990734805665,1.0272128663830782,0.3422877454693782,1460.07326007326,-1.0,72.52766710934041,4.329375194925065,230.9822464530891,
2023-12-19 12:21:58.508000,-7.879518072289157,-5.542168674698796,-1.8072289156626506,-5.540159411404046,-7.691600245248313,-1.30226854690374,2.0,4.284981684981685,233.37322619251154,2.2904259658528052,0.9426024124468277,0.1722510343220091,1469.5970695970695,-1.0,72.52766710934041,4.328948168630885,231.00505835414356,
2023-12-19 12:21:58.516000,-7.867469879518072,-5.55421686746988,-1.8072289156626506,-5.635806253832005,-7.733292458614347,-1.2973635806253832,2.0,4.283516483516483,233.45305284761417,3.223122195676244,1.3301089680088571,0.3066254880251737,1478.3882783882782,781.31103515625,76.79400046871338,4.328517937637443,231.02804502186416,
2023-12-19 12:21:58.524000,-7.891566265060241,-5.578313253012048,-1.7951807228915664,-5.655426118945432,-7.6400980993255665,-1.3464132434089515,2.0,4.283516483516483,233.45305284761417,3.658994231105413,1.409708058970923,0.4854029485461216,1487.9120879120878,-1.0,76.79400046871338,4.328084616359237,231.05120043192747,
2023-12-19 12:21:58.531000,-7.903614457831326,-5.578313253012048,-1.7710843373493976,-5.542611894543224,-7.6817903126916,-1.3267933782955241,2.0,4.283516483516483,233.45305284761417,3.617155177437213,1.400850766272362,0.47712837247246637,1495.2380952380952,-1.0,76.79400046871338,4.327648318774996,231.07451858079395,
2023-12-19 12:21:58.539000,-7.891566265060241,-5.578313253012048,-1.7590361445783134,-5.594114040465971,-7.770079705702023,-1.30226854690374,2.0,4.283516483516483,233.45305284761417,3.976574791678808,1.1479517510634574,0.4565002039508186,1499.6336996336995,-1.0,76.79400046871338,4.327209159263941,231.09799344067403,
2023-12-19 12:21:58.547000,-7.879518072289157,-5.566265060240964,-1.7590361445783134,-5.601471489883507,-7.797057020232986,-1.3586756591048437,2.0,4.282051282051282,233.53293413173654,4.33482897267059,1.2512091369966798,0.26839927743138514,1501.098901098901,-1.0,76.79400046871338,4.326767252498399,231.12161896512637,
2023-12-19 12:21:58.554000,-7.903614457831326,-5.542168674698796,-1.7831325301204821,-5.54996934396076,-7.676885346413243,-1.3415082771305946,2.0,4.282051282051282,233.53293413173654,3.9448750072839567,1.3400151506322473,0.5857467513548161,1500.3663003663003,-1.0,76.79400046871338,4.326322712850977,231.14538912113605,
2023-12-19 12:21:58.562000,-7.879518072289157,-5.55421686746988,-1.7951807228915664,-5.628448804414469,-7.74310239117106,-1.3513182096873084,2.0,4.282051282051282,233.53293413173654,4.626420371773207,1.4764873841850705,0.6430860672454985,1497.4358974358972,-1.0,76.79400046871338,4.325875654687567,231.16929787365993,
2023-12-19 12:21:58.570000,-7.879518072289157,-5.542168674698796,-1.8072289156626506,-5.572041692213365,-7.765174739423666,-1.331698344573881,2.0,4.282051282051282,233.53293413173654,4.674785851640348,1.7782180525610394,0.5330691684633759,1491.5750915750914,-1.0,76.79400046871338,4.325426192667499,231.19333916893768,
2023-12-19 12:21:58.577000,-7.855421686746988,-5.542168674698796,-1.7951807228915664,-5.56468424279583,-7.713672593500919,-1.3292458614347025,2.0,4.282051282051282,233.53293413173654,5.010663714235768,1.7782180525610394,0.6704737486160477,1481.3186813186812,-1.0,76.79400046871338,4.324974440714122,231.21750698885845,
2023-12-19 12:21:58.585000,-7.903614457831326,-5.530120481927711,-1.8192771084337351,-5.554874310239117,-7.784794604537093,-1.280196198651134,2.0,4.2805860805860805,233.61287010097553,5.911427073014394,1.7782180525610394,0.914748557776353,1468.131868131868,-1.0,76.79400046871338,4.324520512009993,231.24179535114962,
2023-12-19 12:21:58.592000,-7.903614457831326,-5.530120481927711,-1.8313253012048194,-5.547516860821582,-7.689147762109135,-1.3635806253832004,2.0,4.2805860805860805,233.61287010097553,6.125167531029661,1.9919585105763067,0.9910844356389484,1452.014652014652,-1.0,76.79400046871338,4.324064519385382,231.26619828959724,
2023-12-19 12:21:58.600000,-7.927710843373494,-5.518072289156627,-1.8072289156626506,-5.576946658491723,-7.799509503372164,-1.419987737584304,2.0,4.2805860805860805,233.61287010097553,6.094633179884623,1.9919585105763067,1.113221840219101,1438.8278388278388,-1.0,76.79400046871338,4.323606575117142,231.29070986474014,
2023-12-19 12:21:58.608000,-7.975903614457832,-5.542168674698796,-1.8313253012048194,-5.59656652360515,-7.826486817903127,-1.4052728387492335,2.0,4.279120879120879,233.6928608115049,6.033564477594546,1.9614241594312685,0.731542450906124,1430.03663003663,-1.0,76.79400046871338,4.323146790380794,231.3153241920211,
2023-12-19 12:21:58.615000,-8.012048192771084,-5.518072289156627,-1.8674698795180724,-5.6333537706928265,-7.848559166155733,-1.385652973635806,2.0,4.279120879120879,233.6928608115049,6.4763125691976,1.7476837014160012,1.1437561913641392,1426.3736263736262,-1.0,76.79400046871338,4.322685275692127,231.34003541921604,
2023-12-19 12:21:58.623000,-8.024096385542169,-5.518072289156627,-1.8554216867469882,-5.525444512568976,-7.870631514408338,-1.4126302881667687,2.0,4.279120879120879,233.6928608115049,6.842724782938058,1.3049356098129479,0.746809626478643,1425.6410256410256,-1.0,76.79400046871338,4.3222221411466055,231.36483771385122,
2023-12-19 12:21:58.631000,-8.084337349397591,-5.506024096385542,-1.8433734939759037,-5.500919681177192,-7.941753525444512,-1.3439607602697732,2.0,4.279120879120879,233.6928608115049,6.857991958510577,1.0759279762251617,0.7773439776236812,1424.9084249084249,-1.0,76.79400046871338,4.321757495855439,231.38972529221908,
2023-12-19 12:21:58.638000,-8.072289156626507,-5.46987951807229,-1.8433734939759037,-5.486204782342121,-7.96137339055794,-1.3415082771305946,2.0,4.279120879120879,233.6928608115049,6.919060660800653,0.7247829380572227,0.6857409241885667,1425.6410256410256,-1.0,76.79400046871338,4.321291447456359,231.41469244522935,
2023-12-19 12:21:58.646000,-8.036144578313253,-5.457831325301205,-1.8192771084337351,-5.471489883507051,-7.971183323114653,-1.3267933782955241,2.0,4.279120879120879,233.6928608115049,6.522114095915157,0.19043179301905475,1.2506264203717727,1427.106227106227,-1.0,76.79400046871338,4.320824102154551,231.43973353620976,
2023-12-19 12:21:58.654000,-8.048192771084338,-5.493975903614458,-1.7831325301204821,-5.513182096873083,-7.83629675045984,-1.3390557939914163,2.0,4.279120879120879,233.6928608115049,6.277839286754852,0.3125691975992074,0.9910844356389484,1432.2344322344322,-1.0,76.79400046871338,4.320355565189645,231.46484297616627,
2023-12-19 12:21:58.661000,-8.024096385542169,-5.506024096385542,-1.746987951807229,-5.56468424279583,-7.890251379521765,-1.260576333537707,2.0,4.279120879120879,233.6928608115049,5.621350737136531,0.5263096556144746,1.449099702814521,1438.095238095238,-1.0,76.79400046871338,4.319885940815554,231.4900152248211,
2023-12-19 12:21:58.669000,-8.0,-5.518072289156627,-1.7590361445783134,-5.562231759656652,-7.848559166155733,-1.2630288166768853,2.0,4.279120879120879,233.6928608115049,5.545014859273936,1.1064623273701997,1.6323058096847498,1441.7582417582416,-1.0,76.79400046871338,4.319415332285704,231.5152447913701,
2023-12-19 12:21:58.677000,-7.975903614457832,-5.518072289156627,-1.7349397590361446,-5.513182096873083,-7.838749233599018,-1.2973635806253832,2.0,4.279120879120879,233.6928608115049,5.789289668434241,2.007225686148826,1.7239088631198645,1441.0256410256409,-1.0,76.79400046871338,4.318943841843499,231.5405262349618,
2023-12-19 12:21:58.684000,-8.024096385542169,-5.518072289156627,-1.6987951807228916,-5.530349478847333,-7.939301042305334,-1.213979153893317,2.0,4.279120879120879,233.6928608115049,5.850358370724318,2.556844006759513,2.151389779150399,1435.164835164835,-1.0,76.79400046871338,4.318471570260072,231.56585418911993,
2023-12-19 12:21:58.692000,-8.084337349397591,-5.518072289156627,-1.6867469879518073,-5.584304107909258,-7.963825873697118,-1.2360515021459226,2.0,4.279120879120879,233.6928608115049,5.819824019579279,2.999592098362566,2.2887943593030706,1427.106227106227,-1.0,76.79400046871338,4.317998617359953,231.59122333392673,
2023-12-19 12:21:58.700000,-8.060240963855422,-5.493975903614458,-1.6506024096385543,-5.50337216431637,-7.9147762109135495,-1.20907418761496,2.0,4.279120879120879,233.6928608115049,5.8961598974418745,3.030126449507604,1.9987180234252082,1419.047619047619,-1.0,76.79400046871338,4.3175250824475,231.616628373454,
2023-12-19 12:21:58.707000,-8.024096385542169,-5.457831325301205,-1.63855421686747,-5.451870018393623,-7.828939301042305,-1.2335990190067443,2.0,4.277655677655678,233.77290631957527,5.926694248586913,3.2896684342404288,2.0445195501427653,1413.9194139194137,-1.0,76.79400046871338,4.317051063366924,231.64206408545093,
2023-12-19 12:21:58.715000,-7.987951807228916,-5.457831325301205,-1.674698795180723,-5.505824647455548,-7.762722256284488,-1.2458614347026364,2.0,4.277655677655678,233.77290631957527,5.728220966144165,3.8240195792785965,2.2735271837305517,1411.7216117216117,-1.0,76.79400046871338,4.316576656549662,231.6675253196861,
