Shimmer_F5D4_Timestamp_FormattedUnix_CAL,Shimmer_F5D4_Accel_LN_X_CAL,Shimmer_F5D4_Accel_LN_Y_CAL,Shimmer_F5D4_Accel_LN_Z_CAL,Shimmer_F5D4_Accel_WR_X_CAL,Shimmer_F5D4_Accel_WR_Y_CAL,Shimmer_F5D4_Accel_WR_Z_CAL,Shimmer_F5D4_GSR_Range_CAL,Shimmer_F5D4_GSR_Skin_Conductance_CAL,Shimmer_F5D4_GSR_Skin_Resistance_CAL,Shimmer_F5D4_Gyro_X_CAL,Shimmer_F5D4_Gyro_Y_CAL,Shimmer_F5D4_Gyro_Z_CAL,Shimmer_F5D4_PPG_A13_CAL,Shimmer_F5D4_PPG_IBI_CAL,Shimmer_F5D4_PPGtoHR_CAL,Shimmer_F5D4_GSR_Skin_Conductance_LPF_CAL,
yyyy/mm/dd hh:mm:ss.000,m/(s^2),m/(s^2),m/(s^2),m/(s^2),m/(s^2),m/(s^2),no_units,uS,kOhms,deg/s,deg/s,deg/s,mV,ms,BPM,uS,
2023-08-21 10:48:26.957000,-7.795180722891566,-3.5542168674698797,-4.83132530120482,-3.585530349478847,-7.576333537706928,-4.448804414469651,3.0,0.5698745698745699,1754.772107518504,0.107802575607482,-0.5906415710040213,-0.26420371773206697,1383.150183150183,-1.0,69.3184782991926,0.5709241025746536,
2023-08-21 10:48:26.964000,-7.795180722891566,-3.5542168674698797,-4.83132530120482,-3.573267933782955,-7.637645616186388,-4.500306560392397,3.0,0.5698745698745699,1754.772107518504,0.2130411980653804,-0.48050812889691735,-0.03239904434473502,1383.150183150183,-1.0,69.3184782991926,0.570914552546206,
2023-08-21 10:48:26.972000,-7.795180722891566,-3.5662650602409642,-4.819277108433735,-3.5904353157572038,-7.58859595340282,-4.443899448191293,3.0,0.5698745698745699,1754.772107518504,-0.018646931996970283,-0.29333954897733294,-0.18355573684517237,1372.8937728937728,-1.0,69.3184782991926,0.5709050544026877,
2023-08-21 10:48:26.980000,-7.807228915662651,-3.5783132530120483,-4.795180722891566,-3.573267933782955,-7.576333537706928,-4.451256897608829,3.0,0.5698745698745699,1754.772107518504,-0.035545714119224546,0.07388846803799265,0.1689878212225396,1370.6959706959706,-1.0,69.3184782991926,0.5708956054005696,
2023-08-21 10:48:26.987000,-7.843373493975904,-3.6024096385542173,-4.795180722891566,-3.524218270999387,-7.6180257510729605,-4.470876762722256,3.0,0.5698745698745699,1754.772107518504,-0.06736204183905366,0.3021968416758921,-0.04370374686789829,1369.230769230769,-1.0,69.3184782991926,0.570886202673377,
2023-08-21 10:48:26.995000,-7.807228915662651,-3.5662650602409642,-4.83132530120482,-3.5536480686695278,-7.63519313304721,-4.512568976088289,3.0,0.5698745698745699,1754.772107518504,-0.21863527766447097,-0.054425732766156504,-0.08624206048598561,1372.161172161172,-1.0,69.3184782991926,0.5708768432407755,
2023-08-21 10:48:27.003000,-7.819277108433735,-3.5662650602409642,-4.819277108433735,-3.5634580012262416,-7.630288166768853,-4.505211526670754,3.0,0.5698745698745699,1754.772107518504,-0.18553697336985095,0.4923955480449852,-0.08262921741157274,1374.3589743589744,-1.0,69.3184782991926,0.5708675240181823,
2023-08-21 10:48:27.010000,-7.83132530120482,-3.5662650602409642,-4.83132530120482,-3.5634580012262416,-7.586143470263641,-4.478234212139792,3.0,0.5698745698745699,1754.772107518504,-0.13973544665229368,0.45743255055066656,-0.17329992424683882,1375.091575091575,-1.0,69.3184782991926,0.5708582418268466,
2023-08-21 10:48:27.018000,-7.807228915662651,-3.5903614457831328,-4.819277108433735,-3.602697731453096,-7.6327406499080315,-4.461066830165542,3.0,0.5698745698745699,1754.772107518504,0.22807528698793783,0.16187867839869427,-0.14020161995221703,1375.091575091575,-1.0,69.3184782991926,0.5708489934044098,
2023-08-21 10:48:27.026000,-7.819277108433735,-3.5783132530120483,-4.843373493975903,-3.556100551808706,-7.62047823421214,-4.485591661557327,3.0,0.5698745698745699,1754.772107518504,-0.0476662199172541,0.02447409824602252,0.30242992832585514,1374.3589743589744,-1.0,69.3184782991926,0.5708397754158967,
2023-08-21 10:48:27.033000,-7.83132530120482,-3.5783132530120483,-4.843373493975903,-3.5928877988963825,-7.5567136725935,-4.463519313304721,3.0,0.5698745698745699,1754.772107518504,-0.06223413553988644,0.08868947031058838,0.011421245848144104,1375.8241758241757,-1.0,69.3184782991926,0.570830584465124,
2023-08-21 10:48:27.041000,-7.819277108433735,-3.5903614457831328,-4.819277108433735,-3.5977927651747392,-7.58859595340282,-4.451256897608829,3.0,0.5698745698745699,1754.772107518504,-0.30511042480042,0.16490880484820297,-0.15814929199930056,1379.4871794871794,-1.0,69.3184782991926,0.570821417106498,
2023-08-21 10:48:27.049000,-7.819277108433735,-3.5783132530120483,-4.855421686746988,-3.6051502145922747,-7.6180257510729605,-4.475781729000613,3.0,0.5698745698745699,1754.772107518504,-0.1818075869704555,-0.015500262222480757,0.20826292174115743,1383.150183150183,-1.0,69.3184782991926,0.570812269857154,
2023-08-21 10:48:27.056000,-7.83132530120482,-3.5783132530120483,-4.843373493975903,-3.6174126302881664,-7.583690987124463,-4.473329245861435,3.0,0.5698745698745699,1754.772107518504,-0.33226501952100695,-0.23903035953615728,-0.006992599498863639,1386.080586080586,-1.0,69.3184782991926,0.5708031392094248,
2023-08-21 10:48:27.064000,-7.83132530120482,-3.5783132530120483,-4.843373493975903,-3.5168608215818513,-7.561618638871857,-4.517473942366646,3.0,0.5698745698745699,1754.772107518504,-0.2061651418914989,-0.215605151214964,0.19124759629392235,1386.080586080586,-1.0,69.3184782991926,0.5707940216435807,
2023-08-21 10:48:27.072000,-7.819277108433735,-3.5903614457831328,-4.807228915662651,-3.548743102391171,-7.637645616186388,-4.448804414469651,3.0,0.5698745698745699,1754.772107518504,-0.08239613076161106,-0.3460171318687717,0.06841093176388335,1391.2087912087911,-1.0,69.3184782991926,0.5707849136408185,
2023-08-21 10:48:27.079000,-7.819277108433735,-3.5783132530120483,-4.819277108433735,-3.607602697731453,-7.613120784794604,-4.446351931330472,3.0,0.5694305694305695,1756.140350877193,-0.12691568090437563,-0.2346017131868768,-0.006293339548977319,1392.6739926739926,-1.0,69.3184782991926,0.5707758118351948,
2023-08-21 10:48:27.087000,-7.795180722891566,-3.5662650602409642,-4.83132530120482,-3.6296750459840585,-7.6033108522378905,-4.424279583077866,3.0,0.5694305694305695,1756.140350877193,-0.12749839752928155,-0.22900763358778625,-0.007575316123769124,1395.6043956043954,-1.0,69.3184782991926,0.570766712857296,
2023-08-21 10:48:27.095000,-7.819277108433735,-3.5783132530120483,-4.819277108433735,-3.602697731453096,-7.608215818516247,-4.453709380748007,3.0,0.5698745698745699,1754.772107518504,0.10220849600839145,-0.10465590583299422,0.1580327486743197,1395.6043956043954,-1.0,69.3184782991926,0.5707576131778269,
2023-08-21 10:48:27.102000,-7.795180722891566,-3.5662650602409642,-4.843373493975903,-3.624770079705702,-7.605763335377069,-4.43408951563458,3.0,0.5698745698745699,1754.772107518504,0.08507662723617551,0.14066779325214213,-0.17936017714585403,1397.8021978021977,-1.0,69.3184782991926,0.5707485094085918,
2023-08-21 10:48:27.110000,-7.819277108433735,-3.5903614457831328,-4.819277108433735,-3.5340282035561,-7.63519313304721,-4.515021459227468,3.0,0.5698745698745699,1754.772107518504,0.3584872676417455,-0.12190431793019099,-0.17772857059611927,1398.5347985347985,-1.0,69.3184782991926,0.5707393983369422,
2023-08-21 10:48:27.118000,-7.843373493975904,-3.5783132530120483,-4.843373493975903,-3.595340282035561,-7.598405885959534,-4.478234212139792,3.0,0.5698745698745699,1754.772107518504,0.0666627818891669,0.15069051920051313,0.15849892197424395,1397.069597069597,-1.0,69.3184782991926,0.5707302768008891,
2023-08-21 10:48:27.125000,-7.795180722891566,-3.5783132530120483,-4.807228915662651,-3.5634580012262416,-7.551808706315144,-4.463519313304721,3.0,0.5698745698745699,1754.772107518504,0.18880018646931956,0.3735213565643029,-0.04253831361808732,1395.6043956043954,-1.0,69.3184782991926,0.5707211417027116,
2023-08-21 10:48:27.133000,-7.795180722891566,-3.5662650602409642,-4.83132530120482,-3.6223175965665235,-7.6180257510729605,-4.43408951563458,3.0,0.5698745698745699,1754.772107518504,-0.1335586504282972,0.19719130586795713,0.18681894994464188,1392.6739926739926,-1.0,69.3184782991926,0.5707119898835252,
2023-08-21 10:48:27.140000,-7.83132530120482,-3.5542168674698797,-4.843373493975903,-3.536480686695279,-7.561618638871857,-4.448804414469651,3.0,0.5698745698745699,1754.772107518504,-0.07062525493852402,0.10197540935842977,0.0644484587145271,1389.7435897435896,-1.0,69.3184782991926,0.5707028182954013,
2023-08-21 10:48:27.148000,-7.795180722891566,-3.5542168674698797,-4.83132530120482,-3.47271612507664,-7.622930717351318,-4.41937461679951,3.0,0.5698745698745699,1754.772107518504,-0.0067595128489024,0.0643319153895467,0.002214323174640232,1386.080586080586,-1.0,69.3184782991926,0.5706936240028538,
2023-08-21 10:48:27.156000,-7.783132530120482,-3.5783132530120483,-4.807228915662651,-3.504598405885959,-7.54199877375843,-4.492949110974862,3.0,0.5698745698745699,1754.772107518504,-0.17376609754676214,-0.16747275799778483,-0.18075869704562667,1383.150183150183,-1.0,69.3184782991926,0.5706844042050973,
2023-08-21 10:48:27.163000,-7.783132530120482,-3.5783132530120483,-4.807228915662651,-3.595340282035561,-7.6106683016554255,-4.524831391784181,3.0,0.5698745698745699,1754.772107518504,-0.23215430336227577,-0.3513781248179006,0.01946273527183744,1383.150183150183,-1.0,69.3184782991926,0.5706751562368979,
2023-08-21 10:48:27.171000,-7.819277108433735,-3.5662650602409642,-4.83132530120482,-3.607602697731453,-7.551808706315144,-4.485591661557327,3.0,0.5698745698745699,1754.772107518504,-0.258609638132976,-0.1343744537031648,-0.37748382961365873,1373.6263736263736,-1.0,69.3184782991926,0.5706658774513779,
2023-08-21 10:48:27.179000,-7.83132530120482,-3.5662650602409642,-4.843373493975903,-3.5536480686695278,-7.613120784794604,-4.441446965052115,3.0,0.5698745698745699,1754.772107518504,-0.11945690810558822,-0.0427714002680503,-0.22084960083911206,1369.230769230769,-1.0,69.3184782991926,0.5706565655179767,
2023-08-21 10:48:27.186000,-7.819277108433735,-3.5662650602409642,-4.83132530120482,-3.619865113427345,-7.5959534028203555,-4.512568976088289,3.0,0.5694305694305695,1756.140350877193,0.21642095448983162,0.1287803741040725,-0.20185303886719885,1365.5677655677655,-1.0,69.3184782991926,0.5706472182729072,
2023-08-21 10:48:27.194000,-7.83132530120482,-3.5783132530120483,-4.819277108433735,-3.644389944819129,-7.608215818516247,-4.451256897608829,3.0,0.5698745698745699,1754.772107518504,0.03100052444496325,0.26758347415651773,-0.047433133267291996,1364.102564102564,-1.0,69.3184782991926,0.5706378335902187,
2023-08-21 10:48:27.202000,-7.83132530120482,-3.5783132530120483,-4.83132530120482,-3.5634580012262416,-7.645003065603923,-4.453709380748007,3.0,0.5698745698745699,1754.772107518504,-0.17050288444729353,0.4077850941087348,0.1504574325505506,1364.102564102564,-1.0,69.3184782991926,0.5706284096467593,
2023-08-21 10:48:27.209000,-7.807228915662651,-3.5783132530120483,-4.843373493975903,-3.573267933782955,-7.58859595340282,-4.458614347026364,3.0,0.5698745698745699,1754.772107518504,0.029019287920283823,0.5744420488316537,-0.12493444437969795,1361.904761904762,-1.0,69.3184782991926,0.5706189449413281,
2023-08-21 10:48:27.217000,-7.795180722891566,-3.5662650602409642,-4.807228915662651,-3.602697731453096,-7.583690987124463,-4.48068669527897,3.0,0.5694305694305695,1756.140350877193,-0.016898782122254267,0.649146320144514,-0.21374045801526717,1358.974358974359,-1.0,69.3184782991926,0.570609438164601,
2023-08-21 10:48:27.225000,-7.807228915662651,-3.5662650602409642,-4.83132530120482,-3.5879828326180254,-7.5738810545677495,-4.527283874923359,3.0,0.5694305694305695,1756.140350877193,0.042188683643144376,0.2490530854845283,0.1722510343220091,1358.974358974359,-1.0,69.3184782991926,0.570599888057845,
2023-08-21 10:48:27.232000,-7.795180722891566,-3.5783132530120483,-4.83132530120482,-3.5977927651747392,-7.591048436541999,-4.458614347026364,3.0,0.568986568986569,1757.510729613734,-0.12621642095449062,0.35300973136763575,0.17213449099702827,1360.4395604395604,-1.0,69.3184782991926,0.5705902933983625,
2023-08-21 10:48:27.240000,-7.819277108433735,-3.5783132530120483,-4.819277108433735,-3.5928877988963825,-7.549356223175965,-4.510116492949111,3.0,0.5694305694305695,1756.140350877193,-0.08041489423693338,0.18192413029543805,0.04813239321717832,1365.5677655677655,-1.0,69.3184782991926,0.5705806531326199,
2023-08-21 10:48:27.248000,-7.807228915662651,-3.5662650602409642,-4.819277108433735,-3.578172900061312,-7.667075413856529,-4.527283874923359,3.0,0.5694305694305695,1756.140350877193,0.043121030242992804,-0.004428646349280464,0.3250393333721812,1369.230769230769,-1.0,69.3184782991926,0.5705709663485529,
2023-08-21 10:48:27.255000,-7.819277108433735,-3.5783132530120483,-4.855421686746988,-3.573267933782955,-7.554261189454322,-4.475781729000613,3.0,0.5694305694305695,1756.140350877193,-0.01853038867198945,-0.32597167997202964,-0.012936309072898016,1372.161172161172,-1.0,69.3184782991926,0.5705612323099911,
2023-08-21 10:48:27.263000,-7.819277108433735,-3.5783132530120483,-4.855421686746988,-3.5904353157572038,-7.622930717351318,-4.505211526670754,3.0,0.5694305694305695,1756.140350877193,-0.047316589942311596,-0.37188975001456775,0.16863819124759624,1372.161172161172,-1.0,69.3184782991926,0.5705514504690082,
2023-08-21 10:48:27.271000,-7.843373493975904,-3.5662650602409642,-4.855421686746988,-3.578172900061312,-7.6695278969957075,-4.49540159411404,3.0,0.5694305694305695,1756.140350877193,-0.12213740458015267,-0.4018413845347,0.0903210768603227,1374.3589743589744,-1.0,69.3184782991926,0.5705416204668248,
2023-08-21 10:48:27.278000,-7.819277108433735,-3.5783132530120483,-4.855421686746988,-3.6394849785407724,-7.622930717351318,-4.549356223175965,3.0,0.5694305694305695,1756.140350877193,-0.13530680030301323,-0.7216362682827349,-0.1553522521997553,1375.091575091575,-1.0,69.3184782991926,0.5705317421338291,
2023-08-21 10:48:27.286000,-7.819277108433735,-3.5783132530120483,-4.855421686746988,-3.5511955855303494,-7.645003065603923,-4.515021459227468,3.0,0.5694305694305695,1756.140350877193,0.07901637433715986,-0.6257211118233208,-0.13810384010255808,1373.6263736263736,-1.0,69.3184782991926,0.5705218154887279,
2023-08-21 10:48:27.294000,-7.819277108433735,-3.5662650602409642,-4.843373493975903,-3.619865113427345,-7.6033108522378905,-4.488044144696505,3.0,0.5694305694305695,1756.140350877193,0.20266884214206687,-0.5469378241361226,0.21047724491579722,1372.161172161172,-1.0,69.3184782991926,0.5705118407368583,
2023-08-21 10:48:27.301000,-7.807228915662651,-3.5542168674698797,-4.867469879518072,-3.548743102391171,-7.5567136725935,-4.483139178418148,3.0,0.5694305694305695,1756.140350877193,0.33937416234485185,-0.13495717032806898,-0.2968358487267641,1373.6263736263736,-1.0,69.3184782991926,0.5705018182676824,
2023-08-21 10:48:27.309000,-7.783132530120482,-3.5662650602409642,-4.83132530120482,-3.5757204169221333,-7.5959534028203555,-4.497854077253218,3.0,0.5694305694305695,1756.140350877193,0.15640114212458453,-0.22551133383835423,-0.18716857991958524,1379.4871794871794,-1.0,69.3184782991926,0.5704917486514983,
2023-08-21 10:48:27.317000,-7.771084337349398,-3.5662650602409642,-4.83132530120482,-3.5928877988963825,-7.6180257510729605,-4.43408951563458,3.0,0.5694305694305695,1756.140350877193,-0.027737311345492885,-0.2980012819765751,0.08775712371073952,1386.8131868131868,-1.0,69.3184782991926,0.5704816326354081,
2023-08-21 10:48:27.324000,-7.783132530120482,-3.5662650602409642,-4.819277108433735,-3.578172900061312,-7.564071122011036,-4.407112201103617,3.0,0.5694305694305695,1756.140350877193,-0.2429928325855144,-0.2785385467047372,-0.0654973486393568,1395.6043956043954,-1.0,69.3184782991926,0.5704714711385754,
2023-08-21 10:48:27.332000,-7.819277108433735,-3.5662650602409642,-4.807228915662651,-3.5708154506437766,-7.554261189454322,-4.41937461679951,3.0,0.5694305694305695,1756.140350877193,-0.08892255696055006,-0.3209603169978433,0.2696812540061767,1412.4542124542124,-1.0,69.3184782991926,0.5704612652468237,
2023-08-21 10:48:27.340000,-7.819277108433735,-3.5542168674698797,-4.843373493975903,-3.561005518087063,-7.630288166768853,-4.48068669527897,3.0,0.5694305694305695,1756.140350877193,0.2624555678573505,-0.024007924946099175,-0.037760037293863916,1434.4322344322343,-1.0,69.3184782991926,0.5704510162066107,
2023-08-21 10:48:27.347000,-7.795180722891566,-3.5542168674698797,-4.819277108433735,-3.5879828326180254,-7.578786020846106,-4.470876762722256,3.0,0.5698745698745699,1754.772107518504,0.06200104888992476,0.1778451139211001,-0.32585513664704835,1459.3406593406592,-1.0,69.3184782991926,0.570440725418442,
2023-08-21 10:48:27.355000,-7.83132530120482,-3.5783132530120483,-4.807228915662651,-3.56591048436542,-7.622930717351318,-4.465971796443899,3.0,0.5694305694305695,1756.140350877193,0.15127323582541732,0.6489132334945523,0.1355398869529749,1484.9816849816848,-1.0,69.3184782991926,0.5704303945790544,
2023-08-21 10:48:27.363000,-7.83132530120482,-3.5783132530120483,-4.807228915662651,-3.5757204169221333,-7.637645616186388,-4.49540159411404,3.0,0.5694305694305695,1756.140350877193,0.14940854262572048,0.6451838470951569,0.13542334362799363,1484.9816849816848,-1.0,69.3184782991926,0.5704200255464273,
2023-08-21 10:48:27.370000,-7.807228915662651,-3.5903614457831328,-4.819277108433735,-3.595340282035561,-7.637645616186388,-4.448804414469651,3.0,0.5694305694305695,1756.140350877193,-0.05023017306683771,0.2595419847328244,0.013402482372822228,1534.7985347985348,-1.0,69.3184782991926,0.5704096203116163,
2023-08-21 10:48:27.378000,-7.819277108433735,-3.5903614457831328,-4.83132530120482,-3.585530349478847,-7.630288166768853,-4.43408951563458,3.0,0.5694305694305695,1756.140350877193,-0.14101742322708463,0.7155760153837192,-0.18518734339490714,1555.311355311355,827.2705078125,72.52766710934041,0.5703991809702257,
2023-08-21 10:48:27.386000,-7.807228915662651,-3.5662650602409642,-4.83132530120482,-3.6345800122624157,-7.58859595340282,-4.475781729000613,3.0,0.568986568986569,1757.510729613734,-0.15733348872443298,0.4816735621467274,0.06363265543965951,1569.9633699633698,-1.0,72.52766710934041,0.5703887095863448,
2023-08-21 10:48:27.393000,-7.807228915662651,-3.5783132530120483,-4.807228915662651,-3.6223175965665235,-7.593500919681177,-4.505211526670754,3.0,0.568986568986569,1757.510729613734,-0.0787832876871982,0.17399918419672555,-0.21222539479051325,1579.4871794871794,-1.0,72.52766710934041,0.570378208461151,
2023-08-21 10:48:27.401000,-7.819277108433735,-3.5903614457831328,-4.819277108433735,-3.637032495401594,-7.605763335377069,-4.463519313304721,3.0,0.5694305694305695,1756.140350877193,-0.07831711438727311,0.08344502068644033,0.20278538546704727,1587.5457875457873,-1.0,72.52766710934041,0.5703676799224444,
2023-08-21 10:48:27.409000,-7.795180722891566,-3.6024096385542173,-4.867469879518072,-3.614960147148988,-7.6327406499080315,-4.522378908645003,3.0,0.5694305694305695,1756.140350877193,-0.15325447235009676,0.14579569955130758,-0.05547462269098533,1591.2087912087911,-1.0,72.52766710934041,0.5703571263261743,
2023-08-21 10:48:27.416000,-7.819277108433735,-3.5903614457831328,-4.819277108433735,-3.5757204169221333,-7.679337829552422,-4.446351931330472,3.0,0.5694305694305695,1756.140350877193,0.07715168113746301,0.055824252665928276,-0.022842491696288207,1591.2087912087911,-1.0,72.52766710934041,0.5703465502173559,
2023-08-21 10:48:27.424000,-7.807228915662651,-3.6024096385542173,-4.819277108433735,-3.62722256284488,-7.63519313304721,-4.465971796443899,3.0,0.5694305694305695,1756.140350877193,-0.16700658469786148,0.01165433249810621,-0.03927510051861782,1586.080586080586,-1.0,72.52766710934041,0.5703359541823599,
2023-08-21 10:48:27.432000,-7.807228915662651,-3.6024096385542173,-4.783132530120482,-3.632127529123237,-7.622930717351318,-4.490496627835683,3.0,0.5694305694305695,1756.140350877193,-0.13425791037818222,0.05897092244041781,0.20558242526659298,1578.021978021978,-1.0,72.52766710934041,0.570325340839821,
2023-08-21 10:48:27.439000,-7.807228915662651,-3.6144578313253013,-4.855421686746988,-3.6345800122624157,-7.568976088289393,-4.458614347026364,3.0,0.5694305694305695,1756.140350877193,-0.05803857584056938,-0.04789930656721578,-0.17772857059611927,1566.3003663003662,-1.0,72.52766710934041,0.5703147128314808,
2023-08-21 10:48:27.447000,-7.819277108433735,-3.5783132530120483,-4.819277108433735,-3.6100551808706314,-7.6253832004904964,-4.426732066217045,3.0,0.5694305694305695,1756.140350877193,0.09509935318454654,-0.3077909212749844,0.34520132859390495,1555.311355311355,-1.0,72.52766710934041,0.5703040726742779,
2023-08-21 10:48:27.455000,-7.807228915662651,-3.5783132530120483,-4.795180722891566,-3.6517473942366645,-7.6180257510729605,-4.453709380748007,3.0,0.568986568986569,1757.510729613734,-0.25802692150807005,0.04347066021793532,-0.1769127673212517,1542.1245421245421,-1.0,72.52766710934041,0.5702934229103853,
2023-08-21 10:48:27.462000,-7.807228915662651,-3.5783132530120483,-4.795180722891566,-3.5757204169221333,-7.6106683016554255,-4.505211526670754,3.0,0.568986568986569,1757.510729613734,-0.0427714002680503,-0.019462735271837873,0.22084960083911206,1542.1245421245421,-1.0,72.52766710934041,0.5702827659378187,
2023-08-21 10:48:27.470000,-7.795180722891566,-3.5903614457831328,-4.819277108433735,-3.5389331698344573,-7.554261189454322,-4.488044144696505,3.0,0.568986568986569,1757.510729613734,-0.1642095448983162,-0.05244449624147708,0.2329701066371425,1514.2857142857142,-1.0,72.52766710934041,0.5702721039898248,
2023-08-21 10:48:27.478000,-7.807228915662651,-3.5783132530120483,-4.807228915662651,-3.561005518087063,-7.630288166768853,-4.488044144696505,3.0,0.5694305694305695,1756.140350877193,-0.17714585397121335,-0.05698968591573838,0.15337101567507716,1501.8315018315018,-1.0,72.52766710934041,0.5702614393912437,
2023-08-21 10:48:27.485000,-7.807228915662651,-3.5662650602409642,-4.83132530120482,-3.507050889025138,-7.586143470263641,-4.473329245861435,3.0,0.5694305694305695,1756.140350877193,-0.3122195676242649,-0.04533535341763217,0.12108851465532297,1490.8424908424906,-1.0,72.52766710934041,0.570250774548836,
2023-08-21 10:48:27.493000,-7.807228915662651,-3.5662650602409642,-4.807228915662651,-3.5879828326180254,-7.615573267933782,-4.485591661557327,3.0,0.568986568986569,1757.510729613734,-0.0813472408367818,-0.05174523629159206,0.027737311345492885,1480.5860805860805,-1.0,72.52766710934041,0.570240111963682,
2023-08-21 10:48:27.501000,-7.771084337349398,-3.5783132530120483,-4.83132530120482,-3.607602697731453,-7.5812385039852845,-4.446351931330472,3.0,0.568986568986569,1757.510729613734,-0.23273701998717997,0.0510459763417053,0.10279121263329649,1473.260073260073,-1.0,72.52766710934041,0.5702294539356023,
2023-08-21 10:48:27.508000,-7.795180722891566,-3.5783132530120483,-4.843373493975903,-3.5879828326180254,-7.5738810545677495,-4.451256897608829,3.0,0.568986568986569,1757.510729613734,-0.0476662199172541,0.24590641571004052,-0.18949944641920632,1466.6666666666665,-1.0,72.52766710934041,0.5702188025342517,
2023-08-21 10:48:27.516000,-7.795180722891566,-3.5662650602409642,-4.83132530120482,-3.524218270999387,-7.600858369098712,-4.497854077253218,3.0,0.5694305694305695,1756.140350877193,-0.2748091603053435,0.48540294854612115,0.05640696929083376,1462.2710622710622,-1.0,72.52766710934041,0.5702081597297025,
2023-08-21 10:48:27.523000,-7.819277108433735,-3.5662650602409642,-4.879518072289157,-3.5536480686695278,-7.539546290619252,-4.5370938074800735,3.0,0.5694305694305695,1756.140350877193,0.20173649554221845,0.5716450090321085,-0.19183031291882738,1457.8754578754579,-1.0,72.52766710934041,0.5701975275339861,
2023-08-21 10:48:27.531000,-7.819277108433735,-3.5783132530120483,-4.843373493975903,-3.5830778663396687,-7.5812385039852845,-4.527283874923359,3.0,0.5694305694305695,1756.140350877193,-0.21059378824077765,0.8102091952683407,0.06817784511392125,1452.7472527472526,-1.0,72.52766710934041,0.5701869080156836,
2023-08-21 10:48:27.539000,-7.819277108433735,-3.5662650602409642,-4.819277108433735,-3.624770079705702,-7.5567136725935,-4.497854077253218,3.0,0.5685425685425686,1758.8832487309644,-0.19555969931822195,1.001456791562263,-0.17796165724608137,1446.153846153846,-1.0,72.52766710934041,0.5701763031560986,
2023-08-21 10:48:27.546000,-7.795180722891566,-3.5662650602409642,-4.867469879518072,-3.5879828326180254,-7.593500919681177,-4.485591661557327,3.0,0.568986568986569,1757.510729613734,0.05127906299166698,0.8435405862129242,-0.40790163743371605,1443.2234432234432,-1.0,72.52766710934041,0.5701657146850809,
2023-08-21 10:48:27.554000,-7.819277108433735,-3.5783132530120483,-4.843373493975903,-3.585530349478847,-7.6400980993255665,-4.5370938074800735,3.0,0.568986568986569,1757.510729613734,-0.1922964862187516,0.5646524095332444,-0.25441407843365765,1441.7582417582416,-1.0,72.52766710934041,0.5701551441626377,
2023-08-21 10:48:27.562000,-7.819277108433735,-3.5783132530120483,-4.843373493975903,-3.5634580012262416,-7.608215818516247,-4.519926425505824,3.0,0.568986568986569,1757.510729613734,0.08519317056115634,0.258609638132976,0.14451372297651666,1441.7582417582416,-1.0,72.52766710934041,0.5701445929854492,
2023-08-21 10:48:27.569000,-7.819277108433735,-3.5662650602409642,-4.843373493975903,-3.5389331698344573,-7.5567136725935,-4.522378908645003,3.0,0.568986568986569,1757.510729613734,-0.006526426198938992,-0.15069051920051313,0.27795583007983216,1434.4322344322343,-1.0,72.52766710934041,0.5701340622656387,
2023-08-21 10:48:27.577000,-7.807228915662651,-3.5662650602409642,-4.843373493975903,-3.5634580012262416,-7.627835683629675,-4.554261189454322,3.0,0.568986568986569,1757.510729613734,-0.26723384418157525,-0.2678165608064794,0.10687022900763359,1429.3040293040292,-1.0,72.52766710934041,0.5701235529763963,
2023-08-21 10:48:27.585000,-7.795180722891566,-3.5662650602409642,-4.83132530120482,-3.543838136112814,-7.5444512568976085,-4.470876762722256,3.0,0.568986568986569,1757.510729613734,-0.21875182098945356,-0.5232795291649677,0.41221374045801523,1422.7106227106226,-1.0,72.52766710934041,0.5701130659490197,
2023-08-21 10:48:27.592000,-7.819277108433735,-3.5662650602409642,-4.843373493975903,-3.6174126302881664,-7.6400980993255665,-4.492949110974862,3.0,0.568986568986569,1757.510729613734,0.08903910028553089,-0.621991725423927,0.16689004137288022,1418.3150183150183,-1.0,72.52766710934041,0.5701026018707002,
2023-08-21 10:48:27.600000,-7.819277108433735,-3.5662650602409642,-4.819277108433735,-3.6100551808706314,-7.598405885959534,-4.515021459227468,3.0,0.568986568986569,1757.510729613734,-0.01841384534700861,-0.5852805780548924,0.21129304819066483,1418.3150183150183,-1.0,72.52766710934041,0.5700921612830679,
2023-08-21 10:48:27.608000,-7.795180722891566,-3.5662650602409642,-4.83132530120482,-3.5413856529736356,-7.571428571428571,-4.49540159411404,3.0,0.568986568986569,1757.510729613734,0.04347066021793532,-0.5033506205932047,0.24147776936076004,1418.3150183150183,-1.0,72.52766710934041,0.5700817445815207,
2023-08-21 10:48:27.615000,-7.83132530120482,-3.5542168674698797,-4.879518072289157,-3.595340282035561,-7.583690987124463,-4.470876762722256,3.0,0.568986568986569,1757.510729613734,-0.07983217761202745,-0.2096614416409292,0.392634461861197,1419.7802197802198,-1.0,72.52766710934041,0.5700713521540943,
2023-08-21 10:48:27.623000,-7.795180722891566,-3.5662650602409642,-4.83132530120482,-3.556100551808706,-7.571428571428571,-4.461066830165542,3.0,0.568986568986569,1757.510729613734,0.10349047258318238,-0.20814637841617661,0.14567915622632718,1422.7106227106226,-1.0,72.52766710934041,0.5700609843620068,
2023-08-21 10:48:27.631000,-7.783132530120482,-3.5783132530120483,-4.807228915662651,-3.6002452483139176,-7.649908031882281,-4.397302268546904,3.0,0.568986568986569,1757.510729613734,-0.04813239321717919,0.2814521298292633,-0.008391119398636281,1425.6410256410256,-1.0,72.52766710934041,0.5700506413933968,
2023-08-21 10:48:27.638000,-7.795180722891566,-3.5662650602409642,-4.819277108433735,-3.5634580012262416,-7.598405885959534,-4.473329245861435,3.0,0.568986568986569,1757.510729613734,-0.047083503292348186,0.27888817667968147,-0.006526426198939426,1430.7692307692307,-1.0,72.52766710934041,0.5700403231282138,
2023-08-21 10:48:27.646000,-7.783132530120482,-3.5662650602409642,-4.819277108433735,-3.5585530349478844,-7.586143470263641,-4.473329245861435,3.0,0.568986568986569,1757.510729613734,-9.323465998484274E-4,0.35219392809276817,-0.18891672979430083,1438.095238095238,-1.0,72.52766710934041,0.5700300291628418,
2023-08-21 10:48:27.654000,-7.795180722891566,-3.5542168674698797,-4.819277108433735,-3.614960147148988,-7.6180257510729605,-4.5076640098099325,3.0,0.568986568986569,1757.510729613734,0.12062234135539832,0.5161703863411227,0.18005943709574035,1443.956043956044,-1.0,72.52766710934041,0.5700197589629333,
2023-08-21 10:48:27.661000,-7.795180722891566,-3.5542168674698797,-4.819277108433735,-3.6125076640098097,-7.627835683629675,-4.473329245861435,3.0,0.568986568986569,1757.510729613734,0.044752636792727986,0.22015034088922533,-0.17353301089680093,1443.956043956044,-1.0,72.52766710934041,0.5700095118677326,
2023-08-21 10:48:27.669000,-7.795180722891566,-3.5542168674698797,-4.83132530120482,-3.5708154506437766,-7.613120784794604,-4.488044144696505,3.0,0.568986568986569,1757.510729613734,0.013169395722860555,0.2934560923023138,-0.09533243983450865,1446.8864468864467,-1.0,72.52766710934041,0.5699992872339206,
2023-08-21 10:48:27.677000,-7.807228915662651,-3.5662650602409642,-4.819277108433735,-3.5977927651747392,-7.5738810545677495,-4.510116492949111,3.0,0.568986568986569,1757.510729613734,0.3343627993706655,0.6405221140959148,-0.2938057222772567,1449.8168498168498,-1.0,72.52766710934041,0.5699890842823372,
2023-08-21 10:48:27.684000,-7.83132530120482,-3.5903614457831328,-4.83132530120482,-3.5830778663396687,-7.6253832004904964,-4.510116492949111,3.0,0.568986568986569,1757.510729613734,0.07307266476312506,0.46698910319911424,0.09090379348522817,1449.8168498168498,-1.0,72.52766710934041,0.5699789019769494,
2023-08-21 10:48:27.692000,-7.83132530120482,-3.5783132530120483,-4.83132530120482,-3.5585530349478844,-7.605763335377069,-4.451256897608829,3.0,0.5685425685425686,1758.8832487309644,0.25557951168346904,0.38773964221199275,-0.07423809801293646,1448.3516483516482,-1.0,72.52766710934041,0.56996873931999,
2023-08-21 10:48:27.700000,-7.819277108433735,-3.5783132530120483,-4.855421686746988,-3.602697731453096,-7.608215818516247,-4.485591661557327,3.0,0.5685425685425686,1758.8832487309644,0.28343336635394273,0.032865217644660105,-0.012003962473049154,1444.6886446886447,-1.0,72.52766710934041,0.5699585953288016,
2023-08-21 10:48:27.707000,-7.795180722891566,-3.5903614457831328,-4.843373493975903,-3.5830778663396687,-7.5959534028203555,-4.456161863887186,3.0,0.568986568986569,1757.510729613734,0.2681661907814237,-0.25557951168346904,-0.14707767612609984,1438.8278388278388,-1.0,72.52766710934041,0.5699484688540039,
2023-08-21 10:48:27.715000,-7.819277108433735,-3.6024096385542173,-4.843373493975903,-3.578172900061312,-7.5738810545677495,-4.461066830165542,3.0,0.568986568986569,1757.510729613734,0.4643086067245498,0.08612551716100478,-0.022842491696288207,1432.9670329670328,-1.0,72.52766710934041,0.5699383584504815,
2023-08-21 10:48:27.723000,-7.819277108433735,-3.5903614457831328,-4.83132530120482,-3.5462906192519923,-7.615573267933782,-4.483139178418148,3.0,0.568986568986569,1757.510729613734,0.14113396655206545,-0.35242701474272986,-0.4506730377017655,1425.6410256410256,-1.0,72.52766710934041,0.5699282625884958,
2023-08-21 10:48:27.730000,-7.807228915662651,-3.5662650602409642,-4.855421686746988,-3.578172900061312,-7.5738810545677495,-4.505211526670754,3.0,0.568986568986569,1757.510729613734,0.15500262222481276,-0.5274750888642847,-0.12423518442981163,1419.7802197802198,-1.0,72.52766710934041,0.5699181796631616,
2023-08-21 10:48:27.738000,-7.807228915662651,-3.5662650602409642,-4.83132530120482,-3.6125076640098097,-7.554261189454322,-4.448804414469651,3.0,0.568986568986569,1757.510729613734,0.30860672454985205,-0.930132276673854,-0.16735621467280443,1416.117216117216,-1.0,72.52766710934041,0.5699081080148588,
2023-08-21 10:48:27.746000,-7.83132530120482,-3.5783132530120483,-4.83132530120482,-3.62722256284488,-7.6033108522378905,-4.463519313304721,3.0,0.568986568986569,1757.510729613734,0.04545189674261474,-0.6740865916904616,-0.22702639706310812,1415.3846153846152,-1.0,72.52766710934041,0.5698980460676906,
2023-08-21 10:48:27.753000,-7.807228915662651,-3.5903614457831328,-4.843373493975903,-3.585530349478847,-7.5444512568976085,-4.448804414469651,3.0,0.5685425685425686,1758.8832487309644,0.1843715401200391,-0.2093118116659867,-0.04230522696812521,1416.8498168498168,-1.0,72.52766710934041,0.5698879921914738,
2023-08-21 10:48:27.761000,-7.807228915662651,-3.5903614457831328,-4.843373493975903,-3.614960147148988,-7.576333537706928,-4.438994481912936,3.0,0.5685425685425686,1758.8832487309644,0.35126158149291975,-0.40848435405862155,0.004778276324223407,1416.8498168498168,-1.0,72.52766710934041,0.5698779445639163,
2023-08-21 10:48:27.769000,-7.807228915662651,-3.5783132530120483,-4.807228915662651,-3.5413856529736356,-7.63519313304721,-4.473329245861435,3.0,0.5685425685425686,1758.8832487309644,0.15080706252549397,-0.390536682011538,-0.009556552648447248,1414.6520146520145,-1.0,72.52766710934041,0.5698679011603728,
2023-08-21 10:48:27.776000,-7.795180722891566,-3.5903614457831328,-4.807228915662651,-3.56591048436542,-7.54199877375843,-4.429184549356223,3.0,0.568986568986569,1757.510729613734,-0.12691568090437563,-0.2680496474564411,-0.3297010663714234,1413.9194139194137,-1.0,72.52766710934041,0.5698578599026435,
2023-08-21 10:48:27.784000,-7.807228915662651,-3.5783132530120483,-4.83132530120482,-3.5977927651747392,-7.6400980993255665,-4.483139178418148,3.0,0.568986568986569,1757.510729613734,0.1335586504282972,-0.19486043936833522,-0.09405046325971683,1413.9194139194137,-1.0,72.52766710934041,0.569847818818202,
2023-08-21 10:48:27.792000,-7.807228915662651,-3.5662650602409642,-4.819277108433735,-3.5585530349478844,-7.583690987124463,-4.453709380748007,3.0,0.568986568986569,1757.510729613734,0.14859273935085288,0.03298176096964094,-0.10617096905774727,1416.117216117216,-1.0,72.52766710934041,0.5698377760718513,
2023-08-21 10:48:27.799000,-7.795180722891566,-3.5783132530120483,-4.819277108433735,-3.5511955855303494,-7.600858369098712,-4.456161863887186,3.0,0.568986568986569,1757.510729613734,0.2516170386341119,-0.5958860206281693,0.12528407435464134,1417.5824175824175,-1.0,72.52766710934041,0.5698277298382591,
2023-08-21 10:48:27.807000,-7.795180722891566,-3.5783132530120483,-4.819277108433735,-3.6100551808706314,-7.58859595340282,-4.475781729000613,3.0,0.568986568986569,1757.510729613734,0.21945108093933857,-0.13565643027795574,0.018064215372064367,1416.117216117216,-1.0,72.52766710934041,0.5698176783132127,
2023-08-21 10:48:27.815000,-7.795180722891566,-3.5662650602409642,-4.819277108433735,-3.5806253832004904,-7.591048436541999,-4.478234212139792,3.0,0.568986568986569,1757.510729613734,-0.027970397995454557,0.0,-0.28867781597808995,1410.989010989011,-1.0,72.52766710934041,0.569807619724804,
2023-08-21 10:48:27.822000,-7.807228915662651,-3.5662650602409642,-4.819277108433735,-3.607602697731453,-7.645003065603923,-4.456161863887186,3.0,0.5685425685425686,1758.8832487309644,0.0012819765747909368,0.07353883806305013,-0.0282034846454171,1403.6630036630036,-1.0,72.52766710934041,0.5697975523445162,
2023-08-21 10:48:27.830000,-7.771084337349398,-3.5783132530120483,-4.819277108433735,-3.5879828326180254,-7.591048436541999,-4.441446965052115,3.0,0.568986568986569,1757.510729613734,0.047083503292348186,-0.020161995221722892,0.29135831245265437,1395.6043956043954,-1.0,72.52766710934041,0.5697874743488748,
2023-08-21 10:48:27.838000,-7.819277108433735,-3.5783132530120483,-4.83132530120482,-3.5904353157572038,-7.598405885959534,-4.465971796443899,3.0,0.568986568986569,1757.510729613734,0.15441990559990684,0.24112813938581582,-0.15616805547462287,1391.2087912087911,-1.0,72.52766710934041,0.5697773839576381,
2023-08-21 10:48:27.845000,-7.807228915662651,-3.5903614457831328,-4.843373493975903,-3.595340282035561,-7.605763335377069,-4.500306560392397,3.0,0.5685425685425686,1758.8832487309644,0.030883981119980676,-0.003496299749432037,0.027853854670473722,1389.0109890109889,-1.0,72.52766710934041,0.5697672796032958,
2023-08-21 10:48:27.853000,-7.819277108433735,-3.5903614457831328,-4.83132530120482,-3.602697731453096,-7.6033108522378905,-4.5076640098099325,3.0,0.5685425685425686,1758.8832487309644,-0.1222539479051335,0.04626770001748233,0.1198065380805316,1387.5457875457876,-1.0,72.52766710934041,0.5697571596531635,
2023-08-21 10:48:27.861000,-7.819277108433735,-3.5903614457831328,-4.83132530120482,-3.5977927651747392,-7.630288166768853,-4.519926425505824,3.0,0.5685425685425686,1758.8832487309644,-0.08985490356039848,-0.1480100227259487,-0.04848202319212169,1387.5457875457876,-1.0,72.52766710934041,0.5697470223973743,
2023-08-21 10:48:27.868000,-7.795180722891566,-3.5783132530120483,-4.843373493975903,-3.5757204169221333,-7.605763335377069,-4.490496627835683,3.0,0.568986568986569,1757.510729613734,0.06491463201445088,-0.49449332789464545,-0.06596352193928101,1383.150183150183,-1.0,72.52766710934041,0.5697368661955103,
2023-08-21 10:48:27.876000,-7.807228915662651,-3.5542168674698797,-4.83132530120482,-3.5708154506437766,-7.6180257510729605,-4.441446965052115,3.0,0.568986568986569,1757.510729613734,0.005360992949128891,-0.6843424042887943,-0.32597167997202964,1385.3479853479853,-1.0,72.52766710934041,0.569726689633272,
2023-08-21 10:48:27.884000,-7.807228915662651,-3.5662650602409642,-4.83132530120482,-3.5708154506437766,-7.605763335377069,-4.473329245861435,3.0,0.568986568986569,1757.510729613734,0.1744653574966489,-0.3074412913000402,-0.21921799428937688,1386.080586080586,-1.0,72.52766710934041,0.5697164915511985,
2023-08-21 10:48:27.891000,-7.807228915662651,-3.5783132530120483,-4.83132530120482,-3.5683629675045982,-7.529736358062538,-4.488044144696505,3.0,0.568986568986569,1757.510729613734,0.18926635976924464,-0.5465881941611801,-0.28017015325447236,1383.8827838827838,-1.0,72.52766710934041,0.5697062709139029,
2023-08-21 10:48:27.899000,-7.795180722891566,-3.5662650602409642,-4.83132530120482,-3.649294911097486,-7.615573267933782,-4.463519313304721,3.0,0.5685425685425686,1758.8832487309644,0.3710739467397001,-0.26653458423168847,-0.3414719421945108,1384.6153846153845,-1.0,72.52766710934041,0.5696960268176885,
2023-08-21 10:48:27.906000,-7.819277108433735,-3.5783132530120483,-4.855421686746988,-3.5413856529736356,-7.652360515021459,-4.451256897608829,3.0,0.568986568986569,1757.510729613734,-0.028320027970398804,-0.5406444845871452,-0.06316648213973529,1387.5457875457876,-1.0,72.52766710934041,0.5696857583484788,
2023-08-21 10:48:27.914000,-7.795180722891566,-3.5783132530120483,-4.819277108433735,-3.6100551808706314,-7.593500919681177,-4.483139178418148,3.0,0.5685425685425686,1758.8832487309644,-0.02960200454518974,-0.5383136180875233,-0.06339956878969741,1389.0109890109889,-1.0,72.52766710934041,0.569675464716054,
2023-08-21 10:48:27.922000,-7.819277108433735,-3.5662650602409642,-4.83132530120482,-3.5977927651747392,-7.615573267933782,-4.475781729000613,3.0,0.568986568986569,1757.510729613734,0.01596643552240584,-0.33960724899481354,0.044403006817784606,1392.6739926739926,-1.0,72.52766710934041,0.5696651452700907,
2023-08-21 10:48:27.929000,-7.807228915662651,-3.5783132530120483,-4.83132530120482,-3.595340282035561,-7.583690987124463,-4.475781729000613,3.0,0.5685425685425686,1758.8832487309644,0.18378882349513492,-0.43354116892954997,-0.1550026222248119,1394.8717948717947,-1.0,72.52766710934041,0.5696547994946066,
2023-08-21 10:48:27.937000,-7.807228915662651,-3.5783132530120483,-4.819277108433735,-3.5634580012262416,-7.591048436541999,-4.453709380748007,3.0,0.5685425685425686,1758.8832487309644,0.16689004137288066,-0.1922964862187516,-0.24427480916030533,1397.8021978021977,-1.0,72.52766710934041,0.5696444270229423,
2023-08-21 10:48:27.945000,-7.807228915662651,-3.5783132530120483,-4.83132530120482,-3.676272225628449,-7.6106683016554255,-4.488044144696505,3.0,0.5685425685425686,1758.8832487309644,0.4105821339082801,0.06246722218984984,-0.05815511916554978,1398.5347985347985,-1.0,72.52766710934041,0.569634027481835,
2023-08-21 10:48:27.952000,-7.807228915662651,-3.5662650602409642,-4.843373493975903,-3.548743102391171,-7.605763335377069,-4.490496627835683,3.0,0.5685425685425686,1758.8832487309644,0.29986597517627195,0.21082687489074106,-0.04230522696812521,1397.069597069597,-1.0,72.52766710934041,0.5696236006327384,
2023-08-21 10:48:27.960000,-7.807228915662651,-3.5662650602409642,-4.843373493975903,-3.526670754138565,-7.571428571428571,-4.485591661557327,3.0,0.5685425685425686,1758.8832487309644,0.11596060835615618,0.2061651418914989,-0.02633879144571981,1397.069597069597,-1.0,72.52766710934041,0.5696131463737472,
2023-08-21 10:48:27.968000,-7.819277108433735,-3.5903614457831328,-4.83132530120482,-3.6051502145922747,-7.627835683629675,-4.470876762722256,3.0,0.5685425685425686,1758.8832487309644,0.16176213507371343,0.09335120330983052,-0.3179301905483363,1388.278388278388,-1.0,72.52766710934041,0.5696026647408947,
2023-08-21 10:48:27.975000,-7.819277108433735,-3.5662650602409642,-4.843373493975903,-3.536480686695279,-7.600858369098712,-4.478234212139792,3.0,0.5685425685425686,1758.8832487309644,0.07062525493852402,-0.1857700600198126,-0.04067362041839047,1383.150183150183,-1.0,72.52766710934041,0.5695921559088208,
2023-08-21 10:48:27.983000,-7.807228915662651,-3.5662650602409642,-4.83132530120482,-3.5683629675045982,-7.5665236051502145,-4.5297363580625385,3.0,0.5685425685425686,1758.8832487309644,0.03950818716857993,-0.0033797564244512,-0.14835965270089163,1380.952380952381,-1.0,72.52766710934041,0.5695816201908336,
2023-08-21 10:48:27.991000,-7.83132530120482,-3.5783132530120483,-4.879518072289157,-3.5757204169221333,-7.62047823421214,-4.451256897608829,3.0,0.5685425685425686,1758.8832487309644,0.1611794184488075,-0.5218810092651941,-0.3899539653866325,1383.150183150183,-1.0,72.52766710934041,0.5695710580383634,
2023-08-21 10:48:27.998000,-7.807228915662651,-3.5783132530120483,-4.855421686746988,-3.5830778663396687,-7.5959534028203555,-4.465971796443899,3.0,0.5680985680985682,1760.2579132473622,-0.06945982168871218,-0.30184721170094964,0.055707709340947445,1385.3479853479853,-1.0,72.52766710934041,0.5695604700398436,
2023-08-21 10:48:28.006000,-7.819277108433735,-3.5783132530120483,-4.843373493975903,-3.6125076640098097,-7.63519313304721,-4.522378908645003,3.0,0.5680985680985682,1760.2579132473622,0.28063632655439574,-0.1471942194510811,-0.14358137637666823,1389.0109890109889,-1.0,72.52766710934041,0.5695498567697305,
2023-08-21 10:48:28.014000,-7.819277108433735,-3.5783132530120483,-4.83132530120482,-3.6125076640098097,-7.62047823421214,-4.512568976088289,3.0,0.5685425685425686,1758.8832487309644,-0.04347066021793532,-0.09638132975933747,-0.08181341413670515,1394.139194139194,-1.0,72.52766710934041,0.5695392189031585,
2023-08-21 10:48:28.021000,-7.819277108433735,-3.6024096385542173,-4.83132530120482,-3.624770079705702,-7.622930717351318,-4.429184549356223,3.0,0.5685425685425686,1758.8832487309644,0.06270030883981152,-0.33622749257036233,-0.05174523629159119,1398.5347985347985,-1.0,72.52766710934041,0.5695285573404322,
2023-08-21 10:48:28.029000,-7.807228915662651,-3.5903614457831328,-4.855421686746988,-3.6296750459840585,-7.6400980993255665,-4.456161863887186,3.0,0.5685425685425686,1758.8832487309644,0.2929899190023887,-0.10314084260823987,-0.1743488141716685,1399.2673992673992,-1.0,72.52766710934041,0.5695178730961957,
2023-08-21 10:48:28.037000,-7.795180722891566,-3.5903614457831328,-4.807228915662651,-3.5683629675045982,-7.568976088289393,-4.512568976088289,3.0,0.5685425685425686,1758.8832487309644,0.09195268341005701,-0.25453062175863805,-0.4147776936075984,1400.0,-1.0,72.52766710934041,0.5695071673057457,
2023-08-21 10:48:28.044000,-7.819277108433735,-3.6024096385542173,-4.855421686746988,-3.5683629675045982,-7.527283874923359,-4.446351931330472,3.0,0.5685425685425686,1758.8832487309644,0.35032923489307133,-0.38902161878678365,-0.02960200454518974,1398.5347985347985,-1.0,72.52766710934041,0.5694964412203969,
2023-08-21 10:48:28.052000,-7.795180722891566,-3.5903614457831328,-4.83132530120482,-3.6100551808706314,-7.630288166768853,-4.473329245861435,3.0,0.5685425685425686,1758.8832487309644,0.17737894062117676,-0.41501078025756055,-0.03030126449507606,1399.2673992673992,-1.0,72.52766710934041,0.5694856962024812,
2023-08-21 10:48:28.060000,-7.795180722891566,-3.5903614457831328,-4.83132530120482,-3.561005518087063,-7.5567136725935,-4.534641324340895,3.0,0.5685425685425686,1758.8832487309644,0.46465823669949236,-0.19789056581784217,-0.08927218693549344,1399.2673992673992,-1.0,72.52766710934041,0.5694749337200248,
2023-08-21 10:48:28.067000,-7.795180722891566,-3.5783132530120483,-4.819277108433735,-3.6002452483139176,-7.5812385039852845,-4.497854077253218,3.0,0.5685425685425686,1758.8832487309644,0.19893945574267316,-0.24369209253539942,-0.042538313618087756,1393.4065934065934,-1.0,72.52766710934041,0.5694641554798984,
2023-08-21 10:48:28.075000,-7.783132530120482,-3.5783132530120483,-4.867469879518072,-3.6125076640098097,-7.600858369098712,-4.461066830165542,3.0,0.5685425685425686,1758.8832487309644,0.027737311345492885,0.10791911893246285,0.12749839752928155,1391.2087912087911,-1.0,72.52766710934041,0.5694533634015918,
2023-08-21 10:48:28.083000,-7.783132530120482,-3.5783132530120483,-4.843373493975903,-3.6296750459840585,-7.598405885959534,-4.490496627835683,3.0,0.5685425685425686,1758.8832487309644,0.07248994813822088,-0.27702348347998285,-0.1474273061010432,1386.8131868131868,-1.0,72.52766710934041,0.5694425594631901,
2023-08-21 10:48:28.090000,-7.795180722891566,-3.6024096385542173,-4.819277108433735,-3.5977927651747392,-7.6180257510729605,-4.470876762722256,3.0,0.5685425685425686,1758.8832487309644,0.2997494318512911,-0.2154886078899832,0.15931472524911153,1380.2197802197802,-1.0,72.52766710934041,0.5694317456962874,
2023-08-21 10:48:28.098000,-7.807228915662651,-3.6024096385542173,-4.843373493975903,-3.5634580012262416,-7.583690987124463,-4.478234212139792,3.0,0.5685425685425686,1758.8832487309644,0.23518442981178272,-0.3223588368976168,-0.08589243051104223,1372.8937728937728,-1.0,72.52766710934041,0.5694209240418479,
2023-08-21 10:48:28.106000,-7.819277108433735,-3.5903614457831328,-4.819277108433735,-3.6100551808706314,-7.532188841201716,-4.515021459227468,3.0,0.5685425685425686,1758.8832487309644,-0.010372355923315273,0.10687022900763359,-0.190548336344036,1365.5677655677655,-1.0,72.52766710934041,0.5694100963649344,
2023-08-21 10:48:28.113000,-7.807228915662651,-3.6144578313253013,-4.795180722891566,-3.5806253832004904,-7.578786020846106,-4.453709380748007,3.0,0.5685425685425686,1758.8832487309644,0.05116251966668614,-0.16758930132276742,-0.0984791096089973,1360.4395604395604,-1.0,72.52766710934041,0.5693992645968382,
2023-08-21 10:48:28.121000,-7.819277108433735,-3.5783132530120483,-4.843373493975903,-3.5879828326180254,-7.561618638871857,-4.463519313304721,3.0,0.5680985680985682,1760.2579132473622,-0.068877105063808,-0.2739933570304759,-0.23611677641163117,1362.6373626373625,-1.0,72.52766710934041,0.5693884308666928,
2023-08-21 10:48:28.129000,-7.819277108433735,-3.5783132530120483,-4.819277108433735,-3.6051502145922747,-7.605763335377069,-4.468424279583077,3.0,0.5685425685425686,1758.8832487309644,0.05407610279121226,-0.5759571120564064,0.07260649146320128,1367.7655677655678,-1.0,72.52766710934041,0.569377597324745,
2023-08-21 10:48:28.136000,-7.807228915662651,-3.5903614457831328,-4.855421686746988,-3.632127529123237,-7.551808706315144,-4.470876762722256,3.0,0.5685425685425686,1758.8832487309644,0.1922964862187516,-0.3394907056698327,-0.034729910844356525,1375.091575091575,-1.0,72.52766710934041,0.5693667661148523,
2023-08-21 10:48:28.144000,-7.795180722891566,-3.5783132530120483,-4.819277108433735,-3.5977927651747392,-7.559166155732679,-4.485591661557327,3.0,0.5685425685425686,1758.8832487309644,0.3270205698968589,-0.3350620593205522,-0.1547695355748498,1385.3479853479853,-1.0,72.52766710934041,0.5693559395277661,
2023-08-21 10:48:28.152000,-7.771084337349398,-3.5783132530120483,-4.819277108433735,-3.595340282035561,-7.6033108522378905,-4.475781729000613,3.0,0.5680985680985682,1760.2579132473622,0.1252840743546422,-0.7740807645242119,0.10687022900763359,1396.3369963369962,-1.0,72.52766710934041,0.5693451198565562,
2023-08-21 10:48:28.159000,-7.771084337349398,-3.5783132530120483,-4.819277108433735,-3.5585530349478844,-7.6180257510729605,-4.502759043531576,3.0,0.5680985680985682,1760.2579132473622,-0.10500553580793673,-0.38552531903735165,-0.22935726356272962,1396.3369963369962,-1.0,72.52766710934041,0.5693343093803109,
2023-08-21 10:48:28.167000,-7.795180722891566,-3.5662650602409642,-4.819277108433735,-3.578172900061312,-7.591048436541999,-4.483139178418148,3.0,0.5680985680985682,1760.2579132473622,0.29112522580269184,-0.505448400442865,-0.16747275799778572,1429.3040293040292,-1.0,72.52766710934041,0.5693235101774848,
2023-08-21 10:48:28.175000,-7.795180722891566,-3.5662650602409642,-4.83132530120482,-3.578172900061312,-7.600858369098712,-4.426732066217045,3.0,0.5685425685425686,1758.8832487309644,0.027271138045567803,-0.7327078841559351,0.06339956878969741,1448.3516483516482,-1.0,72.52766710934041,0.5693127241298489,
2023-08-21 10:48:28.182000,-7.83132530120482,-3.5542168674698797,-4.795180722891566,-3.5830778663396687,-7.571428571428571,-4.453709380748007,3.0,0.5685425685425686,1758.8832487309644,0.20791329176621492,-0.45277081755142445,-0.2753918769302485,1468.131868131868,-1.0,72.52766710934041,0.5693019530749638,
2023-08-21 10:48:28.190000,-7.819277108433735,-3.5662650602409642,-4.819277108433735,-3.607602697731453,-7.6180257510729605,-4.436541998773758,3.0,0.5680985680985682,1760.2579132473622,0.14393100635161074,-0.08262921741157274,0.030767437795000272,1487.179487179487,-1.0,72.52766710934041,0.5692911989798666,
2023-08-21 10:48:28.198000,-7.807228915662651,-3.5542168674698797,-4.795180722891566,-3.6100551808706314,-7.645003065603923,-4.407112201103617,3.0,0.5680985680985682,1760.2579132473622,0.14404754967659159,-0.08041489423693338,0.029368917895227633,1506.9597069597069,827.2705078125,72.52766710934041,0.5692804637751306,
2023-08-21 10:48:28.205000,-7.855421686746988,-3.5783132530120483,-4.83132530120482,-3.524218270999387,-7.576333537706928,-4.443899448191293,3.0,0.5685425685425686,1758.8832487309644,0.06642969523920522,-8.15803274867591E-4,-0.2151389779150398,1526.7399267399267,-1.0,72.52766710934041,0.5692697491787215,
2023-08-21 10:48:28.213000,-7.819277108433735,-3.5662650602409642,-4.795180722891566,-3.5340282035561,-7.664622930717351,-4.461066830165542,3.0,0.5680985680985682,1760.2579132473622,0.18635277664471853,-0.027620768020512047,-0.22725948371307023,1545.7875457875457,-1.0,72.52766710934041,0.5692590569777676,
2023-08-21 10:48:28.221000,-7.83132530120482,-3.5903614457831328,-4.83132530120482,-3.585530349478847,-7.578786020846106,-4.404659717964439,3.0,0.5680985680985682,1760.2579132473622,0.15418681894994518,0.0692267350387505,-0.30242992832585514,1563.3699633699632,-1.0,72.52766710934041,0.569248388895111,
2023-08-21 10:48:28.228000,-7.83132530120482,-3.5783132530120483,-4.783132530120482,-3.6615573267933783,-7.630288166768853,-4.441446965052115,3.0,0.5680985680985682,1760.2579132473622,-0.18343919352019067,-0.1699201678223876,-0.6372589009964452,1575.8241758241757,-1.0,72.52766710934041,0.5692377464246211,
2023-08-21 10:48:28.236000,-7.843373493975904,-3.5903614457831328,-4.807228915662651,-3.502145922746781,-7.5665236051502145,-4.485591661557327,3.0,0.5685425685425686,1758.8832487309644,0.23005652351261552,0.07831711438727311,-0.2337859099120101,1586.080586080586,-1.0,72.52766710934041,0.5692271309647008,
2023-08-21 10:48:28.244000,-7.83132530120482,-3.5903614457831328,-4.783132530120482,-3.573267933782955,-7.627835683629675,-4.436541998773758,3.0,0.5680985680985682,1760.2579132473622,0.1658411514480514,0.020161995221722892,-0.13868655672746355,1589.7435897435896,-1.0,72.52766710934041,0.5692165439626967,
2023-08-21 10:48:28.251000,-7.83132530120482,-3.6024096385542173,-4.795180722891566,-3.6174126302881664,-7.6400980993255665,-4.43408951563458,3.0,0.5685425685425686,1758.8832487309644,-0.03496299749431863,0.022259775071383155,-0.3352951459705148,1589.0109890109889,-1.0,72.52766710934041,0.5692059867829883,
2023-08-21 10:48:28.259000,-7.83132530120482,-3.6024096385542173,-4.795180722891566,-3.637032495401594,-7.674432863274064,-4.394849785407725,3.0,0.5685425685425686,1758.8832487309644,0.010955072548219456,0.17563079074646074,0.25033506205932055,1589.0109890109889,-1.0,72.52766710934041,0.5691954606932762,
2023-08-21 10:48:28.267000,-7.843373493975904,-3.5783132530120483,-4.807228915662651,-3.624770079705702,-7.63519313304721,-4.461066830165542,3.0,0.5680985680985682,1760.2579132473622,0.20872909504108078,-0.04102325039333428,-0.30079832177612037,1579.4871794871794,-1.0,72.52766710934041,0.5691849670217849,
2023-08-21 10:48:28.274000,-7.807228915662651,-3.6024096385542173,-4.795180722891566,-3.607602697731453,-7.642550582464745,-4.414469650521152,3.0,0.5680985680985682,1760.2579132473622,0.19101450964396066,-0.13425791037818222,0.14602878620127013,1572.8937728937728,-1.0,72.52766710934041,0.5691745068679618,
2023-08-21 10:48:28.282000,-7.807228915662651,-3.5903614457831328,-4.819277108433735,-3.5830778663396687,-7.5567136725935,-4.441446965052115,3.0,0.5680985680985682,1760.2579132473622,-0.2851815162286588,0.03251558766971586,0.2377483829613659,1563.3699633699632,-1.0,72.52766710934041,0.5691640810800386,
2023-08-21 10:48:28.289000,-7.807228915662651,-3.5903614457831328,-4.83132530120482,-3.654199877375843,-7.647455548743102,-4.490496627835683,3.0,0.5680985680985682,1760.2579132473622,-0.08612551716100478,-0.3082570945749078,0.021560515121496402,1550.18315018315,-1.0,72.52766710934041,0.5691536903922253,
2023-08-21 10:48:28.297000,-7.83132530120482,-3.6144578313253013,-4.819277108433735,-3.6125076640098097,-7.576333537706928,-4.453709380748007,3.0,0.5680985680985682,1760.2579132473622,-0.024357554921041684,-0.26408717440708573,0.036128430744129164,1535.5311355311355,-1.0,72.52766710934041,0.5691433354236926,
2023-08-21 10:48:28.305000,-7.83132530120482,-3.6024096385542173,-4.819277108433735,-3.5757204169221333,-7.564071122011036,-4.431637032495401,3.0,0.5676545676545677,1761.634728197106,0.14474680962647835,-0.4334246256045691,0.007458772798788287,1518.6813186813185,-1.0,72.52766710934041,0.5691330166780885,
2023-08-21 10:48:28.312000,-7.795180722891566,-3.6024096385542173,-4.83132530120482,-3.656652360515021,-7.527283874923359,-4.473329245861435,3.0,0.5680985680985682,1760.2579132473622,-0.022259775071383155,-0.4151273235825414,-0.024823728220965898,1504.0293040293038,-1.0,72.52766710934041,0.5691227346718101,
2023-08-21 10:48:28.320000,-7.807228915662651,-3.6024096385542173,-4.83132530120482,-3.614960147148988,-7.6327406499080315,-4.43408951563458,3.0,0.5680985680985682,1760.2579132473622,-0.11304702523163007,-0.046500786667444005,-0.040790163743371737,1490.10989010989,-1.0,72.52766710934041,0.5691124898825394,
2023-08-21 10:48:28.328000,-7.783132530120482,-3.6024096385542173,-4.795180722891566,-3.5217657878602084,-7.652360515021459,-4.453709380748007,3.0,0.5680985680985682,1760.2579132473622,0.1313443272536561,-0.01713186877221594,-0.10034380280869416,1480.5860805860805,-1.0,72.52766710934041,0.56910228249501,
2023-08-21 10:48:28.335000,-7.795180722891566,-3.6144578313253013,-4.843373493975903,-3.5977927651747392,-7.613120784794604,-4.485591661557327,3.0,0.5685425685425686,1758.8832487309644,0.15849892197424306,-0.04894819649204678,-0.03845929724375023,1473.9926739926739,-1.0,72.52766710934041,0.5690921124343968,
2023-08-21 10:48:28.343000,-7.795180722891566,-3.5903614457831328,-4.807228915662651,-3.619865113427345,-7.576333537706928,-4.475781729000613,3.0,0.5680985680985682,1760.2579132473622,0.06444845871452753,-0.06561389196433763,0.1629275683235244,1471.062271062271,-1.0,72.52766710934041,0.56908197980519,
2023-08-21 10:48:28.351000,-7.783132530120482,-3.6024096385542173,-4.83132530120482,-3.6100551808706314,-7.637645616186388,-4.443899448191293,3.0,0.5680985680985682,1760.2579132473622,0.12644950760445228,-0.11048307208204645,-0.005943709574033941,1469.5970695970695,-1.0,72.52766710934041,0.5690718846067508,
2023-08-21 10:48:28.358000,-7.783132530120482,-3.6024096385542173,-4.83132530120482,-3.6125076640098097,-7.608215818516247,-4.473329245861435,3.0,0.5680985680985682,1760.2579132473622,0.18646931996969937,0.3961307616106286,-0.20628168521647933,1469.5970695970695,-1.0,72.52766710934041,0.5690618265881835,
2023-08-21 10:48:28.374000,-7.807228915662651,-3.6144578313253013,-4.807228915662651,-3.619865113427345,-7.6033108522378905,-4.505211526670754,3.0,0.5680985680985682,1760.2579132473622,-0.27236175048074074,0.35289318804265496,-0.12679913757939523,1464.4688644688645,-1.0,72.52766710934041,0.5690518055192237,
2023-08-21 10:48:28.381000,-7.795180722891566,-3.626506024096386,-4.819277108433735,-3.561005518087063,-7.6253832004904964,-4.465971796443899,3.0,0.5680985680985682,1760.2579132473622,0.2952042421770298,0.12679913757939482,0.10477244915797419,1457.8754578754579,-1.0,72.52766710934041,0.5690418209072681,
2023-08-21 10:48:28.389000,-7.795180722891566,-3.6024096385542173,-4.819277108433735,-3.5511955855303494,-7.568976088289393,-4.465971796443899,3.0,0.5680985680985682,1760.2579132473622,-0.15069051920051313,0.25068469203426347,-0.13961890332731197,1454.212454212454,-1.0,72.52766710934041,0.5690318720231722,
2023-08-21 10:48:28.397000,-7.795180722891566,-3.6024096385542173,-4.843373493975903,-3.632127529123237,-7.667075413856529,-4.48068669527897,3.0,0.5680985680985682,1760.2579132473622,-0.12062234135539832,0.056523512615815036,0.1506905192005127,1451.2820512820513,-1.0,72.52766710934041,0.5690219581937377,
2023-08-21 10:48:28.404000,-7.783132530120482,-3.6024096385542173,-4.819277108433735,-3.6468424279583074,-7.613120784794604,-4.483139178418148,3.0,0.5680985680985682,1760.2579132473622,-0.2130411980653804,0.2590758114328993,-0.017364955422178478,1444.6886446886447,-1.0,72.52766710934041,0.5690120787862898,
2023-08-21 10:48:28.412000,-7.807228915662651,-3.6144578313253013,-4.855421686746988,-3.5879828326180254,-7.554261189454322,-4.468424279583077,3.0,0.5680985680985682,1760.2579132473622,-0.12097197133034257,0.10663714235767191,0.042771400268049424,1438.095238095238,-1.0,72.52766710934041,0.5690022330661375,
2023-08-21 10:48:28.420000,-7.807228915662651,-3.6024096385542173,-4.855421686746988,-3.6125076640098097,-7.576333537706928,-4.497854077253218,3.0,0.5680985680985682,1760.2579132473622,0.04673387331740568,-0.04533535341763217,0.31932871044810895,1430.7692307692307,-1.0,72.52766710934041,0.5689924200648606,
2023-08-21 10:48:28.427000,-7.807228915662651,-3.5903614457831328,-4.83132530120482,-3.573267933782955,-7.571428571428571,-4.48068669527897,3.0,0.5680985680985682,1760.2579132473622,-0.12330283782996276,0.0791329176621407,-0.2631548278072373,1421.9780219780218,-1.0,72.52766710934041,0.5689826387467347,
2023-08-21 10:48:28.435000,-7.819277108433735,-3.6024096385542173,-4.855421686746988,-3.5708154506437766,-7.605763335377069,-4.453709380748007,3.0,0.5680985680985682,1760.2579132473622,0.44251500495309176,0.09509935318454654,-0.1692209078725017,1413.9194139194137,-1.0,72.52766710934041,0.5689728881438748,
2023-08-21 10:48:28.443000,-7.819277108433735,-3.6024096385542173,-4.83132530120482,-3.6125076640098097,-7.63519313304721,-4.483139178418148,3.0,0.5680985680985682,1760.2579132473622,0.3609346774663483,-0.1642095448983162,0.16817201794767203,1408.7912087912086,-1.0,72.52766710934041,0.5689631672148904,
2023-08-21 10:48:28.450000,-7.83132530120482,-3.5783132530120483,-4.795180722891566,-3.637032495401594,-7.647455548743102,-4.416922133660331,3.0,0.5680985680985682,1760.2579132473622,0.09696404638424339,-0.08530971388613719,0.0010488899248296977,1405.128205128205,-1.0,72.52766710934041,0.5689534748530187,
2023-08-21 10:48:28.458000,-7.83132530120482,-3.5783132530120483,-4.807228915662651,-3.573267933782955,-7.5812385039852845,-4.426732066217045,3.0,0.5676545676545677,1761.634728197106,-0.057572402540644295,-0.4658236699493042,-0.15243866907522874,1406.5934065934066,-1.0,72.52766710934041,0.5689438098944267,
2023-08-21 10:48:28.466000,-7.83132530120482,-3.5783132530120483,-4.807228915662651,-3.649294911097486,-7.649908031882281,-4.41937461679951,3.0,0.5676545676545677,1761.634728197106,0.2482372822096607,-0.08204650078666682,0.0045451896742613,1406.5934065934066,-1.0,72.52766710934041,0.5689341709773563,
2023-08-21 10:48:28.473000,-7.807228915662651,-3.5783132530120483,-4.783132530120482,-3.6051502145922747,-7.630288166768853,-4.475781729000613,3.0,0.5676545676545677,1761.634728197106,0.24369209253539942,-0.08018180758696997,0.0037293863993941435,1404.3956043956043,-1.0,72.52766710934041,0.5689245565287976,
2023-08-21 10:48:28.481000,-7.807228915662651,-3.5783132530120483,-4.855421686746988,-3.62722256284488,-7.63519313304721,-4.461066830165542,3.0,0.5680985680985682,1760.2579132473622,0.5766563720062932,-0.0787832876871982,-0.29939980187634774,1400.0,-1.0,72.52766710934041,0.5689149649101853,
2023-08-21 10:48:28.489000,-7.819277108433735,-3.5903614457831328,-4.783132530120482,-3.6100551808706314,-7.6033108522378905,-4.465971796443899,3.0,0.5680985680985682,1760.2579132473622,0.14276557310180063,0.013985198997728147,-0.3405395955946624,1396.3369963369962,-1.0,72.52766710934041,0.5689053945735092,
2023-08-21 10:48:28.496000,-7.819277108433735,-3.5783132530120483,-4.771084337349397,-3.6002452483139176,-7.600858369098712,-4.43408951563458,3.0,0.5680985680985682,1760.2579132473622,0.41431152030767376,0.3655964104655904,-0.41244682710797737,1396.3369963369962,-1.0,72.52766710934041,0.5688958440898612,
2023-08-21 10:48:28.504000,-7.819277108433735,-3.5903614457831328,-4.807228915662651,-3.614960147148988,-7.652360515021459,-4.407112201103617,3.0,0.5680985680985682,1760.2579132473622,0.30103140842608206,0.19555969931822195,-0.5450731309364257,1400.7326007326005,-1.0,72.52766710934041,0.5688863120188812,
2023-08-21 10:48:28.512000,-7.819277108433735,-3.5903614457831328,-4.795180722891566,-3.56591048436542,-7.578786020846106,-4.424279583077866,3.0,0.5676545676545677,1761.634728197106,0.06817784511392125,0.11840801818075895,-0.5857467513548161,1406.5934065934066,-1.0,72.52766710934041,0.5688767969169578,
2023-08-21 10:48:28.519000,-7.807228915662651,-3.5783132530120483,-4.783132530120482,-3.6125076640098097,-7.591048436541999,-4.35561005518087,3.0,0.5676545676545677,1761.634728197106,0.3397237923197944,0.5617388264087165,-0.5491521473107628,1412.4542124542124,-1.0,72.52766710934041,0.568867297196124,
2023-08-21 10:48:28.527000,-7.783132530120482,-3.5903614457831328,-4.783132530120482,-3.619865113427345,-7.6106683016554255,-4.468424279583077,3.0,0.5680985680985682,1760.2579132473622,0.3815628459879962,0.16351028494842945,-0.48447060194627356,1418.3150183150183,-1.0,72.52766710934041,0.5688578111103334,
2023-08-21 10:48:28.535000,-7.807228915662651,-3.5783132530120483,-4.807228915662651,-3.595340282035561,-7.578786020846106,-4.43408951563458,3.0,0.5676545676545677,1761.634728197106,0.29916671522638516,0.5793368684808575,-0.3420546588194163,1421.245421245421,-1.0,72.52766710934041,0.5688483370499161,
2023-08-21 10:48:28.542000,-7.807228915662651,-3.5783132530120483,-4.783132530120482,-3.56591048436542,-7.593500919681177,-4.458614347026364,3.0,0.5676545676545677,1761.634728197106,0.41943942660684097,0.626303828448225,-0.04988054309189434,1424.1758241758241,-1.0,72.52766710934041,0.5688388734203123,
2023-08-21 10:48:28.550000,-7.795180722891566,-3.6024096385542173,-4.759036144578314,-3.561005518087063,-7.615573267933782,-4.382587369711833,3.0,0.5676545676545677,1761.634728197106,0.5814346483305161,0.3389079890449268,-0.18542043004486924,1424.9084249084249,-1.0,72.52766710934041,0.5688294184890159,
2023-08-21 10:48:28.558000,-7.771084337349398,-3.6024096385542173,-4.819277108433735,-3.5389331698344573,-7.613120784794604,-4.436541998773758,3.0,0.5676545676545677,1761.634728197106,0.10104306275858134,0.4369209253540012,-0.44391352485286395,1425.6410256410256,-1.0,72.52766710934041,0.5688199705301076,
2023-08-21 10:48:28.565000,-7.771084337349398,-3.6024096385542173,-4.819277108433735,-3.637032495401594,-7.593500919681177,-4.461066830165542,3.0,0.5676545676545677,1761.634728197106,0.19101450964396066,0.25826000815803346,-0.3052269681254004,1425.6410256410256,-1.0,72.52766710934041,0.5688105278297464,
2023-08-21 10:48:28.573000,-7.819277108433735,-3.6024096385542173,-4.795180722891566,-3.6002452483139176,-7.608215818516247,-4.453709380748007,3.0,0.5676545676545677,1761.634728197106,0.400559407959909,0.4758463958976752,0.0015150632247534776,1430.03663003663,-1.0,72.52766710934041,0.5688010886913583,
2023-08-21 10:48:28.581000,-7.795180722891566,-3.6024096385542173,-4.819277108433735,-3.5757204169221333,-7.5959534028203555,-4.453709380748007,3.0,0.5676545676545677,1761.634728197106,0.16782238797272908,0.3688596235650608,-0.33226501952100695,1431.5018315018315,-1.0,72.52766710934041,0.5687916514405217,
2023-08-21 10:48:28.588000,-7.807228915662651,-3.6024096385542173,-4.783132530120482,-3.6051502145922747,-7.608215818516247,-4.451256897608829,3.0,0.5676545676545677,1761.634728197106,-0.03333139094458345,0.21374045801526717,0.17726239729619506,1433.6996336996335,-1.0,72.52766710934041,0.5687822144295446,
2023-08-21 10:48:28.596000,-7.795180722891566,-3.6024096385542173,-4.807228915662651,-3.6174126302881664,-7.561618638871857,-4.429184549356223,3.0,0.5676545676545677,1761.634728197106,-0.17388264087174474,0.2878620127032232,-0.05116251966668614,1435.164835164835,-1.0,72.52766710934041,0.568772776041739,
2023-08-21 10:48:28.604000,-7.819277108433735,-3.6024096385542173,-4.807228915662651,-3.602697731453096,-7.600858369098712,-4.456161863887186,3.0,0.5680985680985682,1760.2579132473622,-0.022959035021269912,-0.03752695064390224,0.24357554921041902,1433.6996336996335,-1.0,72.52766710934041,0.5687633346953941,
2023-08-21 10:48:28.611000,-7.83132530120482,-3.626506024096386,-4.807228915662651,-3.614960147148988,-7.576333537706928,-4.500306560392397,3.0,0.5680985680985682,1760.2579132473622,-0.2067478585164031,-0.4376201853038862,0.16782238797272864,1432.9670329670328,-1.0,72.52766710934041,0.5687538889967428,
2023-08-21 10:48:28.619000,-7.771084337349398,-3.6024096385542173,-4.795180722891566,-3.6174126302881664,-7.600858369098712,-4.461066830165542,3.0,0.5672105672105672,1763.013698630137,-0.2067478585164031,-0.43750364197890534,0.16933745119748256,1424.9084249084249,-1.0,72.52766710934041,0.5687444377652293,
2023-08-21 10:48:28.627000,-7.807228915662651,-3.6144578313253013,-4.819277108433735,-3.5879828326180254,-7.6106683016554255,-4.443899448191293,3.0,0.5667665667665668,1764.394829612221,-0.023075578346250746,-0.13146087057863695,0.4458947613775421,1419.7802197802198,-1.0,72.52766710934041,0.5687349797397113,
2023-08-21 10:48:28.634000,-7.807228915662651,-3.6144578313253013,-4.819277108433735,-3.614960147148988,-7.622930717351318,-4.478234212139792,3.0,0.5676545676545677,1761.634728197106,-0.19287920284365753,-0.359885787541519,0.4161762135073715,1412.4542124542124,-1.0,72.52766710934041,0.5687255133697486,
2023-08-21 10:48:28.642000,-7.819277108433735,-3.626506024096386,-4.83132530120482,-3.5904353157572038,-7.546903740036787,-4.468424279583077,3.0,0.5676545676545677,1761.634728197106,-0.26839927743138536,-0.11328011188159173,0.2626886545073131,1403.6630036630036,-1.0,72.52766710934041,0.5687160370843274,
2023-08-21 10:48:28.649000,-7.795180722891566,-3.6385542168674703,-4.819277108433735,-3.6811771919068055,-7.583690987124463,-4.404659717964439,3.0,0.5676545676545677,1761.634728197106,-0.16129596177379008,0.15045743255055147,0.35347590466755996,1391.9413919413919,-1.0,72.52766710934041,0.5687065494949655,
2023-08-21 10:48:28.657000,-7.795180722891566,-3.626506024096386,-4.83132530120482,-3.6051502145922747,-7.6621704475781724,-4.468424279583077,3.0,0.5676545676545677,1761.634728197106,-0.5588252432841905,-0.061068702290076333,0.12295320785502026,1380.2197802197802,-1.0,72.52766710934041,0.5686970492690014,
2023-08-21 10:48:28.665000,-7.795180722891566,-3.626506024096386,-4.83132530120482,-3.649294911097486,-7.642550582464745,-4.515021459227468,3.0,0.5676545676545677,1761.634728197106,-0.1438144630266299,0.4166423868072957,0.4729328127731482,1380.2197802197802,-1.0,72.52766710934041,0.568687535130879,
2023-08-21 10:48:28.672000,-7.795180722891566,-3.626506024096386,-4.819277108433735,-3.6125076640098097,-7.571428571428571,-4.502759043531576,3.0,0.5676545676545677,1761.634728197106,0.024707184895985928,0.5408775712371069,0.6092885030009907,1359.7069597069597,-1.0,72.52766710934041,0.5686780058632526,
2023-08-21 10:48:28.680000,-7.819277108433735,-3.6144578313253013,-4.843373493975903,-3.683629675045984,-7.568976088289393,-4.485591661557327,3.0,0.5676545676545677,1761.634728197106,-0.22084960083911206,0.9215080706252547,0.31443389079890427,1355.3113553113553,-1.0,72.52766710934041,0.5686684603079358,
2023-08-21 10:48:28.688000,-7.807228915662651,-3.6024096385542173,-4.843373493975903,-3.595340282035561,-7.6033108522378905,-4.488044144696505,3.0,0.5676545676545677,1761.634728197106,-0.20523279529165048,0.8723267874832463,0.5109259367169746,1352.3809523809523,-1.0,72.52766710934041,0.5686588973667215,
2023-08-21 10:48:28.695000,-7.795180722891566,-3.5903614457831328,-4.843373493975903,-3.5683629675045982,-7.637645616186388,-4.446351931330472,3.0,0.5676545676545677,1761.634728197106,-0.2483538255346433,0.7956412796457083,0.3532428180175979,1350.9157509157508,-1.0,72.52766710934041,0.5686493160020953,
2023-08-21 10:48:28.703000,-7.807228915662651,-3.5903614457831328,-4.807228915662651,-3.585530349478847,-7.591048436541999,-4.448804414469651,3.0,0.5676545676545677,1761.634728197106,-0.4305110424800413,0.5503175805605738,0.2149058912650777,1351.6483516483515,-1.0,72.52766710934041,0.568639715237874,
2023-08-21 10:48:28.711000,-7.819277108433735,-3.6024096385542173,-4.855421686746988,-3.632127529123237,-7.529736358062538,-4.456161863887186,3.0,0.5676545676545677,1761.634728197106,0.0924188567099821,0.5047491404929781,0.3511450381679389,1355.3113553113553,-1.0,72.52766710934041,0.5686300941597897,
2023-08-21 10:48:28.718000,-7.771084337349398,-3.5903614457831328,-4.843373493975903,-3.5511955855303494,-7.5812385039852845,-4.500306560392397,3.0,0.5676545676545677,1761.634728197106,-0.21280811141541875,0.13623914690286165,0.3341297127207038,1363.3699633699632,-1.0,72.52766710934041,0.5686204519160485,
2023-08-21 10:48:28.726000,-7.783132530120482,-3.5542168674698797,-4.819277108433735,-3.5511955855303494,-7.571428571428571,-4.463519313304721,3.0,0.5676545676545677,1761.634728197106,0.14066779325214213,0.3179301905483363,-0.2487034555095858,1373.6263736263736,-1.0,72.52766710934041,0.5686107877178864,
2023-08-21 10:48:28.734000,-7.771084337349398,-3.5662650602409642,-4.819277108433735,-3.548743102391171,-7.5370938074800735,-4.485591661557327,3.0,0.5676545676545677,1761.634728197106,-0.07190723151331495,0.2259775071382793,-0.368160363615174,1381.6849816849815,-1.0,72.52766710934041,0.5686011009788982,
2023-08-21 10:48:28.741000,-7.759036144578314,-3.5542168674698797,-4.795180722891566,-3.5977927651747392,-7.5665236051502145,-4.461066830165542,3.0,0.5676545676545677,1761.634728197106,0.4475263679272764,0.5282908921391523,-0.27620768020511616,1389.0109890109889,-1.0,72.52766710934041,0.5685913911565256,
2023-08-21 10:48:28.749000,-7.710843373493976,-3.5783132530120483,-4.819277108433735,-3.607602697731453,-7.468424279583077,-4.431637032495401,3.0,0.5676545676545677,1761.634728197106,0.44403006817784435,0.5215313792902516,-0.2741099003554572,1397.069597069597,-1.0,72.52766710934041,0.5685816576251337,
2023-08-21 10:48:28.757000,-7.686746987951808,-3.5903614457831328,-4.807228915662651,-3.561005518087063,-7.463519313304721,-4.443899448191293,3.0,0.5676545676545677,1761.634728197106,0.3195617970980715,0.5268923722393805,-0.79144571994639,1401.4652014652013,-1.0,72.52766710934041,0.5685718998258759,
2023-08-21 10:48:28.764000,-7.686746987951808,-3.5903614457831328,-4.807228915662651,-3.644389944819129,-7.500306560392397,-4.515021459227468,3.0,0.5676545676545677,1761.634728197106,0.10244158265835313,1.1294213623914697,-1.1526134840627005,1401.4652014652013,-1.0,72.52766710934041,0.5685621174061186,
2023-08-21 10:48:28.772000,-7.686746987951808,-3.6144578313253013,-4.867469879518072,-3.6174126302881664,-7.483139178418148,-4.461066830165542,3.0,0.5672105672105672,1763.013698630137,0.407085834158848,2.3414719421945103,-1.250043703746868,1394.8717948717947,-1.0,72.52766710934041,0.5685523101998579,
2023-08-21 10:48:28.780000,-7.72289156626506,-3.626506024096386,-4.843373493975903,-3.6174126302881664,-7.524831391784181,-4.465971796443899,3.0,0.5672105672105672,1763.013698630137,0.4969407377192465,2.4587145271254593,-1.056232154303362,1387.5457875457876,-1.0,72.52766710934041,0.5685424780701116,
2023-08-21 10:48:28.787000,-7.746987951807229,-3.6385542168674703,-4.879518072289157,-3.678724708767627,-7.54199877375843,-4.515021459227468,3.0,0.5676545676545677,1761.634728197106,-0.16351028494842945,3.0788415593496876,-1.2456150573975875,1380.2197802197802,-1.0,72.52766710934041,0.5685326207301002,
2023-08-21 10:48:28.795000,-7.783132530120482,-3.6506024096385543,-4.891566265060241,-3.6517473942366645,-7.6400980993255665,-4.515021459227468,3.0,0.5676545676545677,1761.634728197106,0.018646931996970283,3.2369908513489882,-1.176388322358837,1378.7545787545787,-1.0,72.52766710934041,0.5685227379041349,
2023-08-21 10:48:28.803000,-7.819277108433735,-3.662650602409639,-4.879518072289157,-3.6517473942366645,-7.6106683016554255,-4.561618638871858,3.0,0.5676545676545677,1761.634728197106,-0.027620768020512047,2.9057747217528123,-1.2280170153254473,1378.021978021978,-1.0,72.52766710934041,0.5685128294988399,
2023-08-21 10:48:28.810000,-7.819277108433735,-3.7108433734939763,-4.879518072289157,-3.6934396076026976,-7.630288166768853,-4.502759043531576,3.0,0.5676545676545677,1761.634728197106,-0.04288794359303113,2.7465765398286823,-1.0044869180117708,1377.2893772893772,-1.0,72.52766710934041,0.5685028954659499,
2023-08-21 10:48:28.818000,-7.819277108433735,-3.698795180722892,-4.9156626506024095,-3.708154506437768,-7.5665236051502145,-4.5297363580625385,3.0,0.5676545676545677,1761.634728197106,-0.28623040615348805,2.6599848493677527,-0.7808402773731135,1377.2893772893772,-1.0,72.52766710934041,0.5684929358038777,
2023-08-21 10:48:28.826000,-7.807228915662651,-3.734939759036145,-4.9156626506024095,-3.6934396076026976,-7.6400980993255665,-4.568976088289393,3.0,0.5676545676545677,1761.634728197106,-0.8027504224695533,2.562088456383661,-0.6054425732766157,1377.2893772893772,-1.0,72.52766710934041,0.5684829505593115,
2023-08-21 10:48:28.833000,-7.795180722891566,-3.7108433734939763,-4.9156626506024095,-3.7228694052728386,-7.568976088289393,-4.524831391784181,3.0,0.5676545676545677,1761.634728197106,-0.8896917429054256,3.000174814987472,-0.5863294679797216,1379.4871794871794,-1.0,72.52766710934041,0.5684729398288618,
2023-08-21 10:48:28.841000,-7.759036144578314,-3.7469879518072293,-4.9156626506024095,-3.747394236664623,-7.586143470263641,-4.549356223175965,3.0,0.5676545676545677,1761.634728197106,-0.9604335411689288,2.7330575141308775,-0.18367228017015322,1382.4175824175823,-1.0,72.52766710934041,0.5684629037607684,
2023-08-21 10:48:28.849000,-7.734939759036145,-3.7228915662650603,-4.9156626506024095,-3.7596566523605146,-7.546903740036787,-4.5591661557326795,3.0,0.5676545676545677,1761.634728197106,-1.5798613134432722,2.833517860264553,-0.16327719829846735,1386.8131868131868,-1.0,72.52766710934041,0.5684528425566796,
2023-08-21 10:48:28.856000,-7.72289156626506,-3.698795180722892,-4.9156626506024095,-3.7522992029429796,-7.468424279583077,-4.5665236051502145,3.0,0.5676545676545677,1761.634728197106,-1.5677408076452426,2.9044927451780196,-0.008973836023541765,1392.6739926739926,-1.0,72.52766710934041,0.5684427564735185,
2023-08-21 10:48:28.864000,-7.72289156626506,-3.698795180722892,-4.9156626506024095,-3.683629675045984,-7.549356223175965,-4.554261189454322,3.0,0.5676545676545677,1761.634728197106,-1.8313618087524033,2.866033447934269,-0.23611677641163117,1392.6739926739926,-1.0,72.52766710934041,0.5684326458254371,
2023-08-21 10:48:28.872000,-7.734939759036145,-3.626506024096386,-4.903614457831326,-3.654199877375843,-7.478234212139792,-4.568976088289393,3.0,0.5672105672105672,1763.013698630137,-1.7734397762368164,2.736437270555327,-0.0027970397995452823,1407.3260073260071,-1.0,72.52766710934041,0.5684225109858747,
2023-08-21 10:48:28.879000,-7.746987951807229,-3.6144578313253013,-4.9397590361445785,-3.585530349478847,-7.527283874923359,-4.5812385039852845,3.0,0.5672105672105672,1763.013698630137,-2.295786958801934,2.0870578637608532,-0.10838529223238706,1410.2564102564102,-1.0,72.52766710934041,0.5684123522404241,
2023-08-21 10:48:28.887000,-7.734939759036145,-3.6144578313253013,-4.9156626506024095,-3.595340282035561,-7.522378908645003,-4.551808706315144,3.0,0.5672105672105672,1763.013698630137,-2.3396072489948136,1.0886311986480988,-0.411747567158091,1411.7216117216117,-1.0,72.52766710934041,0.5684021697672236,
2023-08-21 10:48:28.895000,-7.759036144578314,-3.6024096385542173,-4.891566265060241,-3.6517473942366645,-7.586143470263641,-4.583690987124463,3.0,0.5676545676545677,1761.634728197106,-2.413961890332731,0.26408717440708573,-0.012470135772973802,1408.7912087912086,-1.0,72.52766710934041,0.5683919636376498,
2023-08-21 10:48:28.902000,-7.746987951807229,-3.5903614457831328,-4.903614457831326,-3.6051502145922747,-7.598405885959534,-4.534641324340895,3.0,0.5672105672105672,1763.013698630137,-2.5932055241536047,-0.6583532428180192,-0.6230406153487554,1405.128205128205,-1.0,72.52766710934041,0.5683817341253521,
2023-08-21 10:48:28.910000,-7.746987951807229,-3.6024096385542173,-4.867469879518072,-3.5511955855303494,-7.5370938074800735,-4.546903740036787,3.0,0.5672105672105672,1763.013698630137,-2.496008391119398,-1.2703222422935716,-0.8019346191946857,1401.4652014652013,-1.0,72.52766710934041,0.5683714817069958,
2023-08-21 10:48:28.918000,-7.783132530120482,-3.6024096385542173,-4.855421686746988,-3.578172900061312,-7.534641324340895,-4.515021459227468,3.0,0.5672105672105672,1763.013698630137,-2.7644076685507835,-2.119806538080532,-0.7508886428529804,1396.3369963369962,-1.0,72.52766710934041,0.568361206754704,
2023-08-21 10:48:28.925000,-7.783132530120482,-3.5903614457831328,-4.867469879518072,-3.5806253832004904,-7.5665236051502145,-4.517473942366646,3.0,0.5667665667665668,1764.394829612221,-2.9267525202494027,-2.5373812714876767,-1.0339723792319797,1390.4761904761904,-1.0,72.52766710934041,0.5683509096756119,
2023-08-21 10:48:28.933000,-7.771084337349398,-3.5903614457831328,-4.867469879518072,-3.536480686695279,-7.6621704475781724,-4.522378908645003,3.0,0.5672105672105672,1763.013698630137,-2.8739583940329814,-2.8295553872151977,-1.2079715634287045,1383.8827838827838,-1.0,72.52766710934041,0.5683405909020613,
2023-08-21 10:48:28.941000,-7.783132530120482,-3.626506024096386,-4.867469879518072,-3.637032495401594,-7.500306560392397,-4.492949110974862,3.0,0.5676545676545677,1761.634728197106,-2.9431851290717317,-2.369791970164909,-1.440825126740866,1378.021978021978,-1.0,72.52766710934041,0.5683302509993142,
2023-08-21 10:48:28.948000,-7.771084337349398,-3.6144578313253013,-4.855421686746988,-3.573267933782955,-7.529736358062538,-4.470876762722256,3.0,0.5672105672105672,1763.013698630137,-3.1020336810209193,-2.0209777984965904,-1.3374511974826646,1373.6263736263736,-1.0,72.52766710934041,0.5683198906876588,
2023-08-21 10:48:28.956000,-7.746987951807229,-3.6144578313253013,-4.843373493975903,-3.5879828326180254,-7.583690987124463,-4.492949110974862,3.0,0.5672105672105672,1763.013698630137,-2.923722393799894,-1.8713361692209083,-1.281277314841792,1370.6959706959706,-1.0,72.52766710934041,0.5683095105980918,
2023-08-21 10:48:28.964000,-7.746987951807229,-3.6144578313253013,-4.843373493975903,-3.573267933782955,-7.551808706315144,-4.497854077253218,3.0,0.5672105672105672,1763.013698630137,-2.8821164267816557,-1.613891964337744,-1.3461919468562438,1370.6959706959706,-1.0,72.52766710934041,0.5682991112626027,
2023-08-21 10:48:28.971000,-7.734939759036145,-3.5783132530120483,-4.867469879518072,-3.5977927651747392,-7.522378908645003,-4.458614347026364,3.0,0.5672105672105672,1763.013698630137,-2.994114562088458,-1.4334828972670586,-0.998193578462794,1373.6263736263736,-1.0,72.52766710934041,0.5682886932529836,
2023-08-21 10:48:28.979000,-7.746987951807229,-3.5783132530120483,-4.855421686746988,-3.5708154506437766,-7.515021459227468,-4.475781729000613,3.0,0.5672105672105672,1763.013698630137,-3.106462327370198,-1.7887069518093355,-1.3701998718023425,1382.4175824175823,-1.0,72.52766710934041,0.5682782571808523,
2023-08-21 10:48:28.987000,-7.795180722891566,-3.5783132530120483,-4.855421686746988,-3.5879828326180254,-7.568976088289393,-4.470876762722256,3.0,0.5672105672105672,1763.013698630137,-2.9273352368743084,-1.9282093118116659,-1.0392168288561274,1397.069597069597,-1.0,72.52766710934041,0.5682678036976315,
2023-08-21 10:48:28.994000,-7.746987951807229,-3.5783132530120483,-4.855421686746988,-3.543838136112814,-7.5444512568976085,-4.478234212139792,3.0,0.5672105672105672,1763.013698630137,-2.9332789464483415,-1.7480333313909455,-0.6627818891672983,1416.117216117216,-1.0,72.52766710934041,0.5682573334944897,
2023-08-21 10:48:29.002000,-7.746987951807229,-3.5662650602409642,-4.867469879518072,-3.585530349478847,-7.591048436541999,-4.5444512568976085,3.0,0.5672105672105672,1763.013698630137,-2.9239554804498593,-1.995221723675777,-0.4578987238505912,1437.3626373626373,-1.0,72.52766710934041,0.5682468474410076,
2023-08-21 10:48:29.010000,-7.771084337349398,-3.5662650602409642,-4.855421686746988,-3.602697731453096,-7.524831391784181,-4.5076640098099325,3.0,0.5672105672105672,1763.013698630137,-2.8067128955189085,-1.3741623448517,-0.7907464599965033,1460.07326007326,-1.0,72.52766710934041,0.5682363465646809,
2023-08-21 10:48:29.017000,-7.783132530120482,-3.6144578313253013,-4.891566265060241,-3.62722256284488,-7.510116492949111,-4.510116492949111,3.0,0.5672105672105672,1763.013698630137,-3.0583299341530203,-1.4736903443855254,-0.5527649903851761,1484.2490842490843,-1.0,72.52766710934041,0.5682258319027942,
2023-08-21 10:48:29.025000,-7.746987951807229,-3.6144578313253013,-4.9156626506024095,-3.6713672593500917,-7.6033108522378905,-4.497854077253218,3.0,0.5667665667665668,1764.394829612221,-3.030359536157566,-1.4643668783870412,-0.5470543674611038,1508.4249084249084,-1.0,72.52766710934041,0.5682153043646179,
2023-08-21 10:48:29.032000,-7.759036144578314,-3.6024096385542173,-4.951807228915663,-3.5708154506437766,-7.510116492949111,-4.561618638871858,3.0,0.5672105672105672,1763.013698630137,-2.9437678456966396,-0.8440067595128492,-0.4034729910844356,1529.6703296703295,-1.0,72.52766710934041,0.5682047646032292,
2023-08-21 10:48:29.040000,-7.759036144578314,-3.6144578313253013,-4.951807228915663,-3.632127529123237,-7.554261189454322,-4.637645616186388,3.0,0.5672105672105672,1763.013698630137,-2.6736204183905383,-0.8713944408833979,-0.4133791737078258,1548.7179487179485,819.610595703125,73.2054957739137,0.5681942134302,
2023-08-21 10:48:29.048000,-7.771084337349398,-3.626506024096386,-4.951807228915663,-3.6419374616799507,-7.5738810545677495,-4.618025751072961,3.0,0.5672105672105672,1763.013698630137,-2.922673503875065,-0.621991725423927,-0.19509352601829733,1564.8351648351647,-1.0,73.2054957739137,0.5681836519533765,
2023-08-21 10:48:29.055000,-7.783132530120482,-3.6506024096385543,-4.975903614457832,-3.654199877375843,-7.5812385039852845,-4.713672593500919,3.0,0.5672105672105672,1763.013698630137,-2.9074063283025455,-1.0342054658819422,-0.04242177029310648,1578.021978021978,-1.0,73.2054957739137,0.5681730812891828,
2023-08-21 10:48:29.063000,-7.783132530120482,-3.6506024096385543,-4.975903614457832,-3.6296750459840585,-7.600858369098712,-4.664622930717351,3.0,0.5672105672105672,1763.013698630137,-2.7700017481498738,-2.0113047025231636,-0.5309713886137172,1578.021978021978,-1.0,73.2054957739137,0.5681625024240374,
2023-08-21 10:48:29.071000,-7.771084337349398,-3.698795180722892,-5.0120481927710845,-3.7007970570202326,-7.534641324340895,-4.671980380134887,3.0,0.5672105672105672,1763.013698630137,-2.7242002214323167,-2.667793252141484,-0.24089505273585457,1588.278388278388,-1.0,73.2054957739137,0.5681519162347386,
2023-08-21 10:48:29.078000,-7.734939759036145,-3.6867469879518073,-5.0,-3.7106069895769465,-7.44880441446965,-4.6695278969957075,3.0,0.5667665667665668,1764.394829612221,-2.9379406794475837,-3.56855661092011,-0.1187576481557019,1584.6153846153845,-1.0,73.2054957739137,0.5681413236363048,
2023-08-21 10:48:29.086000,-7.72289156626506,-3.698795180722892,-4.963855421686747,-3.678724708767627,-7.473329245861434,-4.608215818516247,3.0,0.5667665667665668,1764.394829612221,-2.785268923722393,-3.950236000233087,-0.40883398403356447,1579.4871794871794,-1.0,73.2054957739137,0.5681307257087826,
2023-08-21 10:48:29.094000,-7.686746987951808,-3.734939759036145,-4.975903614457832,-3.784181483752299,-7.524831391784181,-4.630288166768853,3.0,0.5672105672105672,1763.013698630137,-2.7242002214323167,-4.179243633820874,-0.17982635044577824,1569.230769230769,-1.0,73.2054957739137,0.5681201234945387,
2023-08-21 10:48:29.101000,-7.650602409638554,-3.7108433734939763,-4.951807228915663,-3.6983445738810543,-7.436541998773758,-4.608215818516247,3.0,0.5672105672105672,1763.013698630137,-2.4799254122720114,-4.57619019870637,-0.011887419148068318,1556.7765567765566,-1.0,73.2054957739137,0.5681095180077602,
2023-08-21 10:48:29.109000,-7.650602409638554,-3.698795180722892,-4.927710843373494,-3.649294911097486,-7.451256897608829,-4.5297363580625385,3.0,0.5672105672105672,1763.013698630137,-1.8234368626536908,-4.835732183439194,-0.07295612143814464,1542.1245421245421,-1.0,73.2054957739137,0.568098910403509,
2023-08-21 10:48:29.117000,-7.626506024096386,-3.6746987951807233,-4.891566265060241,-3.6419374616799507,-7.412017167381974,-4.605763335377069,3.0,0.5672105672105672,1763.013698630137,-1.6707651069284999,-5.125808519317057,-0.07295612143814464,1523.8095238095236,-1.0,73.2054957739137,0.5680883018382714,
2023-08-21 10:48:29.124000,-7.638554216867471,-3.6746987951807233,-4.903614457831326,-3.6615573267933783,-7.44880441446965,-4.527283874923359,3.0,0.5672105672105672,1763.013698630137,-1.151681137462851,-5.23267874832469,-0.25616222830837365,1504.0293040293038,-1.0,73.2054957739137,0.5680776934691966,
2023-08-21 10:48:29.132000,-7.614457831325302,-3.6385542168674703,-4.903614457831326,-3.6002452483139176,-7.40220723482526,-4.517473942366646,3.0,0.5667665667665668,1764.394829612221,-1.3806887710506373,-5.446419206339957,-0.4241011596060836,1484.9816849816848,-1.0,73.2054957739137,0.5680670864532945,
2023-08-21 10:48:29.140000,-7.614457831325302,-3.626506024096386,-4.927710843373494,-3.5977927651747392,-7.446351931330471,-4.5444512568976085,3.0,0.5672105672105672,1763.013698630137,-0.6783986947147594,-5.095274168172018,-0.4851698618961599,1468.131868131868,-1.0,73.2054957739137,0.5680564817973144,
2023-08-21 10:48:29.147000,-7.602409638554217,-3.5662650602409642,-4.903614457831326,-3.4874310239117103,-7.397302268546904,-4.470876762722256,3.0,0.5667665667665668,1764.394829612221,-0.8768719771575075,-5.217411572752171,-0.9431851290717324,1452.7472527472526,-1.0,73.2054957739137,0.5680458804843351,
2023-08-21 10:48:29.155000,-7.650602409638554,-3.5060240963855422,-4.927710843373494,-3.4898835070508887,-7.453709380748007,-4.5567136725935,3.0,0.5667665667665668,1764.394829612221,-0.5715284657071259,-5.507487908630034,-1.416467571819824,1440.2930402930401,-1.0,73.2054957739137,0.5680352834825939,
2023-08-21 10:48:29.163000,-7.650602409638554,-3.5060240963855422,-4.927710843373494,-3.462906192519926,-7.453709380748007,-4.5444512568976085,3.0,0.5667665667665668,1764.394829612221,-0.220383427539187,-5.492220733057515,-1.8286813122778391,1440.2930402930401,-1.0,73.2054957739137,0.5680246915838981,
2023-08-21 10:48:29.170000,-7.686746987951808,-3.4096385542168677,-4.891566265060241,-3.408951563458001,-7.458614347026364,-4.546903740036787,3.0,0.5667665667665668,1764.394829612221,-0.15931472524911067,-5.431152030767438,-2.4546355107511215,1419.047619047619,-1.0,73.2054957739137,0.5680141055397872,
2023-08-21 10:48:29.178000,-7.710843373493976,-3.4698795180722892,-4.903614457831326,-3.47271612507664,-7.546903740036787,-4.5738810545677495,3.0,0.5667665667665668,1764.394829612221,-1.0142765573101793,-5.599090962065148,-3.034788182506847,1414.6520146520145,-1.0,73.2054957739137,0.5680035260588439,
2023-08-21 10:48:29.186000,-7.734939759036145,-3.4096385542168677,-4.879518072289157,-3.391784181483752,-7.534641324340895,-4.485591661557327,3.0,0.5667665667665668,1764.394829612221,-0.25091777868422516,-5.522755084202553,-2.8210477244915797,1413.1868131868132,-1.0,73.2054957739137,0.5679929538039392,
2023-08-21 10:48:29.193000,-7.746987951807229,-3.397590361445783,-4.927710843373494,-3.421213979153893,-7.571428571428571,-4.5444512568976085,3.0,0.5667665667665668,1764.394829612221,-0.770001748149874,-6.316648213973545,-3.798146961132801,1413.9194139194137,-1.0,73.2054957739137,0.5679823893894341,
2023-08-21 10:48:29.201000,-7.819277108433735,-3.3734939759036147,-4.891566265060241,-3.374616799509503,-7.576333537706928,-4.5567136725935,3.0,0.5667665667665668,1764.394829612221,-0.09824602295903433,-8.988403939164385,-4.439368335178602,1416.8498168498168,-1.0,73.2054957739137,0.5679718333783771,
2023-08-21 10:48:29.209000,-7.891566265060241,-3.325301204819277,-4.855421686746988,-3.313304721030043,-7.657265481299816,-4.500306560392397,3.0,0.5667665667665668,1764.394829612221,-0.5257269389895687,-11.06473981702698,-5.2943301672396705,1419.7802197802198,-1.0,73.2054957739137,0.5679612862797263,
2023-08-21 10:48:29.216000,-7.9397590361445785,-3.313253012048193,-4.879518072289157,-3.342734518700184,-7.738197424892704,-4.539546290619252,3.0,0.5667665667665668,1764.394829612221,-0.03717732066895799,-12.820465007866675,-6.042421770293106,1421.245421245421,-1.0,73.2054957739137,0.5679507485456338,
2023-08-21 10:48:29.224000,-8.012048192771084,-3.36144578313253,-4.867469879518072,-3.408951563458001,-7.809319435928877,-4.470876762722256,3.0,0.5667665667665668,1764.394829612221,-0.35778800769185876,-14.820465007866675,-7.431734747392342,1424.9084249084249,-1.0,73.2054957739137,0.5679402205688258,
2023-08-21 10:48:29.232000,-8.108433734939759,-3.4457831325301207,-4.783132530120482,-3.4800735744941753,-7.900061312078479,-4.35561005518087,3.0,0.5663225663225663,1765.7781262250098,-0.14404754967659159,-14.194510809393392,-8.210360701590815,1424.1758241758241,-1.0,73.2054957739137,0.5679297026801097,
2023-08-21 10:48:29.239000,-8.132530120481928,-3.5662650602409642,-4.746987951807229,-3.7106069895769465,-7.8976088289393,-4.389944819129369,3.0,0.5663225663225663,1765.7781262250098,-0.4188567099819351,-12.713594778859042,-9.172192762659519,1424.9084249084249,-1.0,73.2054957739137,0.5679191951355054,
2023-08-21 10:48:29.247000,-8.144578313253012,-3.662650602409639,-4.710843373493976,-3.725321888412017,-7.971183323114653,-4.382587369711833,3.0,0.5663225663225663,1765.7781262250098,0.146028786201271,-12.22504516053843,-9.98135306800303,1425.6410256410256,-1.0,73.2054957739137,0.5679086980718614,
2023-08-21 10:48:29.255000,-8.180722891566266,-3.734939759036145,-4.710843373493976,-3.818516247700797,-8.00797057020233,-4.313917841814837,3.0,0.5663225663225663,1765.7781262250098,-0.770001748149874,-12.041839053668202,-9.63020802983509,1423.4432234432234,-1.0,73.2054957739137,0.5678982113552817,
2023-08-21 10:48:29.262000,-8.180722891566266,-3.734939759036145,-4.710843373493976,-3.818516247700797,-7.968730839975475,-4.382587369711833,3.0,0.5663225663225663,1765.7781262250098,-0.9990093817376603,-12.194510809393392,-9.660742380980128,1423.4432234432234,-1.0,73.2054957739137,0.5678877345991075,
2023-08-21 10:48:29.270000,-8.036144578313253,-3.7590361445783134,-4.590361445783133,-3.7743715511955855,-7.809319435928877,-4.1741263028816675,3.0,0.5663225663225663,1765.7781262250098,-1.304352893188042,-11.950236000233087,-9.706543907697686,1419.047619047619,-1.0,73.2054957739137,0.5678772673094409,
2023-08-21 10:48:29.278000,-7.951807228915663,-3.807228915662651,-4.530120481927711,-3.7817290006131206,-7.708767627222563,-4.129981606376456,3.0,0.5663225663225663,1765.7781262250098,-1.4570246489132328,-10.820465007866675,-9.828681312277839,1413.9194139194137,-1.0,73.2054957739137,0.5678668088815393,
2023-08-21 10:48:29.285000,-7.807228915662651,-3.7831325301204823,-4.493975903614458,-3.818516247700797,-7.637645616186388,-4.088289393010423,3.0,0.5663225663225663,1765.7781262250098,-1.9150399160888052,-10.07237340481324,-9.050055358079366,1406.5934065934066,-1.0,73.2054957739137,0.5678563585964256,
2023-08-21 10:48:29.293000,-7.746987951807229,-3.771084337349398,-4.409638554216868,-3.7645616186388717,-7.578786020846106,-4.049049662783568,3.0,0.5663225663225663,1765.7781262250098,-2.1287803741040725,-8.957869588019346,-7.447001922964861,1400.7326007326005,-1.0,73.2054957739137,0.5678459156177597,
2023-08-21 10:48:29.301000,-7.698795180722892,-3.807228915662651,-4.433734939759036,-3.7939914163090127,-7.532188841201716,-4.058859595340282,3.0,0.5663225663225663,1765.7781262250098,-2.1287803741040725,-8.957869588019346,-7.447001922964861,1398.5347985347985,-1.0,73.2054957739137,0.5678354791277678,
2023-08-21 10:48:29.308000,-7.698795180722892,-3.7469879518072293,-4.421686746987952,-3.6885346413243405,-7.485591661557327,-4.125076640098099,3.0,0.5663225663225663,1765.7781262250098,-3.1211467863178126,-7.492220733057515,-7.172192762659518,1400.7326007326005,-1.0,73.2054957739137,0.5678250483043967,
2023-08-21 10:48:29.316000,-7.710843373493976,-3.7831325301204823,-4.421686746987952,-3.796443899448191,-7.5444512568976085,-4.083384426732066,3.0,0.5663225663225663,1765.7781262250098,-3.884505564943767,-7.4158848551949195,-5.691276732125167,1408.058608058608,-1.0,73.2054957739137,0.5678146221712564,
2023-08-21 10:48:29.324000,-7.746987951807229,-3.7951807228915664,-4.409638554216868,-3.830778663396689,-7.615573267933782,-4.095646842427958,3.0,0.5663225663225663,1765.7781262250098,-4.098246022959034,-6.667793252141484,-5.279062991667152,1419.7802197802198,-1.0,73.2054957739137,0.5678041994583525,
2023-08-21 10:48:29.331000,-7.819277108433735,-3.7831325301204823,-4.421686746987952,-3.7572041692213363,-7.6033108522378905,-4.117719190680564,3.0,0.5663225663225663,1765.7781262250098,-4.388322358836897,-5.5380222597750715,-4.30196375502593,1430.03663003663,-1.0,73.2054957739137,0.5677937786222378,
2023-08-21 10:48:29.339000,-7.867469879518072,-3.8674698795180724,-4.46987951807229,-3.8920907418761495,-7.6817903126916,-4.095646842427958,3.0,0.5663225663225663,1765.7781262250098,-5.044810908455218,-5.217411572752171,-3.3859332206747856,1438.095238095238,-1.0,73.2054957739137,0.5677833579941107,
2023-08-21 10:48:29.347000,-7.891566265060241,-3.879518072289157,-4.481927710843374,-3.926425505824647,-7.782342121397915,-4.161863887185775,3.0,0.5663225663225663,1765.7781262250098,-5.151681137462851,-4.7441291300040795,-2.378299632888526,1444.6886446886447,-1.0,73.2054957739137,0.5677729357791935,
2023-08-21 10:48:29.354000,-7.927710843373494,-3.879518072289157,-4.518072289156627,-3.9337829552421826,-7.740649908031882,-4.147148988350705,3.0,0.5663225663225663,1765.7781262250098,-5.0753452596002555,-4.3013810384010265,-1.8439484878503583,1450.5494505494505,-1.0,73.2054957739137,0.5677625100567263,
2023-08-21 10:48:29.362000,-7.927710843373494,-3.879518072289157,-4.518072289156627,-3.9092581238503983,-7.63519313304721,-4.1079092581238505,3.0,0.5663225663225663,1765.7781262250098,-5.289085717615523,-4.927335236874309,-1.1569255870869997,1450.5494505494505,-1.0,73.2054957739137,0.5677520787806177,
2023-08-21 10:48:29.370000,-7.855421686746988,-3.843373493975904,-4.542168674698796,-3.7719190680564068,-7.684242795830778,-4.213366033108522,3.0,0.5663225663225663,1765.7781262250098,-4.7394673970048355,-4.9731367635918655,-0.7447118466289843,1459.3406593406592,-1.0,73.2054957739137,0.5677416399195346,
2023-08-21 10:48:29.377000,-7.855421686746988,-3.734939759036145,-4.578313253012048,-3.7694665849172284,-7.627835683629675,-4.250153280196199,3.0,0.5667665667665668,1764.394829612221,-4.464658236699492,-4.6372589009964456,-0.08822329701066374,1460.8058608058607,-1.0,73.2054957739137,0.5677311912998416,
2023-08-21 10:48:29.385000,-7.855421686746988,-3.807228915662651,-4.590361445783133,-3.8503985285101163,-7.58859595340282,-4.176578786020846,3.0,0.5658785658785659,1767.1635935661043,-5.16694831303537,-4.7441291300040795,-0.10349047258318282,1456.4102564102564,-1.0,73.2054957739137,0.5677207306300966,
2023-08-21 10:48:29.393000,-7.83132530120482,-3.7951807228915664,-4.590361445783133,-3.81361128142244,-7.645003065603923,-4.230533415082771,3.0,0.5663225663225663,1765.7781262250098,-4.540994114562087,-4.07237340481324,-0.011887419148068318,1453.4798534798533,-1.0,73.2054957739137,0.5677102555157827,
2023-08-21 10:48:29.400000,-7.771084337349398,-3.734939759036145,-4.590361445783133,-3.6909871244635193,-7.561618638871857,-4.29429797670141,3.0,0.5663225663225663,1765.7781262250098,-4.5257269389895685,-3.171610046034614,0.12551716100460344,1448.3516483516482,-1.0,73.2054957739137,0.567699763411599,
2023-08-21 10:48:29.408000,-7.710843373493976,-3.7831325301204823,-4.650602409638554,-3.816063764561618,-7.524831391784181,-4.284488044144696,3.0,0.5663225663225663,1765.7781262250098,-5.060078084027737,-3.324281801759805,-0.1187576481557019,1441.7582417582416,-1.0,73.2054957739137,0.567689251776347,
2023-08-21 10:48:29.415000,-7.710843373493976,-3.7951807228915664,-4.686746987951808,-3.7988963825873694,-7.576333537706928,-4.328632740649907,3.0,0.5663225663225663,1765.7781262250098,-4.953207855020103,-2.5303886719888125,-0.5309713886137172,1437.3626373626373,-1.0,73.2054957739137,0.5676787178023546,
2023-08-21 10:48:29.423000,-7.734939759036145,-3.771084337349398,-4.674698795180723,-3.7939914163090127,-7.515021459227468,-4.306560392397302,3.0,0.5663225663225663,1765.7781262250098,-4.602062816852164,-1.9807703513781254,-0.5920400909037935,1431.5018315018315,-1.0,73.2054957739137,0.5676681584434142,
2023-08-21 10:48:29.431000,-7.72289156626506,-3.7951807228915664,-4.674698795180723,-3.8798283261802573,-7.492949110974862,-4.404659717964439,3.0,0.5663225663225663,1765.7781262250098,-5.457024648913233,-2.1334421071033165,-1.3859332206747859,1423.4432234432234,-1.0,73.2054957739137,0.567657570570965,
2023-08-21 10:48:29.438000,-7.759036144578314,-3.807228915662651,-4.734939759036145,-3.8700183936235435,-7.571428571428571,-4.429184549356223,3.0,0.5663225663225663,1765.7781262250098,-5.4112231221956755,-1.2784802750422477,-1.7370782588427247,1413.9194139194137,-1.0,73.2054957739137,0.56764695098182,
2023-08-21 10:48:29.446000,-7.771084337349398,-3.8313253012048194,-4.771084337349397,-3.8283261802575104,-7.502759043531575,-4.382587369711833,3.0,0.5663225663225663,1765.7781262250098,-5.579162053493385,-0.6830604277140033,-1.8439484878503583,1405.128205128205,-1.0,73.2054957739137,0.5676362965454694,
2023-08-21 10:48:29.454000,-7.759036144578314,-3.807228915662651,-4.807228915662651,-3.889638258736971,-7.5370938074800735,-4.473329245861435,3.0,0.5663225663225663,1765.7781262250098,-5.808169687081172,-0.24031233611094996,-2.1492919993007398,1394.139194139194,-1.0,73.2054957739137,0.5676256040543287,
2023-08-21 10:48:29.461000,-7.759036144578314,-3.807228915662651,-4.807228915662651,-3.8454935622317596,-7.517473942366646,-4.490496627835683,3.0,0.5663225663225663,1765.7781262250098,-5.609696404638424,-0.19451080939339271,-2.6073072664763126,1394.139194139194,-1.0,73.2054957739137,0.5676148702450596,
2023-08-21 10:48:29.469000,-7.72289156626506,-3.8313253012048194,-4.843373493975903,-3.818516247700797,-7.524831391784181,-4.505211526670754,3.0,0.5663225663225663,1765.7781262250098,-5.823436862653691,0.3398403356447752,-3.1263912359419614,1378.7545787545787,-1.0,73.2054957739137,0.5676040917995071,
2023-08-21 10:48:29.477000,-7.638554216867471,-3.807228915662651,-4.867469879518072,-3.847946045370938,-7.424279583077866,-4.519926425505824,3.0,0.5663225663225663,1765.7781262250098,-5.792902511508652,-0.5303886719888126,-3.6454752054076103,1378.021978021978,-1.0,73.2054957739137,0.5675932653673716,
2023-08-21 10:48:29.484000,-7.662650602409639,-3.7228915662650603,-4.879518072289157,-3.6640098099325566,-7.49540159411404,-4.578786020846106,3.0,0.5663225663225663,1765.7781262250098,-5.6707651069285,-0.25557951168346904,-4.775246197774022,1380.952380952381,-1.0,73.2054957739137,0.5675823877071887,
2023-08-21 10:48:29.492000,-7.662650602409639,-3.7108433734939763,-4.9397590361445785,-3.747394236664623,-7.429184549356223,-4.532188841201717,3.0,0.5663225663225663,1765.7781262250098,-6.144047549676591,-0.6983276032865224,-5.355398869529747,1384.6153846153845,-1.0,73.2054957739137,0.5675714555510998,
2023-08-21 10:48:29.500000,-7.650602409638554,-3.6746987951807233,-4.927710843373494,-3.725321888412017,-7.367872470876763,-4.598405885959534,3.0,0.5663225663225663,1765.7781262250098,-7.029543732882698,-1.0800069925994995,-6.1798263504457775,1391.2087912087911,-1.0,73.2054957739137,0.5675604656193733,
2023-08-21 10:48:29.507000,-7.662650602409639,-3.807228915662651,-4.903614457831326,-3.8454935622317596,-7.412017167381974,-4.478234212139792,3.0,0.5663225663225663,1765.7781262250098,-6.708933045859798,-1.5380222597750721,-7.233261464949594,1398.5347985347985,-1.0,73.2054957739137,0.5675494146353421,
2023-08-21 10:48:29.515000,-7.771084337349398,-3.927710843373494,-4.927710843373494,-4.034334763948498,-7.598405885959534,-4.649908031882281,3.0,0.5663225663225663,1765.7781262250098,-6.724200221432317,-1.0647398170269804,-8.164559174873258,1402.9304029304028,-1.0,73.2054957739137,0.5675382993407049,
2023-08-21 10:48:29.523000,-7.686746987951808,-3.7590361445783134,-4.9156626506024095,-4.129981606376456,-7.397302268546904,-4.6033108522378905,3.0,0.5663225663225663,1765.7781262250098,-8.067711671813996,-0.7135947788590415,-6.775246197774022,1405.8608058608058,-1.0,73.2054957739137,0.5675271165111465,
2023-08-21 10:48:29.530000,-7.710843373493976,-3.9759036144578315,-4.9156626506024095,-4.009809932556713,-7.429184549356223,-4.522378908645003,3.0,0.5663225663225663,1765.7781262250098,-6.51045976341705,-1.0952741681720186,-9.30959734281219,1408.058608058608,-1.0,73.2054957739137,0.5675158629722202,
2023-08-21 10:48:29.538000,-7.734939759036145,-3.927710843373494,-4.879518072289157,-3.9534028203556097,-7.534641324340895,-4.593500919681177,3.0,0.5658785658785659,1767.1635935661043,-6.159314725249111,-1.4616863819124766,-9.538604976399975,1405.8608058608058,-1.0,73.2054957739137,0.5675045356154377,
2023-08-21 10:48:29.546000,-7.734939759036145,-3.963855421686747,-4.867469879518072,-3.995095033721643,-7.564071122011036,-4.497854077253218,3.0,0.5658785658785659,1767.1635935661043,-7.273818542043004,-2.3471825651185836,-9.111124060369441,1405.128205128205,-1.0,73.2054957739137,0.5674931314039632,
2023-08-21 10:48:29.553000,-7.795180722891566,-4.0,-4.795180722891566,-4.029429797670141,-7.642550582464745,-4.421827099938688,3.0,0.5663225663225663,1765.7781262250098,-7.380688771050637,-2.3319153895460643,-8.729444671056465,1405.128205128205,-1.0,73.2054957739137,0.5674816473466865,
2023-08-21 10:48:29.561000,-7.795180722891566,-4.0,-4.795180722891566,-4.049049662783568,-7.510116492949111,-4.470876762722256,3.0,0.5663225663225663,1765.7781262250098,-8.052444496241478,-2.8662665345842324,-8.088223297010662,1405.128205128205,-1.0,73.2054957739137,0.5674700805141905,
2023-08-21 10:48:29.569000,-7.746987951807229,-4.0,-4.759036144578314,-4.039239730226854,-7.561618638871857,-4.426732066217045,3.0,0.5663225663225663,1765.7781262250098,-7.83870403822621,-3.202144397179652,-7.950818716857992,1405.128205128205,-1.0,73.2054957739137,0.5674584280965567,
2023-08-21 10:48:29.576000,-7.698795180722892,-3.987951807228916,-4.710843373493976,-4.07847946045371,-7.515021459227468,-4.338442673206622,3.0,0.5663225663225663,1765.7781262250098,-7.83870403822621,-3.202144397179652,-7.950818716857992,1407.3260073260071,-1.0,73.2054957739137,0.5674466874293699,
2023-08-21 10:48:29.584000,-7.674698795180723,-4.072289156626506,-4.698795180722891,-4.186388718577559,-7.485591661557327,-4.267320662170447,3.0,0.5658785658785659,1767.1635935661043,-7.899772740516286,-4.881533710156751,-8.378299632888526,1409.5238095238094,-1.0,73.2054957739137,0.5674348560090384,
2023-08-21 10:48:29.592000,-7.710843373493976,-4.0,-4.674698795180723,-4.009809932556713,-7.517473942366646,-4.306560392397302,3.0,0.5658785658785659,1767.1635935661043,-7.83870403822621,-5.293747450614767,-8.607307266476312,1410.2564102564102,-1.0,73.2054957739137,0.5674229313586087,
2023-08-21 10:48:29.599000,-7.698795180722892,-3.963855421686747,-4.63855421686747,-3.9411404046597176,-7.478234212139792,-4.277130594727161,3.0,0.5658785658785659,1767.1635935661043,-8.327253656546821,-5.385350504049881,-8.179826350445778,1407.3260073260071,-1.0,73.2054957739137,0.5674109110207479,
2023-08-21 10:48:29.607000,-7.734939759036145,-3.9397590361445785,-4.686746987951808,-3.926425505824647,-7.529736358062538,-4.380134886572654,3.0,0.5658785658785659,1767.1635935661043,-9.411223122195675,-6.499854320843774,-7.889750014567915,1403.6630036630036,-1.0,73.2054957739137,0.5673987927093385,
2023-08-21 10:48:29.615000,-7.734939759036145,-3.8192771084337354,-4.686746987951808,-3.7743715511955855,-7.5444512568976085,-4.350705088902513,3.0,0.5663225663225663,1765.7781262250098,-9.869238389371247,-7.141075694889576,-7.828681312277839,1399.2673992673992,-1.0,73.2054957739137,0.56738657432176,
2023-08-21 10:48:29.622000,-7.674698795180723,-4.0602409638554215,-4.710843373493976,-3.995095033721643,-7.407112201103617,-4.304107909258124,3.0,0.5663225663225663,1765.7781262250098,-11.472291824485751,-7.88916729794301,-7.202727113804556,1394.8717948717947,-1.0,73.2054957739137,0.5673742540998573,
2023-08-21 10:48:29.630000,-7.686746987951808,-3.927710843373494,-4.734939759036145,-3.90680564071122,-7.492949110974862,-4.375229920294298,3.0,0.5663225663225663,1765.7781262250098,-11.441757473340713,-8.255579511683468,-7.691276732125167,1392.6739926739926,-1.0,73.2054957739137,0.5673618306628263,
2023-08-21 10:48:29.638000,-7.698795180722892,-3.879518072289157,-4.759036144578314,-3.926425505824647,-7.5076640098099325,-4.382587369711833,3.0,0.5663225663225663,1765.7781262250098,-11.945574267233843,-8.621991725423927,-7.828681312277839,1386.080586080586,-1.0,73.2054957739137,0.5673493028804616,
2023-08-21 10:48:29.645000,-7.686746987951808,-3.843373493975904,-4.783132530120482,-3.796443899448191,-7.529736358062538,-4.448804414469651,3.0,0.5658785658785659,1767.1635935661043,-12.617329992424683,-9.171610046034614,-7.645475205407609,1378.7545787545787,-1.0,73.2054957739137,0.5673366698845936,
2023-08-21 10:48:29.653000,-7.698795180722892,-3.855421686746988,-4.783132530120482,-3.8038013488657265,-7.453709380748007,-4.441446965052115,3.0,0.5658785658785659,1767.1635935661043,-13.30435289318804,-9.828098595652934,-7.553872151972495,1369.9633699633698,-1.0,73.2054957739137,0.5673239309306224,
2023-08-21 10:48:29.661000,-7.698795180722892,-3.855421686746988,-4.783132530120482,-3.865113427345187,-7.54199877375843,-4.510116492949111,3.0,0.5658785658785659,1767.1635935661043,-13.869238389371247,-9.751762717790339,-7.385933220674785,1369.9633699633698,-1.0,73.2054957739137,0.5673110853858232,
2023-08-21 10:48:29.668000,-7.72289156626506,-3.7228915662650603,-4.734939759036145,-3.8234212139791537,-7.512568976088289,-4.473329245861435,3.0,0.5658785658785659,1767.1635935661043,-14.586795641279645,-9.934968824660569,-7.324864518384709,1361.904761904762,-1.0,73.2054957739137,0.5672981330146382,
2023-08-21 10:48:29.676000,-7.674698795180723,-3.927710843373494,-4.783132530120482,-3.9166155732679337,-7.470876762722256,-4.399754751686082,3.0,0.5663225663225663,1765.7781262250098,-15.853971213798728,-10.530388671988812,-7.050055358079366,1367.032967032967,-1.0,73.2054957739137,0.5672850738264215,
2023-08-21 10:48:29.684000,-7.698795180722892,-3.8192771084337354,-4.771084337349397,-3.8111587982832615,-7.43408951563458,-4.399754751686082,3.0,0.5658785658785659,1767.1635935661043,-15.518093351203309,-9.965503175805607,-7.14165841151448,1372.8937728937728,-1.0,73.2054957739137,0.5672719081030414,
2023-08-21 10:48:29.691000,-7.698795180722892,-3.771084337349398,-4.759036144578314,-3.715511955855303,-7.488044144696505,-4.416922133660331,3.0,0.5654345654345655,1768.5512367491165,-16.082978847386514,-10.377716916263621,-7.676009556552648,1375.091575091575,-1.0,73.2054957739137,0.5672586364254948,
2023-08-21 10:48:29.699000,-7.698795180722892,-3.7831325301204823,-4.771084337349397,-3.7866339668914772,-7.497854077253218,-4.397302268546904,3.0,0.5658785658785659,1767.1635935661043,-16.754734572577355,-11.705961191072781,-7.767612609987762,1375.091575091575,-1.0,73.2054957739137,0.5672452595081687,
2023-08-21 10:48:29.707000,-7.72289156626506,-3.7228915662650603,-4.734939759036145,-3.666462293071735,-7.549356223175965,-4.372777437155119,3.0,0.5658785658785659,1767.1635935661043,-17.13641396189033,-12.39298409183614,-8.500437037468679,1377.2893772893772,-1.0,73.2054957739137,0.5672317784475297,
2023-08-21 10:48:29.714000,-7.734939759036145,-3.7228915662650603,-4.771084337349397,-3.8577559779276513,-7.512568976088289,-4.392397302268547,3.0,0.5658785658785659,1767.1635935661043,-18.99900938173766,-14.484587145271254,-7.721811083270205,1377.2893772893772,-1.0,73.2054957739137,0.5672181947349396,
2023-08-21 10:48:29.722000,-7.72289156626506,-3.8674698795180724,-4.759036144578314,-3.9435928877988964,-7.490496627835683,-4.397302268546904,3.0,0.5658785658785659,1767.1635935661043,-19.85397121379873,-14.56092302313385,-9.126391235941961,1376.5567765567764,-1.0,73.2054957739137,0.5672045099808967,
2023-08-21 10:48:29.730000,-7.759036144578314,-3.771084337349398,-4.795180722891566,-3.747394236664623,-7.5370938074800735,-4.458614347026364,3.0,0.5658785658785659,1767.1635935661043,-19.395955946623157,-14.301381038401026,-9.447001922964862,1379.4871794871794,-1.0,73.2054957739137,0.567190725935916,
2023-08-21 10:48:29.737000,-7.72289156626506,-3.7590361445783134,-4.83132530120482,-3.8405885959534025,-7.429184549356223,-4.492949110974862,3.0,0.5658785658785659,1767.1635935661043,-20.20511625196667,-14.438785618553698,-9.508070625254938,1381.6849816849815,-1.0,73.2054957739137,0.5671768447765418,
2023-08-21 10:48:29.745000,-7.674698795180723,-3.855421686746988,-4.807228915662651,-3.884733292458614,-7.451256897608829,-4.456161863887186,3.0,0.5658785658785659,1767.1635935661043,-21.304352893188042,-14.591457374278889,-11.98135306800303,1382.4175824175823,-1.0,73.2054957739137,0.5671628690819158,
2023-08-21 10:48:29.753000,-7.759036144578314,-3.8192771084337354,-4.867469879518072,-3.8209687308399753,-7.598405885959534,-4.549356223175965,3.0,0.5658785658785659,1767.1635935661043,-21.44175747334071,-14.347182565118583,-12.393566808461044,1385.3479853479853,-1.0,73.2054957739137,0.5671488015429765,
2023-08-21 10:48:29.760000,-7.759036144578314,-3.8192771084337354,-4.867469879518072,-3.7621091354996934,-7.438994481912936,-4.5076640098099325,3.0,0.5658785658785659,1767.1635935661043,-22.235650603111704,-15.095274168172018,-11.676009556552648,1385.3479853479853,-1.0,73.2054957739137,0.5671346451176568,
2023-08-21 10:48:29.768000,-7.710843373493976,-3.7951807228915664,-4.843373493975903,-3.818516247700797,-7.497854077253218,-4.421827099938688,3.0,0.5658785658785659,1767.1635935661043,-22.540994114562086,-15.583823786492628,-12.97371948021677,1383.150183150183,-1.0,73.2054957739137,0.5671204031534177,
2023-08-21 10:48:29.776000,-7.783132530120482,-3.807228915662651,-4.819277108433735,-3.81361128142244,-7.554261189454322,-4.478234212139792,3.0,0.5658785658785659,1767.1635935661043,-22.81580327486743,-15.125808519317056,-12.622574442048832,1383.150183150183,-1.0,73.2054957739137,0.5671060792319579,
2023-08-21 10:48:29.783000,-7.795180722891566,-3.771084337349398,-4.843373493975903,-3.747394236664623,-7.546903740036787,-4.5370938074800735,3.0,0.5658785658785659,1767.1635935661043,-23.426490297768193,-15.370083328477362,-12.63784161762135,1385.3479853479853,-1.0,73.2054957739137,0.5670916770233952,
2023-08-21 10:48:29.791000,-7.783132530120482,-3.734939759036145,-4.843373493975903,-3.7645616186388717,-7.58859595340282,-4.554261189454322,3.0,0.5658785658785659,1767.1635935661043,-23.960841442806363,-16.515121496416292,-11.874482838995396,1391.2087912087911,-1.0,73.2054957739137,0.567077200437298,
2023-08-21 10:48:29.798000,-7.783132530120482,-3.8192771084337354,-4.867469879518072,-3.936235438381361,-7.559166155732679,-4.470876762722256,3.0,0.5658785658785659,1767.1635935661043,-25.16694831303537,-18.74412913000408,-12.011887419148067,1402.197802197802,-1.0,73.2054957739137,0.5670626536024732,
2023-08-21 10:48:29.806000,-7.795180722891566,-3.855421686746988,-4.807228915662651,-3.9092581238503983,-7.600858369098712,-4.453709380748007,3.0,0.5658785658785659,1767.1635935661043,-24.846337626012467,-19.324281801759803,-12.95845230464425,1419.047619047619,-1.0,73.2054957739137,0.5670480407282517,
2023-08-21 10:48:29.814000,-7.855421686746988,-3.843373493975904,-4.819277108433735,-3.872470876762722,-7.6327406499080315,-4.451256897608829,3.0,0.5658785658785659,1767.1635935661043,-25.365421595478118,-19.88916729794301,-12.988986655789288,1442.4908424908424,-1.0,73.2054957739137,0.5670333663805655,
2023-08-21 10:48:29.821000,-7.855421686746988,-3.8192771084337354,-4.819277108433735,-3.8405885959534025,-7.664622930717351,-4.416922133660331,3.0,0.5658785658785659,1767.1635935661043,-25.762368160363614,-21.24794592389721,-12.866849251209135,1468.8644688644688,-1.0,73.2054957739137,0.5670186354489993,
2023-08-21 10:48:29.829000,-7.83132530120482,-3.7469879518072293,-4.734939759036145,-3.7400367872470874,-7.5665236051502145,-4.345800122624157,3.0,0.5658785658785659,1767.1635935661043,-25.930307091661323,-23.38535050404988,-12.317230930598448,1495.970695970696,-1.0,73.2054957739137,0.5670038529856951,
2023-08-21 10:48:29.837000,-7.783132530120482,-3.807228915662651,-4.63855421686747,-3.86020846106683,-7.549356223175965,-4.213366033108522,3.0,0.5663225663225663,1765.7781262250098,-26.35778800769186,-25.263213099469727,-13.141658411514479,1523.8095238095236,-1.0,73.2054957739137,0.5669890241928789,
2023-08-21 10:48:29.844000,-7.807228915662651,-3.807228915662651,-4.590361445783133,-3.877375843041079,-7.54199877375843,-4.20110361741263,3.0,0.5654345654345655,1768.5512367491165,-25.899772740516287,-25.996037526950644,-14.1187576481557,1545.7875457875457,-1.0,73.2054957739137,0.5669741545590884,
2023-08-21 10:48:29.852000,-7.867469879518072,-3.734939759036145,-4.566265060240964,-3.6713672593500917,-7.649908031882281,-4.242795830778663,3.0,0.5654345654345655,1768.5512367491165,-25.899772740516287,-25.996037526950644,-14.1187576481557,1565.5677655677655,842.59033203125,71.20898225280695,0.5669592497076175,
2023-08-21 10:48:29.860000,-7.867469879518072,-3.734939759036145,-4.566265060240964,-3.737584304107909,-7.676885346413243,-4.29429797670141,3.0,0.5654345654345655,1768.5512367491165,-25.915039916088805,-26.881533710156752,-15.172192762659519,1565.5677655677655,-1.0,71.20898225280695,0.56694431504253,
2023-08-21 10:48:29.867000,-7.927710843373494,-3.6867469879518073,-4.614457831325302,-3.6591048436541995,-7.728387492335989,-4.291845493562231,3.0,0.5658785658785659,1767.1635935661043,-26.373055183264377,-27.309014626187285,-15.767612609987763,1596.3369963369962,-1.0,71.20898225280695,0.5669293558826225,
2023-08-21 10:48:29.875000,-7.927710843373494,-3.6746987951807233,-4.55421686746988,-3.708154506437768,-7.694052728387492,-4.171673819742489,3.0,0.5658785658785659,1767.1635935661043,-25.82343686265369,-27.629625313210184,-15.217994289377074,1600.7326007326005,-1.0,71.20898225280695,0.5669143777434075,
2023-08-21 10:48:29.883000,-7.903614457831326,-3.6746987951807233,-4.530120481927711,-3.6468424279583074,-7.689147762109135,-4.169221336603311,3.0,0.5658785658785659,1767.1635935661043,-26.113513198531553,-27.996037526950644,-14.759979022201502,1597.8021978021977,-1.0,71.20898225280695,0.5668993862032256,
2023-08-21 10:48:29.890000,-7.927710843373494,-3.7108433734939763,-4.46987951807229,-3.816063764561618,-7.6817903126916,-4.1446965052115265,3.0,0.5654345654345655,1768.5512367491165,-26.403589534409416,-27.67542683992774,-14.775246197774022,1589.7435897435896,-1.0,71.20898225280695,0.5668843869079908,
2023-08-21 10:48:29.898000,-8.0,-3.7951807228915664,-4.433734939759036,-3.8405885959534025,-7.860821581851624,-4.056407112201104,3.0,0.5654345654345655,1768.5512367491165,-26.495192587844528,-27.55328943534759,-15.385933220674785,1576.5567765567764,-1.0,71.20898225280695,0.5668693855338399,
2023-08-21 10:48:29.906000,-8.036144578313253,-3.7831325301204823,-4.373493975903615,-3.808706315144083,-7.880441446965052,-4.029429797670141,3.0,0.5658785658785659,1767.1635935661043,-25.62496358021094,-27.492220733057515,-15.4775362741099,1559.7069597069597,-1.0,71.20898225280695,0.5668543876005422,
2023-08-21 10:48:29.913000,-8.012048192771084,-3.855421686746988,-4.325301204819278,-3.90680564071122,-7.858369098712446,-3.9019006744328633,3.0,0.5654345654345655,1768.5512367491165,-25.869238389371247,-29.06473981702698,-15.81341413670532,1540.6593406593406,-1.0,71.20898225280695,0.5668393987425725,
2023-08-21 10:48:29.921000,-8.012048192771084,-3.9036144578313254,-4.265060240963856,-3.936235438381361,-7.816676885346413,-3.8454935622317596,3.0,0.5654345654345655,1768.5512367491165,-25.3501544199056,-29.919701649088047,-15.981353068003031,1522.3443223443223,-1.0,71.20898225280695,0.5668244245647575,
2023-08-21 10:48:29.929000,-7.975903614457832,-3.8192771084337354,-4.19277108433735,-3.796443899448191,-7.75781729000613,-3.7694665849172284,3.0,0.5654345654345655,1768.5512367491165,-24.15931472524911,-32.20977798496591,-16.057688945865625,1503.2967032967033,-1.0,71.20898225280695,0.566809470466524,
2023-08-21 10:48:29.936000,-7.951807228915663,-3.843373493975904,-4.144578313253012,-3.796443899448191,-7.777437155119558,-3.725321888412017,3.0,0.5654345654345655,1768.5512367491165,-23.930307091661323,-33.52275508420255,-15.905017190140436,1487.9120879120878,-1.0,71.20898225280695,0.5667945417642314,
2023-08-21 10:48:29.944000,-7.987951807228916,-3.879518072289157,-4.1084337349397595,-3.9019006744328633,-7.9074187614960145,-3.6983445738810543,3.0,0.5654345654345655,1768.5512367491165,-23.548627702348348,-34.59145737427888,-16.317230930598452,1473.260073260073,-1.0,71.20898225280695,0.5667796436750429,
2023-08-21 10:48:29.952000,-8.012048192771084,-4.228915662650603,-4.156626506024097,-4.5297363580625385,-8.277743715511955,-3.995095033721643,3.0,0.5654345654345655,1768.5512367491165,-23.762368160363614,-34.40825126740865,-16.86684925120914,1461.5384615384614,-1.0,71.20898225280695,0.5667647813011717,
2023-08-21 10:48:29.959000,-8.012048192771084,-4.228915662650603,-4.156626506024097,-4.095646842427958,-7.9736358062538315,-3.4996934396076025,3.0,0.5654345654345655,1768.5512367491165,-27.13641396189033,-35.568556610920105,-9.492803449682418,1461.5384615384614,-1.0,71.20898225280695,0.5667499596145825,
