Shimmer_F5D4_Timestamp_FormattedUnix_CAL,Shimmer_F5D4_Accel_LN_X_CAL,Shimmer_F5D4_Accel_LN_Y_CAL,Shimmer_F5D4_Accel_LN_Z_CAL,Shimmer_F5D4_Accel_WR_X_CAL,Shimmer_F5D4_Accel_WR_Y_CAL,Shimmer_F5D4_Accel_WR_Z_CAL,Shimmer_F5D4_GSR_Range_CAL,Shimmer_F5D4_GSR_Skin_Conductance_CAL,Shimmer_F5D4_GSR_Skin_Resistance_CAL,Shimmer_F5D4_Gyro_X_CAL,Shimmer_F5D4_Gyro_Y_CAL,Shimmer_F5D4_Gyro_Z_CAL,Shimmer_F5D4_PPG_A13_CAL,Shimmer_F5D4_PPG_IBI_CAL,Shimmer_F5D4_PPGtoHR_CAL,Shimmer_F5D4_GSR_Skin_Conductance_LPF_CAL,
yyyy/mm/dd hh:mm:ss.000,m/(s^2),m/(s^2),m/(s^2),m/(s^2),m/(s^2),m/(s^2),no_units,uS,kOhms,deg/s,deg/s,deg/s,mV,ms,BPM,uS,
2023-08-21 10:26:37.502000,-6.783132530120482,-4.46987951807229,5.349397590361446,-4.41937461679951,-6.806253832004905,5.976701410177805,3.0,0.42468642468642465,2354.678515420805,0.06911019171376967,-0.15080706252549397,0.41547695355748476,1744.3223443223442,-1.0,78.32988047808765,0.4251347049503398,
2023-08-21 10:26:37.510000,-6.783132530120482,-4.46987951807229,5.373493975903615,-4.399754751686082,-6.740036787247087,5.976701410177805,3.0,0.42468642468642465,2354.678515420805,0.29252374570246537,-0.4052211409591512,0.5463551075112175,1678.3882783882782,-1.0,78.32988047808765,0.4251284162889621,
2023-08-21 10:26:37.518000,-6.807228915662651,-4.46987951807229,5.349397590361446,-4.40220723482526,-6.76701410177805,5.939914163090129,3.0,0.42468642468642465,2354.678515420805,0.19416117941844846,-0.4730493560981299,0.31152030767437816,1619.047619047619,-1.0,78.32988047808765,0.4251221098088442,
2023-08-21 10:26:37.525000,-6.783132530120482,-4.481927710843374,5.36144578313253,-4.382587369711833,-6.781729000613121,5.976701410177805,3.0,0.42468642468642465,2354.678515420805,0.14404754967659159,-0.5610395664588316,0.15383718897500182,1568.4981684981683,-1.0,78.32988047808765,0.42511578580384213,
2023-08-21 10:26:37.533000,-6.771084337349398,-4.46987951807229,5.36144578313253,-4.370324954015941,-6.717964438994482,5.961986511342734,3.0,0.42468642468642465,2354.678515420805,0.657420896218169,-0.42095448983159534,0.10547170910786094,1526.7399267399267,-1.0,78.32988047808765,0.42510944472056245,
2023-08-21 10:26:37.541000,-6.783132530120482,-4.46987951807229,5.349397590361446,-4.448804414469651,-6.771919068056406,5.971796443899448,3.0,0.42468642468642465,2354.678515420805,0.30044869180117784,-0.47864343569722045,0.1491754559757588,1494.5054945054944,-1.0,78.32988047808765,0.4251030871617568,
2023-08-21 10:26:37.548000,-6.795180722891566,-4.493975903614458,5.385542168674699,-4.421827099938688,-6.75229920294298,5.976701410177805,3.0,0.4242424242424242,2357.1428571428573,0.3424042887943588,-0.15430336227492603,0.2844822562787716,1468.131868131868,-1.0,78.32988047808765,0.4250967140279978,
2023-08-21 10:26:37.556000,-6.771084337349398,-4.457831325301205,5.373493975903615,-4.414469650521152,-6.771919068056406,6.013488657265481,3.0,0.4242424242424242,2357.1428571428573,-0.07447118466289857,-0.3976458248353829,0.29800128197657466,1446.8864468864467,-1.0,78.32988047808765,0.4250903263504392,
2023-08-21 10:26:37.564000,-6.771084337349398,-4.457831325301205,5.397590361445784,-4.385039852851011,-6.742489270386265,5.96934396076027,3.0,0.42468642468642465,2354.678515420805,0.2929899190023887,-0.4124468271079769,0.43004486918011753,1424.9084249084249,-1.0,78.32988047808765,0.42508392512285836,
2023-08-21 10:26:37.571000,-6.746987951807229,-4.445783132530121,5.373493975903615,-4.404659717964439,-6.762109135499693,6.020846106683016,3.0,0.42468642468642465,2354.678515420805,0.5014859273935078,-0.2884447293281274,-0.12202086125517139,1405.128205128205,-1.0,78.32988047808765,0.4250775115904812,
2023-08-21 10:26:37.579000,-6.746987951807229,-4.445783132530121,5.373493975903615,-4.385039852851011,-6.762109135499693,5.976701410177805,3.0,0.42468642468642465,2354.678515420805,0.2983509119515176,-0.028203484645416232,0.0020977798496593955,1405.128205128205,-1.0,78.32988047808765,0.4250710871329418,
2023-08-21 10:26:37.587000,-6.795180722891566,-4.46987951807229,5.397590361445784,-4.426732066217045,-6.806253832004905,6.023298589822194,3.0,0.42468642468642465,2354.678515420805,0.6162811024998539,-0.14777693607598702,0.1392692733523686,1370.6959706959706,-1.0,78.32988047808765,0.4250646532852242,
2023-08-21 10:26:37.594000,-6.783132530120482,-4.433734939759036,5.373493975903615,-4.331085223789086,-6.747394236664623,6.001226241569589,3.0,0.42468642468642465,2354.678515420805,0.25709457490822163,0.18868364314433872,-0.381096672688072,1359.7069597069597,-1.0,78.32988047808765,0.42505821186505865,
2023-08-21 10:26:37.602000,-6.795180722891566,-4.457831325301205,5.36144578313253,-4.389944819129369,-6.779276517473942,5.988963825873697,3.0,0.42468642468642465,2354.678515420805,0.4368043820290186,0.14323174640172398,-0.1778451139211001,1356.0439560439559,-1.0,78.32988047808765,0.4250517648228309,
2023-08-21 10:26:37.610000,-6.819277108433735,-4.481927710843374,5.36144578313253,-4.404659717964439,-6.808706315144083,5.959534028203556,3.0,0.42468642468642465,2354.678515420805,0.05209486626653457,-0.14497989627644,-0.022143231746401454,1357.5091575091574,-1.0,78.32988047808765,0.4250453142400017,
2023-08-21 10:26:37.617000,-6.795180722891566,-4.457831325301205,5.36144578313253,-4.409564684242795,-6.732679337829552,6.006131207847946,3.0,0.42468642468642465,2354.678515420805,0.05197832294155373,-0.09509935318454654,-0.08134724083678094,1362.6373626373625,-1.0,78.32988047808765,0.42503886232674726,
2023-08-21 10:26:37.625000,-6.819277108433735,-4.46987951807229,5.397590361445784,-4.421827099938688,-6.757204169221336,5.9448191293684856,3.0,0.42468642468642465,2354.678515420805,-0.090204533535341,0.06176796223996309,0.1506905192005127,1367.032967032967,-1.0,78.32988047808765,0.4250324114188291,
2023-08-21 10:26:37.633000,-6.83132530120482,-4.46987951807229,5.373493975903615,-4.380134886572654,-6.789086450030656,6.008583690987124,3.0,0.42468642468642465,2354.678515420805,-0.10931763883223636,0.10920109550725551,0.027154594720587833,1375.091575091575,-1.0,78.32988047808765,0.425025963973701,
2023-08-21 10:26:37.640000,-6.819277108433735,-4.46987951807229,5.397590361445784,-4.421827099938688,-6.754751686082158,6.013488657265481,3.0,0.42468642468642465,2354.678515420805,0.13146087057863695,-0.33226501952100695,0.011188159198181996,1385.3479853479853,-1.0,78.32988047808765,0.425019522565873,
2023-08-21 10:26:37.648000,-6.807228915662651,-4.481927710843374,5.36144578313253,-4.387492335990189,-6.75229920294298,5.998773758430411,3.0,0.42468642468642465,2354.678515420805,0.14066779325214213,-0.130178894003846,0.11875764815570233,1396.3369963369962,-1.0,78.32988047808765,0.42501308988154746,
2023-08-21 10:26:37.656000,-6.783132530120482,-4.481927710843374,5.397590361445784,-4.399754751686082,-6.754751686082158,5.9963212752912325,3.0,0.42468642468642465,2354.678515420805,-0.017481498747158448,-0.0813472408367818,-0.12598333430452807,1408.7912087912086,-1.0,78.32988047808765,0.42500666871255866,
2023-08-21 10:26:37.663000,-6.795180722891566,-4.457831325301205,5.409638554216868,-4.443899448191293,-6.781729000613121,6.079705702023298,3.0,0.42468642468642465,2354.678515420805,0.23984616281102486,-0.32492279004720037,-0.11141541868189489,1419.047619047619,-1.0,78.32988047808765,0.42500026194963697,
2023-08-21 10:26:37.671000,-6.795180722891566,-4.445783132530121,5.397590361445784,-4.463519313304721,-6.762109135499693,6.001226241569589,3.0,0.42468642468642465,2354.678515420805,0.27795583007983304,-0.04498572344268966,0.36070159081638575,1426.3736263736262,-1.0,78.32988047808765,0.4249938725750374,
2023-08-21 10:26:37.679000,-6.795180722891566,-4.445783132530121,5.397590361445784,-4.338442673206622,-6.747394236664623,5.971796443899448,3.0,0.42468642468642465,2354.678515420805,0.13344210710331636,-0.4412330283782991,-0.025872618145795594,1426.3736263736262,-1.0,78.32988047808765,0.4249875036545623,
2023-08-21 10:26:37.686000,-6.795180722891566,-4.481927710843374,5.385542168674699,-4.404659717964439,-6.737584304107909,6.0331085223789085,3.0,0.42468642468642465,2354.678515420805,-0.07202377483829579,-0.2841326263038278,0.3236408134724086,1432.2344322344322,-1.0,78.32988047808765,0.4249811583290241,
2023-08-21 10:26:37.694000,-6.783132530120482,-4.457831325301205,5.385542168674699,-4.399754751686082,-6.759656652360515,5.998773758430411,3.0,0.4242424242424242,2357.1428571428573,0.21234193811549365,0.06992599498863726,0.1527882990501721,1431.5018315018315,-1.0,78.32988047808765,0.42497483966643845,
2023-08-21 10:26:37.702000,-6.783132530120482,-4.46987951807229,5.397590361445784,-4.483139178418148,-6.715511955855303,6.060085836909871,3.0,0.4242424242424242,2357.1428571428573,0.02284249169628734,-0.10022725948371375,0.1499912592506264,1428.5714285714284,-1.0,78.32988047808765,0.4249685506623303,
2023-08-21 10:26:37.709000,-6.795180722891566,-4.457831325301205,5.409638554216868,-4.468424279583077,-6.791538933169834,5.98405885959534,3.0,0.4242424242424242,2357.1428571428573,0.018880018646931958,-0.1006934327836371,0.14579569955130847,1422.7106227106226,-1.0,78.32988047808765,0.42496229447426753,
2023-08-21 10:26:37.717000,-6.795180722891566,-4.481927710843374,5.397590361445784,-4.426732066217045,-6.72041692213366,5.966891477621091,3.0,0.42468642468642465,2354.678515420805,0.1513897791503999,-0.099527999533827,0.0509294330167236,1412.4542124542124,-1.0,78.32988047808765,0.42495607424037507,
2023-08-21 10:26:37.724000,-6.83132530120482,-4.445783132530121,5.409638554216868,-4.451256897608829,-6.791538933169834,6.013488657265481,3.0,0.42468642468642465,2354.678515420805,0.2695647106811954,-0.25045160538430183,0.10675368568265231,1397.8021978021977,-1.0,78.32988047808765,0.4249498930886997,
2023-08-21 10:26:37.732000,-6.795180722891566,-4.46987951807229,5.397590361445784,-4.365419987737584,-6.75229920294298,5.9816063764561616,3.0,0.42468642468642465,2354.678515420805,-0.02703805139560613,-0.323407726822446,0.17947672047083485,1375.8241758241757,-1.0,78.32988047808765,0.4249437542954297,
2023-08-21 10:26:37.740000,-6.771084337349398,-4.457831325301205,5.385542168674699,-4.397302268546904,-6.764561618638871,6.020846106683016,3.0,0.42468642468642465,2354.678515420805,0.33855835906998427,-0.23063924013752143,-0.05337684284132637,1354.5787545787546,-1.0,78.32988047808765,0.4249376611345088,
2023-08-21 10:26:37.747000,-6.795180722891566,-4.457831325301205,5.397590361445784,-4.414469650521152,-6.791538933169834,5.964438994481912,3.0,0.42468642468642465,2354.678515420805,0.18075869704562622,-0.16479226152322038,-0.009206922673503872,1336.9963369963368,-1.0,78.32988047808765,0.4249316168658863,
2023-08-21 10:26:37.755000,-6.83132530120482,-4.457831325301205,5.385542168674699,-4.389944819129369,-6.764561618638871,5.96934396076027,3.0,0.42468642468642465,2354.678515420805,0.604859856651711,-0.005360992949128891,0.18961598974418759,1320.8791208791208,-1.0,78.32988047808765,0.42492562472371903,
2023-08-21 10:26:37.763000,-6.783132530120482,-4.457831325301205,5.421686746987952,-4.426732066217045,-6.7743715511955855,6.028203556100552,3.0,0.42468642468642465,2354.678515420805,0.14241594312685812,-0.3667618437154005,0.06619660858924269,1309.1575091575091,-1.0,78.32988047808765,0.4249196879045902,
2023-08-21 10:26:37.770000,-6.783132530120482,-4.46987951807229,5.397590361445784,-4.492949110974862,-6.754751686082158,6.018393623543838,3.0,0.42468642468642465,2354.678515420805,0.2929899190023887,-0.5117417399918422,0.20092069226735043,1299.6336996336995,-1.0,78.32988047808765,0.4249138095558158,
2023-08-21 10:26:37.778000,-6.783132530120482,-4.457831325301205,5.409638554216868,-4.380134886572654,-6.754751686082158,5.954629061925199,3.0,0.42513042513042515,2352.219321148825,0.168405104597635,-0.41081522055824177,0.41198065380805315,1293.040293040293,-1.0,78.32988047808765,0.4249079926251507,
2023-08-21 10:26:37.786000,-6.783132530120482,-4.457831325301205,5.409638554216868,-4.416922133660331,-6.764561618638871,5.912936848559166,3.0,0.42513042513042515,2352.219321148825,0.5314375619136418,-0.21735330108968004,0.3006817784511391,1293.040293040293,-1.0,78.32988047808765,0.4249022401578862,
2023-08-21 10:26:37.793000,-6.771084337349398,-4.445783132530121,5.409638554216868,-4.387492335990189,-6.801348865726548,5.96934396076027,3.0,0.42468642468642465,2354.678515420805,0.20278538546704772,0.12551716100460386,0.2047666219917254,1279.120879120879,-1.0,78.32988047808765,0.4248965554352947,
2023-08-21 10:26:37.801000,-6.783132530120482,-4.46987951807229,5.409638554216868,-4.424279583077866,-6.744941753525445,5.93746167995095,3.0,0.42468642468642465,2354.678515420805,0.09183614008507618,-0.1632771982984678,-0.17947672047083485,1274.7252747252746,-1.0,78.32988047808765,0.4248909415284755,
2023-08-21 10:26:37.809000,-6.759036144578314,-4.457831325301205,5.409638554216868,-4.40220723482526,-6.779276517473942,6.042918454935622,3.0,0.42468642468642465,2354.678515420805,0.19637550259308956,-0.1446302663014975,0.12423518442981206,1268.131868131868,-1.0,78.32988047808765,0.42488540126825297,
2023-08-21 10:26:37.816000,-6.759036144578314,-4.457831325301205,5.385542168674699,-4.409564684242795,-6.700797057020233,6.015941140404659,3.0,0.42468642468642465,2354.678515420805,0.03915855719363742,0.19544315599324114,-0.18367228017015322,1263.003663003663,-1.0,78.32988047808765,0.42487993737464463,
2023-08-21 10:26:37.824000,-6.783132530120482,-4.46987951807229,5.385542168674699,-4.375229920294298,-6.749846719803801,5.9816063764561616,3.0,0.42468642468642465,2354.678515420805,-0.00967309597342852,-0.107802575607482,-0.12178777460520929,1258.6080586080586,-1.0,78.32988047808765,0.4248745524480756,
2023-08-21 10:26:37.832000,-6.771084337349398,-4.46987951807229,5.397590361445784,-4.385039852851011,-6.776824034334764,6.03065603923973,3.0,0.4242424242424242,2357.1428571428573,-0.06130178894003801,-0.04183905366820187,0.01689878212225383,1252.7472527472526,-1.0,78.32988047808765,0.42486924896113093,
2023-08-21 10:26:37.839000,-6.807228915662651,-4.481927710843374,5.385542168674699,-4.414469650521152,-6.786633966891477,5.988963825873697,3.0,0.4242424242424242,2357.1428571428573,-0.13973544665229368,0.20546588194161217,0.36955888351494665,1246.153846153846,-1.0,78.32988047808765,0.42486402924034383,
2023-08-21 10:26:37.847000,-6.807228915662651,-4.493975903614458,5.385542168674699,-4.404659717964439,-6.742489270386265,5.9963212752912325,3.0,0.4242424242424242,2357.1428571428573,-0.20453353534176372,0.008158032748674174,0.49018122487034543,1242.4908424908424,-1.0,78.32988047808765,0.42485889527814485,
2023-08-21 10:26:37.855000,-6.771084337349398,-4.46987951807229,5.409638554216868,-4.438994481912936,-6.798896382587369,5.932556713672593,3.0,0.4242424242424242,2357.1428571428573,0.008391119398635847,0.0564069692908342,0.2425266592855893,1238.8278388278388,-1.0,78.32988047808765,0.42485384873591825,
2023-08-21 10:26:37.862000,-6.795180722891566,-4.445783132530121,5.373493975903615,-4.426732066217045,-6.816063764561618,6.028203556100552,3.0,0.4242424242424242,2357.1428571428573,-0.2387972728861956,-0.02109434182157132,0.07225686148825833,1239.5604395604396,-1.0,78.32988047808765,0.42484889122427527,
2023-08-21 10:26:37.870000,-6.807228915662651,-4.445783132530121,5.397590361445784,-4.377682403433476,-6.769466584917228,6.038013488657265,3.0,0.42468642468642465,2354.678515420805,-0.25336518850882794,-0.14218285647689471,0.16420954489831577,1238.8278388278388,-1.0,78.32988047808765,0.4248440242754384,
2023-08-21 10:26:37.878000,-6.783132530120482,-4.445783132530121,5.397590361445784,-4.407112201103617,-6.703249540159411,5.98405885959534,3.0,0.4242424242424242,2357.1428571428573,-0.07179068818833412,-0.1222539479051335,0.054891906066079854,1238.8278388278388,-1.0,78.32988047808765,0.42483924919913796,
2023-08-21 10:26:37.885000,-6.783132530120482,-4.445783132530121,5.397590361445784,-4.382587369711833,-6.75229920294298,6.057633353770693,3.0,0.4242424242424242,2357.1428571428573,-0.10453936250801164,0.06165141891498225,0.05267758289143962,1238.8278388278388,-1.0,78.32988047808765,0.4248345669706305,
2023-08-21 10:26:37.893000,-6.759036144578314,-4.445783132530121,5.409638554216868,-4.397302268546904,-6.801348865726548,5.9742489270386265,3.0,0.42468642468642465,2354.678515420805,-0.274459530330401,-0.2749257036303243,0.1573334887244334,1240.2930402930401,-1.0,78.32988047808765,0.42482997821525703,
2023-08-21 10:26:37.901000,-6.759036144578314,-4.433734939759036,5.421686746987952,-4.387492335990189,-6.757204169221336,5.96934396076027,3.0,0.4242424242424242,2357.1428571428573,0.21397354466522883,0.09568206980945246,0.18413845347007743,1243.956043956044,-1.0,78.32988047808765,0.4248254836302987,
2023-08-21 10:26:37.908000,-6.783132530120482,-4.445783132530121,5.409638554216868,-4.343347639484978,-6.747394236664623,5.966891477621091,3.0,0.42468642468642465,2354.678515420805,0.04347066021793532,0.234485169861896,0.1963755025930887,1249.084249084249,-1.0,78.32988047808765,0.4248210836941921,
2023-08-21 10:26:37.916000,-6.771084337349398,-4.445783132530121,5.397590361445784,-4.438994481912936,-6.791538933169834,5.930104230533415,3.0,0.42468642468642465,2354.678515420805,0.011421245848144537,0.14171668317697136,0.1931122894936192,1254.212454212454,-1.0,78.32988047808765,0.4248167785257562,
2023-08-21 10:26:37.924000,-6.795180722891566,-4.457831325301205,5.409638554216868,-4.424279583077866,-6.747394236664623,5.964438994481912,3.0,0.42468642468642465,2354.678515420805,0.2838995396538661,0.019812365246780383,0.23460171318687725,1257.142857142857,-1.0,78.32988047808765,0.42481256819133106,
2023-08-21 10:26:37.931000,-6.807228915662651,-4.445783132530121,5.409638554216868,-4.416922133660331,-6.754751686082158,5.947271612507664,3.0,0.42468642468642465,2354.678515420805,0.11153196200687572,0.08356156401142116,-0.013752112347765171,1257.142857142857,-1.0,78.32988047808765,0.42480845256569516,
2023-08-21 10:26:37.939000,-6.795180722891566,-4.445783132530121,5.397590361445784,-4.41937461679951,-6.749846719803801,6.006131207847946,3.0,0.42468642468642465,2354.678515420805,-0.0904376201853044,0.16013052852397824,0.08950527358545554,1257.8754578754579,-1.0,78.32988047808765,0.4248044314714401,
2023-08-21 10:26:37.947000,-6.807228915662651,-4.445783132530121,5.421686746987952,-4.461066830165542,-6.757204169221336,5.993868792152053,3.0,0.42468642468642465,2354.678515420805,-0.198007109142823,-0.32597167997202964,-0.2644368043820291,1263.003663003663,-1.0,78.32988047808765,0.42480050466018,
2023-08-21 10:26:37.954000,-6.759036144578314,-4.457831325301205,5.397590361445784,-4.412017167381974,-6.769466584917228,6.038013488657265,3.0,0.4242424242424242,2357.1428571428573,-0.13542334362799405,0.352310471417749,-0.11094924538197067,1269.5970695970695,-1.0,78.32988047808765,0.4247966715283601,
2023-08-21 10:26:37.962000,-6.771084337349398,-4.445783132530121,5.397590361445784,-4.407112201103617,-6.72041692213366,5.98405885959534,3.0,0.42468642468642465,2354.678515420805,-0.10617096905774683,0.09335120330983052,-0.2792378066546237,1273.260073260073,-1.0,78.32988047808765,0.4247929309929511,
2023-08-21 10:26:37.970000,-6.795180722891566,-4.457831325301205,5.421686746987952,-4.389944819129369,-6.771919068056406,5.9448191293684856,3.0,0.4242424242424242,2357.1428571428573,-0.07773439776236893,-0.16246139502360019,-0.15675077209952792,1273.9926739926739,-1.0,78.32988047808765,0.4247892819109634,
2023-08-21 10:26:37.977000,-6.795180722891566,-4.457831325301205,5.433734939759036,-4.453709380748007,-6.740036787247087,6.013488657265481,3.0,0.42468642468642465,2354.678515420805,-0.10978381213215971,0.20499970864168707,-0.15651768544956582,1271.7948717948716,-1.0,78.32988047808765,0.42478572293493894,
2023-08-21 10:26:37.985000,-6.795180722891566,-4.457831325301205,5.433734939759036,-4.458614347026364,-6.781729000613121,6.013488657265481,3.0,0.42468642468642465,2354.678515420805,-0.1105996154070273,0.20593205524153552,-0.155235708874774,1271.7948717948716,-1.0,78.32988047808765,0.4247822525184549,
2023-08-21 10:26:37.993000,-6.795180722891566,-4.46987951807229,5.409638554216868,-4.431637032495401,-6.744941753525445,6.023298589822194,3.0,0.4242424242424242,2357.1428571428573,-0.05244449624147708,0.17761202727113842,-0.4606957636501369,1261.5384615384614,-1.0,78.32988047808765,0.42477886907161533,
2023-08-21 10:26:38,-6.807228915662651,-4.46987951807229,5.397590361445784,-4.407112201103617,-6.779276517473942,6.008583690987124,3.0,0.4242424242424242,2357.1428571428573,-0.15989744187401658,0.08694132043587237,-0.3662956704154767,1260.8058608058607,-1.0,78.32988047808765,0.42477557055246185,
2023-08-21 10:26:38.008000,-6.795180722891566,-4.481927710843374,5.397590361445784,-4.424279583077866,-6.769466584917228,6.015941140404659,3.0,0.4242424242424242,2357.1428571428573,-0.22224812073888384,0.23972961948604404,-0.25674494493327915,1263.003663003663,-1.0,78.32988047808765,0.42477235474084496,
2023-08-21 10:26:38.016000,-6.783132530120482,-4.46987951807229,5.397590361445784,-4.394849785407725,-6.779276517473942,5.971796443899448,3.0,0.4242424242424242,2357.1428571428573,0.05384301614125059,0.3774838296136583,-0.3013810384010254,1268.8644688644688,-1.0,78.32988047808765,0.42476921936361883,
2023-08-21 10:26:38.023000,-6.795180722891566,-4.481927710843374,5.385542168674699,-4.453709380748007,-6.762109135499693,6.006131207847946,3.0,0.4242424242424242,2357.1428571428573,-0.2229473806887706,0.14532952625138426,-0.012470135772973802,1274.7252747252746,-1.0,78.32988047808765,0.4247661619540511,
2023-08-21 10:26:38.031000,-6.795180722891566,-4.457831325301205,5.397590361445784,-4.333537706928265,-6.771919068056406,6.001226241569589,3.0,0.42468642468642465,2354.678515420805,-0.1298292640289035,-0.02249286172134483,0.12295320785502026,1282.051282051282,-1.0,78.32988047808765,0.4247631797221292,
2023-08-21 10:26:38.039000,-6.771084337349398,-4.433734939759036,5.397590361445784,-4.394849785407725,-6.798896382587369,6.0110361741263025,3.0,0.4242424242424242,2357.1428571428573,-0.2680496474564411,0.08239613076161106,0.2263271371132218,1286.4468864468863,-1.0,78.32988047808765,0.4247602697336074,
2023-08-21 10:26:38.046000,-6.795180722891566,-4.445783132530121,5.373493975903615,-4.35561005518087,-6.764561618638871,5.930104230533415,3.0,0.42468642468642465,2354.678515420805,-0.1604801584989225,-0.14742730610104277,-0.17108560107219858,1288.6446886446886,-1.0,78.32988047808765,0.42475742907898173,
2023-08-21 10:26:38.054000,-6.795180722891566,-4.445783132530121,5.409638554216868,-4.380134886572654,-6.693439607602698,6.001226241569589,3.0,0.4242424242424242,2357.1428571428573,0.054192646116193094,0.17481498747159316,-0.2159547811899074,1287.9120879120878,-1.0,78.32988047808765,0.42475465485226055,
2023-08-21 10:26:38.062000,-6.783132530120482,-4.445783132530121,5.385542168674699,-4.424279583077866,-6.7743715511955855,5.961986511342734,3.0,0.42468642468642465,2354.678515420805,-0.29695239205174584,0.15814929199930056,0.05908746576539821,1284.9816849816848,-1.0,78.32988047808765,0.42475194402369015,
2023-08-21 10:26:38.069000,-6.807228915662651,-4.481927710843374,5.409638554216868,-4.372777437155119,-6.843041079092581,5.986511342734518,3.0,0.42468642468642465,2354.678515420805,-0.3401899656197195,0.18903327311928123,-0.45987996037526957,1280.5860805860805,-1.0,78.32988047808765,0.424749293440962,
2023-08-21 10:26:38.077000,-6.795180722891566,-4.46987951807229,5.397590361445784,-4.407112201103617,-6.7743715511955855,6.038013488657265,3.0,0.42468642468642465,2354.678515420805,-0.3689761668900416,-0.5268923722393805,-0.2883281860031466,1277.6556776556777,-1.0,78.32988047808765,0.42474669986224883,
2023-08-21 10:26:38.084000,-6.795180722891566,-4.46987951807229,5.397590361445784,-4.41937461679951,-6.784181483752299,6.001226241569589,3.0,0.42468642468642465,2354.678515420805,-0.44449624147776945,-0.09136996678515283,-0.16560806479808884,1277.6556776556777,-1.0,78.32988047808765,0.42474415998950765,
2023-08-21 10:26:38.092000,-6.795180722891566,-4.457831325301205,5.409638554216868,-4.385039852851011,-6.830778663396689,6.006131207847946,3.0,0.42468642468642465,2354.678515420805,-0.1074529456325395,-0.11700949828098545,0.279820523279529,1287.179487179487,-1.0,78.32988047808765,0.42474167060923657,
2023-08-21 10:26:38.100000,-6.819277108433735,-4.46987951807229,5.397590361445784,-4.380134886572654,-6.816063764561618,5.991416309012875,3.0,0.42468642468642465,2354.678515420805,-0.23192121671231236,0.2981178253015559,-0.16455917487325916,1305.4945054945053,-1.0,78.32988047808765,0.42473922831794503,
2023-08-21 10:26:38.107000,-6.783132530120482,-4.46987951807229,5.409638554216868,-4.367872470876763,-6.791538933169834,6.028203556100552,3.0,0.42468642468642465,2354.678515420805,-0.354058621292465,0.2209661441640929,0.10920109550725465,1335.5311355311355,-1.0,78.32988047808765,0.4247368296949178,
2023-08-21 10:26:38.115000,-6.783132530120482,-4.445783132530121,5.373493975903615,-4.343347639484978,-6.757204169221336,6.006131207847946,3.0,0.4242424242424242,2357.1428571428573,-0.09265194335994377,0.16211176504865768,0.2893770759279763,1381.6849816849815,-1.0,78.32988047808765,0.4247344714435355,
2023-08-21 10:26:38.123000,-6.771084337349398,-4.433734939759036,5.409638554216868,-4.367872470876763,-6.737584304107909,5.954629061925199,3.0,0.42468642468642465,2354.678515420805,-0.13880310005244526,0.2251617038634117,0.14835965270089163,1446.8864468864467,-1.0,78.32988047808765,0.4247321501066094,
2023-08-21 10:26:38.130000,-6.771084337349398,-4.445783132530121,5.397590361445784,-4.35561005518087,-6.732679337829552,5.96934396076027,3.0,0.42468642468642465,2354.678515420805,-0.24625604568498302,0.36314900064098765,-0.15826583532428184,1529.6703296703295,-1.0,78.32988047808765,0.4247298622076914,
2023-08-21 10:26:38.138000,-6.771084337349398,-4.445783132530121,5.36144578313253,-4.375229920294298,-6.722869405272839,5.949724095646842,3.0,0.4242424242424242,2357.1428571428573,-0.5676825359827513,0.5322533651885094,-0.11281393858166774,1627.8388278388277,-1.0,78.32988047808765,0.4247276044238139,
2023-08-21 10:26:38.146000,-6.795180722891566,-4.445783132530121,5.349397590361446,-4.453709380748007,-6.75229920294298,6.018393623543838,3.0,0.4242424242424242,2357.1428571428573,-0.3077909212749844,0.6205932055241535,-0.5542800536099296,1734.7985347985348,-1.0,78.32988047808765,0.42472537331092636,
2023-08-21 10:26:38.153000,-6.807228915662651,-4.445783132530121,5.385542168674699,-4.424279583077866,-6.798896382587369,5.988963825873697,3.0,0.42468642468642465,2354.678515420805,-0.38552531903735165,0.3403065089447003,-0.7485577763533593,1846.8864468864467,-1.0,78.32988047808765,0.4247231652953135,
2023-08-21 10:26:38.161000,-6.783132530120482,-4.433734939759036,5.385542168674699,-4.416922133660331,-6.818516247700797,5.954629061925199,3.0,0.4242424242424242,2357.1428571428573,-0.3850591457374283,0.5341180583882063,-0.6041605967018239,1956.0439560439559,-1.0,78.32988047808765,0.4247209769730119,
2023-08-21 10:26:38.169000,-6.807228915662651,-4.445783132530121,5.397590361445784,-4.412017167381974,-6.789086450030656,6.008583690987124,3.0,0.42468642468642465,2354.678515420805,-0.6441349571703276,0.7722160713245151,-0.6592855894178659,2057.142857142857,-1.0,78.32988047808765,0.4247188051320462,
2023-08-21 10:26:38.176000,-6.807228915662651,-4.457831325301205,5.385542168674699,-4.370324954015941,-6.823421213979153,6.0110361741263025,3.0,0.42468642468642465,2354.678515420805,-0.3655964104655904,0.3394907056698327,-0.5474039974360467,2143.5897435897436,-1.0,78.32988047808765,0.42471664659405806,
2023-08-21 10:26:38.184000,-6.807228915662651,-4.457831325301205,5.385542168674699,-4.41937461679951,-6.776824034334764,6.008583690987124,3.0,0.42468642468642465,2354.678515420805,-0.22690985373812772,0.2308723267874831,-0.5399452246372589,2143.5897435897436,-1.0,78.32988047808765,0.4247144982573614,
2023-08-21 10:26:38.192000,-6.819277108433735,-4.493975903614458,5.36144578313253,-4.370324954015941,-6.857755977927652,6.008583690987124,3.0,0.42468642468642465,2354.678515420805,-0.47106811957345224,-0.1984732824427481,-0.5043995105180348,2252.014652014652,-1.0,78.32988047808765,0.42471235711844146,
2023-08-21 10:26:38.199000,-6.795180722891566,-4.481927710843374,5.397590361445784,-4.463519313304721,-6.816063764561618,6.067443286327406,3.0,0.42468642468642465,2354.678515420805,-0.4368043820290186,-0.13705495017772923,0.06666278188916733,2271.062271062271,-1.0,78.32988047808765,0.4247102202824848,
2023-08-21 10:26:38.207000,-6.771084337349398,-4.481927710843374,5.409638554216868,-4.429184549356223,-6.725321888412017,6.013488657265481,3.0,0.42468642468642465,2354.678515420805,-0.3869238389371251,-0.5629042596585284,-0.1329759338033913,2269.5970695970695,-1.0,78.32988047808765,0.4247080848347034,
2023-08-21 10:26:38.215000,-6.771084337349398,-4.493975903614458,5.421686746987952,-4.438994481912936,-6.713059472716124,6.0551808706315144,3.0,0.42468642468642465,2354.678515420805,-0.03100052444496325,-0.5583590699842671,0.15698385874949003,2246.153846153846,727.691650390625,82.45250576640805,0.4247059478703033,
2023-08-21 10:26:38.222000,-6.771084337349398,-4.506024096385542,5.409638554216868,-4.456161863887186,-6.72041692213366,6.013488657265481,3.0,0.42468642468642465,2354.678515420805,-0.33704329584522996,-0.4322591923547573,0.22935726356272962,2208.058608058608,-1.0,82.45250576640805,0.4247038066515501,
2023-08-21 10:26:38.230000,-6.746987951807229,-4.493975903614458,5.385542168674699,-4.43408951563458,-6.73513182096873,6.0331085223789085,3.0,0.42468642468642465,2354.678515420805,-0.07482081463784107,-0.3252724200221429,0.4090670706835266,2156.776556776557,-1.0,82.45250576640805,0.4247016586152046,
2023-08-21 10:26:38.238000,-6.734939759036145,-4.46987951807229,5.397590361445784,-4.478234212139792,-6.700797057020233,6.013488657265481,3.0,0.42468642468642465,2354.678515420805,-0.22749257036303192,-0.18542043004486836,0.20698094516636564,2098.901098901099,-1.0,82.45250576640805,0.4246995013795876,
2023-08-21 10:26:38.245000,-6.771084337349398,-4.457831325301205,5.397590361445784,-4.424279583077866,-6.651747394236664,6.0036787247087675,3.0,0.42468642468642465,2354.678515420805,0.001398519899773509,-0.06165141891498225,-0.008973836023541765,2034.4322344322343,-1.0,82.45250576640805,0.42469733289000866,
2023-08-21 10:26:38.253000,-6.746987951807229,-4.481927710843374,5.385542168674699,-4.41937461679951,-6.73513182096873,5.954629061925199,3.0,0.42468642468642465,2354.678515420805,0.09370083328477302,0.319911427073014,0.25091777868422604,1969.230769230769,-1.0,82.45250576640805,0.4246951514046519,
2023-08-21 10:26:38.261000,-6.734939759036145,-4.46987951807229,5.397590361445784,-4.453709380748007,-6.695892090741876,6.0036787247087675,3.0,0.42468642468642465,2354.678515420805,0.09288503000990543,0.31524969407377185,0.24975234543441507,1901.8315018315018,-1.0,82.45250576640805,0.42469295535241425,
2023-08-21 10:26:38.268000,-6.746987951807229,-4.457831325301205,5.397590361445784,-4.438994481912936,-6.703249540159411,5.991416309012875,3.0,0.42468642468642465,2354.678515420805,0.20092069226735085,0.0374104073189214,-0.07237340481323917,1836.6300366300366,-1.0,82.45250576640805,0.4246907433393772,
2023-08-21 10:26:38.276000,-6.771084337349398,-4.457831325301205,5.409638554216868,-4.421827099938688,-6.776824034334764,5.998773758430411,3.0,0.42468642468642465,2354.678515420805,-0.05990326904026623,0.4206048598566511,0.08391119398636454,1776.5567765567764,-1.0,82.45250576640805,0.4246885141546037,
2023-08-21 10:26:38.284000,-6.771084337349398,-4.457831325301205,5.409638554216868,-4.443899448191293,-6.715511955855303,6.018393623543838,3.0,0.42468642468642465,2354.678515420805,-0.4234018996561964,0.3708408600897385,0.05151214964162952,1776.5567765567764,-1.0,82.45250576640805,0.42468626677522997,
2023-08-21 10:26:38.291000,-6.783132530120482,-4.457831325301205,5.36144578313253,-4.392397302268547,-6.73513182096873,6.023298589822194,3.0,0.42468642468642465,2354.678515420805,0.08600897383602393,0.15558533884971695,-0.11794184488083431,1671.7948717948716,-1.0,82.45250576640805,0.4246840003708469,
2023-08-21 10:26:38.299000,-6.783132530120482,-4.421686746987952,5.409638554216868,-4.404659717964439,-6.786633966891477,5.952176578786021,3.0,0.4242424242424242,2357.1428571428573,-0.0048948196492038095,0.24847036885962412,-0.2720121205057982,1627.106227106227,-1.0,82.45250576640805,0.4246817143071448,
2023-08-21 10:26:38.307000,-6.807228915662651,-4.433734939759036,5.409638554216868,-4.416922133660331,-6.717964438994482,5.976701410177805,3.0,0.42468642468642465,2354.678515420805,-0.24975234543441507,0.44426315482780776,-0.3961307616106286,1588.278388278388,-1.0,82.45250576640805,0.4246794079995256,
2023-08-21 10:26:38.314000,-6.83132530120482,-4.445783132530121,5.397590361445784,-4.375229920294298,-6.742489270386265,5.9742489270386265,3.0,0.4242424242424242,2357.1428571428573,0.14847619602587203,0.3348289726705906,-0.3341297127207038,1552.3809523809523,-1.0,82.45250576640805,0.4246770810426765,
2023-08-21 10:26:38.322000,-6.795180722891566,-4.433734939759036,5.373493975903615,-4.367872470876763,-6.76701410177805,5.957081545064377,3.0,0.4242424242424242,2357.1428571428573,-0.17108560107219944,0.34706602179360097,-0.41011596060835587,1517.9487179487178,-1.0,82.45250576640805,0.42467473322161153,
2023-08-21 10:26:38.330000,-6.795180722891566,-4.433734939759036,5.385542168674699,-4.43408951563458,-6.776824034334764,5.932556713672593,3.0,0.4242424242424242,2357.1428571428573,0.043936833517860395,0.34298700541926475,-0.4204883165316707,1490.8424908424906,-1.0,82.45250576640805,0.4246723643515052,
2023-08-21 10:26:38.337000,-6.83132530120482,-4.433734939759036,5.397590361445784,-4.326180257510729,-6.801348865726548,5.976701410177805,3.0,0.42468642468642465,2354.678515420805,-0.13717149350271007,0.27702348347998285,-0.6018297302022029,1464.4688644688645,-1.0,82.45250576640805,0.4246699744144621,
2023-08-21 10:26:38.345000,-6.819277108433735,-4.421686746987952,5.36144578313253,-4.389944819129369,-6.762109135499693,5.947271612507664,3.0,0.4242424242424242,2357.1428571428573,-0.3967134782355345,0.45929724375036346,-0.841792436338209,1441.7582417582416,-1.0,82.45250576640805,0.42466756370590836,
2023-08-21 10:26:38.353000,-6.795180722891566,-4.421686746987952,5.373493975903615,-4.409564684242795,-6.73513182096873,5.920294297976701,3.0,0.42468642468642465,2354.678515420805,-0.07004253831361809,0.1491754559757588,-0.9872385059145741,1421.9780219780218,-1.0,82.45250576640805,0.4246651327033598,
2023-08-21 10:26:38.360000,-6.843373493975904,-4.433734939759036,5.385542168674699,-4.404659717964439,-6.798896382587369,5.9448191293684856,3.0,0.4242424242424242,2357.1428571428573,0.03671114736903465,0.16246139502360019,-0.8410931763883223,1405.128205128205,-1.0,82.45250576640805,0.4246626820520828,
2023-08-21 10:26:38.368000,-6.855421686746988,-4.445783132530121,5.385542168674699,-4.394849785407725,-6.850398528510116,5.988963825873697,3.0,0.42468642468642465,2354.678515420805,-0.2061651418914989,0.4052211409591512,-0.8330516869646288,1391.9413919413919,-1.0,82.45250576640805,0.4246602125710544,
2023-08-21 10:26:38.376000,-6.855421686746988,-4.457831325301205,5.385542168674699,-4.448804414469651,-6.8038013488657265,5.939914163090129,3.0,0.42468642468642465,2354.678515420805,-0.11188159198181996,0.2644368043820282,-1.1453877979138742,1386.8131868131868,-1.0,82.45250576640805,0.4246577252371175,
2023-08-21 10:26:38.383000,-6.855421686746988,-4.457831325301205,5.385542168674699,-4.424279583077866,-6.808706315144083,5.976701410177805,3.0,0.42468642468642465,2354.678515420805,-0.15733348872443298,-0.33343045277081707,-1.061126973952567,1386.8131868131868,-1.0,82.45250576640805,0.4246552213387913,
2023-08-21 10:26:38.391000,-6.819277108433735,-4.457831325301205,5.421686746987952,-4.414469650521152,-6.801348865726548,6.0036787247087675,3.0,0.42468642468642465,2354.678515420805,0.16397645824835452,-0.40731892080881144,-1.2693898956937237,1386.080586080586,-1.0,82.45250576640805,0.42465270233162833,
2023-08-21 10:26:38.399000,-6.819277108433735,-4.46987951807229,5.385542168674699,-4.426732066217045,-6.8038013488657265,5.957081545064377,3.0,0.4242424242424242,2357.1428571428573,0.30044869180117784,-0.20558242526659298,-1.155760153837189,1389.7435897435896,-1.0,82.45250576640805,0.42465016983177856,
2023-08-21 10:26:38.406000,-6.807228915662651,-4.493975903614458,5.373493975903615,-4.416922133660331,-6.8111587982832615,5.979153893316983,3.0,0.42468642468642465,2354.678515420805,0.29939980187634685,-0.3556902278422002,-1.0281452129829263,1397.8021978021977,-1.0,82.45250576640805,0.4246476255985086,
2023-08-21 10:26:38.414000,-6.807228915662651,-4.457831325301205,5.373493975903615,-4.458614347026364,-6.75229920294298,6.0110361741263025,3.0,0.42468642468642465,2354.678515420805,0.390536682011538,-0.9007633587786259,-0.8676650544840045,1408.7912087912086,-1.0,82.45250576640805,0.42464507149508623,
2023-08-21 10:26:38.422000,-6.807228915662651,-4.46987951807229,5.385542168674699,-4.453709380748007,-6.749846719803801,5.92274678111588,3.0,0.42468642468642465,2354.678515420805,0.2366994930365371,-0.559641046559058,-0.7990210360701587,1424.1758241758241,-1.0,82.45250576640805,0.42464250951227767,
2023-08-21 10:26:38.429000,-6.783132530120482,-4.457831325301205,5.385542168674699,-4.40220723482526,-6.771919068056406,5.949724095646842,3.0,0.42468642468642465,2354.678515420805,0.4334246256045691,-0.6783986947147594,-0.6846920342637368,1441.0256410256409,-1.0,82.45250576640805,0.42463994177029546,
2023-08-21 10:26:38.437000,-6.746987951807229,-4.46987951807229,5.373493975903615,-4.436541998773758,-6.749846719803801,6.001226241569589,3.0,0.42468642468642465,2354.678515420805,0.2952042421770298,-1.102732940970806,-0.4166423868072957,1457.8754578754579,-1.0,82.45250576640805,0.4246373705098707,
2023-08-21 10:26:38.445000,-6.771084337349398,-4.457831325301205,5.373493975903615,-4.372777437155119,-6.749846719803801,5.993868792152053,3.0,0.42468642468642465,2354.678515420805,0.24963580210943423,-0.6230406153487563,-0.5627877163335467,1468.8644688644688,-1.0,82.45250576640805,0.4246347980830374,
2023-08-21 10:26:38.452000,-6.746987951807229,-4.46987951807229,5.373493975903615,-4.441446965052115,-6.705702023298589,5.930104230533415,3.0,0.42468642468642465,2354.678515420805,0.14229939980187556,-0.5116251966668615,-0.47980886894703145,1476.1904761904761,-1.0,82.45250576640805,0.4246322269436755,
2023-08-21 10:26:38.460000,-6.759036144578314,-4.46987951807229,5.385542168674699,-4.438994481912936,-6.73513182096873,5.991416309012875,3.0,0.42468642468642465,2354.678515420805,-0.20604859856651633,-0.525960025639532,-0.7633587786259541,1477.6556776556777,-1.0,82.45250576640805,0.4246296596378663,
2023-08-21 10:26:38.467000,-6.734939759036145,-4.481927710843374,5.385542168674699,-4.399754751686082,-6.725321888412017,6.0036787247087675,3.0,0.4242424242424242,2357.1428571428573,-0.4911135714701943,-0.5546296835848734,-0.4812073888468032,1473.9926739926739,-1.0,82.45250576640805,0.4246270989328473,
2023-08-21 10:26:38.475000,-6.759036144578314,-4.481927710843374,5.385542168674699,-4.436541998773758,-6.740036787247087,5.986511342734518,3.0,0.4242424242424242,2357.1428571428573,-0.2257444204883159,-0.5512499271604222,-0.70368859623565,1469.5970695970695,-1.0,82.45250576640805,0.4246245476374477,
2023-08-21 10:26:38.483000,-6.759036144578314,-4.481927710843374,5.385542168674699,-4.441446965052115,-6.727774371551195,5.920294297976701,3.0,0.4242424242424242,2357.1428571428573,-0.2660684109317634,-0.4419322883281858,-0.8328186003146673,1469.5970695970695,-1.0,82.45250576640805,0.4246220084222752,
2023-08-21 10:26:38.490000,-6.783132530120482,-4.493975903614458,5.385542168674699,-4.443899448191293,-6.754751686082158,5.964438994481912,3.0,0.42468642468642465,2354.678515420805,-0.3842433424625607,-0.4228191830312922,-0.5942544140784333,1444.6886446886447,-1.0,82.45250576640805,0.42461948380917913,
2023-08-21 10:26:38.498000,-6.771084337349398,-4.506024096385542,5.409638554216868,-4.497854077253218,-6.681177191906805,6.020846106683016,3.0,0.42468642468642465,2354.678515420805,-0.561389196433774,-0.20593205524153552,-0.6486801468445897,1426.3736263736262,-1.0,82.45250576640805,0.4246169764687913,
2023-08-21 10:26:38.506000,-6.759036144578314,-4.481927710843374,5.385542168674699,-4.438994481912936,-6.695892090741876,6.020846106683016,3.0,0.42468642468642465,2354.678515420805,-0.44787599790222066,-0.2807528698793783,-0.44088339840335655,1405.128205128205,-1.0,82.45250576640805,0.4246144893588392,
2023-08-21 10:26:38.513000,-6.771084337349398,-4.506024096385542,5.397590361445784,-4.463519313304721,-6.693439607602698,5.998773758430411,3.0,0.42468642468642465,2354.678515420805,-0.6740865916904616,-0.4767787424975236,-0.3574383777169162,1383.150183150183,-1.0,82.45250576640805,0.4246120254265775,
2023-08-21 10:26:38.521000,-6.734939759036145,-4.506024096385542,5.409638554216868,-4.492949110974862,-6.722869405272839,5.976701410177805,3.0,0.42468642468642465,2354.678515420805,-0.36244974069110264,-0.06258376551483068,-0.16665695472291767,1361.904761904762,-1.0,82.45250576640805,0.42460958759926737,
2023-08-21 10:26:38.529000,-6.795180722891566,-4.493975903614458,5.397590361445784,-4.461066830165542,-6.698344573881054,5.979153893316983,3.0,0.42468642468642465,2354.678515420805,-0.4660567565992658,-0.14066779325214213,-0.3759687663889048,1341.3919413919414,-1.0,82.45250576640805,0.42460717863596614,
2023-08-21 10:26:38.536000,-6.783132530120482,-4.506024096385542,5.397590361445784,-4.458614347026364,-6.686082158185162,5.979153893316983,3.0,0.42468642468642465,2354.678515420805,-0.46232737019987213,-0.14253248645183897,-0.37107394673970057,1323.076923076923,-1.0,82.45250576640805,0.42460480127729905,
2023-08-21 10:26:38.544000,-6.795180722891566,-4.481927710843374,5.385542168674699,-4.497854077253218,-6.725321888412017,6.001226241569589,3.0,0.4242424242424242,2357.1428571428573,-0.7294446710564648,-0.31128722102441647,-0.8092768486684927,1304.7619047619046,-1.0,82.45250576640805,0.4246024582251243,
2023-08-21 10:26:38.552000,-6.759036144578314,-4.506024096385542,5.385542168674699,-4.441446965052115,-6.744941753525445,6.0036787247087675,3.0,0.42468642468642465,2354.678515420805,-0.6154652992249863,-0.3723559233144928,-0.40405570770934107,1287.9120879120878,-1.0,82.45250576640805,0.4246001519942738,
2023-08-21 10:26:38.559000,-6.746987951807229,-4.46987951807229,5.385542168674699,-4.461066830165542,-6.769466584917228,6.006131207847946,3.0,0.42468642468642465,2354.678515420805,-0.15080706252549397,-0.35417516461744586,-0.33669366587028743,1275.4578754578754,-1.0,82.45250576640805,0.4245978850202863,
2023-08-21 10:26:38.567000,-6.771084337349398,-4.493975903614458,5.373493975903615,-4.394849785407725,-6.764561618638871,5.966891477621091,3.0,0.42468642468642465,2354.678515420805,-0.2118757648155703,-0.5211817493153074,-0.788765223471826,1268.8644688644688,-1.0,82.45250576640805,0.42459565968137003,
2023-08-21 10:26:38.575000,-6.771084337349398,-4.481927710843374,5.349397590361446,-4.468424279583077,-6.798896382587369,6.0036787247087675,3.0,0.42468642468642465,2354.678515420805,0.020395081871686302,-0.8244274809160305,-0.8698793776586452,1267.3992673992673,-1.0,82.45250576640805,0.4245934782997375,
2023-08-21 10:26:38.582000,-6.771084337349398,-4.481927710843374,5.349397590361446,-4.362967504598406,-6.700797057020233,5.971796443899448,3.0,0.42468642468642465,2354.678515420805,0.16094633179884585,-1.2007458772798787,-1.0613600606025293,1267.3992673992673,-1.0,82.45250576640805,0.42459134327172,
2023-08-21 10:26:38.590000,-6.674698795180723,-4.445783132530121,5.409638554216868,-4.372777437155119,-6.629675045984058,6.042918454935622,3.0,0.42468642468642465,2354.678515420805,0.4974069110191716,-1.572169453994523,-1.3419963871569254,1265.2014652014652,-1.0,82.45250576640805,0.42458925690061977,
2023-08-21 10:26:38.598000,-6.650602409638554,-4.445783132530121,5.46987951807229,-4.451256897608829,-6.617412630288166,6.057633353770693,3.0,0.42468642468642465,2354.678515420805,0.513140259891614,-1.4377950002913582,-1.6041023250393334,1263.003663003663,-1.0,82.45250576640805,0.42458722140047256,
2023-08-21 10:26:38.605000,-6.72289156626506,-4.493975903614458,5.46987951807229,-4.436541998773758,-6.698344573881054,6.0772532188841195,3.0,0.42468642468642465,2354.678515420805,0.41920633995687934,-1.0117126041605975,-2.1276149408542633,1259.3406593406592,-1.0,82.45250576640805,0.4245852390180652,
2023-08-21 10:26:38.613000,-6.759036144578314,-4.518072289156627,5.481927710843374,-4.465971796443899,-6.791538933169834,6.096873083997547,3.0,0.42468642468642465,2354.678515420805,0.31210302429928405,-0.14637841617621353,-1.9890449274517796,1256.4102564102564,-1.0,82.45250576640805,0.42458331173999214,
2023-08-21 10:26:38.621000,-6.795180722891566,-4.518072289156627,5.445783132530121,-4.48068669527897,-6.793991416309012,6.0551808706315144,3.0,0.4242424242424242,2357.1428571428573,0.5845813181050057,0.4354058621292468,-1.438028086941321,1252.014652014652,-1.0,82.45250576640805,0.4245814413086561,
2023-08-21 10:26:38.628000,-6.807228915662651,-4.481927710843374,5.433734939759036,-4.348252605763335,-6.740036787247087,6.067443286327406,3.0,0.4242424242424242,2357.1428571428573,0.916030534351145,0.8451721927626593,-1.181632771982985,1246.153846153846,-1.0,82.45250576640805,0.42457962935586985,
2023-08-21 10:26:38.636000,-6.783132530120482,-4.46987951807229,5.421686746987952,-4.468424279583077,-6.764561618638871,6.038013488657265,3.0,0.4242424242424242,2357.1428571428573,0.6942485869121845,0.9476137754210124,-0.9711555270671878,1241.0256410256409,-1.0,82.45250576640805,0.4245778773561975,
2023-08-21 10:26:38.644000,-6.843373493975904,-4.481927710843374,5.385542168674699,-4.438994481912936,-6.838136112814224,5.966891477621091,3.0,0.42468642468642465,2354.678515420805,0.8556610920109554,0.27096323058096894,-0.9005302721286634,1235.8974358974358,-1.0,82.45250576640805,0.42457618661237245,
2023-08-21 10:26:38.651000,-6.819277108433735,-4.46987951807229,5.373493975903615,-4.443899448191293,-6.789086450030656,5.976701410177805,3.0,0.42468642468642465,2354.678515420805,0.5901753977040962,0.00827457607365501,-0.37247246663947364,1232.967032967033,-1.0,82.45250576640805,0.42457455840092806,
2023-08-21 10:26:38.659000,-6.795180722891566,-4.445783132530121,5.421686746987952,-4.409564684242795,-6.725321888412017,5.9816063764561616,3.0,0.42468642468642465,2354.678515420805,0.5557951168346835,-0.34252083211933965,-0.42771400268049686,1233.6996336996335,-1.0,82.45250576640805,0.4245729939907937,
2023-08-21 10:26:38.667000,-6.710843373493976,-4.421686746987952,5.409638554216868,-4.397302268546904,-6.710606989576946,6.03065603923973,3.0,0.4242424242424242,2357.1428571428573,0.9021618786783995,-0.67501893829031,-0.68282734106404,1233.6996336996335,-1.0,82.45250576640805,0.42457149450333875,
2023-08-21 10:26:38.674000,-6.686746987951808,-4.445783132530121,5.433734939759036,-4.362967504598406,-6.664009809932557,6.082158185162477,3.0,0.42468642468642465,2354.678515420805,1.079890449274517,-0.15185595245032324,-0.9663772507429635,1232.967032967033,-1.0,82.45250576640805,0.42457006076245757,
2023-08-21 10:26:38.682000,-6.686746987951808,-4.445783132530121,5.433734939759036,-4.404659717964439,-6.641937461679951,6.0551808706315144,3.0,0.42468642468642465,2354.678515420805,0.905425091777868,0.01829730202202604,-1.8700541926461165,1232.967032967033,-1.0,82.45250576640805,0.4245686934219387,
2023-08-21 10:26:38.690000,-6.686746987951808,-4.481927710843374,5.433734939759036,-4.429184549356223,-6.686082158185162,6.067443286327406,3.0,0.42468642468642465,2354.678515420805,0.5632538896334709,0.6726880717906881,-2.036827690694017,1236.6300366300366,-1.0,82.45250576640805,0.42456739312492847,
2023-08-21 10:26:38.697000,-6.783132530120482,-4.493975903614458,5.445783132530121,-4.502759043531576,-6.769466584917228,6.0331085223789085,3.0,0.42468642468642465,2354.678515420805,0.3900705087116129,0.804148942369325,-1.5124992716042194,1237.3626373626373,-1.0,82.45250576640805,0.42456616036608386,
2023-08-21 10:26:38.705000,-6.843373493975904,-4.530120481927711,5.409638554216868,-4.512568976088289,-6.914163090128755,6.0404659717964435,3.0,0.42468642468642465,2354.678515420805,0.4188567099819351,0.9219742439251798,-0.9169628809509948,1239.5604395604396,-1.0,82.45250576640805,0.42456499549303583,
2023-08-21 10:26:38.713000,-6.903614457831326,-4.518072289156627,5.397590361445784,-4.532188841201717,-6.914163090128755,5.961986511342734,3.0,0.42468642468642465,2354.678515420805,0.3696754268399284,0.6559058329934147,-0.32585513664704924,1241.7582417582416,-1.0,82.45250576640805,0.42456389870839933,
2023-08-21 10:26:38.720000,-6.867469879518072,-4.530120481927711,5.409638554216868,-4.446351931330472,-6.9068056407112195,6.0110361741263025,3.0,0.42468642468642465,2354.678515420805,0.7330575141308777,-0.020395081871686302,-0.18192413029543678,1243.956043956044,-1.0,82.45250576640805,0.4245628700723184,
2023-08-21 10:26:38.728000,-6.83132530120482,-4.493975903614458,5.409638554216868,-4.414469650521152,-6.779276517473942,6.015941140404659,3.0,0.42468642468642465,2354.678515420805,0.6519433599440593,-0.41675893013227655,0.051861779616572894,1246.8864468864467,-1.0,82.45250576640805,0.4245619095055254,
2023-08-21 10:26:38.736000,-6.795180722891566,-4.481927710843374,5.409638554216868,-4.397302268546904,-6.7743715511955855,5.98405885959534,3.0,0.42468642468642465,2354.678515420805,0.6334129712720699,-0.7349222073305746,-0.2041839053668195,1248.3516483516482,-1.0,82.45250576640805,0.4245610167928996,
2023-08-21 10:26:38.743000,-6.734939759036145,-4.46987951807229,5.409638554216868,-4.451256897608829,-6.713059472716124,5.998773758430411,3.0,0.42468642468642465,2354.678515420805,0.5975176271779028,-0.8527475088864293,-0.10652059903269108,1249.084249084249,-1.0,82.45250576640805,0.4245601915874981,
2023-08-21 10:26:38.751000,-6.734939759036145,-4.493975903614458,5.433734939759036,-4.5444512568976085,-6.610055180870631,6.015941140404659,3.0,0.42468642468642465,2354.678515420805,0.4577821805256108,-1.0452770817551427,-0.22504516053842957,1247.6190476190475,-1.0,82.45250576640805,0.42455943341503827,
2023-08-21 10:26:38.759000,-6.686746987951808,-4.518072289156627,5.421686746987952,-4.465971796443899,-6.690987124463519,6.023298589822194,3.0,0.42468642468642465,2354.678515420805,0.5774721752811607,-0.5946040440533766,-0.5560282034846455,1248.3516483516482,-1.0,82.45250576640805,0.4245587416788059,
2023-08-21 10:26:38.766000,-6.674698795180723,-4.530120481927711,5.409638554216868,-4.451256897608829,-6.639484978540772,6.0478234212139785,3.0,0.42468642468642465,2354.678515420805,0.08880601363556921,-0.5125575432667099,-0.730260474331332,1250.5494505494505,-1.0,82.45250576640805,0.4245581156649566,
2023-08-21 10:26:38.774000,-6.674698795180723,-4.542168674698796,5.421686746987952,-4.451256897608829,-6.659104843654199,6.0625383200490495,3.0,0.4242424242424242,2357.1428571428573,-0.04848202319212169,-0.5560282034846452,-0.8887593963055763,1252.7472527472526,-1.0,82.45250576640805,0.42455755440943926,
2023-08-21 10:26:38.782000,-6.674698795180723,-4.542168674698796,5.421686746987952,-4.554261189454322,-6.654199877375842,6.023298589822194,3.0,0.4242424242424242,2357.1428571428573,-0.22935726356272876,-0.32550550667210454,-0.5563778334595881,1252.7472527472526,-1.0,82.45250576640805,0.4245570568525845,
2023-08-21 10:26:38.789000,-6.710843373493976,-4.578313253012048,5.433734939759036,-4.564071122011036,-6.681177191906805,6.052728387492336,3.0,0.42468642468642465,2354.678515420805,-0.36396480391585523,0.2093118116659867,-0.6217586387739636,1255.6776556776556,-1.0,82.45250576640805,0.42455662179202114,
2023-08-21 10:26:38.797000,-6.734939759036145,-4.566265060240964,5.433734939759036,-4.583690987124463,-6.671367259350092,5.993868792152053,3.0,0.42468642468642465,2354.678515420805,-0.03671114736903465,-0.006642969523919828,0.0759862478876529,1255.6776556776556,-1.0,82.45250576640805,0.42455624789890095,
2023-08-21 10:26:38.805000,-6.746987951807229,-4.578313253012048,5.409638554216868,-4.502759043531576,-6.676272225628448,5.96934396076027,3.0,0.42468642468642465,2354.678515420805,-0.3403065089447003,0.0564069692908342,-0.16351028494843076,1255.6776556776556,-1.0,82.45250576640805,0.42455593389400537,
2023-08-21 10:26:38.812000,-6.710843373493976,-4.566265060240964,5.373493975903615,-4.5444512568976085,-6.624770079705701,5.935009196811771,3.0,0.42468642468642465,2354.678515420805,-0.8713944408833979,0.2847153429287337,-0.1597808985490366,1254.212454212454,-1.0,82.45250576640805,0.4245556784156433,
2023-08-21 10:26:38.820000,-6.698795180722892,-4.566265060240964,5.36144578313253,-4.497854077253218,-6.619865113427345,5.932556713672593,3.0,0.42468642468642465,2354.678515420805,-0.8632364081347237,0.28238447642911174,-0.15372064565002053,1254.212454212454,-1.0,82.45250576640805,0.4245554800264771,
2023-08-21 10:26:38.828000,-6.698795180722892,-4.566265060240964,5.36144578313253,-4.527283874923359,-6.656652360515021,5.89086450030656,3.0,0.42468642468642465,2354.678515420805,-1.2684575490938748,0.17574733407144158,0.0026804964745644456,1253.4798534798533,-1.0,82.45250576640805,0.42455533722049515,
2023-08-21 10:26:38.835000,-6.698795180722892,-4.626506024096386,5.373493975903615,-4.615573267933783,-6.698344573881054,5.998773758430411,3.0,0.42468642468642465,2354.678515420805,-1.564011421245849,-0.5736262455567862,0.3415884855194912,1253.4798534798533,-1.0,82.45250576640805,0.4245552484301,
2023-08-21 10:26:38.843000,-6.698795180722892,-4.63855421686747,5.397590361445784,-4.63519313304721,-6.646842427958307,5.998773758430411,3.0,0.42513042513042515,2352.219321148825,-1.5064390187052028,-0.9962123419381149,0.20569896859157383,1253.4798534798533,-1.0,82.45250576640805,0.4245552120332777,
2023-08-21 10:26:38.850000,-6.734939759036145,-4.626506024096386,5.433734939759036,-4.586143470263642,-6.698344573881054,6.006131207847946,3.0,0.42513042513042515,2352.219321148825,-1.831478352077384,-1.1083270205698965,0.5468212808111426,1260.07326007326,-1.0,82.45250576640805,0.42455522651010985,
2023-08-21 10:26:38.858000,-6.710843373493976,-4.590361445783133,5.421686746987952,-4.510116492949111,-6.624770079705701,6.042918454935622,3.0,0.42468642468642465,2354.678515420805,-1.497931355981586,-0.8088106753685689,1.191655497931356,1271.7948717948716,-1.0,82.45250576640805,0.42455529047188334,
2023-08-21 10:26:38.866000,-6.710843373493976,-4.55421686746988,5.433734939759036,-4.5444512568976085,-6.67381974248927,6.057633353770693,3.0,0.42513042513042515,2352.219321148825,-1.2873375677408068,-0.29741856535166916,0.8831653167064849,1293.7728937728937,-1.0,82.45250576640805,0.4245554023819529,
2023-08-21 10:26:38.873000,-6.72289156626506,-4.530120481927711,5.421686746987952,-4.532188841201717,-6.676272225628448,6.035561005518087,3.0,0.42513042513042515,2352.219321148825,-1.3243983450847856,-0.416409300157334,0.7589301322766746,1328.2051282051282,-1.0,82.45250576640805,0.4245555606921988,
2023-08-21 10:26:38.881000,-6.72289156626506,-4.530120481927711,5.421686746987952,-4.48068669527897,-6.744941753525445,6.03065603923973,3.0,0.42513042513042515,2352.219321148825,-1.4680962647864348,-0.2758580502301728,0.7889983101217881,1328.2051282051282,-1.0,82.45250576640805,0.4245557640111026,
2023-08-21 10:26:38.889000,-6.795180722891566,-4.542168674698796,5.409638554216868,-4.443899448191293,-6.749846719803801,6.052728387492336,3.0,0.42468642468642465,2354.678515420805,-1.2122836664530041,-0.8537963988112586,1.3218343919352016,1440.2930402930401,-1.0,82.45250576640805,0.42455601097400303,
2023-08-21 10:26:38.896000,-6.83132530120482,-4.530120481927711,5.421686746987952,-4.470876762722256,-6.798896382587369,5.993868792152053,3.0,0.42513042513042515,2352.219321148825,-1.6455917487325906,-0.4488083445020691,1.1024998543208435,1519.4139194139193,-1.0,82.45250576640805,0.42455630010282813,
2023-08-21 10:26:38.904000,-6.795180722891566,-4.506024096385542,5.397590361445784,-4.438994481912936,-6.740036787247087,6.057633353770693,3.0,0.42513042513042515,2352.219321148825,-1.466115028261757,-0.7059029194102907,1.3588951692791793,1612.4542124542124,-1.0,82.45250576640805,0.42455662994251603,
2023-08-21 10:26:38.912000,-6.819277108433735,-4.493975903614458,5.397590361445784,-4.404659717964439,-6.786633966891477,6.013488657265481,3.0,0.42513042513042515,2352.219321148825,-0.9788473865159374,-1.431501660742381,1.5066721053551655,1718.6813186813185,-1.0,82.45250576640805,0.42455699922889345,
2023-08-21 10:26:38.919000,-6.795180722891566,-4.518072289156627,5.385542168674699,-4.478234212139792,-6.762109135499693,5.96934396076027,3.0,0.42513042513042515,2352.219321148825,-1.6415127323582543,-1.47870170735971,1.409125342346017,1829.3040293040292,-1.0,82.45250576640805,0.42455740675857057,
2023-08-21 10:26:38.927000,-6.771084337349398,-4.506024096385542,5.36144578313253,-4.407112201103617,-6.749846719803801,5.961986511342734,3.0,0.42468642468642465,2354.678515420805,-0.9863061593147248,-1.5872035429170788,1.4496824194394267,1939.9267399267399,-1.0,82.45250576640805,0.42455785139744284,
2023-08-21 10:26:38.935000,-6.783132530120482,-4.493975903614458,5.397590361445784,-4.473329245861435,-6.708154506437768,5.9742489270386265,3.0,0.42513042513042515,2352.219321148825,-1.2499271604218871,-1.5124992716042185,1.4902394965328367,2044.6886446886444,-1.0,82.45250576640805,0.42455833193971804,
2023-08-21 10:26:38.942000,-6.734939759036145,-4.493975903614458,5.36144578313253,-4.448804414469651,-6.681177191906805,5.986511342734518,3.0,0.42513042513042515,2352.219321148825,-1.3905949536740276,-1.0866499621234194,1.314841792436338,2139.194139194139,-1.0,82.45250576640805,0.4245588472434213,
2023-08-21 10:26:38.950000,-6.72289156626506,-4.46987951807229,5.349397590361446,-4.451256897608829,-6.737584304107909,5.961986511342734,3.0,0.42513042513042515,2352.219321148825,-1.7300856593438603,-0.8923722393799901,1.2789464483421709,2216.117216117216,-1.0,82.45250576640805,0.42455939639715723,
2023-08-21 10:26:38.958000,-6.686746987951808,-4.493975903614458,5.349397590361446,-4.41937461679951,-6.676272225628448,5.92274678111588,3.0,0.42513042513042515,2352.219321148825,-1.884505564943767,-0.7642911252258026,0.981061709690578,2271.062271062271,-1.0,82.45250576640805,0.4245599785886854,
2023-08-21 10:26:38.965000,-6.698795180722892,-4.493975903614458,5.373493975903615,-4.500306560392397,-6.661557326793378,6.008583690987124,3.0,0.42513042513042515,2352.219321148825,-2.3119864809743014,-1.0594953674028325,1.1598391702115256,2305.494505494505,-1.0,82.45250576640805,0.42456059311190747,
2023-08-21 10:26:38.973000,-6.674698795180723,-4.493975903614458,5.397590361445784,-4.502759043531576,-6.632127529123237,5.957081545064377,3.0,0.42513042513042515,2352.219321148825,-2.1557018821746996,-1.1100751704446126,0.8473865159373,2313.5531135531132,-1.0,82.45250576640805,0.4245612392347213,
2023-08-21 10:26:38.981000,-6.674698795180723,-4.493975903614458,5.397590361445784,-4.497854077253218,-6.698344573881054,5.98405885959534,3.0,0.42513042513042515,2352.219321148825,-2.244507895810267,-1.5285822504516051,0.9962123419381154,2313.5531135531132,-1.0,82.45250576640805,0.4245619162255901,
2023-08-21 10:26:38.988000,-6.686746987951808,-4.542168674698796,5.409638554216868,-4.505211526670754,-6.703249540159411,6.023298589822194,3.0,0.42513042513042515,2352.219321148825,-2.1953266126682602,-1.4677466348114905,1.1133383835440827,2267.399267399267,743.011474609375,80.75245410112129,0.4245626235072727,
2023-08-21 10:26:38.996000,-6.710843373493976,-4.566265060240964,5.385542168674699,-4.5370938074800735,-6.610055180870631,6.0110361741263025,3.0,0.42513042513042515,2352.219321148825,-2.787599790222015,-1.2393217178486102,1.4890740632830253,2215.3846153846152,-1.0,80.75245410112129,0.42456336079971957,
2023-08-21 10:26:39.004000,-6.710843373493976,-4.566265060240964,5.397590361445784,-4.534641324340895,-6.690987124463519,5.9963212752912325,3.0,0.42513042513042515,2352.219321148825,-2.6877221607132435,-1.5471126391235945,1.7984965911077444,2147.9853479853477,-1.0,80.75245410112129,0.42456412810352256,
2023-08-21 10:26:39.011000,-6.72289156626506,-4.590361445783133,5.421686746987952,-4.5297363580625385,-6.747394236664623,6.018393623543838,3.0,0.42513042513042515,2352.219321148825,-3.031991142707301,-2.0668958685391283,2.06036944234019,2073.9926739926736,-1.0,80.75245410112129,0.424564925416641,
2023-08-21 10:26:39.019000,-6.72289156626506,-4.590361445783133,5.433734939759036,-4.54199877375843,-6.784181483752299,6.038013488657265,3.0,0.42513042513042515,2352.219321148825,-3.221257502476544,-2.413495717032806,2.2293572635627292,1994.139194139194,-1.0,80.75245410112129,0.42456575275897285,
2023-08-21 10:26:39.027000,-6.72289156626506,-4.614457831325302,5.433734939759036,-4.576333537706928,-6.649294911097486,6.023298589822194,3.0,0.42513042513042515,2352.219321148825,-3.3304585979838013,-2.695180933512031,2.656138919643378,1915.018315018315,-1.0,80.75245410112129,0.4245666104626644,
2023-08-21 10:26:39.034000,-6.710843373493976,-4.626506024096386,5.421686746987952,-4.568976088289393,-6.698344573881054,6.0698957694665845,3.0,0.42513042513042515,2352.219321148825,-3.364372705553289,-2.3808635860381093,3.1275566691917724,1839.5604395604394,-1.0,80.75245410112129,0.42456749901480056,
2023-08-21 10:26:39.042000,-6.662650602409639,-4.602409638554217,5.46987951807229,-4.5567136725935,-6.671367259350092,6.0404659717964435,3.0,0.42513042513042515,2352.219321148825,-3.381854204300449,-2.2685158207563645,3.123011479517511,1772.161172161172,-1.0,80.75245410112129,0.4245684190698782,
2023-08-21 10:26:39.050000,-6.698795180722892,-4.614457831325302,5.445783132530121,-4.549356223175965,-6.659104843654199,6.072348252605763,3.0,0.42513042513042515,2352.219321148825,-3.766447176737952,-2.6904026571878097,3.409241885670998,1711.3553113553112,-1.0,80.75245410112129,0.4245693715793543,
2023-08-21 10:26:39.057000,-6.710843373493976,-4.602409638554217,5.445783132530121,-4.568976088289393,-6.664009809932557,6.015941140404659,3.0,0.42513042513042515,2352.219321148825,-3.8570013402482375,-2.2251617038634097,3.4611036652875704,1660.07326007326,-1.0,80.75245410112129,0.4245703576437536,
2023-08-21 10:26:39.065000,-6.674698795180723,-4.626506024096386,5.397590361445784,-4.645003065603924,-6.727774371551195,6.0257510729613735,3.0,0.42513042513042515,2352.219321148825,-4.0060602528990135,-2.2952042421770296,3.466231571586738,1613.9194139194137,-1.0,80.75245410112129,0.42457137851331483,
2023-08-21 10:26:39.073000,-6.686746987951808,-4.626506024096386,5.397590361445784,-4.586143470263642,-6.67381974248927,5.964438994481912,3.0,0.42513042513042515,2352.219321148825,-4.1869354932696226,-2.19672513256803,3.732766155818426,1576.5567765567764,-1.0,80.75245410112129,0.42457243558786384,
2023-08-21 10:26:39.080000,-6.686746987951808,-4.626506024096386,5.397590361445784,-4.534641324340895,-6.671367259350092,5.96934396076027,3.0,0.42513042513042515,2352.219321148825,-4.5650020395081885,-2.1749315307965738,3.8862537148184844,1576.5567765567764,-1.0,80.75245410112129,0.4245735304158888,
2023-08-21 10:26:39.088000,-6.686746987951808,-4.602409638554217,5.373493975903615,-4.6033108522378905,-6.644389944819129,5.947271612507664,3.0,0.42513042513042515,2352.219321148825,-4.9008799021036085,-2.022259775071383,4.176330050696348,1512.8205128205127,-1.0,80.75245410112129,0.4245746648315627,
2023-08-21 10:26:39.096000,-6.698795180722892,-4.614457831325302,5.349397590361446,-4.600858369098712,-6.656652360515021,5.908031882280809,3.0,0.42513042513042515,2352.219321148825,-4.9008799021036085,-2.022259775071383,4.176330050696348,1486.4468864468863,-1.0,80.75245410112129,0.4245758409318123,
2023-08-21 10:26:39.103000,-6.759036144578314,-4.626506024096386,5.349397590361446,-4.618025751072961,-6.722869405272839,5.900674432863274,3.0,0.42513042513042515,2352.219321148825,-5.20622341355399,-2.0985956529339784,4.512207913291767,1461.5384615384614,-1.0,80.75245410112129,0.42457706078620683,
2023-08-21 10:26:39.111000,-6.72289156626506,-4.602409638554217,5.301204819277109,-4.5591661557326795,-6.708154506437768,5.903126916002452,3.0,0.42513042513042515,2352.219321148825,-5.6795058563020815,-2.06806130178894,4.496940737719248,1437.3626373626373,-1.0,80.75245410112129,0.4245783264542417,
2023-08-21 10:26:39.119000,-6.734939759036145,-4.63855421686747,5.27710843373494,-4.5370938074800735,-6.722869405272839,5.89086450030656,3.0,0.42513042513042515,2352.219321148825,-5.862711963172311,-2.4497406911019173,4.63434531787192,1416.8498168498168,-1.0,80.75245410112129,0.42457964012921906,
2023-08-21 10:26:39.126000,-6.746987951807229,-4.626506024096386,5.265060240963856,-4.534641324340895,-6.690987124463519,5.885959534028204,3.0,0.42513042513042515,2352.219321148825,-6.183322650195211,-2.6787483246897037,4.848085775887187,1398.5347985347985,-1.0,80.75245410112129,0.4245810041320213,
2023-08-21 10:26:39.134000,-6.771084337349398,-4.626506024096386,5.289156626506024,-4.576333537706928,-6.744941753525445,5.90557939914163,3.0,0.42557442557442554,2349.7652582159626,-6.53446768836315,-2.40393916438436,4.909154478177263,1386.8131868131868,-1.0,80.75245410112129,0.42458242090408616,
2023-08-21 10:26:39.142000,-6.746987951807229,-4.63855421686747,5.289156626506024,-4.546903740036787,-6.754751686082158,5.876149601471489,3.0,0.42513042513042515,2352.219321148825,-6.977215779966204,-2.8161529048423755,5.153429287337569,1381.6849816849815,-1.0,80.75245410112129,0.4245838931489031,
2023-08-21 10:26:39.149000,-6.759036144578314,-4.614457831325302,5.253012048192772,-4.645003065603924,-6.757204169221336,5.822194972409564,3.0,0.42557442557442554,2349.7652582159626,-7.023017306683761,-3.274168172017948,5.916788065963523,1381.6849816849815,-1.0,80.75245410112129,0.42458542369604224,
2023-08-21 10:26:39.157000,-6.771084337349398,-4.63855421686747,5.265060240963856,-4.554261189454322,-6.725321888412017,5.854077253218883,3.0,0.42513042513042515,2352.219321148825,-7.099353184546357,-3.3963055765981007,6.115261348406271,1383.8827838827838,-1.0,80.75245410112129,0.4245870154822381,
2023-08-21 10:26:39.165000,-6.783132530120482,-4.650602409638554,5.265060240963856,-4.6253832004904964,-6.8111587982832615,5.849172286940527,3.0,0.42557442557442554,2349.7652582159626,-7.435231047141776,-4.129130004079016,6.725948371307034,1389.7435897435896,-1.0,80.75245410112129,0.42458867155294006,
2023-08-21 10:26:39.172000,-6.783132530120482,-4.63855421686747,5.265060240963856,-4.571428571428571,-6.742489270386265,5.883507050889025,3.0,0.42513042513042515,2352.219321148825,-7.511566925004372,-4.190198706369093,6.78701707359711,1400.0,-1.0,80.75245410112129,0.42459039504222695,
2023-08-21 10:26:39.180000,-6.783132530120482,-4.63855421686747,5.265060240963856,-4.571428571428571,-6.781729000613121,5.84426732066217,3.0,0.42513042513042515,2352.219321148825,-7.725307383019639,-4.785618553697337,7.245032340772683,1400.0,-1.0,80.75245410112129,0.42459218917325614,
2023-08-21 10:26:39.188000,-6.72289156626506,-4.650602409638554,5.289156626506024,-4.6033108522378905,-6.779276517473942,5.876149601471489,3.0,0.42513042513042515,2352.219321148825,-7.816910436454753,-5.5337101567507725,7.672513256803217,1425.6410256410256,-1.0,80.75245410112129,0.4245940570878518,
2023-08-21 10:26:39.195000,-6.734939759036145,-4.63855421686747,5.301204819277109,-4.5567136725935,-6.690987124463519,5.868792152053954,3.0,0.42513042513042515,2352.219321148825,-8.412330283782998,-5.961191072781307,7.96258959268108,1438.8278388278388,-1.0,80.75245410112129,0.42459600197341674,
2023-08-21 10:26:39.203000,-6.710843373493976,-4.650602409638554,5.325301204819278,-4.5591661557326795,-6.683629675045983,5.92274678111588,3.0,0.42513042513042515,2352.219321148825,-8.030650894470021,-6.144397179651536,8.45113921100169,1449.084249084249,-1.0,80.75245410112129,0.4245980270505815,
2023-08-21 10:26:39.211000,-6.710843373493976,-4.626506024096386,5.325301204819278,-4.5885959534028204,-6.686082158185162,5.8295524218271,3.0,0.42557442557442554,2349.7652582159626,-8.19858982576773,-6.4192063399568795,8.725948371307034,1457.8754578754579,-1.0,80.75245410112129,0.4246001355603914,
2023-08-21 10:26:39.218000,-6.674698795180723,-4.63855421686747,5.349397590361446,-4.5959534028203555,-6.649294911097486,5.927651747394236,3.0,0.42513042513042515,2352.219321148825,-8.442864634928036,-6.297068935376727,8.817551424742149,1463.7362637362637,-1.0,80.75245410112129,0.4246023309003713,
2023-08-21 10:26:39.226000,-6.686746987951808,-4.63855421686747,5.313253012048193,-4.6400980993255665,-6.661557326793378,5.898221949724095,3.0,0.42513042513042515,2352.219321148825,-8.610803566225746,-6.266534584231688,9.535108676650546,1470.3296703296703,-1.0,80.75245410112129,0.42460461648351566,
2023-08-21 10:26:39.233000,-6.662650602409639,-4.63855421686747,5.337349397590362,-4.593500919681177,-6.664009809932557,6.0036787247087675,3.0,0.42513042513042515,2352.219321148825,-8.687139444088341,-6.602412446827108,9.504574325505507,1472.5274725274724,-1.0,80.75245410112129,0.4246069957042025,
2023-08-21 10:26:39.241000,-6.662650602409639,-4.626506024096386,5.373493975903615,-4.605763335377069,-6.605150214592275,6.001226241569589,3.0,0.42513042513042515,2352.219321148825,-8.977215779966203,-6.449740691101917,9.672513256803217,1471.062271062271,-1.0,80.75245410112129,0.4246094720426002,
2023-08-21 10:26:39.249000,-6.662650602409639,-4.626506024096386,5.409638554216868,-4.522378908645003,-6.664009809932557,6.006131207847946,3.0,0.42513042513042515,2352.219321148825,-9.145154711263913,-6.2054658819416115,9.199230814055126,1466.6666666666665,-1.0,80.75245410112129,0.4246120489025085,
2023-08-21 10:26:39.256000,-6.674698795180723,-4.626506024096386,5.397590361445784,-4.605763335377069,-6.607602697731453,5.966891477621091,3.0,0.42557442557442554,2349.7652582159626,-9.511566925004372,-5.793252141483596,9.672513256803217,1459.3406593406592,-1.0,80.75245410112129,0.424614729459408,
2023-08-21 10:26:39.264000,-6.674698795180723,-4.614457831325302,5.433734939759036,-4.5665236051502145,-6.715511955855303,6.0257510729613735,3.0,0.42513042513042515,2352.219321148825,-9.648971505157043,-5.777984965911077,9.474039974360469,1449.8168498168498,-1.0,80.75245410112129,0.4246175168166514,
2023-08-21 10:26:39.272000,-6.686746987951808,-4.602409638554217,5.445783132530121,-4.5812385039852845,-6.641937461679951,6.074800735744941,3.0,0.42513042513042515,2352.219321148825,-9.801643260882233,-5.8695880193461925,9.382436920925354,1437.3626373626373,-1.0,80.75245410112129,0.42462041401233863,
2023-08-21 10:26:39.279000,-6.686746987951808,-4.602409638554217,5.445783132530121,-4.615573267933783,-6.668914776210913,6.035561005518087,3.0,0.42513042513042515,2352.219321148825,-9.648971505157043,-5.365771225453062,9.29083386749024,1437.3626373626373,-1.0,80.75245410112129,0.42462342384543067,
2023-08-21 10:26:39.287000,-6.734939759036145,-4.602409638554217,5.433734939759036,-4.490496627835683,-6.713059472716124,6.001226241569589,3.0,0.42513042513042515,2352.219321148825,-9.511566925004372,-5.56424450789581,9.703047607948255,1409.5238095238094,-1.0,80.75245410112129,0.4246265489998456,
2023-08-21 10:26:39.295000,-6.771084337349398,-4.578313253012048,5.421686746987952,-4.465971796443899,-6.72041692213366,6.015941140404659,3.0,0.42557442557442554,2349.7652582159626,-9.633704329584525,-5.548977332323291,9.764116310238332,1391.9413919413919,-1.0,80.75245410112129,0.42462979202998646,
2023-08-21 10:26:39.302000,-6.795180722891566,-4.55421686746988,5.409638554216868,-4.490496627835683,-6.732679337829552,5.93746167995095,3.0,0.42557442557442554,2349.7652582159626,-9.419963871569257,-5.671114736903444,10.069459821688714,1373.6263736263736,-1.0,80.75245410112129,0.42463315549580266,
2023-08-21 10:26:39.310000,-6.759036144578314,-4.493975903614458,5.409638554216868,-4.470876762722256,-6.727774371551195,5.986511342734518,3.0,0.42557442557442554,2349.7652582159626,-9.358895169279181,-5.854320843773673,10.099994172833751,1354.5787545787546,-1.0,80.75245410112129,0.42463664197074197,
2023-08-21 10:26:39.318000,-6.746987951807229,-4.457831325301205,5.421686746987952,-4.421827099938688,-6.730226854690374,5.988963825873697,3.0,0.42557442557442554,2349.7652582159626,-9.603169978439485,-6.144397179651536,10.206864401841385,1337.7289377289376,-1.0,80.75245410112129,0.42464025375238856,
2023-08-21 10:26:39.325000,-6.72289156626506,-4.445783132530121,5.397590361445784,-4.348252605763335,-6.725321888412017,6.028203556100552,3.0,0.42557442557442554,2349.7652582159626,-9.481032573859334,-6.190198706369093,10.344268981994057,1321.6117216117216,-1.0,80.75245410112129,0.4246439928715989,
2023-08-21 10:26:39.333000,-6.72289156626506,-4.433734939759036,5.397590361445784,-4.358062538320048,-6.710606989576946,6.03065603923973,3.0,0.42557442557442554,2349.7652582159626,-9.740574558592158,-6.755084202552299,10.008391119398636,1305.4945054945053,-1.0,80.75245410112129,0.4246478613686743,
2023-08-21 10:26:39.341000,-6.72289156626506,-4.421686746987952,5.409638554216868,-4.321275291232372,-6.72041692213366,6.0110361741263025,3.0,0.42557442557442554,2349.7652582159626,-9.481032573859334,-6.480275042246955,10.038925470543676,1289.3772893772893,-1.0,80.75245410112129,0.42465186126202936,
2023-08-21 10:26:39.348000,-6.72289156626506,-4.397590361445784,5.385542168674699,-4.338442673206622,-6.649294911097486,5.993868792152053,3.0,0.42557442557442554,2349.7652582159626,-10.030650894470021,-6.327603286521764,9.901520890391003,1273.9926739926739,-1.0,80.75245410112129,0.42465599439021023,
2023-08-21 10:26:39.356000,-6.72289156626506,-4.385542168674699,5.433734939759036,-4.353157572041692,-6.698344573881054,5.9742489270386265,3.0,0.42557442557442554,2349.7652582159626,-9.954315016607424,-6.4192063399568795,9.870986539245965,1259.3406593406592,-1.0,80.75245410112129,0.4246602624040081,
2023-08-21 10:26:39.364000,-6.734939759036145,-4.409638554216868,5.421686746987952,-4.370324954015941,-6.705702023298589,5.9742489270386265,3.0,0.42557442557442554,2349.7652582159626,-10.183322650195212,-6.2054658819416115,9.64197890565818,1243.2234432234432,-1.0,80.75245410112129,0.4246646667594067,
2023-08-21 10:26:39.371000,-6.746987951807229,-4.421686746987952,5.445783132530121,-4.304107909258124,-6.749846719803801,6.104230533415082,3.0,0.42557442557442554,2349.7652582159626,-10.183322650195212,-6.2054658819416115,9.64197890565818,1229.3040293040292,-1.0,80.75245410112129,0.4246692088501327,
2023-08-21 10:26:39.379000,-6.746987951807229,-4.421686746987952,5.445783132530121,-4.40220723482526,-6.779276517473942,6.0698957694665845,3.0,0.42557442557442554,2349.7652582159626,-10.38179593263796,-6.220733057514131,9.474039974360469,1229.3040293040292,-1.0,80.75245410112129,0.42467388998195876,
2023-08-21 10:26:39.387000,-6.783132530120482,-4.397590361445784,5.457831325301205,-4.399754751686082,-6.781729000613121,6.079705702023298,3.0,0.42513042513042515,2352.219321148825,-10.076452421187577,-6.3123361109492455,9.703047607948255,1211.7216117216117,-1.0,80.75245410112129,0.4246787112202804,
2023-08-21 10:26:39.394000,-6.83132530120482,-4.421686746987952,5.433734939759036,-4.370324954015941,-6.798896382587369,6.104230533415082,3.0,0.42513042513042515,2352.219321148825,-10.335994405920403,-6.2054658819416115,9.901520890391003,1210.2564102564102,-1.0,80.75245410112129,0.42468367323839973,
2023-08-21 10:26:39.402000,-6.83132530120482,-4.433734939759036,5.46987951807229,-4.380134886572654,-6.81361128142244,6.0919681177191904,3.0,0.42557442557442554,2349.7652582159626,-9.984849367752464,-6.724549851407261,10.008391119398636,1210.2564102564102,-1.0,80.75245410112129,0.424688776293935,
2023-08-21 10:26:39.410000,-6.83132530120482,-4.409638554216868,5.481927710843374,-4.436541998773758,-6.808706315144083,6.143470263641937,3.0,0.42557442557442554,2349.7652582159626,-9.771108909737196,-7.304702523162986,10.420604859856653,1215.3846153846152,-1.0,80.75245410112129,0.42469402037542114,
2023-08-21 10:26:39.417000,-6.807228915662651,-4.409638554216868,5.46987951807229,-4.375229920294298,-6.771919068056406,6.192519926425505,3.0,0.42557442557442554,2349.7652582159626,-9.71004020744712,-7.945923897208788,10.542742264436805,1221.9780219780218,-1.0,80.75245410112129,0.4246994053811483,
2023-08-21 10:26:39.425000,-6.783132530120482,-4.385542168674699,5.493975903614458,-4.309012875536481,-6.76701410177805,6.1287553648068664,3.0,0.42557442557442554,2349.7652582159626,-9.450498222714295,-8.113862828506498,10.924421653749782,1227.8388278388277,-1.0,80.75245410112129,0.4247049311080751,
2023-08-21 10:26:39.433000,-6.746987951807229,-4.385542168674699,5.530120481927711,-4.321275291232372,-6.676272225628448,6.1287553648068664,3.0,0.42557442557442554,2349.7652582159626,-9.252024940271546,-8.449740691101917,10.95495600489482,1233.6996336996335,-1.0,80.75245410112129,0.4247105969647515,
2023-08-21 10:26:39.440000,-6.72289156626506,-4.397590361445784,5.55421686746988,-4.304107909258124,-6.668914776210913,6.153280196198651,3.0,0.42557442557442554,2349.7652582159626,-9.52683410057689,-8.465007866674437,10.680146844589476,1238.095238095238,-1.0,80.75245410112129,0.4247164021321255,
2023-08-21 10:26:39.448000,-6.662650602409639,-4.373493975903615,5.578313253012048,-4.304107909258124,-6.671367259350092,6.194972409564684,3.0,0.42557442557442554,2349.7652582159626,-9.297826466989104,-8.190198706369094,10.420604859856653,1241.0256410256409,-1.0,80.75245410112129,0.42472234555478977,
2023-08-21 10:26:39.456000,-6.674698795180723,-4.373493975903615,5.566265060240964,-4.311465358675659,-6.690987124463519,6.138565297363581,3.0,0.42557442557442554,2349.7652582159626,-9.343627993706662,-8.022259775071383,10.191597226268867,1241.7582417582416,-1.0,80.75245410112129,0.42472842581533504,
2023-08-21 10:26:39.463000,-6.686746987951808,-4.373493975903615,5.542168674698796,-4.345800122624157,-6.717964438994482,6.187614960147148,3.0,0.42557442557442554,2349.7652582159626,-9.252024940271546,-7.274168172017948,9.718314783520775,1241.7582417582416,-1.0,80.75245410112129,0.4247346412862867,
2023-08-21 10:26:39.471000,-6.710843373493976,-4.397590361445784,5.542168674698796,-4.370324954015941,-6.668914776210913,6.143470263641937,3.0,0.42557442557442554,2349.7652582159626,-9.633704329584525,-7.0756948895752,9.199230814055126,1239.5604395604396,-1.0,80.75245410112129,0.42474099013359606,
2023-08-21 10:26:39.479000,-6.710843373493976,-4.397590361445784,5.542168674698796,-4.389944819129369,-6.688534641324341,6.138565297363581,3.0,0.42557442557442554,2349.7652582159626,-9.221490589126509,-6.755084202552299,8.939688829322302,1239.5604395604396,-1.0,80.75245410112129,0.42474747032096033,
2023-08-21 10:26:39.486000,-6.698795180722892,-4.445783132530121,5.518072289156627,-4.387492335990189,-6.681177191906805,6.153280196198651,3.0,0.42557442557442554,2349.7652582159626,-8.763475321950937,-6.40393916438436,8.863352951459706,1245.4212454212454,-1.0,80.75245410112129,0.4247540796149422,
2023-08-21 10:26:39.494000,-6.72289156626506,-4.445783132530121,5.55421686746988,-4.397302268546904,-6.698344573881054,6.18516247700797,3.0,0.42557442557442554,2349.7652582159626,-8.748208146378417,-6.098595652933978,8.2984674552765,1250.5494505494505,-1.0,80.75245410112129,0.4247608157296041,
2023-08-21 10:26:39.502000,-6.698795180722892,-4.445783132530121,5.530120481927711,-4.377682403433476,-6.624770079705701,6.194972409564684,3.0,0.42557442557442554,2349.7652582159626,-8.442864634928036,-5.716916263621001,8.206864401841385,1254.9450549450548,-1.0,80.75245410112129,0.4247676761739973,
2023-08-21 10:26:39.509000,-6.674698795180723,-4.445783132530121,5.530120481927711,-4.326180257510729,-6.637032495401594,6.172900061312078,3.0,0.42557442557442554,2349.7652582159626,-8.274925703630325,-5.457374278888177,7.565643027795584,1258.6080586080586,-1.0,80.75245410112129,0.42477465827060235,
2023-08-21 10:26:39.517000,-6.698795180722892,-4.409638554216868,5.530120481927711,-4.382587369711833,-6.713059472716124,6.138565297363581,3.0,0.42557442557442554,2349.7652582159626,-7.755841734164677,-5.319969698735505,7.382436920925355,1263.003663003663,-1.0,80.75245410112129,0.42478175915325067,
2023-08-21 10:26:39.525000,-6.686746987951808,-4.409638554216868,5.518072289156627,-4.409564684242795,-6.668914776210913,6.133660331085223,3.0,0.42557442557442554,2349.7652582159626,-7.328360818134143,-5.167297943010314,7.260299516345202,1266.6666666666665,-1.0,80.75245410112129,0.4247889756478634,
2023-08-21 10:26:39.532000,-6.686746987951808,-4.409638554216868,5.518072289156627,-4.387492335990189,-6.656652360515021,6.167995095033722,3.0,0.42557442557442554,2349.7652582159626,-6.839811199813532,-4.73981702697978,7.000757531612377,1270.3296703296703,-1.0,80.75245410112129,0.42479630456919903,
2023-08-21 10:26:39.540000,-6.710843373493976,-4.409638554216868,5.481927710843374,-4.333537706928265,-6.632127529123237,6.0625383200490495,3.0,0.42513042513042515,2352.219321148825,-6.717673795233379,-4.6482139735446655,6.725948371307034,1273.260073260073,-1.0,80.75245410112129,0.42480374270967863,
2023-08-21 10:26:39.548000,-6.710843373493976,-4.409638554216868,5.493975903614458,-4.394849785407725,-6.678724708767627,6.12385039852851,3.0,0.42557442557442554,2349.7652582159626,-6.778742497523456,-4.5413437445370315,6.4206048598566525,1276.1904761904761,-1.0,80.75245410112129,0.4248112865517488,
2023-08-21 10:26:39.555000,-6.698795180722892,-4.421686746987952,5.506024096385542,-4.397302268546904,-6.659104843654199,6.12385039852851,3.0,0.42557442557442554,2349.7652582159626,-6.5650020395081885,-4.4192063399568795,6.267933104131462,1278.3882783882782,-1.0,80.75245410112129,0.4248189324064475,
2023-08-21 10:26:39.563000,-6.686746987951808,-4.409638554216868,5.518072289156627,-4.365419987737584,-6.646842427958307,6.145922746781116,3.0,0.42557442557442554,2349.7652582159626,-6.244391352485287,-4.3123361109492455,5.886253714818484,1280.5860805860805,-1.0,80.75245410112129,0.4248266765836267,
2023-08-21 10:26:39.571000,-6.686746987951808,-4.397590361445784,5.493975903614458,-4.375229920294298,-6.664009809932557,6.126302881667688,3.0,0.42557442557442554,2349.7652582159626,-6.290192879202845,-3.9153895460637496,5.657246081230698,1286.4468864468863,-1.0,80.75245410112129,0.4248345151256406,
2023-08-21 10:26:39.578000,-6.698795180722892,-4.385542168674699,5.518072289156627,-4.326180257510729,-6.678724708767627,6.141017780502759,3.0,0.42557442557442554,2349.7652582159626,-5.969582192179944,-3.777984965911078,5.6419789056581795,1295.970695970696,-1.0,80.75245410112129,0.42484244397770116,
2023-08-21 10:26:39.586000,-6.698795180722892,-4.385542168674699,5.518072289156627,-4.338442673206622,-6.62722256284488,6.133660331085223,3.0,0.42557442557442554,2349.7652582159626,-5.511566925004372,-3.487908630033215,5.428238447642912,1295.970695970696,-1.0,80.75245410112129,0.424850458987959,
2023-08-21 10:26:39.593000,-6.686746987951808,-4.385542168674699,5.506024096385542,-4.335990190067443,-6.686082158185162,6.0919681177191904,3.0,0.42557442557442554,2349.7652582159626,-5.862711963172311,-3.045160538430162,5.290833867490241,1342.8571428571427,-1.0,80.75245410112129,0.42485855592869026,
2023-08-21 10:26:39.601000,-6.686746987951808,-4.385542168674699,5.518072289156627,-4.338442673206622,-6.742489270386265,6.067443286327406,3.0,0.42557442557442554,2349.7652582159626,-5.572635627294448,-2.541343744537032,5.260299516345202,1386.080586080586,-1.0,80.75245410112129,0.42486673049641055,
2023-08-21 10:26:39.609000,-6.734939759036145,-4.373493975903615,5.506024096385542,-4.301655426118945,-6.693439607602698,6.10913549969344,3.0,0.42557442557442554,2349.7652582159626,-5.328360818134143,-2.2970689353767266,5.13816211176505,1446.8864468864467,-1.0,80.75245410112129,0.4248749781942503,
2023-08-21 10:26:39.616000,-6.759036144578314,-4.337349397590362,5.506024096385542,-4.316370324954016,-6.713059472716124,6.143470263641937,3.0,0.42557442557442554,2349.7652582159626,-5.099353184546357,-2.1138628285064978,5.1992308140551255,1523.8095238095236,-1.0,80.75245410112129,0.4248832944910408,
2023-08-21 10:26:39.624000,-6.72289156626506,-4.325301204819278,5.518072289156627,-4.291845493562231,-6.644389944819129,6.148375229920294,3.0,0.42557442557442554,2349.7652582159626,-4.748208146378418,-2.3123361109492455,4.725948371307035,1615.3846153846152,-1.0,80.75245410112129,0.4248916748310604,
2023-08-21 10:26:39.632000,-6.72289156626506,-4.337349397590362,5.542168674698796,-4.230533415082771,-6.710606989576946,6.175352544451257,3.0,0.42557442557442554,2349.7652582159626,-4.427597459355517,-1.7779849659110778,4.267933104131462,1718.6813186813185,-1.0,80.75245410112129,0.4249001146436913,
2023-08-21 10:26:39.639000,-6.759036144578314,-4.337349397590362,5.566265060240964,-4.24770079705702,-6.742489270386265,6.126302881667688,3.0,0.42557442557442554,2349.7652582159626,-4.000116543324983,-1.7321834391935205,3.9778567682535995,1827.106227106227,-1.0,80.75245410112129,0.4249086093529502,
2023-08-21 10:26:39.647000,-6.759036144578314,-4.313253012048193,5.566265060240964,-4.277130594727161,-6.727774371551195,6.197424892703863,3.0,0.42557442557442554,2349.7652582159626,-4.000116543324983,-1.7321834391935205,3.9778567682535995,1932.6007326007325,-1.0,80.75245410112129,0.42491715438684646,
2023-08-21 10:26:39.655000,-6.759036144578314,-4.313253012048193,5.542168674698796,-4.318822808093194,-6.690987124463519,6.160637645616186,3.0,0.42557442557442554,2349.7652582159626,-3.8474447875997915,-1.457374278888177,3.7946506613833697,2030.7692307692307,-1.0,80.75245410112129,0.4249257453252836,
2023-08-21 10:26:39.662000,-6.746987951807229,-4.313253012048193,5.518072289156627,-4.255058246474555,-6.747394236664623,6.138565297363581,3.0,0.42557442557442554,2349.7652582159626,-3.6642386807295626,-1.2283666453003907,3.5656430277955837,2115.0183150183148,-1.0,80.75245410112129,0.42493437774983495,
2023-08-21 10:26:39.670000,-6.759036144578314,-4.325301204819278,5.578313253012048,-4.29429797670141,-6.676272225628448,6.150827713059472,3.0,0.42557442557442554,2349.7652582159626,-3.557368451721929,-1.3199696987355052,2.8633529514597056,2180.9523809523807,-1.0,80.75245410112129,0.4249430471247543,
2023-08-21 10:26:39.678000,-6.746987951807229,-4.337349397590362,5.566265060240964,-4.301655426118945,-6.708154506437768,6.155732679337829,3.0,0.42557442557442554,2349.7652582159626,-3.4199638715692573,-1.1825651185828334,2.8022842491696296,2226.3736263736264,-1.0,80.75245410112129,0.42495174909312705,
2023-08-21 10:26:39.685000,-6.746987951807229,-4.337349397590362,5.566265060240964,-4.206008583690987,-6.661557326793378,6.150827713059472,3.0,0.42557442557442554,2349.7652582159626,-3.0840860089738373,-0.90775595827749,2.4511392110016903,2226.3736263736264,-1.0,80.75245410112129,0.4249604794642521,
2023-08-21 10:26:39.693000,-6.734939759036145,-4.313253012048193,5.518072289156627,-4.257510729613734,-6.742489270386265,6.212139791538933,3.0,0.42557442557442554,2349.7652582159626,-2.3359944059204025,-0.9840918361400854,1.993123943826118,2241.0256410256407,-1.0,80.75245410112129,0.42496923393428204,
2023-08-21 10:26:39.701000,-6.746987951807229,-4.349397590361446,5.55421686746988,-4.252605763335377,-6.708154506437768,6.180257510729613,3.0,0.42557442557442554,2349.7652582159626,-2.3817959326379596,-0.556610920109551,1.428238447642912,2214.6520146520147,-1.0,80.75245410112129,0.4249780082534391,
2023-08-21 10:26:39.708000,-6.746987951807229,-4.325301204819278,5.55421686746988,-4.284488044144696,-6.683629675045983,6.167995095033722,3.0,0.42557442557442554,2349.7652582159626,-2.152788299050173,-0.6024124468271084,1.061826233902454,2169.96336996337,-1.0,80.75245410112129,0.42498679822234015,
2023-08-21 10:26:39.716000,-6.759036144578314,-4.337349397590362,5.566265060240964,-4.259963212752912,-6.681177191906805,6.138565297363581,3.0,0.42557442557442554,2349.7652582159626,-1.9848493677524635,-0.09859565293397857,0.8480857758871867,2113.5531135531132,-1.0,80.75245410112129,0.42499559957010163,
2023-08-21 10:26:39.724000,-6.746987951807229,-4.337349397590362,5.566265060240964,-4.291845493562231,-6.742489270386265,6.141017780502759,3.0,0.42601842601842593,2347.3163105784265,-1.6031699784394864,-0.022259775071383155,0.20686440184138524,2048.3516483516482,-1.0,80.75245410112129,0.42500440810869766,
2023-08-21 10:26:39.731000,-6.759036144578314,-4.349397590361446,5.542168674698796,-4.274678111587982,-6.72041692213366,6.163090128755364,3.0,0.42557442557442554,2349.7652582159626,-1.2520249402715473,0.22201503408892218,0.3137346308490188,1977.2893772893772,-1.0,80.75245410112129,0.42501321988684826,
2023-08-21 10:26:39.739000,-6.746987951807229,-4.36144578313253,5.542168674698796,-4.318822808093194,-6.717964438994482,6.141017780502759,3.0,0.42557442557442554,2349.7652582159626,-1.2367577646990284,0.5273585455393038,-0.11374628518151551,1901.8315018315018,-1.0,80.75245410112129,0.4250220310667253,
2023-08-21 10:26:39.747000,-6.759036144578314,-4.349397590361446,5.55421686746988,-4.316370324954016,-6.72041692213366,6.158185162477007,3.0,0.42557442557442554,2349.7652582159626,-0.6871394440883414,0.374686789814113,-0.3427539187693018,1830.7692307692307,-1.0,80.75245410112129,0.42503083776865747,
2023-08-21 10:26:39.754000,-6.771084337349398,-4.349397590361446,5.566265060240964,-4.250153280196199,-6.715511955855303,6.131207847946045,3.0,0.42557442557442554,2349.7652582159626,-0.6718722685158223,0.8174348814171665,-0.37328826991433994,1763.3699633699632,773.651123046875,77.55433710701747,0.4250396362132309,
2023-08-21 10:26:39.762000,-6.759036144578314,-4.373493975903615,5.55421686746988,-4.335990190067443,-6.7743715511955855,6.0993255671367255,3.0,0.42557442557442554,2349.7652582159626,-0.641337917370784,0.6952974768370138,-0.5870287279296071,1700.3663003663003,-1.0,77.55433710701747,0.42504842272415444,
2023-08-21 10:26:39.770000,-6.734939759036145,-4.385542168674699,5.542168674698796,-4.3408951563458,-6.676272225628448,6.12385039852851,3.0,0.42557442557442554,2349.7652582159626,0.13728803682768917,0.8021677058446474,-0.6022959035021261,1642.4908424908424,-1.0,77.55433710701747,0.4250571937306409,
2023-08-21 10:26:39.777000,-6.746987951807229,-4.397590361445784,5.55421686746988,-4.311465358675659,-6.737584304107909,6.155732679337829,3.0,0.42557442557442554,2349.7652582159626,0.07621933453761284,1.0311753394324337,-0.571761552357088,1592.6739926739926,-1.0,77.55433710701747,0.4250659457693083,
2023-08-21 10:26:39.785000,-6.746987951807229,-4.397590361445784,5.55421686746988,-4.404659717964439,-6.664009809932557,6.1287553648068664,3.0,0.42557442557442554,2349.7652582159626,0.5647689528582235,1.5044577821805252,-1.0908455218227369,1592.6739926739926,-1.0,77.55433710701747,0.4250746754856103,
2023-08-21 10:26:39.793000,-6.698795180722892,-4.409638554216868,5.530120481927711,-4.3408951563458,-6.644389944819129,6.163090128755364,3.0,0.42557442557442554,2349.7652582159626,0.7937765864460098,1.9777402249286167,-1.0450439951051795,1518.6813186813185,-1.0,77.55433710701747,0.4250833796348034,
2023-08-21 10:26:39.800000,-6.698795180722892,-4.397590361445784,5.530120481927711,-4.318822808093194,-6.661557326793378,6.12385039852851,3.0,0.42557442557442554,2349.7652582159626,0.9617155177437197,1.5197249577530443,-1.2893188042654848,1490.10989010989,-1.0,77.55433710701747,0.42509205508245995,
2023-08-21 10:26:39.808000,-6.686746987951808,-4.433734939759036,5.530120481927711,-4.389944819129369,-6.688534641324341,6.079705702023298,3.0,0.42557442557442554,2349.7652582159626,1.0838529223238724,1.9014043470660213,-0.8313035370899124,1462.2710622710622,-1.0,77.55433710701747,0.42510069880454804,
2023-08-21 10:26:39.816000,-6.698795180722892,-4.433734939759036,5.481927710843374,-4.353157572041692,-6.683629675045983,6.121397915389331,3.0,0.42557442557442554,2349.7652582159626,1.205990326904025,2.222015034088922,-1.151914224112813,1436.6300366300366,-1.0,77.55433710701747,0.4251093078870852,
2023-08-21 10:26:39.823000,-6.686746987951808,-4.433734939759036,5.518072289156627,-4.375229920294298,-6.671367259350092,6.118945432250153,3.0,0.42557442557442554,2349.7652582159626,1.7098071207971548,2.4357554921041893,-1.5335936134257904,1410.989010989011,-1.0,77.55433710701747,0.4251178795253906,
2023-08-21 10:26:39.831000,-6.710843373493976,-4.445783132530121,5.518072289156627,-4.443899448191293,-6.610055180870631,6.0478234212139785,3.0,0.42557442557442554,2349.7652582159626,1.3281277314841777,2.405221140959151,-1.655731018005943,1388.278388278388,-1.0,77.55433710701747,0.42512641102295406,
2023-08-21 10:26:39.839000,-6.686746987951808,-4.445783132530121,5.481927710843374,-4.41937461679951,-6.619865113427345,6.0404659717964435,3.0,0.42557442557442554,2349.7652582159626,1.725074296369674,2.9243051104248,-1.6099294912883857,1367.7655677655678,-1.0,77.55433710701747,0.4251348999286884,
2023-08-21 10:26:39.846000,-6.710843373493976,-4.457831325301205,5.46987951807229,-4.377682403433476,-6.693439607602698,6.038013488657265,3.0,0.42513042513042515,2352.219321148825,1.725074296369674,3.336518850882815,-1.7778684225860957,1350.9157509157508,-1.0,77.55433710701747,0.4251433438759661,
2023-08-21 10:26:39.854000,-6.72289156626506,-4.46987951807229,5.46987951807229,-4.40220723482526,-6.700797057020233,6.067443286327406,3.0,0.42557442557442554,2349.7652582159626,1.6640055940795975,3.1533127440125863,-1.9152730027387674,1337.7289377289376,-1.0,77.55433710701747,0.4251517404423106,
2023-08-21 10:26:39.862000,-6.734939759036145,-4.457831325301205,5.46987951807229,-4.446351931330472,-6.730226854690374,6.052728387492336,3.0,0.42557442557442554,2349.7652582159626,1.8777460520948648,3.290717324165258,-1.7626012470135766,1329.6703296703297,-1.0,77.55433710701747,0.4251600874030908,
2023-08-21 10:26:39.869000,-6.771084337349398,-4.46987951807229,5.46987951807229,-4.3408951563458,-6.73513182096873,6.0551808706315144,3.0,0.42557442557442554,2349.7652582159626,1.725074296369674,3.42812190431793,-1.9152730027387674,1326.007326007326,-1.0,77.55433710701747,0.42516838273956326,
2023-08-21 10:26:39.877000,-6.783132530120482,-4.46987951807229,5.481927710843374,-4.456161863887186,-6.801348865726548,6.067443286327406,3.0,0.42557442557442554,2349.7652582159626,1.7861429986597501,3.2296486218751816,-1.9610745294563245,1327.4725274725274,-1.0,77.55433710701747,0.42517662435915704,
2023-08-21 10:26:39.885000,-6.783132530120482,-4.46987951807229,5.481927710843374,-4.331085223789086,-6.793991416309012,6.101778050275904,3.0,0.42557442557442554,2349.7652582159626,2.2441582658353227,2.909037934852281,-2.20534933861663,1327.4725274725274,-1.0,77.55433710701747,0.42518481025199384,
2023-08-21 10:26:39.892000,-6.783132530120482,-4.46987951807229,5.506024096385542,-4.424279583077866,-6.796443899448191,6.0772532188841195,3.0,0.42557442557442554,2349.7652582159626,2.5953033040032616,2.741099003554571,-2.3427539187693016,1341.3919413919414,-1.0,77.55433710701747,0.42519293847678674,
2023-08-21 10:26:39.900000,-6.783132530120482,-4.445783132530121,5.46987951807229,-4.424279583077866,-6.7743715511955855,6.089515634580012,3.0,0.42557442557442554,2349.7652582159626,2.79377658644601,2.954839461569838,-1.9763417050288437,1351.6483516483515,-1.0,77.55433710701747,0.42520100716758946,
2023-08-21 10:26:39.908000,-6.759036144578314,-4.433734939759036,5.445783132530121,-4.385039852851011,-6.725321888412017,6.0331085223789085,3.0,0.42557442557442554,2349.7652582159626,2.5953033040032616,2.6647631256919757,-2.281685216479225,1364.102564102564,-1.0,77.55433710701747,0.42520901451929544,
2023-08-21 10:26:39.915000,-6.734939759036145,-4.409638554216868,5.445783132530121,-4.360515021459228,-6.708154506437768,6.0453709380748,3.0,0.42557442557442554,2349.7652582159626,2.885379639881124,2.6342287745469375,-2.2664180409067063,1375.8241758241757,-1.0,77.55433710701747,0.42521695865531556,
2023-08-21 10:26:39.923000,-6.734939759036145,-4.433734939759036,5.457831325301205,-4.338442673206622,-6.708154506437768,6.052728387492336,3.0,0.42557442557442554,2349.7652582159626,2.885379639881124,2.6342287745469375,-2.2664180409067063,1386.8131868131868,-1.0,77.55433710701747,0.4252248377719659,
2023-08-21 10:26:39.931000,-6.759036144578314,-4.421686746987952,5.457831325301205,-4.389944819129369,-6.740036787247087,6.079705702023298,3.0,0.42557442557442554,2349.7652582159626,2.9617155177437198,2.4968241943942657,-2.6328302546471645,1393.4065934065934,-1.0,77.55433710701747,0.4252326501336013,
2023-08-21 10:26:39.938000,-6.734939759036145,-4.433734939759036,5.457831325301205,-4.380134886572654,-6.688534641324341,6.060085836909871,3.0,0.42557442557442554,2349.7652582159626,2.8090437620185287,2.909037934852281,-2.6022959035021263,1397.069597069597,-1.0,77.55433710701747,0.42524039420657533,
2023-08-21 10:26:39.946000,-6.734939759036145,-4.433734939759036,5.445783132530121,-4.392397302268547,-6.710606989576946,6.064990803188228,3.0,0.42557442557442554,2349.7652582159626,2.839578113163567,3.0769768661499906,-2.8923722393799887,1397.069597069597,-1.0,77.55433710701747,0.42524806849544483,
2023-08-21 10:26:39.954000,-6.746987951807229,-4.457831325301205,5.457831325301205,-4.404659717964439,-6.75229920294298,6.1066830165542605,3.0,0.42557442557442554,2349.7652582159626,3.0991200978963915,3.0159081638599146,-2.999242468387622,1395.6043956043954,-1.0,77.55433710701747,0.4252556714108435,
2023-08-21 10:26:39.961000,-6.759036144578314,-4.46987951807229,5.421686746987952,-4.473329245861435,-6.771919068056406,5.9963212752912325,3.0,0.42557442557442554,2349.7652582159626,3.4502651360643304,3.4433890798904487,-2.922906590525027,1391.9413919413919,-1.0,77.55433710701747,0.4252632014142593,
2023-08-21 10:26:39.969000,-6.771084337349398,-4.445783132530121,5.457831325301205,-4.409564684242795,-6.764561618638871,6.064990803188228,3.0,0.42513042513042515,2352.219321148825,3.3586620826292157,3.870869995920983,-3.2282501019754086,1389.0109890109889,-1.0,77.55433710701747,0.42527065701374206,
2023-08-21 10:26:39.976000,-6.783132530120482,-4.481927710843374,5.445783132530121,-4.461066830165542,-6.749846719803801,6.042918454935622,3.0,0.42557442557442554,2349.7652582159626,3.2975933803391393,3.8861371714935022,-3.564127964570828,1383.150183150183,-1.0,77.55433710701747,0.42527803661057834,
2023-08-21 10:26:39.984000,-6.783132530120482,-4.481927710843374,5.445783132530121,-4.412017167381974,-6.72041692213366,6.006131207847946,3.0,0.42557442557442554,2349.7652582159626,3.434997960491811,4.115144805081289,-3.6251966668609046,1383.150183150183,-1.0,77.55433710701747,0.425285338622965,
2023-08-21 10:26:39.992000,-6.783132530120482,-4.46987951807229,5.457831325301205,-4.421827099938688,-6.757204169221336,6.052728387492336,3.0,0.42557442557442554,2349.7652582159626,3.4807994872093686,4.222015034088922,-3.564127964570828,1368.4981684981683,-1.0,77.55433710701747,0.4252925616415193,
2023-08-21 10:26:39.999000,-6.819277108433735,-4.46987951807229,5.421686746987952,-4.380134886572654,-6.820968730839975,6.03065603923973,3.0,0.42513042513042515,2352.219321148825,3.7098071207971546,4.08461045393625,-3.4114562088456375,1359.7069597069597,-1.0,77.55433710701747,0.4252997042872606,
2023-08-21 10:26:40.007000,-6.807228915662651,-4.457831325301205,5.421686746987952,-4.49540159411404,-6.732679337829552,6.023298589822194,3.0,0.42557442557442554,2349.7652582159626,3.8319445253773075,3.672396713478235,-3.335120330983042,1348.7179487179487,-1.0,77.55433710701747,0.42530676519816396,
2023-08-21 10:26:40.015000,-6.783132530120482,-4.481927710843374,5.433734939759036,-4.397302268546904,-6.7743715511955855,6.0453709380748,3.0,0.42557442557442554,2349.7652582159626,4.015150632247536,3.3670532020278534,-3.4419905599906757,1335.5311355311355,-1.0,77.55433710701747,0.4253137431336916,
2023-08-21 10:26:40.022000,-6.783132530120482,-4.481927710843374,5.445783132530121,-4.429184549356223,-6.722869405272839,6.042918454935622,3.0,0.42557442557442554,2349.7652582159626,4.534234601713186,3.0006409882873952,-3.2740516286929657,1321.6117216117216,-1.0,77.55433710701747,0.4253206369836353,
2023-08-21 10:26:40.030000,-6.783132530120482,-4.46987951807229,5.457831325301205,-4.375229920294298,-6.784181483752299,6.0478234212139785,3.0,0.42557442557442554,2349.7652582159626,4.518967426140666,2.4357554921041893,-3.182448575257851,1308.4249084249084,-1.0,77.55433710701747,0.42532744548985757,
2023-08-21 10:26:40.038000,-6.771084337349398,-4.457831325301205,5.445783132530121,-4.429184549356223,-6.727774371551195,6.072348252605763,3.0,0.42557442557442554,2349.7652582159626,4.793776586446009,1.3823203776003725,-2.70916613250976,1298.168498168498,-1.0,77.55433710701747,0.42533416726614975,
2023-08-21 10:26:40.045000,-6.734939759036145,-4.481927710843374,5.433734939759036,-4.429184549356223,-6.700797057020233,6.060085836909871,3.0,0.42557442557442554,2349.7652582159626,4.7785094108734905,0.7563661791270901,-3.182448575257851,1287.9120879120878,-1.0,77.55433710701747,0.42534080094595833,
2023-08-21 10:26:40.053000,-6.698795180722892,-4.46987951807229,5.457831325301205,-4.387492335990189,-6.703249540159411,6.10913549969344,3.0,0.42557442557442554,2349.7652582159626,4.686906357438376,1.473923431035487,-3.090845521822737,1279.8534798534797,-1.0,77.55433710701747,0.4253473451812752,
2023-08-21 10:26:40.061000,-6.72289156626506,-4.481927710843374,5.493975903614458,-4.40220723482526,-6.646842427958307,6.0698957694665845,3.0,0.42557442557442554,2349.7652582159626,4.7785094108734905,2.023541751646174,-3.6251966668609046,1273.9926739926739,-1.0,77.55433710701747,0.4253537986419947,
2023-08-21 10:26:40.068000,-6.698795180722892,-4.506024096385542,5.493975903614458,-4.461066830165542,-6.637032495401594,6.087063151440834,3.0,0.42557442557442554,2349.7652582159626,4.870112464308605,2.359419614241594,-3.7473340714410575,1271.7948717948716,-1.0,77.55433710701747,0.42536016001573906,
2023-08-21 10:26:40.076000,-6.72289156626506,-4.542168674698796,5.481927710843374,-4.429184549356223,-6.695892090741876,6.067443286327406,3.0,0.42557442557442554,2349.7652582159626,5.343394907056696,2.4815570188217464,-4.067944758463958,1267.3992673992673,-1.0,77.55433710701747,0.4253664280081541,
2023-08-21 10:26:40.084000,-6.72289156626506,-4.542168674698796,5.481927710843374,-4.465971796443899,-6.725321888412017,6.0625383200490495,3.0,0.42557442557442554,2349.7652582159626,5.61820406736204,3.168579919585105,-4.174814987471591,1267.3992673992673,-1.0,77.55433710701747,0.42537260148241673,
2023-08-21 10:26:40.091000,-6.674698795180723,-4.55421686746988,5.457831325301205,-4.478234212139792,-6.61250766400981,6.074800735744941,3.0,0.42513042513042515,2352.219321148825,5.160188800186468,3.687663889050754,-3.930540178311286,1262.2710622710622,-1.0,77.55433710701747,0.42537867930132284,
2023-08-21 10:26:40.099000,-6.662650602409639,-4.578313253012048,5.421686746987952,-4.534641324340895,-6.683629675045983,6.0404659717964435,3.0,0.42557442557442554,2349.7652582159626,5.5571353650719635,3.993007400501136,-3.915273002738767,1260.07326007326,-1.0,77.55433710701747,0.4253846600520397,
2023-08-21 10:26:40.107000,-6.63855421686747,-4.578313253012048,5.397590361445784,-4.564071122011036,-6.622317596566523,5.959534028203556,3.0,0.42557442557442554,2349.7652582159626,5.175455975758987,4.6952974768370135,-4.20534933861663,1257.142857142857,-1.0,77.55433710701747,0.4253905423247098,
2023-08-21 10:26:40.114000,-6.650602409638554,-4.566265060240964,5.349397590361446,-4.497854077253218,-6.600245248313917,5.89086450030656,3.0,0.42557442557442554,2349.7652582159626,4.976982693316239,5.183847095157624,-4.373288269914339,1254.9450549450548,-1.0,77.55433710701747,0.4253963248736896,
2023-08-21 10:26:40.122000,-6.63855421686747,-4.55421686746988,5.313253012048193,-4.519926425505824,-6.624770079705701,5.900674432863274,3.0,0.42557442557442554,2349.7652582159626,4.854845288736086,5.901404347066022,-4.403822621059377,1252.014652014652,-1.0,77.55433710701747,0.42540200648130927,
2023-08-21 10:26:40.130000,-6.662650602409639,-4.590361445783133,5.27710843373494,-4.532188841201717,-6.617412630288166,5.861434702636419,3.0,0.42557442557442554,2349.7652582159626,4.183089563545246,6.374686789814112,-4.938173766097545,1248.3516483516482,-1.0,77.55433710701747,0.4254075859607543,
2023-08-21 10:26:40.137000,-6.710843373493976,-4.602409638554217,5.27710843373494,-4.522378908645003,-6.708154506437768,5.888412017167382,3.0,0.42557442557442554,2349.7652582159626,3.95408192995746,6.649495950119456,-5.045043995105179,1246.8864468864467,-1.0,77.55433710701747,0.4254130621593024,
2023-08-21 10:26:40.145000,-6.759036144578314,-4.602409638554217,5.240963855421687,-4.5444512568976085,-6.730226854690374,5.802575107296137,3.0,0.42557442557442554,2349.7652582159626,3.6334712429345593,6.191480682943884,-5.579395140143347,1247.6190476190475,-1.0,77.55433710701747,0.42541843396188234,
2023-08-21 10:26:40.153000,-6.783132530120482,-4.626506024096386,5.253012048192772,-4.608215818516247,-6.757204169221336,5.79767014101778,3.0,0.42468642468642465,2354.678515420805,3.1296544490414293,5.657129537905716,-5.426723384418156,1249.084249084249,-1.0,77.55433710701747,0.4254237002949297,
2023-08-21 10:26:40.160000,-6.819277108433735,-4.626506024096386,5.240963855421687,-4.6106683016554255,-6.808706315144083,5.79767014101778,3.0,0.42513042513042515,2352.219321148825,2.6869063574383762,4.863236408134724,-4.877105063807469,1256.4102564102564,-1.0,77.55433710701747,0.4254288599706676,
2023-08-21 10:26:40.168000,-6.807228915662651,-4.626506024096386,5.216867469879518,-4.6327406499080315,-6.855303494788473,5.780502759043531,3.0,0.42513042513042515,2352.219321148825,2.4120971971330327,4.496824194394265,-4.800769185944874,1264.4688644688645,-1.0,77.55433710701747,0.42543391177661544,
2023-08-21 10:26:40.176000,-6.843373493975904,-4.674698795180723,5.265060240963856,-4.6033108522378905,-6.825873697118332,5.836909871244635,3.0,0.42513042513042515,2352.219321148825,1.9693491055299792,3.870869995920983,-4.831303537089912,1270.3296703296703,-1.0,77.55433710701747,0.42543885462813685,
2023-08-21 10:26:40.183000,-6.843373493975904,-4.674698795180723,5.265060240963856,-4.711220110361741,-6.81361128142244,5.817290006131207,3.0,0.42513042513042515,2352.219321148825,1.7861429986597501,2.954839461569838,-4.388555445486858,1270.3296703296703,-1.0,77.55433710701747,0.4254436872946807,
2023-08-21 10:26:40.191000,-6.807228915662651,-4.674698795180723,5.240963855421687,-4.647455548743102,-6.801348865726548,5.917841814837523,3.0,0.42513042513042515,2352.219321148825,1.6182040673620404,2.3288852630965557,-3.6099294912883857,1279.8534798534797,-1.0,77.55433710701747,0.42544840842365444,
2023-08-21 10:26:40.199000,-6.819277108433735,-4.662650602409639,5.27710843373494,-4.5370938074800735,-6.8038013488657265,5.846719803801348,3.0,0.42513042513042515,2352.219321148825,1.6182040673620404,2.3288852630965557,-3.6099294912883857,1284.2490842490843,-1.0,77.55433710701747,0.4254530166916348,
2023-08-21 10:26:40.206000,-6.795180722891566,-4.63855421686747,5.27710843373494,-4.63519313304721,-6.779276517473942,5.90557939914163,3.0,0.42513042513042515,2352.219321148825,1.3128605559116586,1.9930074005011358,-2.7702348347998362,1287.179487179487,-1.0,77.55433710701747,0.4254575109449397,
2023-08-21 10:26:40.214000,-6.771084337349398,-4.602409638554217,5.325301204819278,-4.593500919681177,-6.740036787247087,5.925199264255058,3.0,0.42557442557442554,2349.7652582159626,0.9922498688887579,0.9701066371423572,-2.5259600256395305,1290.10989010989,-1.0,77.55433710701747,0.4254618900422047,
2023-08-21 10:26:40.222000,-6.746987951807229,-4.578313253012048,5.349397590361446,-4.502759043531576,-6.749846719803801,5.957081545064377,3.0,0.42557442557442554,2349.7652582159626,1.3739292582017348,0.9090379348522809,-1.7778684225860957,1295.2380952380952,-1.0,77.55433710701747,0.4254661528776407,
2023-08-21 10:26:40.229000,-6.734939759036145,-4.566265060240964,5.373493975903615,-4.5444512568976085,-6.698344573881054,5.966891477621091,3.0,0.42557442557442554,2349.7652582159626,0.9922498688887579,0.9548394615698382,-1.4267233844181566,1301.8315018315018,-1.0,77.55433710701747,0.4254702985534345,
2023-08-21 10:26:40.237000,-6.710843373493976,-4.542168674698796,5.349397590361446,-4.527283874923359,-6.617412630288166,5.957081545064377,3.0,0.42513042513042515,2352.219321148825,0.35102849484295634,1.290717324165258,-0.938173766097546,1306.9597069597069,-1.0,77.55433710701747,0.4254743262437625,
2023-08-21 10:26:40.245000,-6.759036144578314,-4.566265060240964,5.337349397590362,-4.461066830165542,-6.742489270386265,5.920294297976701,3.0,0.42513042513042515,2352.219321148825,0.06095215896509376,1.7334654157683114,-0.571761552357088,1311.3553113553112,-1.0,77.55433710701747,0.4254782350482753,
2023-08-21 10:26:40.252000,-6.771084337349398,-4.55421686746988,5.337349397590362,-4.502759043531576,-6.771919068056406,5.854077253218883,3.0,0.42513042513042515,2352.219321148825,-0.2749257036303261,2.1304119806538075,-0.48015849892197354,1315.7509157509157,-1.0,77.55433710701747,0.4254820239730029,
2023-08-21 10:26:40.260000,-6.759036144578314,-4.566265060240964,5.313253012048193,-4.502759043531576,-6.727774371551195,5.871244635193133,3.0,0.42513042513042515,2352.219321148825,-1.1451547112639138,2.237282209661441,-0.3122195676242636,1319.4139194139193,-1.0,77.55433710701747,0.42548569207018266,
2023-08-21 10:26:40.268000,-6.795180722891566,-4.578313253012048,5.27710843373494,-4.551808706315144,-6.806253832004905,5.871244635193133,3.0,0.42513042513042515,2352.219321148825,-1.5726356272944482,2.0998776295087693,-0.08321193403647735,1321.6117216117216,-1.0,77.55433710701747,0.42548923843912306,
2023-08-21 10:26:40.275000,-6.759036144578314,-4.602409638554217,5.265060240963856,-4.54199877375843,-6.713059472716124,5.856529736358063,3.0,0.42513042513042515,2352.219321148825,-2.2138570013402497,2.054076102791212,0.1305285239787898,1323.076923076923,-1.0,77.55433710701747,0.42549266222684434,
2023-08-21 10:26:40.283000,-6.759036144578314,-4.602409638554217,5.265060240963856,-4.571428571428571,-6.75229920294298,5.824647455548742,3.0,0.42513042513042515,2352.219321148825,-2.671872268515822,1.8708699959209831,0.20686440184138524,1323.076923076923,-1.0,77.55433710701747,0.42549596262849165,
2023-08-21 10:26:40.291000,-6.783132530120482,-4.590361445783133,5.228915662650603,-4.551808706315144,-6.786633966891477,5.819742489270386,3.0,0.42513042513042515,2352.219321148825,-3.404696695996738,2.1762135073713647,0.5732766155818433,1340.6593406593406,-1.0,77.55433710701747,0.42549913888751684,
2023-08-21 10:26:40.298000,-6.795180722891566,-4.614457831325302,5.216867469879518,-4.576333537706928,-6.76701410177805,5.790312691600245,3.0,0.42513042513042515,2352.219321148825,-3.923780665462387,1.9014043470660213,0.6496124934444386,1364.8351648351647,-1.0,77.55433710701747,0.4255021902956302,
2023-08-21 10:26:40.306000,-6.843373493975904,-4.614457831325302,5.204819277108434,-4.659717964438994,-6.843041079092581,5.748620478234212,3.0,0.42557442557442554,2349.7652582159626,-4.168055474622692,1.5502593088980825,0.8786201270322249,1405.8608058608058,-1.0,77.55433710701747,0.4255051161925226,
2023-08-21 10:26:40.314000,-6.843373493975904,-4.63855421686747,5.216867469879518,-4.527283874923359,-6.798896382587369,5.807480073574494,3.0,0.42557442557442554,2349.7652582159626,-4.473398986073074,1.0464425150049528,1.3061010430627593,1464.4688644688645,-1.0,77.55433710701747,0.4255079162534049,
2023-08-21 10:26:40.321000,-6.867469879518072,-4.63855421686747,5.228915662650603,-4.568976088289393,-6.8038013488657265,5.800122624156959,3.0,0.42513042513042515,2352.219321148825,-4.763475321950937,0.22201503408892218,1.6114445545131408,1541.3919413919414,-1.0,77.55433710701747,0.4255105904897823,
2023-08-21 10:26:40.329000,-6.843373493975904,-4.63855421686747,5.216867469879518,-4.618025751072961,-6.820968730839975,5.871244635193133,3.0,0.42513042513042515,2352.219321148825,-5.007750131111242,-0.6482139735446656,2.191597226268866,1632.9670329670328,-1.0,77.55433710701747,0.42551313867542206,
2023-08-21 10:26:40.337000,-6.843373493975904,-4.614457831325302,5.240963855421687,-4.6253832004904964,-6.796443899448191,5.822194972409564,3.0,0.42513042513042515,2352.219321148825,-4.946681428821166,-1.640580385758406,2.3137346308490185,1736.263736263736,-1.0,77.55433710701747,0.42551556034670157,
2023-08-21 10:26:40.344000,-6.83132530120482,-4.614457831325302,5.253012048192772,-4.561618638871858,-6.76701410177805,5.878602084610668,3.0,0.42513042513042515,2352.219321148825,-5.175689062408952,-2.4344735155293984,2.588543791154362,1844.6886446886447,-1.0,77.55433710701747,0.42551785508929485,
2023-08-21 10:26:40.352000,-6.795180722891566,-4.626506024096386,5.27710843373494,-4.554261189454322,-6.686082158185162,5.84426732066217,3.0,0.42557442557442554,2349.7652582159626,-5.35889516927918,-2.5108093933919937,2.542742264436805,1952.3809523809523,-1.0,77.55433710701747,0.4255200225366294,
2023-08-21 10:26:40.359000,-6.746987951807229,-4.650602409638554,5.27710843373494,-4.564071122011036,-6.676272225628448,5.895769466584917,3.0,0.42513042513042515,2352.219321148825,-5.389429520424219,-2.892488782704971,2.6801468445894767,2052.747252747253,-1.0,77.55433710701747,0.4255220625174607,
2023-08-21 10:26:40.367000,-6.710843373493976,-4.662650602409639,5.289156626506024,-4.649908031882281,-6.708154506437768,5.866339668914776,3.0,0.42557442557442554,2349.7652582159626,-6.000116543324983,-2.7703513781248184,2.9396888293223014,2139.194139194139,-1.0,77.55433710701747,0.42552397492658156,
2023-08-21 10:26:40.375000,-6.686746987951808,-4.686746987951808,5.265060240963856,-4.664622930717351,-6.664009809932557,5.878602084610668,3.0,0.42513042513042515,2352.219321148825,-6.045918070042539,-2.587145271254589,3.29083386749024,2206.5934065934066,-1.0,77.55433710701747,0.425525759713169,
2023-08-21 10:26:40.382000,-6.686746987951808,-4.686746987951808,5.265060240963856,-4.613120784794604,-6.67381974248927,5.846719803801348,3.0,0.42513042513042515,2352.219321148825,-6.3359944059204025,-2.3886719888118413,3.138162111765049,2206.5934065934066,-1.0,77.55433710701747,0.42552741675142874,
2023-08-21 10:26:40.390000,-6.698795180722892,-4.746987951807229,5.265060240963856,-4.694052728387492,-6.703249540159411,5.885959534028204,3.0,0.42513042513042515,2352.219321148825,-6.748208146378418,-2.877221607132452,3.519841501078026,2274.7252747252746,-1.0,77.55433710701747,0.42552894569999805,
2023-08-21 10:26:40.398000,-6.734939759036145,-4.746987951807229,5.27710843373494,-4.72838749233599,-6.708154506437768,5.814837522992029,3.0,0.42513042513042515,2352.219321148825,-6.916147077676127,-2.7703513781248184,4.099994172833752,2276.9230769230767,-1.0,77.55433710701747,0.42553034642550563,
2023-08-21 10:26:40.405000,-6.746987951807229,-4.759036144578314,5.289156626506024,-4.723482526057633,-6.659104843654199,5.856529736358063,3.0,0.42557442557442554,2349.7652582159626,-7.481032573859333,-3.472641454460696,4.435872035429171,2254.945054945055,-1.0,77.55433710701747,0.42553161884034196,
2023-08-21 10:26:40.413000,-6.759036144578314,-4.734939759036145,5.301204819277109,-4.721030042918454,-6.683629675045983,5.883507050889025,3.0,0.42513042513042515,2352.219321148825,-7.526834100576891,-3.5489773323232914,4.252665928558943,2214.6520146520147,-1.0,77.55433710701747,0.42553276292139264,
2023-08-21 10:26:40.421000,-6.746987951807229,-4.734939759036145,5.289156626506024,-4.676885346413243,-6.75229920294298,5.898221949724095,3.0,0.42557442557442554,2349.7652582159626,-7.725307383019639,-4.174931530796574,4.8633529514597065,2157.5091575091574,-1.0,77.55433710701747,0.42553377872894077,
2023-08-21 10:26:40.428000,-6.746987951807229,-4.686746987951808,5.27710843373494,-4.686695278969957,-6.639484978540772,5.888412017167382,3.0,0.42557442557442554,2349.7652582159626,-8.091719596760097,-4.3123361109492455,4.954956004894821,2090.842490842491,-1.0,77.55433710701747,0.4255346665329911,
2023-08-21 10:26:40.436000,-6.72289156626506,-4.674698795180723,5.301204819277109,-4.576333537706928,-6.678724708767627,5.895769466584917,3.0,0.42513042513042515,2352.219321148825,-8.38179593263796,-4.846687255987414,5.474039974360469,2019.7802197802196,-1.0,77.55433710701747,0.4255354268123749,
2023-08-21 10:26:40.444000,-6.698795180722892,-4.674698795180723,5.265060240963856,-4.600858369098712,-6.62722256284488,5.824647455548742,3.0,0.42557442557442554,2349.7652582159626,-8.671872268515822,-4.831420080414895,5.550375852223065,1947.2527472527472,-1.0,77.55433710701747,0.4255360598386068,
2023-08-21 10:26:40.451000,-6.710843373493976,-4.650602409638554,5.289156626506024,-4.613120784794604,-6.666462293071735,5.873697118332311,3.0,0.42513042513042515,2352.219321148825,-9.267292115844066,-4.923023133850009,5.809917836955889,1877.6556776556774,-1.0,77.55433710701747,0.4255365659523216,
2023-08-21 10:26:40.459000,-6.674698795180723,-4.662650602409639,5.240963855421687,-4.6327406499080315,-6.607602697731453,5.834457388105457,3.0,0.42468642468642465,2354.678515420805,-9.847444787599791,-5.121496416292757,6.2984674552765,1810.2564102564102,-1.0,77.55433710701747,0.42553694557305527,
2023-08-21 10:26:40.467000,-6.710843373493976,-4.674698795180723,5.240963855421687,-4.615573267933783,-6.646842427958307,5.800122624156959,3.0,0.42513042513042515,2352.219321148825,-10.19858982576773,-5.487908630033215,6.069459821688714,1750.9157509157508,-1.0,77.55433710701747,0.4255371990284388,
2023-08-21 10:26:40.474000,-6.710843373493976,-4.674698795180723,5.216867469879518,-4.6253832004904964,-6.710606989576946,5.79767014101778,3.0,0.42513042513042515,2352.219321148825,-10.19858982576773,-5.487908630033215,6.069459821688714,1695.970695970696,765.9912109375,78.32988047808765,0.4255373266603227,
2023-08-21 10:26:40.482000,-6.710843373493976,-4.674698795180723,5.216867469879518,-4.684242795830778,-6.67381974248927,5.792765174739423,3.0,0.42513042513042515,2352.219321148825,-10.946681428821165,-5.335236874308024,6.390070508711615,1695.970695970696,-1.0,78.32988047808765,0.4255373288554113,
2023-08-21 10:26:40.490000,-6.746987951807229,-4.698795180722891,5.204819277108434,-4.671980380134887,-6.710606989576946,5.824647455548742,3.0,0.42513042513042515,2352.219321148825,-11.313093642561624,-5.335236874308024,6.725948371307034,1601.4652014652013,-1.0,78.32988047808765,0.4255372060549477,
2023-08-21 10:26:40.497000,-6.734939759036145,-4.72289156626506,5.216867469879518,-4.708767627222563,-6.73513182096873,5.851624770079705,3.0,0.42513042513042515,2352.219321148825,-11.771108909737196,-6.144397179651536,6.893887302604744,1561.1721611721612,-1.0,78.32988047808765,0.425536958754077,
2023-08-21 10:26:40.505000,-6.734939759036145,-4.72289156626506,5.228915662650603,-4.701410177805028,-6.698344573881054,5.778050275904353,3.0,0.42513042513042515,2352.219321148825,-12.259658528057807,-6.037526950643902,6.771749898024591,1524.5421245421244,-1.0,78.32988047808765,0.4255365875014241,
2023-08-21 10:26:40.513000,-6.734939759036145,-4.734939759036145,5.204819277108434,-4.689147762109135,-6.715511955855303,5.795217657878601,3.0,0.42513042513042515,2352.219321148825,-12.70240661966086,-6.281801759804208,7.183963638482607,1490.8424908424906,-1.0,78.32988047808765,0.42553609289888417,
2023-08-21 10:26:40.520000,-6.72289156626506,-4.734939759036145,5.216867469879518,-4.721030042918454,-6.690987124463519,5.84426732066217,3.0,0.42513042513042515,2352.219321148825,-14.000116543324982,-6.388671988811841,7.260299516345202,1457.142857142857,-1.0,78.32988047808765,0.425535475601616,
2023-08-21 10:26:40.528000,-6.710843373493976,-4.734939759036145,5.204819277108434,-4.694052728387492,-6.646842427958307,5.773145309625996,3.0,0.42513042513042515,2352.219321148825,-13.893246314317349,-6.23600023308665,7.748849134665813,1424.1758241758241,-1.0,78.32988047808765,0.4255347363182324,
