Shimmer_F5D4_Timestamp_FormattedUnix_CAL,Shimmer_F5D4_Accel_LN_X_CAL,Shimmer_F5D4_Accel_LN_Y_CAL,Shimmer_F5D4_Accel_LN_Z_CAL,Shimmer_F5D4_Accel_WR_X_CAL,Shimmer_F5D4_Accel_WR_Y_CAL,Shimmer_F5D4_Accel_WR_Z_CAL,Shimmer_F5D4_GSR_Range_CAL,Shimmer_F5D4_GSR_Skin_Conductance_CAL,Shimmer_F5D4_GSR_Skin_Resistance_CAL,Shimmer_F5D4_Gyro_X_CAL,Shimmer_F5D4_Gyro_Y_CAL,Shimmer_F5D4_Gyro_Z_CAL,Shimmer_F5D4_PPG_A13_CAL,Shimmer_F5D4_PPG_IBI_CAL,Shimmer_F5D4_PPGtoHR_CAL,Shimmer_F5D4_GSR_Skin_Conductance_LPF_CAL,
yyyy/mm/dd hh:mm:ss.000,m/(s^2),m/(s^2),m/(s^2),m/(s^2),m/(s^2),m/(s^2),no_units,uS,kOhms,deg/s,deg/s,deg/s,mV,ms,BPM,uS,
2023-08-12 16:33:46.804000,0.3373493975903615,6.048192771084338,7.530120481927711,6.4181483752299195,0.5781729000613121,8.3408951563458,2.0,2.673260073260073,374.0750890654974,-0.22446244391352496,0.229706893537673,-0.5385467047374862,1454.9450549450548,-1.0,57.59550035153504,2.669028551556482,
2023-08-12 16:33:46.812000,0.3373493975903615,6.048192771084338,7.506024096385542,6.472103004291845,0.5659104843654199,8.223175965665236,2.0,2.673260073260073,374.0750890654974,0.07179068818833412,-0.07528698793776616,-0.7137113221840217,1446.153846153846,-1.0,57.59550035153504,2.669037825751751,
2023-08-12 16:33:46.820000,0.3614457831325301,6.072289156626506,7.493975903614459,6.530962599632127,0.5413856529736357,8.240343347639485,2.0,2.673260073260073,374.0750890654974,-0.013868655672745575,-0.08892255696055006,-0.6110366528757065,1437.3626373626373,-1.0,57.59550035153504,2.6690478651605964,
2023-08-12 16:33:46.827000,0.3855421686746988,6.096385542168675,7.506024096385542,6.508890251379522,0.5536480686695279,8.17167381974249,2.0,2.6747252747252745,373.8701725554643,-0.38808927218693523,0.06608006526426272,-0.4806246722218986,1428.5714285714284,-1.0,57.59550035153504,2.6690586760701853,
2023-08-12 16:33:46.835000,0.3734939759036145,6.060240963855422,7.493975903614459,6.457388105456775,0.5561005518087063,8.252605763335376,2.0,2.6747252747252745,373.8701725554643,-0.18110832702057048,0.265136064331915,-0.5320202785385466,1420.5128205128203,-1.0,57.59550035153504,2.6690702651331932,
2023-08-12 16:33:46.843000,0.3614457831325301,6.072289156626506,7.493975903614459,6.491722869405272,0.5487431023911711,8.311465358675658,2.0,2.6747252747252745,373.8701725554643,-0.28331682302896016,0.034380280869412715,-1.1643843598857875,1409.5238095238094,-1.0,57.59550035153504,2.6690826394285394,
2023-08-12 16:33:46.850000,0.3253012048192771,6.072289156626506,7.506024096385542,6.516247700797057,0.5389331698344574,8.21827099938688,2.0,2.6747252747252745,373.8701725554643,-0.8732591340830964,-0.05827166249053105,-0.8605559116601599,1397.8021978021977,-1.0,57.59550035153504,2.6690958059955343,
2023-08-12 16:33:46.858000,0.3373493975903615,6.096385542168675,7.506024096385542,6.523605150214592,0.5242182709993869,8.193746167995094,2.0,2.6747252747252745,373.8701725554643,-0.4081347240836773,0.048248936542160024,-0.8357321834391935,1386.8131868131868,-1.0,57.59550035153504,2.6691097718244445,
2023-08-12 16:33:46.866000,0.3493975903614458,6.0843373493975905,7.493975903614459,6.4475781729000605,0.48743102391171056,8.272225628448805,2.0,2.6747252747252745,373.8701725554643,-0.3724724666394719,0.6287512382728278,-0.6261872851232447,1375.8241758241757,-1.0,57.59550035153504,2.669124543845585,
2023-08-12 16:33:46.873000,0.3614457831325301,6.060240963855422,7.55421686746988,6.4255058246474555,0.5487431023911711,8.277130594727161,2.0,2.6747252747252745,373.8701725554643,-0.5049822271429398,0.3193287104481098,-0.5402948546122021,1365.5677655677655,-1.0,57.59550035153504,2.669140128916913,
2023-08-12 16:33:46.881000,0.3493975903614458,6.072289156626506,7.518072289156627,6.45003065603924,0.507050889025138,8.181483752299203,2.0,2.6747252747252745,373.8701725554643,-0.31758056057339207,-0.01794767204708353,-0.7465765398286814,1356.0439560439559,-1.0,57.59550035153504,2.669156533810132,
2023-08-12 16:33:46.889000,0.3493975903614458,6.096385542168675,7.481927710843374,6.513795217657878,0.5315757204169221,8.225628448804414,2.0,2.676190476190476,373.6654804270463,-0.5602237631839622,0.05897092244041781,-0.6907522871627529,1353.8461538461538,-1.0,57.59550035153504,2.669173765195317,
2023-08-12 16:33:46.896000,0.3614457831325301,6.0843373493975905,7.518072289156627,6.494175352544451,0.5291232372777437,8.235438381361128,2.0,2.676190476190476,373.6654804270463,-0.5139560631664816,0.6991434065613883,-0.6353942077967479,1359.7069597069597,-1.0,57.59550035153504,2.669191830116729,
2023-08-12 16:33:46.904000,0.3493975903614458,6.060240963855422,7.55421686746988,6.388718577559779,0.5266707541385652,8.289393010423053,2.0,2.676190476190476,373.6654804270463,-1.1831478352077394,0.2814521298292633,-0.8118408018180758,1368.4981684981683,-1.0,57.59550035153504,2.6692107360466983,
2023-08-12 16:33:46.911000,0.3734939759036145,6.060240963855422,7.530120481927711,6.423053341508277,0.5364806866952789,8.272225628448805,2.0,2.676190476190476,373.6654804270463,-0.6436687838704043,-0.04253831361808689,-0.529572868713944,1380.2197802197802,-1.0,57.59550035153504,2.6692304904135966,
2023-08-12 16:33:46.919000,0.3614457831325301,6.048192771084338,7.530120481927711,6.427958307786634,0.5144083384426732,8.240343347639485,2.0,2.676190476190476,373.6654804270463,-0.45906415710040177,-0.04370374686789872,-0.46524095332439824,1391.2087912087911,-1.0,57.59550035153504,2.6692511005869135,
2023-08-12 16:33:46.927000,0.3373493975903615,6.060240963855422,7.542168674698796,6.420600858369099,0.5830778663396688,8.269773145309626,2.0,2.676190476190476,373.6654804270463,-1.0727813064506737,0.1699201678223876,-0.79913757939514,1398.5347985347985,-1.0,57.59550035153504,2.6692725738615644,
2023-08-12 16:33:46.934000,0.3614457831325301,6.048192771084338,7.530120481927711,6.420600858369099,0.51931330472103,8.259963212752911,2.0,2.676190476190476,373.6654804270463,-0.7935434997960499,-0.16782238797272908,-0.8854961832061068,1405.128205128205,-1.0,57.59550035153504,2.6692949174414595,
2023-08-12 16:33:46.942000,0.3493975903614458,6.048192771084338,7.493975903614459,6.45003065603924,0.5732679337829553,8.245248313917841,2.0,2.676190476190476,373.6654804270463,-0.6824777110890975,0.20127032224229335,-0.6360934677466351,1409.5238095238094,-1.0,57.59550035153504,2.6693181384223643,
2023-08-12 16:33:46.950000,0.3614457831325301,6.048192771084338,7.518072289156627,6.4328632740649905,0.5168608215818516,8.301655426118945,2.0,2.676190476190476,373.6654804270463,-0.6214090087990212,0.014334828972670657,-0.9241885670998196,1414.6520146520145,-1.0,57.59550035153504,2.669342243774036,
2023-08-12 16:33:46.957000,0.3493975903614458,6.024096385542169,7.518072289156627,6.420600858369099,0.5487431023911711,8.299202942979766,2.0,2.6747252747252745,373.8701725554643,-0.23506788648680016,0.37783345958860254,-0.7383019637550262,1416.117216117216,-1.0,57.59550035153504,2.6693672398638215,
2023-08-12 16:33:46.965000,0.3373493975903615,6.0120481927710845,7.55421686746988,6.369098712446352,0.5291232372777437,8.282035561005518,2.0,2.6747252747252745,373.8701725554643,-0.23122195676242735,0.37223937998951023,-0.7364372705553289,1413.1868131868132,-1.0,57.59550035153504,2.6693931329277802,
2023-08-12 16:33:46.973000,0.3253012048192771,6.0120481927710845,7.530120481927711,6.45003065603924,0.5610055180870631,8.306560392397301,2.0,2.676190476190476,373.6654804270463,0.003496299749432037,-0.198007109142823,-1.010896800885729,1409.5238095238094,-1.0,57.59550035153504,2.6694199293325345,
2023-08-12 16:33:46.980000,0.3373493975903615,6.048192771084338,7.506024096385542,6.46474555487431,0.5536480686695279,8.26241569589209,2.0,2.676190476190476,373.6654804270463,-0.006409882873958155,-0.3817959326379579,-0.8692966610337389,1405.8608058608058,-1.0,57.59550035153504,2.6694476355193686,
2023-08-12 16:33:46.988000,0.3132530120481928,6.0361445783132535,7.542168674698796,6.4107909258123845,0.5217657878602084,8.267320662170446,2.0,2.6776556776556775,373.4610123119015,-0.36454752054076117,-0.24462443913524784,-1.0181224870345544,1403.6630036630036,-1.0,57.59550035153504,2.6694762575956226,
2023-08-12 16:33:46.996000,0.3493975903614458,6.0,7.55421686746988,6.415695892090741,0.489883507050889,8.269773145309626,2.0,2.6776556776556775,373.4610123119015,-0.39543150166074353,-0.24847036885962412,-0.8905075461802928,1402.9304029304028,-1.0,57.59550035153504,2.6695058014175466,
2023-08-12 16:33:47.003000,0.3373493975903615,6.0120481927710845,7.55421686746988,6.4255058246474555,0.42611894543225015,8.264868179031268,2.0,2.6776556776556775,373.4610123119015,-0.35464133791737096,0.04020744711846669,-0.44449624147777006,1399.2673992673992,-1.0,57.59550035153504,2.6695362731305554,
2023-08-12 16:33:47.011000,0.3493975903614458,6.048192771084338,7.530120481927711,6.435315757204169,0.4678111587982832,8.29429797670141,2.0,2.6776556776556775,373.4610123119015,0.3073247479750594,-0.09894528290892109,-0.46232737019987147,1394.8717948717947,-1.0,57.59550035153504,2.669567678691875,
2023-08-12 16:33:47.019000,0.3493975903614458,6.060240963855422,7.530120481927711,6.553034947884733,0.5757204169221336,8.306560392397301,2.0,2.6776556776556775,373.4610123119015,-0.10418973253306914,-0.022725948371306502,-0.41675893013227655,1386.080586080586,-1.0,57.59550035153504,2.669600023851307,
2023-08-12 16:33:47.026000,0.3373493975903615,6.048192771084338,7.542168674698796,6.37155119558553,0.4653586756591048,8.30901287553648,2.0,2.6776556776556775,373.4610123119015,0.22411281393858243,0.30930598449973706,-0.370724316764757,1374.3589743589744,-1.0,57.59550035153504,2.669633314132241,
2023-08-12 16:33:47.034000,0.3373493975903615,6.072289156626506,7.518072289156627,6.452483139178418,0.4923359901900674,8.289393010423053,2.0,2.6776556776556775,373.4610123119015,0.24380863586038026,-0.07610279121263375,-0.21735330108967918,1361.1721611721612,-1.0,57.59550035153504,2.6696675548129747,
2023-08-12 16:33:47.042000,0.3132530120481928,6.072289156626506,7.518072289156627,6.553034947884733,0.44083384426732064,8.291845493562231,2.0,2.6776556776556775,373.4610123119015,0.1715517743721228,-0.2898432492279009,-0.004312103024298976,1353.8461538461538,-1.0,57.59550035153504,2.669702750908326,
2023-08-12 16:33:47.049000,0.3373493975903615,6.0843373493975905,7.506024096385542,6.484365419987737,0.5217657878602084,8.23298589822195,2.0,2.6776556776556775,373.4610123119015,0.2515004953091311,-0.21175922149058948,0.1932288328185996,1351.6483516483515,-1.0,57.59550035153504,2.669738907609442,
2023-08-12 16:33:47.057000,0.3253012048192771,6.072289156626506,7.518072289156627,6.528510116492948,0.5389331698344574,8.250153280196198,2.0,2.6791208791208785,373.2567678424939,-0.25115086533418857,0.09509935318454654,-0.0508128896917432,1350.9157509157508,-1.0,57.59550035153504,2.669776029740912,
2023-08-12 16:33:47.065000,0.3373493975903615,6.0361445783132535,7.506024096385542,6.4475781729000605,0.5144083384426732,8.318822808093193,2.0,2.6776556776556775,373.4610123119015,-0.3689761668900416,0.1994056290425965,-0.04696695996736735,1352.3809523809523,-1.0,57.59550035153504,2.669814121814901,
2023-08-12 16:33:47.072000,0.3373493975903615,6.060240963855422,7.493975903614459,6.521152667075413,0.502145922746781,8.228080931943593,2.0,2.6776556776556775,373.4610123119015,0.21117650486568357,-0.1554687955247361,-0.027970397995454123,1356.7765567765566,-1.0,57.59550035153504,2.669853188085558,
2023-08-12 16:33:47.080000,0.3373493975903615,6.060240963855422,7.506024096385542,6.486817903126916,0.5561005518087063,8.24770079705702,2.0,2.6791208791208785,373.2567678424939,-0.10279121263329563,-0.15476953557484935,0.26874890740632784,1361.904761904762,-1.0,57.59550035153504,2.6698932320070607,
2023-08-12 16:33:47.088000,0.3493975903614458,6.060240963855422,7.530120481927711,6.376456161863887,0.507050889025138,8.291845493562231,2.0,2.6791208791208785,373.2567678424939,-5.82716624905918E-4,0.35032923489307133,0.21245848144047494,1368.4981684981683,-1.0,57.59550035153504,2.669934257167592,
2023-08-12 16:33:47.095000,0.3493975903614458,6.0,7.530120481927711,6.37155119558553,0.5511955855303494,8.29429797670141,2.0,2.6791208791208785,373.2567678424939,0.3399568789697578,-0.05069634636676106,0.15838237864926244,1372.161172161172,-1.0,57.59550035153504,2.669976267345211,
2023-08-12 16:33:47.103000,0.3493975903614458,6.024096385542169,7.493975903614459,6.400980993255671,0.5683629675045984,8.24770079705702,2.0,2.6791208791208785,373.2567678424939,0.10943418215721719,-0.20266884214206687,0.19439426606841143,1374.3589743589744,-1.0,57.59550035153504,2.670019266039465,
2023-08-12 16:33:47.111000,0.3373493975903615,6.060240963855422,7.481927710843374,6.45003065603924,0.5217657878602084,8.269773145309626,2.0,2.6776556776556775,373.4610123119015,-0.030184721170095657,-0.1713186877221611,0.3069751180001164,1372.8937728937728,-1.0,57.59550035153504,2.6700632564616704,
2023-08-12 16:33:47.118000,0.3614457831325301,6.048192771084338,7.530120481927711,6.484365419987737,0.5634580012262416,8.245248313917841,2.0,2.6791208791208785,373.2567678424939,-0.14020161995221703,-0.15663422877454622,0.08158032748674347,1371.4285714285713,-1.0,57.59550035153504,2.670108241949017,
2023-08-12 16:33:47.126000,0.3734939759036145,6.0120481927710845,7.542168674698796,6.364193746167995,0.51931330472103,8.250153280196198,2.0,2.6791208791208785,373.2567678424939,-0.19008216304411224,-0.08018180758696997,0.2716624905308544,1368.4981684981683,-1.0,57.59550035153504,2.670154225784377,
2023-08-12 16:33:47.134000,0.3855421686746988,6.060240963855422,7.542168674698796,6.459840588595953,0.5242182709993869,8.269773145309626,2.0,2.6791208791208785,373.2567678424939,0.019462735271837873,-0.04918128314200845,0.003263213099469496,1367.032967032967,-1.0,57.59550035153504,2.670201210803593,
2023-08-12 16:33:47.141000,0.3734939759036145,6.048192771084338,7.55421686746988,6.474555487431023,0.5389331698344574,8.269773145309626,2.0,2.6805860805860804,373.0527466520908,-0.11106578870695237,-0.12691568090437563,0.0696929083386745,1364.102564102564,-1.0,57.59550035153504,2.670249199425465,
2023-08-12 16:33:47.149000,0.3734939759036145,6.048192771084338,7.55421686746988,6.4107909258123845,0.5855303494788473,8.250153280196198,2.0,2.6805860805860804,373.0527466520908,-0.2101276149408543,0.10127614940854301,0.0745877279878794,1360.4395604395604,-1.0,57.59550035153504,2.6702981941394,
2023-08-12 16:33:47.157000,0.3614457831325301,6.048192771084338,7.542168674698796,6.4328632740649905,0.5536480686695279,8.296750459840588,2.0,2.6805860805860804,373.0527466520908,0.07633587786259542,-0.4636093467746631,-0.010139269273352732,1356.7765567765566,-1.0,57.59550035153504,2.6703481971144227,
2023-08-12 16:33:47.164000,0.3614457831325301,6.060240963855422,7.518072289156627,6.501532801961986,0.5462906192519926,8.26241569589209,2.0,2.6805860805860804,373.0527466520908,-0.26583532428180173,-0.2914748557776361,-0.1753977040964982,1353.113553113553,-1.0,57.59550035153504,2.6703992102663356,
2023-08-12 16:33:47.172000,0.3734939759036145,6.0843373493975905,7.518072289156627,6.4328632740649905,0.5511955855303494,8.333537706928265,2.0,2.6805860805860804,373.0527466520908,0.03717732066895799,-0.22656022376318347,-0.5043995105180348,1348.7179487179487,-1.0,57.59550035153504,2.670451235678916,
2023-08-12 16:33:47.180000,0.3253012048192771,6.060240963855422,7.530120481927711,6.4181483752299195,0.5487431023911711,8.274678111587983,2.0,2.6805860805860804,373.0527466520908,0.08076452421187588,0.1719014043470653,-0.100460346133675,1344.3223443223442,-1.0,57.59550035153504,2.670504274654181,
2023-08-12 16:33:47.187000,0.3614457831325301,6.048192771084338,7.518072289156627,6.489270386266094,0.4923359901900674,8.304107909258123,2.0,2.6805860805860804,373.0527466520908,0.10943418215721719,-0.2728279237806658,0.024707184895984627,1338.4615384615383,-1.0,57.59550035153504,2.670558327780425,
2023-08-12 16:33:47.195000,0.3373493975903615,6.060240963855422,7.55421686746988,6.486817903126916,0.5413856529736357,8.306560392397301,2.0,2.6805860805860804,373.0527466520908,0.18670240661966103,-0.43796981527883044,0.04160596701823933,1333.3333333333333,-1.0,57.59550035153504,2.670613395879107,
2023-08-12 16:33:47.203000,0.3373493975903615,6.048192771084338,7.578313253012048,6.400980993255671,0.5045984058859595,8.296750459840588,2.0,2.6805860805860804,373.0527466520908,-0.010721985898257782,-0.006409882873958155,-0.15651768544956604,1330.4029304029302,-1.0,57.59550035153504,2.6706694799343467,
2023-08-12 16:33:47.210000,0.3373493975903615,6.0361445783132535,7.55421686746988,6.430410790925812,0.4580012262415696,8.301655426118945,2.0,2.6805860805860804,373.0527466520908,0.480041955596994,-0.006876056173883237,-0.35429170794242804,1326.7399267399267,-1.0,57.59550035153504,2.670726580601581,
2023-08-12 16:33:47.218000,0.3253012048192771,6.0361445783132535,7.530120481927711,6.430410790925812,0.47271612507664007,8.29429797670141,2.0,2.6820512820512814,372.84894837476105,0.6482139735446656,-0.19043179301905475,-0.4436804382029019,1323.076923076923,-1.0,57.59550035153504,2.6707846982084065,
2023-08-12 16:33:47.226000,0.3493975903614458,6.048192771084338,7.542168674698796,6.457388105456775,0.5291232372777437,8.23298589822195,2.0,2.6805860805860804,373.0527466520908,0.31396771749898095,-0.2649029776819533,-0.34753219509352606,1321.6117216117216,-1.0,57.59550035153504,2.6708438332474724,
2023-08-12 16:33:47.233000,0.30120481927710846,6.048192771084338,7.530120481927711,6.398528510116493,0.43838136112814224,8.267320662170446,2.0,2.6820512820512814,372.84894837476105,0.20954489831594839,-0.17341646757181964,-0.13076161062875083,1319.4139194139193,-1.0,57.59550035153504,2.6709039859554884,
2023-08-12 16:33:47.241000,0.3373493975903615,6.048192771084338,7.493975903614459,6.472103004291845,0.5144083384426732,8.250153280196198,2.0,2.6820512820512814,372.84894837476105,0.42992832585513713,-0.20744711846628985,-0.1888001864693202,1318.6813186813185,-1.0,57.59550035153504,2.670965156280034,
2023-08-12 16:33:47.249000,0.3373493975903615,6.048192771084338,7.506024096385542,6.435315757204169,0.5242182709993869,8.252605763335376,2.0,2.6820512820512814,372.84894837476105,0.4319095623798148,-0.2093118116659867,-0.18903327311928253,1319.4139194139193,-1.0,57.59550035153504,2.671027344407893,
2023-08-12 16:33:47.256000,0.3373493975903615,6.072289156626506,7.518072289156627,6.4475781729000605,0.48743102391171056,8.313917841814837,2.0,2.6820512820512814,372.84894837476105,0.15675077209952878,-0.408833984033564,-0.06596352193928036,1320.14652014652,-1.0,57.59550035153504,2.671090550309915,
2023-08-12 16:33:47.264000,0.3493975903614458,6.060240963855422,7.506024096385542,6.452483139178418,0.5389331698344574,8.284488044144696,2.0,2.6805860805860804,373.0527466520908,-0.02365829497115493,-0.11840801818075895,0.055707709340947445,1323.076923076923,-1.0,57.59550035153504,2.671154773285273,
2023-08-12 16:33:47.272000,0.3493975903614458,6.048192771084338,7.542168674698796,6.435315757204169,0.5291232372777437,8.252605763335376,2.0,2.6805860805860804,373.0527466520908,-0.14066779325214213,-0.043121030242992804,-0.03589534409416706,1328.2051282051282,-1.0,57.59550035153504,2.6712200124531846,
2023-08-12 16:33:47.279000,0.3493975903614458,6.072289156626506,7.493975903614459,6.467198038013488,0.5389331698344574,8.20110361741263,2.0,2.6820512820512814,372.84894837476105,-0.3034788182506848,-0.2283083736378995,0.19474389604335393,1333.3333333333333,-1.0,57.59550035153504,2.6712862670351263,
2023-08-12 16:33:47.287000,0.3373493975903615,6.0843373493975905,7.506024096385542,6.489270386266094,0.5095033721643163,8.252605763335376,2.0,2.6820512820512814,372.84894837476105,0.11386282850649766,-0.1962589592681087,0.21024415826583534,1336.263736263736,-1.0,57.59550035153504,2.671353535861088,
2023-08-12 16:33:47.294000,0.3253012048192771,6.0361445783132535,7.506024096385542,6.46474555487431,0.5438381361128142,8.250153280196198,2.0,2.6820512820512814,372.84894837476105,0.0825126740865919,-0.3315657595711202,0.4865683817959323,1337.7289377289376,-1.0,57.59550035153504,2.671421817505573,
2023-08-12 16:33:47.302000,0.3493975903614458,6.024096385542169,7.518072289156627,6.361741263028816,0.4800735744941753,8.277130594727161,2.0,2.6835164835164833,372.6453726453727,-0.009906182623390191,-0.2688654507313087,0.37934852281335624,1336.263736263736,-1.0,57.59550035153504,2.671491110317779,
2023-08-12 16:33:47.310000,0.3614457831325301,6.024096385542169,7.530120481927711,6.474555487431023,0.5266707541385652,8.289393010423053,2.0,2.6820512820512814,372.84894837476105,0.15640114212458453,-0.05454227609113734,0.5336518850882818,1332.6007326007325,-1.0,57.59550035153504,2.6715614129083693,
2023-08-12 16:33:47.317000,0.3614457831325301,6.048192771084338,7.542168674698796,6.445125689760882,0.5487431023911711,8.32372777437155,2.0,2.6835164835164833,372.6453726453727,-0.16467571819823956,-0.08344502068644033,0.47339898607307285,1326.7399267399267,-1.0,57.59550035153504,2.6716327237217645,
2023-08-12 16:33:47.325000,0.3493975903614458,6.0361445783132535,7.518072289156627,6.4696505211526665,0.49969343960760265,8.27958307786634,2.0,2.6835164835164833,372.6453726453727,0.04778276324223494,-0.05127906299166698,0.15441990559990684,1320.14652014652,-1.0,57.59550035153504,2.6717050409956675,
2023-08-12 16:33:47.333000,0.3734939759036145,6.024096385542169,7.530120481927711,6.45003065603924,0.5315757204169221,8.240343347639485,2.0,2.6835164835164833,372.6453726453727,0.16525843482314548,-0.019462735271837873,0.6163976458248356,1312.8205128205127,-1.0,57.59550035153504,2.671778363281612,
2023-08-12 16:33:47.340000,0.3855421686746988,6.0361445783132535,7.506024096385542,6.4255058246474555,0.5242182709993869,8.269773145309626,2.0,2.6835164835164833,372.6453726453727,-0.06957636501369302,-0.03216595769477335,0.37084086008973827,1306.9597069597069,-1.0,57.59550035153504,2.671852688981584,
2023-08-12 16:33:47.348000,0.3734939759036145,6.048192771084338,7.530120481927711,6.4255058246474555,0.49969343960760265,8.27958307786634,2.0,2.6835164835164833,372.6453726453727,0.0658469786142993,0.19719130586795713,0.17399918419672492,1303.2967032967033,-1.0,57.59550035153504,2.6719280163415173,
2023-08-12 16:33:47.356000,0.3734939759036145,6.048192771084338,7.530120481927711,6.506437768240343,0.5610055180870631,8.230533415082771,2.0,2.6849816849816848,372.44201909959077,-0.026804964745644456,-0.018880018646931958,0.2875123827282794,1304.0293040293038,-1.0,57.59550035153504,2.6720043434437137,
2023-08-12 16:33:47.363000,0.3493975903614458,6.060240963855422,7.542168674698796,6.535867565910484,0.5462906192519926,8.274678111587983,2.0,2.6849816849816848,372.44201909959077,0.11024998543208478,0.11829147485577812,0.23180467338733196,1303.2967032967033,-1.0,57.59550035153504,2.6720816686908155,
2023-08-12 16:33:47.371000,0.3734939759036145,6.048192771084338,7.542168674698796,6.452483139178418,0.5855303494788473,8.30901287553648,2.0,2.6849816849816848,372.44201909959077,-0.12120505798030425,0.1786609171959677,-0.08426082396130749,1305.4945054945053,-1.0,57.59550035153504,2.672159990868092,
2023-08-12 16:33:47.379000,0.3855421686746988,6.024096385542169,7.530120481927711,6.427958307786634,0.5659104843654199,8.286940527283875,2.0,2.6849816849816848,372.44201909959077,0.032049414369792514,-0.01957927859681871,-0.10826874890740623,1309.1575091575091,-1.0,57.59550035153504,2.6722393086799854,
2023-08-12 16:33:47.386000,0.3734939759036145,6.048192771084338,7.506024096385542,6.4034334763948495,0.595340282035561,8.235438381361128,2.0,2.6849816849816848,372.44201909959077,0.1548860788998302,-0.33785909912009754,-0.07260649146320128,1316.4835164835165,-1.0,57.59550035153504,2.6723196207438527,
2023-08-12 16:33:47.394000,0.3614457831325301,6.072289156626506,7.481927710843374,6.479460453709381,0.5364806866952789,8.259963212752911,2.0,2.6849816849816848,372.44201909959077,-0.07552007458772783,-0.19474389604335438,-0.06491463201445154,1322.3443223443223,-1.0,57.59550035153504,2.672400925582939,
2023-08-12 16:33:47.402000,0.3734939759036145,6.060240963855422,7.506024096385542,6.489270386266094,0.49724095646842426,8.306560392397301,2.0,2.6849816849816848,372.44201909959077,-0.07540353126274699,0.2039508187168578,-0.10547170910786094,1328.2051282051282,-1.0,57.59550035153504,2.6724832216185233,
2023-08-12 16:33:47.409000,0.3614457831325301,6.0361445783132535,7.530120481927711,6.454935622317596,0.5045984058859595,8.291845493562231,2.0,2.6849816849816848,372.44201909959077,-0.04323757356797364,0.2308723267874831,0.11129887535691384,1336.263736263736,-1.0,57.59550035153504,2.672566507161171,
2023-08-12 16:33:47.417000,0.3614457831325301,6.0361445783132535,7.542168674698796,6.46474555487431,0.5462906192519926,8.267320662170446,2.0,2.6835164835164833,372.6453726453727,0.2051162519666679,-0.23028961016257718,0.24986888875939656,1345.7875457875457,-1.0,57.59550035153504,2.6726507804010056,
2023-08-12 16:33:47.425000,0.3493975903614458,6.060240963855422,7.518072289156627,6.454935622317596,0.5315757204169221,8.23298589822195,2.0,2.6849816849816848,372.44201909959077,0.05465881941611818,0.19754093584289967,-0.26909853738127165,1353.8461538461538,-1.0,57.59550035153504,2.6727360389042945,
2023-08-12 16:33:47.432000,0.3493975903614458,6.060240963855422,7.518072289156627,6.442673206621704,0.5291232372777437,8.264868179031268,2.0,2.6849816849816848,372.44201909959077,0.2376318396363855,0.0427714002680503,-0.21980071091428216,1360.4395604395604,-1.0,57.59550035153504,2.6728222804799353,
2023-08-12 16:33:47.440000,0.3493975903614458,6.060240963855422,7.518072289156627,6.4255058246474555,0.5413856529736357,8.282035561005518,2.0,2.6849816849816848,372.44201909959077,0.2865800361284305,0.025639531495834356,-0.0786667443622167,1364.102564102564,-1.0,57.59550035153504,2.6729095031658168,
2023-08-12 16:33:47.448000,0.3614457831325301,6.072289156626506,7.493975903614459,6.486817903126916,0.5781729000613121,8.228080931943593,2.0,2.6864468864468862,372.2388873738751,0.09032107686032356,0.2234135539886957,0.21409008799021012,1364.102564102564,-1.0,57.59550035153504,2.672997704334992,
2023-08-12 16:33:47.455000,0.3855421686746988,6.060240963855422,7.506024096385542,6.489270386266094,0.5438381361128142,8.274678111587983,2.0,2.6864468864468862,372.2388873738751,0.13833692675252018,0.1287803741040725,-0.046966959967368,1363.3699633699632,-1.0,57.59550035153504,2.6730868816642914,
2023-08-12 16:33:47.463000,0.3614457831325301,6.072289156626506,7.518072289156627,6.4034334763948495,0.6100551808706315,8.215818516247701,2.0,2.6864468864468862,372.2388873738751,-0.10372355923314405,0.1119981353068008,-0.10652059903269064,1360.4395604395604,-1.0,57.59550035153504,2.67317703318853,
2023-08-12 16:33:47.471000,0.3734939759036145,6.0361445783132535,7.542168674698796,6.391171060698957,0.507050889025138,8.343347639484978,2.0,2.6864468864468862,372.2388873738751,-0.007342229473806583,-0.1188741914806823,-0.1062875123827281,1355.3113553113553,-1.0,57.59550035153504,2.673268156828922,
2023-08-12 16:33:47.478000,0.3734939759036145,6.0361445783132535,7.566265060240965,6.445125689760882,0.5781729000613121,8.272225628448805,2.0,2.6864468864468862,372.2388873738751,-0.002447409824602773,0.2482372822096607,-0.3024299283258549,1349.4505494505493,-1.0,57.59550035153504,2.6733602503786784,
2023-08-12 16:33:47.486000,0.3614457831325301,6.048192771084338,7.518072289156627,6.4328632740649905,0.5879828326180258,8.225628448804414,2.0,2.6879120879120877,372.03597710547837,0.0,-0.18227376027038059,-0.1446302663014975,1345.054945054945,-1.0,57.59550035153504,2.6734533114878696,
2023-08-12 16:33:47.494000,0.3493975903614458,6.072289156626506,7.481927710843374,6.481912936848559,0.5536480686695279,8.264868179031268,2.0,2.6864468864468862,372.2388873738751,-0.04335411689295448,-0.09090379348522774,-0.28133558650428314,1342.8571428571427,926.849365234375,64.73543841164269,2.673547338140178,
2023-08-12 16:33:47.501000,0.3734939759036145,6.072289156626506,7.481927710843374,6.479460453709381,0.5757204169221336,8.255058246474555,2.0,2.6864468864468862,372.2388873738751,-0.3763183963638482,-0.07505390128780448,-0.14194976982693305,1340.6593406593406,-1.0,64.73543841164269,2.673642328215709,
2023-08-12 16:33:47.509000,0.3614457831325301,6.048192771084338,7.506024096385542,6.506437768240343,0.47516860821581847,8.235438381361128,2.0,2.6879120879120877,372.03597710547837,-0.556610920109551,0.09428354990967895,-0.3689761668900412,1337.7289377289376,-1.0,64.73543841164269,2.673738278948943,
2023-08-12 16:33:47.517000,0.3493975903614458,6.048192771084338,7.506024096385542,6.474555487431023,0.5977927651747393,8.277130594727161,2.0,2.6864468864468862,372.2388873738751,-0.3111706776994339,-0.18052561039566456,-0.5619719130586793,1332.6007326007325,-1.0,64.73543841164269,2.6738351878614526,
2023-08-12 16:33:47.524000,0.3614457831325301,6.0361445783132535,7.506024096385542,6.467198038013488,0.47516860821581847,8.267320662170446,2.0,2.6864468864468862,372.2388873738751,-0.3100052444496238,-0.1828564768952865,-0.5571936367344559,1326.007326007326,-1.0,64.73543841164269,2.673933052322693,
2023-08-12 16:33:47.532000,0.3614457831325301,6.048192771084338,7.493975903614459,6.4990803188228075,0.5659104843654199,8.240343347639485,2.0,2.6879120879120877,372.03597710547837,0.056523512615815036,-0.04521881009265133,0.1504574325505506,1317.216117216117,-1.0,64.73543841164269,2.6740318690057965,
2023-08-12 16:33:47.540000,0.3373493975903615,6.048192771084338,7.542168674698796,6.3960760269773145,0.5266707541385652,8.264868179031268,2.0,2.6879120879120877,372.03597710547837,-0.0981294796340535,-0.4432142649029785,-0.03344793426956494,1309.1575091575091,-1.0,64.73543841164269,2.674131634818044,
2023-08-12 16:33:47.547000,0.3614457831325301,6.0120481927710845,7.506024096385542,6.481912936848559,0.5438381361128142,8.237890864500306,2.0,2.6879120879120877,372.03597710547837,0.06980945166365643,-0.4421653749781475,-0.033331390944583886,1303.2967032967033,-1.0,64.73543841164269,2.6742323469519347,
2023-08-12 16:33:47.555000,0.3373493975903615,6.060240963855422,7.493975903614459,6.467198038013488,0.48497854077253216,8.277130594727161,2.0,2.6879120879120877,372.03597710547837,-0.010955072548219456,0.020278538546705464,-0.2938057222772567,1300.3663003663003,-1.0,64.73543841164269,2.6743340024107165,
2023-08-12 16:33:47.563000,0.30120481927710846,6.060240963855422,7.542168674698796,6.467198038013488,0.5217657878602084,8.30901287553648,2.0,2.6893772893772896,371.83328793244345,-0.1381038401025585,-0.06829438843890208,-0.0629333954897734,1300.3663003663003,-1.0,64.73543841164269,2.674436597991313,
2023-08-12 16:33:47.570000,0.3253012048192771,6.048192771084338,7.55421686746988,6.415695892090741,0.5438381361128142,8.296750459840588,2.0,2.6879120879120877,372.03597710547837,0.027970397995454557,-0.2780723734048139,-0.10768603228250095,1299.6336996336995,-1.0,64.73543841164269,2.6745401307594148,
2023-08-12 16:33:47.578000,0.3373493975903615,6.048192771084338,7.55421686746988,6.45003065603924,0.49969343960760265,8.306560392397301,2.0,2.6879120879120877,372.03597710547837,0.026105704795757703,0.19963871569255817,0.3658294971155525,1301.098901098901,-1.0,64.73543841164269,2.674644598068753,
2023-08-12 16:33:47.586000,0.3493975903614458,6.072289156626506,7.518072289156627,6.437768240343347,0.5438381361128142,8.301655426118945,2.0,2.6893772893772896,371.83328793244345,-0.035662257444205384,0.01911310529689363,0.27154594720587355,1302.5641025641025,-1.0,64.73543841164269,2.674749996492784,
2023-08-12 16:33:47.593000,0.3493975903614458,6.060240963855422,7.542168674698796,6.472103004291845,0.489883507050889,8.242795830778663,2.0,2.6893772893772896,371.83328793244345,-0.4613950236000237,0.08181341413670515,0.24101159606083541,1306.227106227106,-1.0,64.73543841164269,2.674856322335386,
2023-08-12 16:33:47.601000,0.3734939759036145,6.060240963855422,7.55421686746988,6.435315757204169,0.507050889025138,8.289393010423053,2.0,2.6893772893772896,371.83328793244345,-0.04498572344268966,0.2510343220092077,0.28809509935318445,1312.8205128205127,-1.0,64.73543841164269,2.6749635721756766,
2023-08-12 16:33:47.609000,0.3614457831325301,6.072289156626506,7.566265060240965,6.474555487431023,0.5511955855303494,8.321275291232372,2.0,2.6893772893772896,371.83328793244345,-0.1661907814229939,0.38972087873667044,0.22830837363789994,1322.3443223443223,-1.0,64.73543841164269,2.6750717423949557,
2023-08-12 16:33:47.616000,0.3493975903614458,6.072289156626506,7.542168674698796,6.481912936848559,0.5462906192519926,8.27958307786634,2.0,2.6893772893772896,371.83328793244345,-0.18145795699551298,0.007458772798787419,0.3809801293630908,1331.8681318681317,-1.0,64.73543841164269,2.675180829161367,
2023-08-12 16:33:47.624000,0.3614457831325301,6.072289156626506,7.530120481927711,6.420600858369099,0.5781729000613121,8.257510729613733,2.0,2.6893772893772896,371.83328793244345,-0.16455917487325872,0.31618204067362027,0.6113862828506497,1341.3919413919414,-1.0,64.73543841164269,2.6752908284143784,
2023-08-12 16:33:47.632000,0.3614457831325301,6.060240963855422,7.506024096385542,6.3445738810545675,0.5389331698344574,8.24770079705702,2.0,2.6908424908424915,371.6308194936019,0.06573043528931848,0.09964454285880783,-0.001981236524678125,1353.113553113553,-1.0,64.73543841164269,2.675401735849041,
2023-08-12 16:33:47.639000,0.3614457831325301,6.024096385542169,7.530120481927711,6.445125689760882,0.5389331698344574,8.26241569589209,2.0,2.6908424908424915,371.6308194936019,0.0533768428413255,0.12994580735388434,0.32317464017248393,1368.4981684981683,-1.0,64.73543841164269,2.675513547392596,
2023-08-12 16:33:47.647000,0.3734939759036145,6.0361445783132535,7.481927710843374,6.472103004291845,0.5364806866952789,8.250153280196198,2.0,2.6908424908424915,371.6308194936019,-0.11269739525668582,0.22073305751413125,0.41780782005710626,1386.8131868131868,-1.0,64.73543841164269,2.6756262592602664,
2023-08-12 16:33:47.655000,0.3734939759036145,6.0361445783132535,7.493975903614459,6.3666462293071735,0.5462906192519926,8.277130594727161,2.0,2.6908424908424915,371.6308194936019,0.12202086125517184,0.14288211642678147,0.4037060777343977,1407.3260073260071,-1.0,64.73543841164269,2.675739867486145,
2023-08-12 16:33:47.662000,0.3734939759036145,6.0120481927710845,7.518072289156627,6.400980993255671,0.5708154506437768,8.267320662170446,2.0,2.6908424908424915,371.6308194936019,0.0643319153895467,0.14218285647689471,0.265951867606783,1425.6410256410256,-1.0,64.73543841164269,2.67585436791211,
2023-08-12 16:33:47.670000,0.3734939759036145,6.024096385542169,7.530120481927711,6.427958307786634,0.607602697731453,8.274678111587983,2.0,2.6908424908424915,371.6308194936019,-0.10232503933337228,-0.029835091195151413,-0.14684458947613774,1446.8864468864467,-1.0,64.73543841164269,2.675969756176791,
2023-08-12 16:33:47.677000,0.3734939759036145,6.0361445783132535,7.530120481927711,6.4107909258123845,0.5610055180870631,8.237890864500306,2.0,2.6908424908424915,371.6308194936019,0.31186993764932064,0.04696695996736735,0.09999417283375121,1468.8644688644688,-1.0,64.73543841164269,2.6760860277045384,
2023-08-12 16:33:47.685000,0.3734939759036145,6.0120481927710845,7.542168674698796,6.45003065603924,0.5561005518087063,8.299202942979766,2.0,2.6923076923076925,371.4285714285714,0.2955538721519723,-0.1364722335528233,0.08740749373579658,1490.10989010989,-1.0,64.73543841164269,2.676203177694267,
2023-08-12 16:33:47.693000,0.3614457831325301,6.0361445783132535,7.518072289156627,6.4255058246474555,0.5806253832004905,8.26241569589209,2.0,2.6908424908424915,371.6308194936019,0.5729269856068995,0.01713186877221594,0.24194394266068384,1508.4249084249084,-1.0,64.73543841164269,2.6763212016007683,
2023-08-12 16:33:47.700000,0.3614457831325301,6.072289156626506,7.542168674698796,6.467198038013488,0.4776210913549969,8.240343347639485,2.0,2.6923076923076925,371.4285714285714,0.3138511741739983,-0.07470427131286024,0.12050579803041792,1523.8095238095236,-1.0,64.73543841164269,2.67644009470258,
2023-08-12 16:33:47.708000,0.3373493975903615,6.0843373493975905,7.518072289156627,6.4622930717351315,0.5511955855303494,8.210913549969343,2.0,2.6923076923076925,371.4285714285714,0.3414719421945104,0.2912417691276727,0.3654798671406096,1536.263736263736,-1.0,64.73543841164269,2.6765598520581184,
2023-08-12 16:33:47.716000,0.3493975903614458,6.060240963855422,7.518072289156627,6.4475781729000605,0.507050889025138,8.301655426118945,2.0,2.6923076923076925,371.4285714285714,0.3258551366470488,-3.496299749425094E-4,-0.06281685216479235,1544.3223443223442,-1.0,64.73543841164269,2.6766804690238204,
2023-08-12 16:33:47.723000,0.39759036144578314,6.0361445783132535,7.518072289156627,6.445125689760882,0.5732679337829553,8.242795830778663,2.0,2.6908424908424915,371.6308194936019,0.06165141891498225,0.04673387331740568,-0.24509061243517294,1544.3223443223442,-1.0,64.73543841164269,2.6768019403314347,
2023-08-12 16:33:47.731000,0.39759036144578314,6.060240963855422,7.518072289156627,6.501532801961986,0.5242182709993869,8.267320662170446,2.0,2.6908424908424915,371.6308194936019,0.272711380455685,-0.07691859448750134,-0.011770875823087047,1542.1245421245421,-1.0,64.73543841164269,2.676924260571297,
2023-08-12 16:33:47.739000,0.3734939759036145,6.096385542168675,7.506024096385542,6.479460453709381,0.5830778663396688,8.250153280196198,2.0,2.6923076923076925,371.4285714285714,0.08775712371073996,0.3372763824951933,0.005477536274109728,1538.4615384615383,-1.0,64.73543841164269,2.677047424008857,
2023-08-12 16:33:47.746000,0.3614457831325301,6.048192771084338,7.481927710843374,6.435315757204169,0.5487431023911711,8.228080931943593,2.0,2.6923076923076925,371.4285714285714,-0.4030068177845118,-0.16758930132276742,0.130178894003846,1531.135531135531,-1.0,64.73543841164269,2.6771714246088902,
2023-08-12 16:33:47.754000,0.3855421686746988,6.060240963855422,7.530120481927711,6.4402207234825255,0.5781729000613121,8.252605763335376,2.0,2.6923076923076925,371.4285714285714,-0.3262047666219913,0.24847036885962412,-0.053027212866383,1520.14652014652,-1.0,64.73543841164269,2.6772962565861023,
2023-08-12 16:33:47.762000,0.3855421686746988,6.060240963855422,7.518072289156627,6.474555487431023,0.5732679337829553,8.250153280196198,2.0,2.6923076923076925,371.4285714285714,0.021793601771458074,-0.07295612143814421,-0.15989744187401658,1504.7619047619046,-1.0,64.73543841164269,2.677421913937367,
2023-08-12 16:33:47.769000,0.3855421686746988,6.048192771084338,7.506024096385542,6.408338442673206,0.5487431023911711,8.272225628448805,2.0,2.693772893772894,371.22654337775356,0.0640988287395833,0.14160013985199055,-0.09836256628401603,1488.6446886446886,-1.0,64.73543841164269,2.6775483904311987,
2023-08-12 16:33:47.777000,0.3373493975903615,6.0120481927710845,7.55421686746988,6.4107909258123845,0.5511955855303494,8.21827099938688,2.0,2.693772893772894,371.22654337775356,-0.07645242118757625,0.23355282326204754,-0.3418215721694538,1472.5274725274724,-1.0,64.73543841164269,2.677675680089126,
2023-08-12 16:33:47.785000,0.3614457831325301,6.0361445783132535,7.506024096385542,6.494175352544451,0.5291232372777437,8.240343347639485,2.0,2.6923076923076925,371.4285714285714,-0.42701474273060924,0.23355282326204754,-0.32270846687256016,1460.07326007326,-1.0,64.73543841164269,2.6778037772457166,
2023-08-12 16:33:47.792000,0.3493975903614458,6.048192771084338,7.506024096385542,6.4181483752299195,0.507050889025138,8.24770079705702,2.0,2.693772893772894,371.22654337775356,-0.2419439426606834,0.2348347998368385,-0.3968300215605149,1448.3516483516482,-1.0,64.73543841164269,2.677932675590483,
2023-08-12 16:33:47.800000,0.3614457831325301,6.0361445783132535,7.518072289156627,6.467198038013488,0.49478847332924586,8.21827099938688,2.0,2.693772893772894,371.22654337775356,-0.24101159606083497,0.23320319328710504,-0.39228483188625357,1437.3626373626373,-1.0,64.73543841164269,2.6780623685803757,
2023-08-12 16:33:47.808000,0.3734939759036145,6.048192771084338,7.542168674698796,6.477007970570202,0.4800735744941753,8.259963212752911,2.0,2.693772893772894,371.22654337775356,-0.3939164384359892,0.16980362449740677,-0.3285356331216128,1430.7692307692307,-1.0,64.73543841164269,2.6781928499557237,
2023-08-12 16:33:47.815000,0.3734939759036145,6.072289156626506,7.578313253012048,6.494175352544451,0.5536480686695279,8.272225628448805,2.0,2.693772893772894,371.22654337775356,-0.4816735621467274,0.04789930656721578,-0.23541751646174483,1424.1758241758241,-1.0,64.73543841164269,2.6783241132725477,
2023-08-12 16:33:47.823000,0.3734939759036145,6.048192771084338,7.566265060240965,6.3813611281422435,0.51931330472103,8.30901287553648,2.0,2.693772893772894,371.22654337775356,-0.20010488899248327,0.6421537206456499,-0.3276032865217644,1419.7802197802198,-1.0,64.73543841164269,2.678456151434123,
2023-08-12 16:33:47.831000,0.3734939759036145,6.0120481927710845,7.530120481927711,6.398528510116493,0.5977927651747393,8.30901287553648,2.0,2.693772893772894,371.22654337775356,-0.2266767670881643,0.3462502185187351,-0.464192063399569,1417.5824175824175,-1.0,64.73543841164269,2.6785889572047075,
2023-08-12 16:33:47.838000,0.3493975903614458,6.048192771084338,7.506024096385542,6.481912936848559,0.489883507050889,8.277130594727161,2.0,2.693772893772894,371.22654337775356,0.27842200337975637,-0.49589184779441725,-0.415593496882466,1419.7802197802198,-1.0,64.73543841164269,2.678722523618323,
2023-08-12 16:33:47.846000,0.3253012048192771,6.0843373493975905,7.506024096385542,6.4696505211526665,0.48743102391171056,8.282035561005518,2.0,2.6952380952380954,371.0247349823321,0.12470135772973627,-0.5362158382378648,-0.7800244740982459,1424.1758241758241,-1.0,64.73543841164269,2.6788568430155117,
2023-08-12 16:33:47.854000,0.3373493975903615,6.048192771084338,7.518072289156627,6.405885959534028,0.507050889025138,8.257510729613733,2.0,2.693772893772894,371.22654337775356,-0.16607423809801306,0.0632830254647157,-0.7801410174232267,1428.5714285714284,-1.0,64.73543841164269,2.6789919080473195,
2023-08-12 16:33:47.861000,0.3493975903614458,6.024096385542169,7.55421686746988,6.530962599632127,0.4653586756591048,8.237890864500306,2.0,2.6952380952380954,371.0247349823321,0.3499796049181288,0.12318629450498193,-0.2894936192529575,1432.2344322344322,-1.0,64.73543841164269,2.679127711660947,
2023-08-12 16:33:47.869000,0.3734939759036145,6.060240963855422,7.530120481927711,6.437768240343347,0.460453709380748,8.26241569589209,2.0,2.6952380952380954,371.0247349823321,0.2548802517335823,-0.10663714235767191,-0.3978789114853446,1437.3626373626373,-1.0,64.73543841164269,2.6792642461017957,
2023-08-12 16:33:47.877000,0.3614457831325301,6.060240963855422,7.518072289156627,6.481912936848559,0.5438381361128142,8.274678111587983,2.0,2.693772893772894,371.22654337775356,0.19124759629392235,-0.2997494318512911,-0.5039333372181111,1441.0256410256409,-1.0,64.73543841164269,2.67940150349447,
2023-08-12 16:33:47.884000,0.3493975903614458,6.060240963855422,7.506024096385542,6.4475781729000605,0.43102391171060694,8.215818516247701,2.0,2.6952380952380954,371.0247349823321,-0.2699143406561397,0.02540644484587095,-0.5322533651885085,1442.4908424908424,-1.0,64.73543841164269,2.6795394758263447,
2023-08-12 16:33:47.892000,0.3253012048192771,6.060240963855422,7.518072289156627,6.518700183936235,0.507050889025138,8.267320662170446,2.0,2.6952380952380954,371.0247349823321,0.08297884738651524,0.20814637841617661,-0.6841093176388322,1445.4212454212454,-1.0,64.73543841164269,2.6796781552841606,
2023-08-12 16:33:47.900000,0.30120481927710846,6.0843373493975905,7.518072289156627,6.459840588595953,0.5095033721643163,8.24770079705702,2.0,2.6952380952380954,371.0247349823321,-0.07248994813822088,0.2373987529864221,-0.0710914282384478,1445.4212454212454,-1.0,64.73543841164269,2.6798175338153563,
2023-08-12 16:33:47.907000,0.3373493975903615,6.060240963855422,7.518072289156627,6.467198038013488,0.5364806866952789,8.272225628448805,2.0,2.696703296703297,370.82314588427056,0.0025639531495836093,0.2865800361284305,-0.02727113804556867,1439.5604395604394,-1.0,64.73543841164269,2.679957602723245,
2023-08-12 16:33:47.915000,0.3614457831325301,6.1084337349397595,7.493975903614459,6.491722869405272,0.48497854077253216,8.286940527283875,2.0,2.696703296703297,370.82314588427056,-0.17236757764699037,0.2559291416584115,-0.061534875590000544,1428.5714285714284,-1.0,64.73543841164269,2.6800983536327845,
2023-08-12 16:33:47.923000,0.3493975903614458,6.096385542168675,7.518072289156627,6.496627835683629,0.5340282035561005,8.277130594727161,2.0,2.696703296703297,370.82314588427056,-0.3419381154944355,0.3757356797389423,0.16607423809801306,1418.3150183150183,-1.0,64.73543841164269,2.6802397785427914,
2023-08-12 16:33:47.930000,0.3493975903614458,6.0361445783132535,7.542168674698796,6.37155119558553,0.51931330472103,8.333537706928265,2.0,2.696703296703297,370.82314588427056,-0.5393625080123543,0.09766330633413015,-0.019812365246780383,1412.4542124542124,-1.0,64.73543841164269,2.6803818693531416,
2023-08-12 16:33:47.938000,0.3614457831325301,6.048192771084338,7.55421686746988,6.442673206621704,0.5242182709993869,8.255058246474555,2.0,2.696703296703297,370.82314588427056,-0.35825418099178385,-0.024007924946099175,-0.14579569955130847,1408.058608058608,-1.0,64.73543841164269,2.6805246178499256,
2023-08-12 16:33:47.946000,0.3614457831325301,6.048192771084338,7.518072289156627,6.445125689760882,0.5266707541385652,8.242795830778663,2.0,2.696703296703297,370.82314588427056,-0.40545422760911287,0.11223122195676248,-0.13414136705320226,1404.3956043956043,-1.0,64.73543841164269,2.6806680156906015,
2023-08-12 16:33:47.953000,0.3493975903614458,6.0361445783132535,7.530120481927711,6.427958307786634,0.5536480686695279,8.23298589822195,2.0,2.6981684981684984,370.62177572631003,-0.7873667035720533,0.21968416758930198,0.07773439776236805,1402.9304029304028,-1.0,64.73543841164269,2.6808120543890683,
2023-08-12 16:33:47.961000,0.3373493975903615,6.0361445783132535,7.518072289156627,6.4622930717351315,0.48743102391171056,8.267320662170446,2.0,2.6981684981684984,370.62177572631003,-0.7078841559349685,0.18751820989452864,-0.24858691218460452,1403.6630036630036,-1.0,64.73543841164269,2.6809567257932514,
2023-08-12 16:33:47.969000,0.3493975903614458,6.0361445783132535,7.55421686746988,6.388718577559779,0.5291232372777437,8.353157572041692,2.0,2.696703296703297,370.82314588427056,-0.397063108210477,0.23471825651185765,-0.15884855194918732,1405.8608058608058,-1.0,64.73543841164269,2.6811020221419692,
2023-08-12 16:33:47.976000,0.3734939759036145,6.0120481927710845,7.542168674698796,6.415695892090741,0.5585530349478847,8.306560392397301,2.0,2.696703296703297,370.82314588427056,-0.24124468271079838,0.17469844414661231,-0.23774838296136547,1409.5238095238094,-1.0,64.73543841164269,2.68124793510434,
2023-08-12 16:33:47.984000,0.3614457831325301,5.987951807228916,7.542168674698796,6.420600858369099,0.48743102391171056,8.299202942979766,2.0,2.6981684981684984,370.62177572631003,0.11362974185653599,0.0802983509119508,-0.3944991550608943,1412.4542124542124,-1.0,64.73543841164269,2.681394455697725,
2023-08-12 16:33:47.992000,0.3614457831325301,6.024096385542169,7.530120481927711,6.445125689760882,0.48743102391171056,8.27958307786634,2.0,2.6981684981684984,370.62177572631003,-0.28238447642911174,-0.12167123128022758,-0.5795699551308201,1413.9194139194137,-1.0,64.73543841164269,2.6815415752229743,
2023-08-12 16:33:47.999000,0.3493975903614458,6.048192771084338,7.506024096385542,6.435315757204169,0.5757204169221336,8.26241569589209,2.0,2.6981684981684984,370.62177572631003,-0.22015034088922533,-4.661732999250815E-4,-0.8254763708408602,1416.8498168498168,-1.0,64.73543841164269,2.6816892853206915,
2023-08-12 16:33:48.007000,0.3373493975903615,6.0361445783132535,7.542168674698796,6.391171060698957,0.5511955855303494,8.235438381361128,2.0,2.6981684981684984,370.62177572631003,-0.4488083445020691,0.13507371365304982,-1.1143872734689118,1418.3150183150183,-1.0,64.73543841164269,2.6818375775023084,
2023-08-12 16:33:48.015000,0.3373493975903615,6.0120481927710845,7.542168674698796,6.391171060698957,0.49969343960760265,8.27958307786634,2.0,2.6981684981684984,370.62177572631003,-0.049647456441931796,0.24124468271079838,-0.6648796690169573,1417.5824175824175,-1.0,64.73543841164269,2.68198644313889,
2023-08-12 16:33:48.022000,0.3373493975903615,6.024096385542169,7.542168674698796,6.4255058246474555,0.5438381361128142,8.225628448804414,2.0,2.6981684981684984,370.62177572631003,0.29030942252782427,-0.0055940795990905645,-0.875356913932754,1416.8498168498168,-1.0,64.73543841164269,2.6821358734496337,
2023-08-12 16:33:48.030000,0.3373493975903615,6.0361445783132535,7.493975903614459,6.4402207234825255,0.5217657878602084,8.24770079705702,2.0,2.6981684981684984,370.62177572631003,0.013752112347764738,0.437037468678982,-0.5189674261406676,1410.989010989011,-1.0,64.73543841164269,2.682285859490041,
2023-08-12 16:33:48.037000,0.3614457831325301,6.0361445783132535,7.542168674698796,6.4402207234825255,0.4923359901900674,8.259963212752911,2.0,2.6996336996337,370.4206241519674,0.016432608822329185,0.10022725948371375,-0.7145271254588891,1405.128205128205,-1.0,64.73543841164269,2.68243639259746,
2023-08-12 16:33:48.045000,0.3614457831325301,6.0361445783132535,7.518072289156627,6.437768240343347,0.5683629675045984,8.264868179031268,2.0,2.6981684981684984,370.62177572631003,-0.1335586504282972,0.007342229473806583,-0.47992541227201274,1399.2673992673992,-1.0,64.73543841164269,2.6825874643457492,
2023-08-12 16:33:48.053000,0.3493975903614458,6.048192771084338,7.506024096385542,6.420600858369099,0.48497854077253216,8.228080931943593,2.0,2.6981684981684984,370.62177572631003,-0.08461045393625043,-0.42235300973136713,-0.7034555095856888,1396.3369963369962,-1.0,64.73543841164269,2.682739065690131,
2023-08-12 16:33:48.060000,0.3253012048192771,6.024096385542169,7.506024096385542,6.4255058246474555,0.4212139791538933,8.289393010423053,2.0,2.6996336996337,370.4206241519674,0.07132451488840903,-0.14591224287628843,-0.5725773556319564,1395.6043956043954,-1.0,64.73543841164269,2.6828911869204046,
2023-08-12 16:33:48.068000,0.3132530120481928,6.0361445783132535,7.542168674698796,6.413243408951563,0.4653586756591048,8.289393010423053,2.0,2.6996336996337,370.4206241519674,0.03892547054367401,0.054425732766156504,-0.5666336460579221,1396.3369963369962,-1.0,64.73543841164269,2.683043818596314,
2023-08-12 16:33:48.076000,0.3132530120481928,6.060240963855422,7.55421686746988,6.435315757204169,0.5217657878602084,8.235438381361128,2.0,2.6996336996337,370.4206241519674,0.036244974069109565,0.05559116601596661,-0.5606899364838882,1394.8717948717947,-1.0,64.73543841164269,2.6831969511457574,
2023-08-12 16:33:48.083000,0.30120481927710846,6.048192771084338,7.566265060240965,6.4034334763948495,0.4702636419374617,8.306560392397301,2.0,2.6996336996337,370.4206241519674,-0.1911310529689415,0.00827457607365501,-0.1729502942718963,1390.4761904761904,-1.0,64.73543841164269,2.6833505749204876,
2023-08-12 16:33:48.091000,0.3132530120481928,6.0361445783132535,7.542168674698796,6.3813611281422435,0.4629061925199264,8.291845493562231,2.0,2.6996336996337,370.4206241519674,0.09987762950876951,0.23611677641163117,-0.19812365246780558,1385.3479853479853,-1.0,64.73543841164269,2.6835046801473603,
2023-08-12 16:33:48.099000,0.30120481927710846,6.0361445783132535,7.530120481927711,6.459840588595953,0.47271612507664007,8.301655426118945,2.0,2.7010989010989013,370.21969080553293,0.221432317464018,0.22178194743896051,0.15814929199930056,1379.4871794871794,-1.0,64.73543841164269,2.6836592564910373,
2023-08-12 16:33:48.106000,0.3132530120481928,6.0361445783132535,7.55421686746988,6.378908645003065,0.507050889025138,8.274678111587983,2.0,2.7010989010989013,370.21969080553293,-0.052327952916496244,0.051861779616572894,0.23646640638657454,1378.021978021978,-1.0,64.73543841164269,2.683814294022529,
2023-08-12 16:33:48.114000,0.30120481927710846,6.024096385542169,7.518072289156627,6.486817903126916,0.49969343960760265,8.228080931943593,2.0,2.7010989010989013,370.21969080553293,0.5139560631664816,0.019462735271837873,0.2075636617912707,1376.5567765567764,-1.0,64.73543841164269,2.6839697832745673,
2023-08-12 16:33:48.122000,0.3253012048192771,6.048192771084338,7.55421686746988,6.388718577559779,0.4776210913549969,8.27958307786634,2.0,2.7010989010989013,370.21969080553293,0.21991725423926364,0.10966726880717886,0.8819998834566748,1375.091575091575,-1.0,64.73543841164269,2.684125714772352,
2023-08-12 16:33:48.129000,0.3373493975903615,6.048192771084338,7.55421686746988,6.467198038013488,0.4702636419374617,8.29429797670141,2.0,2.7010989010989013,370.21969080553293,0.1715517743721228,0.18402191014509658,0.6487966901695702,1373.6263736263736,-1.0,64.73543841164269,2.6842820790225943,
2023-08-12 16:33:48.137000,0.3373493975903615,6.024096385542169,7.55421686746988,6.442673206621704,0.5095033721643163,8.30901287553648,2.0,2.7010989010989013,370.21969080553293,0.3674611036652873,-0.13857001340248185,0.6630149758172604,1370.6959706959706,-1.0,64.73543841164269,2.684438866502879,
2023-08-12 16:33:48.145000,0.3373493975903615,6.048192771084338,7.530120481927711,6.523605150214592,0.502145922746781,8.274678111587983,2.0,2.7010989010989013,370.21969080553293,0.33447934269564633,-0.21420663131519224,0.3238739001223703,1364.8351648351647,-1.0,64.73543841164269,2.684596067651216,
2023-08-12 16:33:48.152000,0.3373493975903615,6.060240963855422,7.530120481927711,6.452483139178418,0.5315757204169221,8.299202942979766,2.0,2.7010989010989013,370.21969080553293,-0.05034671639181855,0.1681720179476716,0.24730493560981315,1358.974358974359,-1.0,64.73543841164269,2.6847536728556856,
2023-08-12 16:33:48.160000,0.3614457831325301,6.060240963855422,7.542168674698796,6.45003065603924,0.5242182709993869,8.299202942979766,2.0,2.7010989010989013,370.21969080553293,0.2540644484587147,0.2898432492279009,0.049181283142007585,1356.7765567765566,-1.0,64.73543841164269,2.6849116724440307,
2023-08-12 16:33:48.168000,0.3493975903614458,6.060240963855422,7.530120481927711,6.4255058246474555,0.49724095646842426,8.24770079705702,2.0,2.7010989010989013,370.21969080553293,0.43622166540411444,0.20779674844123236,0.4472932812773147,1358.2417582417581,-1.0,64.73543841164269,2.685070056673107,
2023-08-12 16:33:48.175000,0.3373493975903615,6.048192771084338,7.542168674698796,6.457388105456775,0.5119558553034947,8.313917841814837,2.0,2.7025641025641027,370.0189753320683,0.04953091311695096,0.4024241011596059,0.3372763824951925,1361.1721611721612,-1.0,64.73543841164269,2.6852288152601425,
2023-08-12 16:33:48.183000,0.3614457831325301,6.060240963855422,7.542168674698796,6.481912936848559,0.48497854077253216,8.272225628448805,2.0,2.6996336996337,370.4206241519674,0.15663422877454622,0.2753918769302494,0.02703805139560613,1361.1721611721612,-1.0,64.73543841164269,2.685387937931417,
2023-08-12 16:33:48.191000,0.3614457831325301,6.0361445783132535,7.542168674698796,6.430410790925812,0.4800735744941753,8.272225628448805,2.0,2.7010989010989013,370.21969080553293,0.2632713711322181,0.1523221257502483,0.01223704912301126,1359.7069597069597,-1.0,64.73543841164269,2.6855474149014325,
2023-08-12 16:33:48.198000,0.3614457831325301,6.024096385542169,7.530120481927711,6.3666462293071735,0.5217657878602084,8.259963212752911,2.0,2.7010989010989013,370.21969080553293,0.3998601480100223,0.2863469494784689,-0.13891964337742524,1355.3113553113553,-1.0,64.73543841164269,2.685707236160432,
2023-08-12 16:33:48.206000,0.3855421686746988,6.0361445783132535,7.506024096385542,6.430410790925812,0.49478847332924586,8.206008583690986,2.0,2.7025641025641027,370.0189753320683,0.337509469145155,0.06689586853912857,-0.6704737486160479,1351.6483516483515,-1.0,64.73543841164269,2.6858673915316675,
2023-08-12 16:33:48.214000,0.3493975903614458,6.048192771084338,7.506024096385542,6.523605150214592,0.502145922746781,8.252605763335376,2.0,2.7025641025641027,370.0189753320683,-0.18390536682011577,0.24928617213449172,-0.3750364197890564,1348.7179487179487,-1.0,64.73543841164269,2.68602787118538,
2023-08-12 16:33:48.221000,0.3734939759036145,6.048192771084338,7.518072289156627,6.427958307786634,0.5585530349478847,8.252605763335376,2.0,2.7025641025641027,370.0189753320683,0.06573043528931848,0.018064215372064367,-0.6940155002622219,1345.054945054945,-1.0,64.73543841164269,2.686188665238625,
2023-08-12 16:33:48.229000,0.3493975903614458,6.0361445783132535,7.530120481927711,6.3813611281422435,0.5242182709993869,8.274678111587983,2.0,2.7025641025641027,370.0189753320683,-0.11269739525668582,0.09253540003496293,-0.6295670415476953,1342.1245421245421,-1.0,64.73543841164269,2.686349763354619,
2023-08-12 16:33:48.237000,0.3493975903614458,6.048192771084338,7.530120481927711,6.4181483752299195,0.5511955855303494,8.230533415082771,2.0,2.7025641025641027,370.0189753320683,-0.0632830254647157,-0.1242351844298112,-0.8549618320610687,1339.9267399267399,-1.0,64.73543841164269,2.6865111552204795,
2023-08-12 16:33:48.244000,0.3614457831325301,6.024096385542169,7.530120481927711,6.4402207234825255,0.5585530349478847,8.289393010423053,2.0,2.7025641025641027,370.0189753320683,-0.12190431793019099,0.16514189149816463,-0.6189615989744192,1337.7289377289376,-1.0,64.73543841164269,2.6866728305322547,
2023-08-12 16:33:48.252000,0.3734939759036145,6.0361445783132535,7.530120481927711,6.452483139178418,0.5561005518087063,8.240343347639485,2.0,2.7025641025641027,370.0189753320683,-0.11735912825592969,-0.5402948546122027,-0.7210535516578289,1339.194139194139,-1.0,64.73543841164269,2.686834778979796,
2023-08-12 16:33:48.260000,0.3614457831325301,6.024096385542169,7.542168674698796,6.4255058246474555,0.5904353157572041,8.250153280196198,2.0,2.7040293040293046,369.81847737740446,-0.12808111415418746,-0.3854087757123708,-0.5933220674785848,1340.6593406593406,-1.0,64.73543841164269,2.6869969902313664,
2023-08-12 16:33:48.267000,0.3614457831325301,6.0361445783132535,7.530120481927711,6.4107909258123845,0.489883507050889,8.24770079705702,2.0,2.7040293040293046,369.81847737740446,-0.24765456558475654,-0.34007342229473864,-0.5877279878794939,1339.9267399267399,-1.0,64.73543841164269,2.6871594544105624,
2023-08-12 16:33:48.275000,0.3373493975903615,6.0361445783132535,7.506024096385542,6.420600858369099,0.5389331698344574,8.255058246474555,2.0,2.7040293040293046,369.81847737740446,-0.3218926635976917,-0.4455451314025987,-0.6575374395431502,1334.065934065934,-1.0,64.73543841164269,2.6873221621522667,
2023-08-12 16:33:48.283000,0.3614457831325301,6.024096385542169,7.530120481927711,6.4328632740649905,0.5266707541385652,8.250153280196198,2.0,2.7025641025641027,370.0189753320683,-0.564419322883281,-0.3053435114503817,-0.6511275566691916,1326.7399267399267,-1.0,64.73543841164269,2.687485104133549,
2023-08-12 16:33:48.290000,0.3253012048192771,6.0361445783132535,7.506024096385542,6.501532801961986,0.507050889025138,8.274678111587983,2.0,2.7040293040293046,369.81847737740446,-0.30254647165083637,-0.3813297593380346,-0.902511508653342,1320.14652014652,-1.0,64.73543841164269,2.6876482705696927,
2023-08-12 16:33:48.298000,0.3373493975903615,6.060240963855422,7.518072289156627,6.4622930717351315,0.4629061925199264,8.259963212752911,2.0,2.7040293040293046,369.81847737740446,-0.3143173474739234,-0.4870345550958563,-0.8159198181924125,1315.7509157509157,-1.0,64.73543841164269,2.687811651623203,
2023-08-12 16:33:48.306000,0.3373493975903615,6.048192771084338,7.530120481927711,6.393623543838136,0.4678111587982832,8.272225628448805,2.0,2.7040293040293046,369.81847737740446,-0.5857467513548157,-0.5929724375036415,-0.8499504690868828,1314.2857142857142,-1.0,64.73543841164269,2.6879752379164965,
2023-08-12 16:33:48.313000,0.3132530120481928,6.0361445783132535,7.518072289156627,6.484365419987737,0.4653586756591048,8.296750459840588,2.0,2.7040293040293046,369.81847737740446,-0.39776236816036376,-0.4991550608938876,-0.8233785909912004,1312.087912087912,-1.0,64.73543841164269,2.6881390196033363,
2023-08-12 16:33:48.321000,0.30120481927710846,6.048192771084338,7.518072289156627,6.486817903126916,0.49724095646842426,8.274678111587983,2.0,2.7040293040293046,369.81847737740446,-0.3167647572985262,-0.26700075753161184,-0.9026280519783227,1310.6227106227104,-1.0,64.73543841164269,2.688302986422724,
2023-08-12 16:33:48.329000,0.3132530120481928,6.0361445783132535,7.530120481927711,6.472103004291845,0.4702636419374617,8.220723482526058,2.0,2.7054945054945057,369.6181965881397,-0.6968125400617681,-0.2505681487092827,-0.40149175455975744,1314.2857142857142,-1.0,64.73543841164269,2.6884671286311637,
2023-08-12 16:33:48.336000,0.3373493975903615,6.0361445783132535,7.542168674698796,6.413243408951563,0.47271612507664007,8.286940527283875,2.0,2.7040293040293046,369.81847737740446,-0.7211700949828098,-0.14241594312685812,-0.7462269098537382,1318.6813186813185,-1.0,64.73543841164269,2.6886314369518436,
2023-08-12 16:33:48.344000,0.3253012048192771,6.048192771084338,7.518072289156627,6.4696505211526665,0.48252605763335377,8.32372777437155,2.0,2.7040293040293046,369.81847737740446,-0.6069576365013696,0.19416117941844846,-0.5809684750305928,1323.8095238095236,-1.0,64.73543841164269,2.688795902172354,
2023-08-12 16:33:48.352000,0.3132530120481928,6.024096385542169,7.55421686746988,6.4034334763948495,0.48743102391171056,8.228080931943593,2.0,2.7040293040293046,369.81847737740446,-0.6021793601771467,0.19217994289377077,-0.571411922382146,1328.937728937729,-1.0,64.73543841164269,2.688960515026119,
2023-08-12 16:33:48.359000,0.3132530120481928,6.024096385542169,7.542168674698796,6.398528510116493,0.3966891477621091,8.299202942979766,2.0,2.7040293040293046,369.81847737740446,-0.657420896218169,-0.12866383077909166,-0.3954315016607427,1334.7985347985348,-1.0,64.73543841164269,2.6891252661426215,
2023-08-12 16:33:48.367000,0.30120481927710846,6.0361445783132535,7.518072289156627,6.445125689760882,0.4653586756591048,8.26241569589209,2.0,2.7054945054945057,369.6181965881397,-0.5907581143290022,-0.17388264087174474,-0.31152030767437816,1339.194139194139,-1.0,64.73543841164269,2.6892901455734086,
2023-08-12 16:33:48.375000,0.3132530120481928,6.0361445783132535,7.506024096385542,6.521152667075413,0.48743102391171056,8.264868179031268,2.0,2.7054945054945057,369.6181965881397,-0.5693141425324866,0.08764058038575911,-0.5034671639181868,1339.194139194139,-1.0,64.73543841164269,2.689455143334617,
2023-08-12 16:33:48.382000,0.30120481927710846,6.024096385542169,7.518072289156627,6.415695892090741,0.45554874310239113,8.230533415082771,2.0,2.7054945054945057,369.6181965881397,-0.4275974593555152,-0.36990851348989,-0.31466697744886724,1342.8571428571427,-1.0,64.73543841164269,2.6896202499488417,
2023-08-12 16:33:48.390000,0.3132530120481928,6.0361445783132535,7.530120481927711,6.45003065603924,0.4653586756591048,8.240343347639485,2.0,2.7069597069597076,369.4181326116373,-0.3621001107161584,-0.23005652351261552,-0.1580327486743197,1347.2527472527472,-1.0,64.73543841164269,2.6897854559690653,
2023-08-12 16:33:48.398000,0.28915662650602414,6.048192771084338,7.518072289156627,6.467198038013488,0.49478847332924586,8.30901287553648,2.0,2.7054945054945057,369.6181965881397,-0.4182739933570309,-0.3074412913000402,-0.04813239321717875,1352.3809523809523,-1.0,64.73543841164269,2.689950752452948,
2023-08-12 16:33:48.405000,0.30120481927710846,6.060240963855422,7.518072289156627,6.398528510116493,0.48743102391171056,8.252605763335376,2.0,2.7069597069597076,369.4181326116373,-0.7658061884505569,0.21222539479051283,-0.18332265019521027,1356.0439560439559,-1.0,64.73543841164269,2.690116130523721,
2023-08-12 16:33:48.413000,0.3253012048192771,6.060240963855422,7.542168674698796,6.415695892090741,0.4481912936848559,8.267320662170446,2.0,2.7054945054945057,369.6181965881397,-0.37783345958860254,-0.0476662199172541,0.03333139094458345,1358.974358974359,-1.0,64.73543841164269,2.6902815813193417,
2023-08-12 16:33:48.420000,0.3373493975903615,6.048192771084338,7.530120481927711,6.518700183936235,0.5217657878602084,8.286940527283875,2.0,2.7069597069597076,369.4181326116373,-0.2673503875065561,-0.0916030534351145,-0.04009090379348498,1363.3699633699632,-1.0,64.73543841164269,2.690447096011115,
2023-08-12 16:33:48.428000,0.3373493975903615,6.060240963855422,7.530120481927711,6.484365419987737,0.49478847332924586,8.289393010423053,2.0,2.7069597069597076,369.4181326116373,-0.5222306392401384,0.12085542800536173,0.10185886603344764,1364.8351648351647,-1.0,64.73543841164269,2.690612665294683,
2023-08-12 16:33:48.436000,0.3132530120481928,6.072289156626506,7.566265060240965,6.481912936848559,0.5242182709993869,8.286940527283875,2.0,2.7069597069597076,369.4181326116373,-0.6541576831186986,0.02960200454518974,-0.14288211642678147,1367.7655677655678,-1.0,64.73543841164269,2.6907782799680438,
2023-08-12 16:33:48.443000,0.3253012048192771,6.0361445783132535,7.542168674698796,6.479460453709381,0.5291232372777437,8.274678111587983,2.0,2.7069597069597076,369.4181326116373,-0.6462327370199878,0.36536332381562875,-0.24800419555969946,1367.7655677655678,-1.0,64.73543841164269,2.690943930947696,
2023-08-12 16:33:48.451000,0.3373493975903615,6.0120481927710845,7.530120481927711,6.420600858369099,0.49969343960760265,8.30901287553648,2.0,2.7069597069597076,369.4181326116373,-0.5921566342287738,0.04195559699318271,0.18308956354524772,1366.3003663003662,-1.0,64.73543841164269,2.6911096092504407,
2023-08-12 16:33:48.459000,0.3614457831325301,6.024096385542169,7.518072289156627,6.405885959534028,0.5340282035561005,8.277130594727161,2.0,2.7069597069597076,369.4181326116373,-0.37200629333954854,-0.14008507662723618,-0.10442281918303167,1364.102564102564,-1.0,64.73543841164269,2.6912753059756596,
2023-08-12 16:33:48.466000,0.3493975903614458,6.048192771084338,7.506024096385542,6.459840588595953,0.5364806866952789,8.242795830778663,2.0,2.7069597069597076,369.4181326116373,-0.718023425208322,-0.12295320785502026,-0.3306334129712722,1362.6373626373625,-1.0,64.73543841164269,2.691441012287924,
2023-08-12 16:33:48.474000,0.3734939759036145,6.048192771084338,7.493975903614459,6.383813611281422,0.5511955855303494,8.250153280196198,2.0,2.7069597069597076,369.4181326116373,-0.5746751354816154,0.12295320785502026,-0.2044169920167816,1361.1721611721612,-1.0,64.73543841164269,2.691606719399814,
2023-08-12 16:33:48.482000,0.3493975903614458,6.024096385542169,7.518072289156627,6.445125689760882,0.5266707541385652,8.228080931943593,2.0,2.708424908424908,369.2182850960238,-0.950760445195502,0.15150632247538073,-0.2623390245323697,1358.2417582417581,-1.0,64.73543841164269,2.6917724185549026,
2023-08-12 16:33:48.489000,0.3734939759036145,6.024096385542169,7.493975903614459,6.405885959534028,0.489883507050889,8.27958307786634,2.0,2.7054945054945057,369.6181965881397,-0.8353825534642499,0.22842491696288034,-0.07703513781248131,1353.113553113553,-1.0,64.73543841164269,2.691938101503422,
2023-08-12 16:33:48.497000,0.3855421686746988,6.048192771084338,7.506024096385542,6.472103004291845,0.5561005518087063,8.213366033108523,2.0,2.7069597069597076,369.4181326116373,-1.1941029077559588,0.16409300157333537,-0.1209719713303417,1346.5201465201465,-1.0,64.73543841164269,2.692103760029922,
2023-08-12 16:33:48.505000,0.3734939759036145,6.024096385542169,7.506024096385542,6.4255058246474555,0.5413856529736357,8.252605763335376,2.0,2.7069597069597076,369.4181326116373,-1.0770934094749718,0.3452013285939041,-0.63889050754618,1339.194139194139,796.630859375,75.31719276739197,2.6922693857647486,
2023-08-12 16:33:48.512000,0.3734939759036145,6.048192771084338,7.542168674698796,6.4034334763948495,0.5266707541385652,8.299202942979766,2.0,2.708424908424908,369.2182850960238,-1.3146087057863765,-0.14672804615115603,-0.8464541693374507,1330.4029304029302,-1.0,75.31719276739197,2.6924349702032364,
2023-08-12 16:33:48.520000,0.3734939759036145,6.024096385542169,7.578313253012048,6.442673206621704,0.5536480686695279,8.306560392397301,2.0,2.708424908424908,369.2182850960238,-1.215779966202436,0.12971272070392093,-1.145737427888817,1323.076923076923,-1.0,75.31719276739197,2.6926005047934516,
2023-08-12 16:33:48.528000,0.3734939759036145,6.0120481927710845,7.590361445783133,6.391171060698957,0.5438381361128142,8.321275291232372,2.0,2.708424908424908,369.2182850960238,-1.4363964803915847,-0.05605733931588995,-0.986189615989744,1320.14652014652,-1.0,75.31719276739197,2.6927659810234474,
2023-08-12 16:33:48.535000,0.3493975903614458,6.024096385542169,7.566265060240965,6.361741263028816,0.5217657878602084,8.304107909258123,2.0,2.708424908424908,369.2182850960238,-1.090379348522813,0.26338791445719895,-1.056814870928267,1319.4139194139193,-1.0,75.31719276739197,2.692931390015902,
2023-08-12 16:33:48.543000,0.3614457831325301,5.987951807228916,7.55421686746988,6.3960760269773145,0.5364806866952789,8.252605763335376,2.0,2.708424908424908,369.2182850960238,-1.4616863819124766,0.047083503292348186,-1.090962065147718,1319.4139194139193,-1.0,75.31719276739197,2.6930967230017466,
2023-08-12 16:33:48.551000,0.3132530120481928,5.987951807228916,7.578313253012048,6.3666462293071735,0.49478847332924586,8.245248313917841,2.0,2.708424908424908,369.2182850960238,-0.7167414486335293,0.027853854670473722,-1.4009673095973427,1320.14652014652,-1.0,75.31719276739197,2.6932619713016233,
2023-08-12 16:33:48.558000,0.3253012048192771,6.0,7.530120481927711,6.339668914776211,0.5266707541385652,8.30901287553648,2.0,2.708424908424908,369.2182850960238,-1.1211467863178128,-0.08286230406153441,-0.9909678923139682,1323.8095238095236,-1.0,75.31719276739197,2.6934271263078315,
2023-08-12 16:33:48.566000,0.3253012048192771,5.987951807228916,7.566265060240965,6.3813611281422435,0.5144083384426732,8.27958307786634,2.0,2.708424908424908,369.2182850960238,-0.7748965677990796,0.19241302954373243,-1.1661325097605042,1326.007326007326,-1.0,75.31719276739197,2.6935921794665867,
2023-08-12 16:33:48.574000,0.28915662650602414,5.963855421686747,7.566265060240965,6.376456161863887,0.45309625996321273,8.27958307786634,2.0,2.70989010989011,369.0186536901865,-1.3481731833809214,-0.14579569955130758,-1.3076161062875122,1330.4029304029302,-1.0,75.31719276739197,2.6937571222605463,
2023-08-12 16:33:48.581000,0.30120481927710846,5.951807228915663,7.542168674698796,6.349478847332924,0.4678111587982832,8.311465358675658,2.0,2.708424908424908,369.2182850960238,-1.167647572985257,-0.10139269273352386,-0.9139327545014856,1333.3333333333333,-1.0,75.31719276739197,2.6939219466841484,
2023-08-12 16:33:48.589000,0.28915662650602414,5.975903614457832,7.55421686746988,6.398528510116493,0.41876149601471485,8.269773145309626,2.0,2.708424908424908,369.2182850960238,-1.0342054658819422,-0.099527999533827,-1.0233669366587037,1335.5311355311355,-1.0,75.31719276739197,2.694086644805849,
2023-08-12 16:33:48.597000,0.27710843373493976,5.975903614457832,7.578313253012048,6.383813611281422,0.41876149601471485,8.299202942979766,2.0,2.70989010989011,369.0186536901865,-1.176971038983743,-0.29753510867665,-0.7966901695705376,1332.6007326007325,-1.0,75.31719276739197,2.694251207768408,
2023-08-12 16:33:48.604000,0.28915662650602414,6.0120481927710845,7.530120481927711,6.400980993255671,0.4334763948497854,8.27958307786634,2.0,2.70989010989011,369.0186536901865,-0.9706893537672632,0.13239321717848537,-0.5413437445370312,1327.4725274725274,-1.0,75.31719276739197,2.694415627247669,
2023-08-12 16:33:48.612000,0.28915662650602414,6.048192771084338,7.542168674698796,6.4475781729000605,0.40649908031882276,8.306560392397301,2.0,2.70989010989011,369.0186536901865,-1.1597226268865444,0.04125633704329595,-0.4554513140259893,1320.8791208791208,-1.0,75.31719276739197,2.6945798959286815,
2023-08-12 16:33:48.620000,0.30120481927710846,6.048192771084338,7.530120481927711,6.430410790925812,0.4800735744941753,8.316370324954015,2.0,2.70989010989011,369.0186536901865,-1.500844939106114,0.04347066021793532,-0.6606841093176385,1313.5531135531135,-1.0,75.31719276739197,2.694744006085933,
2023-08-12 16:33:48.627000,0.3132530120481928,6.024096385542169,7.590361445783133,6.494175352544451,0.42857142857142855,8.291845493562231,2.0,2.70989010989011,369.0186536901865,-1.2592506264203713,0.34811491171843195,-0.17609696404638409,1307.6923076923076,-1.0,75.31719276739197,2.6949079496393664,
2023-08-12 16:33:48.635000,0.3132530120481928,6.0120481927710845,7.614457831325302,6.4696505211526665,0.47516860821581847,8.343347639484978,2.0,2.7113553113553115,368.8192380437719,-1.2482955538721519,0.3474156517685452,-0.16665695472291767,1305.4945054945053,-1.0,75.31719276739197,2.6950717186315054,
2023-08-12 16:33:48.643000,0.28915662650602414,6.0361445783132535,7.626506024096386,6.423053341508277,0.48497854077253216,8.35561005518087,2.0,2.708424908424908,369.2182850960238,-1.0065846978614303,0.4977565409941141,-0.2687489074063283,1303.2967032967033,-1.0,75.31719276739197,2.695235305705103,
2023-08-12 16:33:48.650000,0.28915662650602414,6.048192771084338,7.638554216867471,6.4034334763948495,0.4702636419374617,8.338442673206622,2.0,2.70989010989011,369.0186536901865,-1.0568148709282679,0.4639589767496073,-0.12330283782996321,1306.227106227106,-1.0,75.31719276739197,2.6953987036332108,
2023-08-12 16:33:48.658000,0.27710843373493976,6.024096385542169,7.626506024096386,6.393623543838136,0.48252605763335377,8.350705088902513,2.0,2.70989010989011,369.0186536901865,-0.878853213682187,0.38529223238738997,0.2049997086416875,1313.5531135531135,-1.0,75.31719276739197,2.6955619046756802,
2023-08-12 16:33:48.666000,0.27710843373493976,6.0,7.626506024096386,6.3960760269773145,0.42611894543225015,8.358062538320048,2.0,2.70989010989011,369.0186536901865,-0.8225627877163336,0.24555678573509626,0.3169978439484879,1322.3443223443223,-1.0,75.31719276739197,2.695724901126723,
2023-08-12 16:33:48.673000,0.2530120481927711,6.0,7.614457831325302,6.3740036787247085,0.4114040465971796,8.38749233599019,2.0,2.70989010989011,369.0186536901865,-0.7060194627352715,0.15267175572519084,0.30499388147543915,1333.3333333333333,-1.0,75.31719276739197,2.6958876853347737,
2023-08-12 16:33:48.681000,0.28915662650602414,5.975903614457832,7.626506024096386,6.378908645003065,0.4089515634580012,8.397302268546904,2.0,2.7113553113553115,368.8192380437719,-0.49997086416875347,0.08973836023541765,0.2594254414078431,1345.054945054945,-1.0,75.31719276739197,2.6960502492295086,
2023-08-12 16:33:48.689000,0.28915662650602414,5.975903614457832,7.590361445783133,6.3960760269773145,0.4653586756591048,8.32372777437155,2.0,2.7113553113553115,368.8192380437719,-0.719771575083038,0.27212866383077905,0.4756133092477135,1359.7069597069597,-1.0,75.31719276739197,2.696212584866368,
2023-08-12 16:33:48.696000,0.3132530120481928,5.951807228915663,7.614457831325302,6.369098712446352,0.489883507050889,8.397302268546904,2.0,2.70989010989011,369.0186536901865,-0.18984907639414883,0.14637841617621353,0.04883165316706507,1376.5567765567764,-1.0,75.31719276739197,2.6963746849713575,
2023-08-12 16:33:48.704000,0.3132530120481928,5.963855421686747,7.650602409638554,6.369098712446352,0.5561005518087063,8.362967504598405,2.0,2.7113553113553115,368.8192380437719,0.2924072023774828,0.037993123943825584,0.4814404754967658,1394.8717948717947,-1.0,75.31719276739197,2.6965365419761196,
2023-08-12 16:33:48.712000,0.3373493975903615,5.951807228915663,7.614457831325302,6.3077866339668915,0.5806253832004905,8.375229920294297,2.0,2.70989010989011,369.0186536901865,0.11258085193170499,0.2350678864868019,-0.15884855194918732,1416.8498168498168,-1.0,75.31719276739197,2.696698148424681,
2023-08-12 16:33:48.719000,0.3373493975903615,5.963855421686747,7.578313253012048,6.334763948497853,0.5291232372777437,8.335990190067443,2.0,2.7113553113553115,368.8192380437719,0.20919526834100588,0.2044169920167829,-0.12062234135539919,1438.095238095238,-1.0,75.31719276739197,2.6968594969920408,
2023-08-12 16:33:48.727000,0.3373493975903615,5.987951807228916,7.602409638554217,6.388718577559779,0.5291232372777437,8.321275291232372,2.0,2.7113553113553115,368.8192380437719,0.12178777460521016,-0.07248994813822088,-0.3912359419614239,1456.4102564102564,-1.0,75.31719276739197,2.6970205804332688,
2023-08-12 16:33:48.735000,0.3373493975903615,5.987951807228916,7.590361445783133,6.3960760269773145,0.5217657878602084,8.38749233599019,2.0,2.712820512820513,368.62003780718334,-0.08903910028553089,0.11106578870695237,-0.7680205116251967,1473.9926739926739,-1.0,75.31719276739197,2.6971813920947225,
2023-08-12 16:33:48.742000,0.3253012048192771,5.975903614457832,7.590361445783133,6.354383813611281,0.5217657878602084,8.372777437155118,2.0,2.7113553113553115,368.8192380437719,0.1003438028086946,0.29229065905250196,-0.8500670124118644,1490.8424908424906,-1.0,75.31719276739197,2.697341925935049,
2023-08-12 16:33:48.750000,0.3132530120481928,5.975903614457832,7.626506024096386,6.347026364193746,0.5045984058859595,8.350705088902513,2.0,2.712820512820513,368.62003780718334,0.2716624905308557,0.3073247479750594,-0.9007633587786259,1504.7619047619046,-1.0,75.31719276739197,2.6975021760908504,
2023-08-12 16:33:48.758000,0.3132530120481928,5.963855421686747,7.602409638554217,6.427958307786634,0.4580012262415696,8.348252605763335,2.0,2.7113553113553115,368.8192380437719,0.25476370840860146,0.36419789056581864,-0.6752520249402717,1517.216117216117,-1.0,75.31719276739197,2.6976621363729834,
2023-08-12 16:33:48.765000,0.30120481927710846,5.975903614457832,7.602409638554217,6.393623543838136,0.47516860821581847,8.345800122624157,2.0,2.7113553113553115,368.8192380437719,0.1927626595186767,0.10314084260823987,-0.7733815045743256,1524.5421245421244,-1.0,75.31719276739197,2.697821800815354,
2023-08-12 16:33:48.773000,0.28915662650602414,5.975903614457832,7.578313253012048,6.391171060698957,0.4800735744941753,8.328632740649908,2.0,2.7113553113553115,368.8192380437719,0.17970980712079695,-0.08204650078666682,-0.70357205291067,1531.8681318681317,-1.0,75.31719276739197,2.6979811630994748,
2023-08-12 16:33:48.781000,0.28915662650602414,5.951807228915663,7.602409638554217,6.347026364193746,0.43102391171060694,8.343347639484978,2.0,2.712820512820513,368.62003780718334,0.5335353417633003,0.02587261814579603,-1.0765106928500667,1534.7985347985348,-1.0,75.31719276739197,2.6981402165733757,
2023-08-12 16:33:48.788000,0.27710843373493976,5.9397590361445785,7.590361445783133,6.37155119558553,0.45064377682403434,8.318822808093193,2.0,2.712820512820513,368.62003780718334,0.2729444671056466,0.2710797739059498,-1.1430569314142531,1532.6007326007325,-1.0,75.31719276739197,2.6982989552183314,
2023-08-12 16:33:48.796000,0.26506024096385544,5.951807228915663,7.55421686746988,6.327406499080318,0.48497854077253216,8.318822808093193,2.0,2.7113553113553115,368.8192380437719,0.6681428821164268,0.0564069692908342,-0.9035603985781712,1520.8791208791208,-1.0,75.31719276739197,2.6984573737021877,
2023-08-12 16:33:48.803000,0.26506024096385544,5.951807228915663,7.566265060240965,6.388718577559779,0.4114040465971796,8.299202942979766,2.0,2.7113553113553115,368.8192380437719,0.5884272478293802,0.026571878095682785,-0.4984558009440009,1509.1575091575091,-1.0,75.31719276739197,2.698615466873011,
2023-08-12 16:33:48.811000,0.26506024096385544,5.975903614457832,7.578313253012048,6.342121397915389,0.39178418148375227,8.299202942979766,2.0,2.7113553113553115,368.8192380437719,0.4024241011596059,0.08857292698560755,-0.6918011770875826,1498.9010989010987,-1.0,75.31719276739197,2.6987732296060565,
2023-08-12 16:33:48.819000,0.2530120481927711,5.963855421686747,7.578313253012048,6.339668914776211,0.4089515634580012,8.360515021459227,2.0,2.712820512820513,368.62003780718334,0.7357380106054421,-0.4152438669075222,-0.37934852281335557,1487.9120879120878,-1.0,75.31719276739197,2.69893065629622,
2023-08-12 16:33:48.826000,0.24096385542168675,5.963855421686747,7.602409638554217,6.342121397915389,0.41630901287553645,8.380134886572653,2.0,2.712820512820513,368.62003780718334,0.3634986306159319,-0.2901928792028434,-0.40440533768428444,1478.3882783882782,-1.0,75.31719276739197,2.69908774140159,
2023-08-12 16:33:48.834000,0.21686746987951808,5.987951807228916,7.578313253012048,6.347026364193746,0.37216431637032493,8.345800122624157,2.0,2.712820512820513,368.62003780718334,0.49997086416875347,-0.14626187285123268,-0.32305809684750264,1467.3992673992673,-1.0,75.31719276739197,2.6992444799861186,
2023-08-12 16:33:48.842000,0.21686746987951808,5.987951807228916,7.578313253012048,6.3813611281422435,0.3942366646229307,8.3408951563458,2.0,2.712820512820513,368.62003780718334,0.1771458539712151,-0.29567041547695316,0.07726822446244427,1457.142857142857,-1.0,75.31719276739197,2.6994008667862026,
2023-08-12 16:33:48.849000,0.1927710843373494,5.975903614457832,7.578313253012048,6.376456161863887,0.384426732066217,8.32372777437155,2.0,2.712820512820513,368.62003780718334,0.4560340306508948,-0.45032340772682167,0.3833109958627114,1445.4212454212454,-1.0,75.31719276739197,2.699556896717675,
2023-08-12 16:33:48.857000,0.2530120481927711,5.987951807228916,7.578313253012048,6.37155119558553,0.3942366646229307,8.301655426118945,2.0,2.714285714285715,368.4210526315789,0.19730784919293798,-0.43622166540411444,1.0353708991317523,1435.8974358974358,-1.0,75.31719276739197,2.699712564820321,
2023-08-12 16:33:48.865000,0.21686746987951808,5.975903614457832,7.578313253012048,6.3740036787247085,0.38197424892703863,8.397302268546904,2.0,2.714285714285715,368.4210526315789,-0.04638424334246317,-0.5245615057397586,1.0869995920983628,1428.5714285714284,-1.0,75.31719276739197,2.699867866306387,
2023-08-12 16:33:48.872000,0.22891566265060243,5.951807228915663,7.626506024096386,6.349478847332924,0.40649908031882276,8.360515021459227,2.0,2.714285714285715,368.4210526315789,0.5707126624322584,-0.5812015616805545,0.729677757706427,1421.245421245421,-1.0,75.31719276739197,2.700022797101628,
2023-08-12 16:33:48.880000,0.20481927710843376,5.9397590361445785,7.614457831325302,6.3813611281422435,0.3991416309012875,8.404659717964439,2.0,2.714285714285715,368.4210526315789,0.281685216479225,-0.7154594720587384,1.0765106928500667,1413.1868131868132,-1.0,75.31719276739197,2.700177353369009,
2023-08-12 16:33:48.888000,0.22891566265060243,5.951807228915663,7.590361445783133,6.4107909258123845,0.3991416309012875,8.375229920294297,2.0,2.714285714285715,368.4210526315789,0.4829555387215201,-0.8501835557368457,1.3587786259541985,1406.5934065934066,-1.0,75.31719276739197,2.700331531490608,
2023-08-12 16:33:48.895000,0.20481927710843376,5.975903614457832,7.602409638554217,6.3862660944206,0.3304721030042918,8.311465358675658,2.0,2.714285714285715,368.4210526315789,0.8929549560048943,-0.4928617213449103,1.3943243400734224,1402.197802197802,-1.0,75.31719276739197,2.7004853275919034,
2023-08-12 16:33:48.903000,0.21686746987951808,5.975903614457832,7.590361445783133,6.349478847332924,0.4212139791538933,8.350705088902513,2.0,2.714285714285715,368.4210526315789,1.0582133908280398,-0.9459821688712773,1.8558359069984272,1398.5347985347985,-1.0,75.31719276739197,2.7006387375913063,
2023-08-12 16:33:48.911000,0.22891566265060243,5.963855421686747,7.614457831325302,6.32495401594114,0.3868792152053954,8.338442673206622,2.0,2.714285714285715,368.4210526315789,1.0530854845288742,-0.9373579628226797,1.8451139211001693,1394.139194139194,-1.0,75.31719276739197,2.7007917576708618,
2023-08-12 16:33:48.918000,0.2530120481927711,5.975903614457832,7.626506024096386,6.3862660944206,0.4457388105456775,8.4316370324954,2.0,2.714285714285715,368.4210526315789,1.2012120505798038,-0.5009032107686037,1.8042072140318164,1390.4761904761904,-1.0,75.31719276739197,2.700944384254849,
2023-08-12 16:33:48.926000,0.21686746987951808,5.987951807228916,7.614457831325302,6.391171060698957,0.41630901287553645,8.321275291232372,2.0,2.714285714285715,368.4210526315789,1.240020977798497,-0.5870287279296084,1.9465066138336922,1390.4761904761904,-1.0,75.31719276739197,2.70109661398886,
2023-08-12 16:33:48.934000,0.26506024096385544,6.0,7.614457831325302,6.369098712446352,0.36235438381361124,8.35561005518087,2.0,2.714285714285715,368.4210526315789,1.475671580910203,-0.6562554629683589,1.967251325680322,1391.2087912087911,-1.0,75.31719276739197,2.7012484437192326,
2023-08-12 16:33:48.941000,0.28915662650602414,5.987951807228916,7.614457831325302,6.4034334763948495,0.3770692826486818,8.37032495401594,2.0,2.715750915750916,368.2222821688697,1.585805023017307,0.005827166249052237,1.7420896218169102,1395.6043956043954,-1.0,75.31719276739197,2.7013998704727284,
2023-08-12 16:33:48.949000,0.27710843373493976,6.024096385542169,7.566265060240965,6.445125689760882,0.384426732066217,8.277130594727161,2.0,2.712820512820513,368.62003780718334,1.3452596002563955,-0.5899423110541345,1.8840393916438438,1398.5347985347985,-1.0,75.31719276739197,2.701550891929015,
2023-08-12 16:33:48.957000,0.30120481927710846,5.987951807228916,7.590361445783133,6.4034334763948495,0.4653586756591048,8.32618025751073,2.0,2.714285714285715,368.4210526315789,1.3961890332731197,-0.69156809043762,2.070741798263504,1404.3956043956043,-1.0,75.31719276739197,2.7017015059452008,
2023-08-12 16:33:48.964000,0.30120481927710846,6.0120481927710845,7.55421686746988,6.383813611281422,0.507050889025138,8.291845493562231,2.0,2.714285714285715,368.4210526315789,1.4742730610104313,-0.6388905075461796,1.9369500611852455,1410.2564102564102,-1.0,75.31719276739197,2.7018517099063986,
2023-08-12 16:33:48.972000,0.30120481927710846,6.0120481927710845,7.542168674698796,6.4402207234825255,0.460453709380748,8.26241569589209,2.0,2.714285714285715,368.4210526315789,1.5675077209952792,-0.3730551832643778,1.9237806654623857,1413.9194139194137,-1.0,75.31719276739197,2.702001501267048,
2023-08-12 16:33:48.980000,0.30120481927710846,6.0,7.518072289156627,6.3862660944206,0.49724095646842426,8.252605763335376,2.0,2.714285714285715,368.4210526315789,1.265310879319387,-0.32259192354757843,1.712837247246664,1418.3150183150183,-1.0,75.31719276739197,2.702150877564175,
2023-08-12 16:33:48.987000,0.3132530120481928,6.0,7.530120481927711,6.4181483752299195,0.5217657878602084,8.240343347639485,2.0,2.715750915750916,368.2222821688697,1.1802342520832116,-0.7156925587087001,1.51809335120331,1419.047619047619,-1.0,75.31719276739197,2.7022998359375077,
2023-08-12 16:33:48.995000,0.3253012048192771,6.0,7.542168674698796,6.378908645003065,0.51931330472103,8.26241569589209,2.0,2.715750915750916,368.2222821688697,1.022084960083911,-0.6484470601946273,1.4457199463900707,1417.5824175824175,-1.0,75.31719276739197,2.7024483736668334,
2023-08-12 16:33:49.003000,0.3253012048192771,5.987951807228916,7.542168674698796,6.359288779889638,0.489883507050889,8.23298589822195,2.0,2.715750915750916,368.2222821688697,0.9536740283200281,-0.6442515004953084,1.5556203018472117,1411.7216117216117,-1.0,75.31719276739197,2.7025964887093763,
2023-08-12 16:33:49.010000,0.3253012048192771,5.987951807228916,7.542168674698796,6.430410790925812,0.489883507050889,8.274678111587983,2.0,2.715750915750916,368.2222821688697,0.2907755958277493,-0.3185129071732422,1.2199755259017544,1404.3956043956043,-1.0,75.31719276739197,2.702744179219922,
2023-08-12 16:33:49.018000,0.3132530120481928,5.987951807228916,7.55421686746988,6.442673206621704,0.5168608215818516,8.23298589822195,2.0,2.715750915750916,368.2222821688697,0.13495717032806898,-0.26898199405629125,1.1746401724841204,1397.8021978021977,-1.0,75.31719276739197,2.7028914435292926,
2023-08-12 16:33:49.026000,0.3373493975903615,5.975903614457832,7.530120481927711,6.356836296750459,0.5045984058859595,8.286940527283875,2.0,2.715750915750916,368.2222821688697,0.2581434648330509,-0.2342520832119343,0.9344443796981532,1392.6739926739926,-1.0,75.31719276739197,2.703038279665312,
2023-08-12 16:33:49.033000,0.3614457831325301,5.975903614457832,7.542168674698796,6.32495401594114,0.4580012262415696,8.30901287553648,2.0,2.715750915750916,368.2222821688697,0.3982285414602871,-0.5985665171027338,0.8775712371073944,1389.0109890109889,-1.0,75.31719276739197,2.7031846858570527,
2023-08-12 16:33:49.041000,0.3614457831325301,5.987951807228916,7.542168674698796,6.408338442673206,0.5511955855303494,8.223175965665236,2.0,2.715750915750916,368.2222821688697,0.061884505564943924,-0.42235300973136713,0.7626595186760674,1386.080586080586,-1.0,75.31719276739197,2.7033306609352272,
2023-08-12 16:33:49.049000,0.3253012048192771,5.987951807228916,7.530120481927711,6.376456161863887,0.51931330472103,8.274678111587983,2.0,2.715750915750916,368.2222821688697,-0.13449099702814563,-0.6011304702523157,0.25010197540935886,1386.080586080586,-1.0,75.31719276739197,2.7034762033616495,
2023-08-12 16:33:49.056000,0.3373493975903615,6.0,7.542168674698796,6.3372164316370325,0.5315757204169221,8.284488044144696,2.0,2.715750915750916,368.2222821688697,0.06642969523920522,-0.5349338616630739,0.4912301147951747,1389.7435897435896,-1.0,75.31719276739197,2.7036213117343073,
2023-08-12 16:33:49.064000,0.3493975903614458,5.975903614457832,7.55421686746988,6.393623543838136,0.47271612507664007,8.250153280196198,2.0,2.7172161172161173,368.0237260717174,0.02191014509643891,-0.4419322883281858,0.8814171668317702,1397.069597069597,-1.0,75.31719276739197,2.703765985188301,
2023-08-12 16:33:49.072000,0.3373493975903615,5.963855421686747,7.590361445783133,6.332311465358675,0.45064377682403434,8.318822808093193,2.0,2.7172161172161173,368.0237260717174,0.3453178719188867,-0.6528757065439077,0.277140026804965,1402.9304029304028,-1.0,75.31719276739197,2.70391022291817,
2023-08-12 16:33:49.079000,0.3132530120481928,5.987951807228916,7.566265060240965,6.347026364193746,0.4457388105456775,8.289393010423053,2.0,2.715750915750916,368.2222821688697,0.20802983509119577,-0.662199172542392,0.5171027329409711,1408.7912087912086,-1.0,75.31719276739197,2.704054024297199,
2023-08-12 16:33:49.087000,0.3253012048192771,5.987951807228916,7.566265060240965,6.4696505211526665,0.4629061925199264,8.318822808093193,2.0,2.715750915750916,368.2222821688697,0.1786609171959677,-0.9462152555212406,0.6635976924421659,1413.9194139194137,-1.0,75.31719276739197,2.7041973884002215,
2023-08-12 16:33:49.095000,0.3253012048192771,6.0120481927710845,7.590361445783133,6.437768240343347,0.4923359901900674,8.316370324954015,2.0,2.7172161172161173,368.0237260717174,-0.0048948196492038095,-0.7703513781248182,0.552298817085251,1414.6520146520145,-1.0,75.31719276739197,2.704340313912809,
2023-08-12 16:33:49.102000,0.30120481927710846,5.975903614457832,7.590361445783133,6.342121397915389,0.5119558553034947,8.321275291232372,2.0,2.715750915750916,368.2222821688697,0.4105821339082801,-0.5787541518559517,0.6400559407959914,1411.7216117216117,-1.0,75.31719276739197,2.7044827996003917,
2023-08-12 16:33:49.110000,0.3253012048192771,6.0,7.578313253012048,6.3740036787247085,0.47271612507664007,8.264868179031268,2.0,2.715750915750916,368.2222821688697,0.5032340772682238,-0.6329467979721465,1.1725423926344616,1405.8608058608058,-1.0,75.31719276739197,2.7046248443891705,
2023-08-12 16:33:49.118000,0.3253012048192771,5.975903614457832,7.578313253012048,6.369098712446352,0.5168608215818516,8.299202942979766,2.0,2.7172161172161173,368.0237260717174,0.24194394266068514,-0.8253598275158789,0.8771050638074706,1400.0,-1.0,75.31719276739197,2.7047664472388355,
2023-08-12 16:33:49.125000,0.3253012048192771,5.975903614457832,7.55421686746988,6.37155119558553,0.4678111587982832,8.331085223789087,2.0,2.7172161172161173,368.0237260717174,0.5823669949303663,-0.8943534759046677,1.1638016432608824,1397.069597069597,-1.0,75.31719276739197,2.704907607119571,
2023-08-12 16:33:49.133000,0.3253012048192771,5.975903614457832,7.55421686746988,6.405885959534028,0.5119558553034947,8.301655426118945,2.0,2.7172161172161173,368.0237260717174,0.3531262746926166,-0.5345842316881296,1.3618087524037061,1397.069597069597,-1.0,75.31719276739197,2.7050483231280937,
2023-08-12 16:33:49.141000,0.3253012048192771,5.963855421686747,7.578313253012048,6.320049049662783,0.507050889025138,8.304107909258123,2.0,2.7172161172161173,368.0237260717174,0.12528407435464045,-0.5891265077792669,1.4038808927218693,1394.139194139194,-1.0,75.31719276739197,2.7051885944998095,
2023-08-12 16:33:49.148000,0.3132530120481928,5.975903614457832,7.566265060240965,6.342121397915389,0.502145922746781,8.350705088902513,2.0,2.7172161172161173,368.0237260717174,0.38925470543674706,-0.660917195967601,1.5067886486801467,1393.4065934065934,-1.0,75.31719276739197,2.7053284205868007,
2023-08-12 16:33:49.156000,0.3373493975903615,5.963855421686747,7.55421686746988,6.3740036787247085,0.48497854077253216,8.306560392397301,2.0,2.7172161172161173,368.0237260717174,0.48307208204650093,-0.45789872385059166,1.529980770351378,1391.2087912087911,-1.0,75.31719276739197,2.705467800836427,
2023-08-12 16:33:49.164000,0.3493975903614458,5.987951807228916,7.542168674698796,6.420600858369099,0.5168608215818516,8.311465358675658,2.0,2.7172161172161173,368.0237260717174,0.22213157741390474,-0.20768020511625152,1.4607540353126283,1389.7435897435896,-1.0,75.31719276739197,2.7056067347703454,
2023-08-12 16:33:49.171000,0.3493975903614458,5.975903614457832,7.602409638554217,6.31023911710607,0.5266707541385652,8.306560392397301,2.0,2.7172161172161173,368.0237260717174,0.5303886719888126,-0.6759512848901584,1.5431501660742375,1381.6849816849815,-1.0,75.31719276739197,2.705745221506006,
2023-08-12 16:33:49.179000,0.3373493975903615,5.963855421686747,7.566265060240965,6.322501532801962,0.5045984058859595,8.37032495401594,2.0,2.7172161172161173,368.0237260717174,0.7003088398112002,-0.19462735271837353,1.7652817434881423,1371.4285714285713,-1.0,75.31719276739197,2.705883259803545,
2023-08-12 16:33:49.186000,0.3493975903614458,5.975903614457832,7.55421686746988,6.437768240343347,0.49969343960760265,8.318822808093193,2.0,2.718681318681319,367.82538399353274,0.6980945166365591,-0.18868364314433872,1.7558417341646764,1361.1721611721612,-1.0,75.31719276739197,2.706020848533907,
2023-08-12 16:33:49.194000,0.3614457831325301,5.987951807228916,7.530120481927711,6.361741263028816,0.5806253832004905,8.282035561005518,2.0,2.7172161172161173,368.0237260717174,0.42188683643144376,-0.6111531962006884,1.5303304003263203,1353.113553113553,-1.0,75.31719276739197,2.706157987147664,
2023-08-12 16:33:49.202000,0.3614457831325301,5.975903614457832,7.566265060240965,6.361741263028816,0.5610055180870631,8.343347639484978,2.0,2.718681318681319,367.82538399353274,0.4997377775187918,-0.5274750888642864,1.4590058854379109,1348.7179487179487,-1.0,75.31719276739197,2.7062946752312578,
2023-08-12 16:33:49.209000,0.3493975903614458,5.963855421686747,7.578313253012048,6.342121397915389,0.5462906192519926,8.37032495401594,2.0,2.718681318681319,367.82538399353274,0.1658411514480514,-0.2143231746401731,1.4480508128896923,1346.5201465201465,-1.0,75.31719276739197,2.7064309124523636,
2023-08-12 16:33:49.217000,0.3614457831325301,5.975903614457832,7.578313253012048,6.359288779889638,0.5291232372777437,8.360515021459227,2.0,2.7172161172161173,368.0237260717174,0.49053085484528836,-0.10360701590816322,1.371948021677058,1345.054945054945,-1.0,75.31719276739197,2.7065666990681274,
2023-08-12 16:33:49.225000,0.3855421686746988,5.987951807228916,7.590361445783133,6.3445738810545675,0.6026977314530962,8.37032495401594,2.0,2.718681318681319,367.82538399353274,0.8393450265136071,-0.038109667268808156,1.2985257269389896,1344.3223443223442,-1.0,75.31719276739197,2.706702034500709,
2023-08-12 16:33:49.232000,0.39759036144578314,6.0,7.590361445783133,6.3445738810545675,0.5879828326180258,8.35561005518087,2.0,2.718681318681319,367.82538399353274,0.6835266010139267,0.009906182623390191,0.9025115086533428,1345.7875457875457,-1.0,75.31719276739197,2.706836918267571,
2023-08-12 16:33:49.240000,0.3734939759036145,5.975903614457832,7.590361445783133,6.3813611281422435,0.6002452483139178,8.338442673206622,2.0,2.718681318681319,367.82538399353274,0.22213157741390474,-0.17085251442223603,1.0289610162577933,1347.2527472527472,-1.0,75.31719276739197,2.7069713504544874,
2023-08-12 16:33:49.248000,0.39759036144578314,5.987951807228916,7.614457831325302,6.37155119558553,0.5683629675045984,8.32618025751073,2.0,2.718681318681319,367.82538399353274,0.06992599498863726,-0.26024124468271115,0.8625371481848382,1348.7179487179487,-1.0,75.31719276739197,2.7071053308180058,
2023-08-12 16:33:49.255000,0.3734939759036145,6.0,7.578313253012048,6.405885959534028,0.5708154506437768,8.375229920294297,2.0,2.7172161172161173,368.0237260717174,0.5138395198415026,-0.1329759338033913,0.5310879319386984,1348.7179487179487,-1.0,75.31719276739197,2.7072388592598884,
2023-08-12 16:33:49.263000,0.3855421686746988,6.0,7.614457831325302,6.4034334763948495,0.5757204169221336,8.409564684242795,2.0,2.7172161172161173,368.0237260717174,0.6490297768195331,0.12540061767962304,0.7050871161354223,1348.7179487179487,-1.0,75.31719276739197,2.7073719357749124,
2023-08-12 16:33:49.271000,0.3493975903614458,5.963855421686747,7.602409638554217,6.329858982219497,0.5879828326180258,8.37032495401594,2.0,2.718681318681319,367.82538399353274,0.7525202494027138,-0.16665695472291897,0.7412155468795532,1348.7179487179487,-1.0,75.31719276739197,2.7075045602947108,
2023-08-12 16:33:49.278000,0.3734939759036145,5.975903614457832,7.590361445783133,6.420600858369099,0.5168608215818516,8.350705088902513,2.0,2.718681318681319,367.82538399353274,0.8084610453936264,-0.07447118466289857,0.6853912942136244,1350.9157509157508,-1.0,75.31719276739197,2.7076367326703155,
2023-08-12 16:33:49.286000,0.3855421686746988,6.0,7.578313253012048,6.376456161863887,0.5781729000613121,8.343347639484978,2.0,2.718681318681319,367.82538399353274,0.8022842491696299,0.04673387331740568,0.5377309014626196,1355.3113553113553,-1.0,75.31719276739197,2.7077684527932626,
2023-08-12 16:33:49.294000,0.3734939759036145,6.0,7.590361445783133,6.351931330472103,0.5634580012262416,8.296750459840588,2.0,2.718681318681319,367.82538399353274,0.6110366528757059,-0.16782238797272908,0.6506613833692666,1357.5091575091574,-1.0,75.31719276739197,2.70789972061232,
2023-08-12 16:33:49.301000,0.3734939759036145,6.0120481927710845,7.602409638554217,6.4107909258123845,0.5389331698344574,8.3408951563458,2.0,2.718681318681319,367.82538399353274,0.896451255754328,0.3667618437154005,0.04312103024299411,1357.5091575091574,-1.0,75.31719276739197,2.708030536115569,
2023-08-12 16:33:49.309000,0.39759036144578314,6.0120481927710845,7.590361445783133,6.378908645003065,0.5487431023911711,8.328632740649908,2.0,2.718681318681319,367.82538399353274,0.9963288852630958,0.20942835499096754,0.0361284307441283,1357.5091575091574,-1.0,75.31719276739197,2.708160898854658,
2023-08-12 16:33:49.317000,0.4096385542168675,5.987951807228916,7.578313253012048,6.400980993255671,0.5928877988963825,8.32618025751073,2.0,2.718681318681319,367.82538399353274,1.10856010721986,0.220383427539187,0.013519025697802197,1357.5091575091574,-1.0,75.31719276739197,2.7082908079940777,
2023-08-12 16:33:49.324000,0.3855421686746988,5.975903614457832,7.566265060240965,6.3740036787247085,0.5266707541385652,8.328632740649908,2.0,2.718681318681319,367.82538399353274,0.7021735330108952,0.15558533884971695,0.05221140959151454,1357.5091575091574,-1.0,75.31719276739197,2.7084202632392325,
2023-08-12 16:33:49.332000,0.3614457831325301,5.987951807228916,7.566265060240965,6.3445738810545675,0.49478847332924586,8.27958307786634,2.0,2.7201465201465203,367.6272555884729,0.5894761377542111,0.10826874890740709,-0.1696870811724268,1358.974358974359,-1.0,75.31719276739197,2.7085492642892084,
2023-08-12 16:33:49.340000,0.3614457831325301,6.0120481927710845,7.578313253012048,6.408338442673206,0.5364806866952789,8.316370324954015,2.0,2.7201465201465203,367.6272555884729,0.6731542450906114,0.24462443913524784,-0.26408717440708573,1361.1721611721612,-1.0,75.31719276739197,2.7086778108864284,
2023-08-12 16:33:49.347000,0.3373493975903615,6.024096385542169,7.578313253012048,6.467198038013488,0.51931330472103,8.358062538320048,2.0,2.7201465201465203,367.6272555884729,0.22154886078899882,0.3196783404230523,-0.40627003088398045,1365.5677655677655,-1.0,75.31719276739197,2.7088059033591336,
2023-08-12 16:33:49.355000,0.3373493975903615,6.0,7.602409638554217,6.354383813611281,0.502145922746781,8.345800122624157,2.0,2.7201465201465203,367.6272555884729,0.1710856010721977,0.33564477594545816,-0.8363149000640979,1372.161172161172,-1.0,75.31719276739197,2.7089335421467275,
2023-08-12 16:33:49.363000,0.3132530120481928,5.987951807228916,7.590361445783133,6.349478847332924,0.489883507050889,8.313917841814837,2.0,2.7201465201465203,367.6272555884729,0.5026513606433196,0.39729619486043866,-0.4234018996561977,1378.021978021978,-1.0,75.31719276739197,2.709060727783577,
2023-08-12 16:33:49.370000,0.30120481927710846,5.987951807228916,7.542168674698796,6.435315757204169,0.48252605763335377,8.274678111587983,2.0,2.7201465201465203,367.6272555884729,0.663248062467223,0.31862945049822305,-0.43983450847852645,1381.6849816849815,-1.0,75.31719276739197,2.709187460883252,
2023-08-12 16:33:49.378000,0.3253012048192771,6.0120481927710845,7.518072289156627,6.423053341508277,0.507050889025138,8.289393010423053,2.0,2.7201465201465203,367.6272555884729,0.4718839228483198,0.28599731950352464,-0.13495717032806984,1379.4871794871794,-1.0,75.31719276739197,2.709313742123109,
2023-08-12 16:33:49.386000,0.3373493975903615,6.0,7.530120481927711,6.4034334763948495,0.502145922746781,8.29429797670141,2.0,2.7201465201465203,367.6272555884729,0.1446302663014975,0.3319153895460645,-0.12400209777985038,1373.6263736263736,-1.0,75.31719276739197,2.709439571771227,
2023-08-12 16:33:49.393000,0.3373493975903615,6.0120481927710845,7.55421686746988,6.3813611281422435,0.5217657878602084,8.29429797670141,2.0,2.7201465201465203,367.6272555884729,0.4926286346949486,0.2823844764291135,0.040906707068353004,1365.5677655677655,-1.0,75.31719276739197,2.7095649501964516,
2023-08-12 16:33:49.401000,0.3493975903614458,5.975903614457832,7.55421686746988,6.427958307786634,0.48252605763335377,8.328632740649908,2.0,2.7216117216117217,367.4293405114401,0.2429928325855144,0.5548627702348351,0.3583707243167638,1361.904761904762,-1.0,75.31719276739197,2.709689877816573,
2023-08-12 16:33:49.409000,0.3373493975903615,5.987951807228916,7.530120481927711,6.398528510116493,0.4481912936848559,8.282035561005518,2.0,2.718681318681319,367.82538399353274,0.8649845580094414,0.39717965153545787,0.6131344327253653,1355.3113553113553,-1.0,75.31719276739197,2.7098143551510026,
2023-08-12 16:33:49.416000,0.3614457831325301,6.0120481927710845,7.578313253012048,6.4622930717351315,0.5364806866952789,8.299202942979766,2.0,2.7201465201465203,367.6272555884729,0.7772274342987014,0.25989161470776695,0.5900588543791153,1347.2527472527472,-1.0,75.31719276739197,2.7099383828391588,
2023-08-12 16:33:49.424000,0.3734939759036145,6.0120481927710845,7.542168674698796,6.4034334763948495,0.51931330472103,8.348252605763335,2.0,2.7201465201465203,367.6272555884729,0.38762309888701013,-0.015733348872444163,0.4771283724724666,1341.3919413919414,-1.0,75.31719276739197,2.7100619609925696,
2023-08-12 16:33:49.432000,0.3734939759036145,6.0,7.542168674698796,6.317596566523605,0.5119558553034947,8.350705088902513,2.0,2.7201465201465203,367.6272555884729,0.3986947147602139,0.27527533360526857,0.6697744886661624,1338.4615384615383,-1.0,75.31719276739197,2.7101850897382476,
2023-08-12 16:33:49.439000,0.3614457831325301,6.024096385542169,7.590361445783133,6.427958307786634,0.5266707541385652,8.27958307786634,2.0,2.7201465201465203,367.6272555884729,0.6061418332265021,0.48936542159547824,0.5413437445370312,1336.263736263736,-1.0,75.31719276739197,2.7103077692344404,
2023-08-12 16:33:49.447000,0.3614457831325301,6.024096385542169,7.578313253012048,6.3666462293071735,0.49969343960760265,8.282035561005518,2.0,2.7201465201465203,367.6272555884729,0.29182448575258035,0.48738418507080056,0.07610279121263375,1334.065934065934,-1.0,75.31719276739197,2.7104299991937464,
2023-08-12 16:33:49.455000,0.3614457831325301,6.0120481927710845,7.578313253012048,6.4255058246474555,0.4702636419374617,8.335990190067443,2.0,2.7201465201465203,367.6272555884729,0.010372355923315273,0.5948371307033383,0.22422935726356305,1328.937728937729,-1.0,75.31719276739197,2.71055177893128,
2023-08-12 16:33:49.462000,0.3614457831325301,6.0,7.590361445783133,6.388718577559779,0.5928877988963825,8.353157572041692,2.0,2.7216117216117217,367.4293405114401,0.006176796223996482,0.5921566342287738,0.22178194743896115,1324.5421245421244,-1.0,75.31719276739197,2.710673107833849,
2023-08-12 16:33:49.470000,0.39759036144578314,6.0,7.614457831325302,6.351931330472103,0.5266707541385652,8.289393010423053,2.0,2.7216117216117217,367.4293405114401,-0.10325738593322245,0.40487151098420865,0.23238739001223765,1318.6813186813185,-1.0,75.31719276739197,2.7107939858295333,
2023-08-12 16:33:49.478000,0.3614457831325301,6.0361445783132535,7.590361445783133,6.420600858369099,0.5487431023911711,8.311465358675658,2.0,2.7201465201465203,367.6272555884729,0.31979488374803317,0.5549793135598159,-0.15581842549967928,1316.4835164835165,-1.0,75.31719276739197,2.710914413437163,
2023-08-12 16:33:49.485000,0.3614457831325301,6.024096385542169,7.602409638554217,6.4181483752299195,0.5095033721643163,8.362967504598405,2.0,2.7216117216117217,367.4293405114401,0.068877105063808,0.8889924829555389,-0.20430044869180183,1318.6813186813185,-1.0,75.31719276739197,2.711034390798915,
2023-08-12 16:33:49.493000,0.3734939759036145,5.975903614457832,7.602409638554217,6.3862660944206,0.5266707541385652,8.358062538320048,2.0,2.7216117216117217,367.4293405114401,0.30546005477536425,0.9611328011188155,-0.10022725948371267,1325.2747252747251,-1.0,75.31719276739197,2.7111539176268815,
2023-08-12 16:33:49.501000,0.3373493975903615,5.963855421686747,7.590361445783133,6.356836296750459,0.5683629675045984,8.29429797670141,2.0,2.7216117216117217,367.4293405114401,0.3883223588368969,0.4531204475263687,-0.01083852922323862,1331.135531135531,-1.0,75.31719276739197,2.7112729937795037,
2023-08-12 16:33:49.508000,0.3373493975903615,5.987951807228916,7.578313253012048,6.46474555487431,0.5266707541385652,8.289393010423053,2.0,2.7216117216117217,367.4293405114401,0.6814288211642682,0.5591748732591347,-0.27364372705553364,1335.5311355311355,-1.0,75.31719276739197,2.7113916197346564,
2023-08-12 16:33:49.516000,0.3493975903614458,6.024096385542169,7.55421686746988,6.369098712446352,0.5438381361128142,8.353157572041692,2.0,2.7216117216117217,367.4293405114401,0.37760037293863913,0.696346366761843,-0.0498805430918939,1340.6593406593406,-1.0,75.31719276739197,2.7115097965039876,
2023-08-12 16:33:49.524000,0.3493975903614458,5.963855421686747,7.602409638554217,6.3862660944206,0.502145922746781,8.392397302268547,2.0,2.7216117216117217,367.4293405114401,0.40999941728337413,1.0882815686731546,-0.21117650486568312,1347.985347985348,-1.0,75.31719276739197,2.7116275246693693,
2023-08-12 16:33:49.531000,0.3614457831325301,5.963855421686747,7.578313253012048,6.327406499080318,0.5266707541385652,8.30901287553648,2.0,2.7216117216117217,367.4293405114401,0.7175572519083969,0.8838645766563716,-0.25150049530913043,1357.5091575091574,-1.0,75.31719276739197,2.711744804437452,
2023-08-12 16:33:49.539000,0.3855421686746988,5.951807228915663,7.578313253012048,6.349478847332924,0.5413856529736357,8.282035561005518,2.0,2.7216117216117217,367.4293405114401,0.7155760153837192,0.801701532544724,-0.16828856127265265,1368.4981684981683,-1.0,75.31719276739197,2.7118616361155636,
2023-08-12 16:33:49.547000,0.3493975903614458,5.987951807228916,7.55421686746988,6.4255058246474555,0.5340282035561005,8.301655426118945,2.0,2.7216117216117217,367.4293405114401,0.838179593263797,0.5546296835848734,-0.37643493968882924,1380.952380952381,-1.0,75.31719276739197,2.7119780200956782,
2023-08-12 16:33:49.554000,0.3493975903614458,6.0,7.542168674698796,6.364193746167995,0.5168608215818516,8.284488044144696,2.0,2.7216117216117217,367.4293405114401,0.8652176446594013,0.4451955014276562,-0.35440825126740844,1397.8021978021977,-1.0,75.31719276739197,2.712093956839009,
2023-08-12 16:33:49.562000,0.3614457831325301,5.975903614457832,7.578313253012048,6.3960760269773145,0.44328632740649904,8.299202942979766,2.0,2.7201465201465203,367.6272555884729,0.9280344968241937,1.0387506555562036,-0.18239030359536162,1413.1868131868132,1011.1083984375,59.34081854400579,2.712209446861107,
2023-08-12 16:33:49.569000,0.3493975903614458,5.963855421686747,7.566265060240965,6.361741263028816,0.47516860821581847,8.284488044144696,2.0,2.7201465201465203,367.6272555884729,0.8344502068644015,0.20709748849134735,-0.2835499096789236,1430.7692307692307,-1.0,59.34081854400579,2.7123244902246855,
2023-08-12 16:33:49.577000,0.3253012048192771,5.987951807228916,7.566265060240965,6.4181483752299195,0.44083384426732064,8.27958307786634,2.0,2.7201465201465203,367.6272555884729,0.896684342404288,0.37620185303886733,-0.2174698444146613,1449.8168498168498,-1.0,59.34081854400579,2.7124390859953103,
2023-08-12 16:33:49.585000,0.3253012048192771,5.987951807228916,7.566265060240965,6.320049049662783,0.47271612507664007,8.296750459840588,2.0,2.7216117216117217,367.4293405114401,0.8012353592447989,0.35825418099178385,-0.45848144047549716,1465.201465201465,-1.0,59.34081854400579,2.712553233204731,
2023-08-12 16:33:49.592000,0.3373493975903615,6.0,7.578313253012048,6.3960760269773145,0.4776210913549969,8.32618025751073,2.0,2.7216117216117217,367.4293405114401,0.9671930540178312,0.7224520715576007,-0.23681603636151705,1478.3882783882782,-1.0,59.34081854400579,2.7126669317444243,
2023-08-12 16:33:49.600000,0.3132530120481928,6.0120481927710845,7.578313253012048,6.3372164316370325,0.5217657878602084,8.32618025751073,2.0,2.7230769230769236,367.23163841807906,0.5983334304527703,0.5800361284307444,0.05850474914049272,1489.3772893772893,-1.0,59.34081854400579,2.712780181466975,
2023-08-12 16:33:49.608000,0.3373493975903615,6.0120481927710845,7.590361445783133,6.391171060698957,0.4629061925199264,8.289393010423053,2.0,2.7216117216117217,367.4293405114401,0.42946215255521203,0.36081813414136743,-0.059087465765398424,1497.4358974358972,-1.0,59.34081854400579,2.71289298227269,
2023-08-12 16:33:49.615000,0.3253012048192771,5.987951807228916,7.55421686746988,6.342121397915389,0.5340282035561005,8.311465358675658,2.0,2.7230769230769236,367.23163841807906,0.5380805314375616,0.11596060835615618,0.05500844939106112,1501.098901098901,-1.0,59.34081854400579,2.7130053341618394,
2023-08-12 16:33:49.623000,0.30120481927710846,5.987951807228916,7.55421686746988,6.376456161863887,0.45554874310239113,8.343347639484978,2.0,2.7230769230769236,367.23163841807906,-0.07330575141308672,0.3455509585688484,-0.029718547870170794,1501.098901098901,-1.0,59.34081854400579,2.7131172371832744,
2023-08-12 16:33:49.631000,0.3132530120481928,6.0,7.590361445783133,6.393623543838136,0.5095033721643163,8.335990190067443,2.0,2.7230769230769236,367.23163841807906,0.14160013985199055,0.22224812073888384,0.44939106112697413,1498.9010989010987,-1.0,59.34081854400579,2.7132286919457953,
2023-08-12 16:33:49.638000,0.3132530120481928,6.024096385542169,7.578313253012048,6.376456161863887,0.48252605763335377,8.32372777437155,2.0,2.7230769230769236,367.23163841807906,0.005360992949128891,0.22434590058854412,0.24136122603577856,1495.2380952380952,-1.0,59.34081854400579,2.7133396986894973,
2023-08-12 16:33:49.646000,0.3132530120481928,6.024096385542169,7.542168674698796,6.4255058246474555,0.489883507050889,8.32372777437155,2.0,2.7230769230769236,367.23163841807906,0.23646640638657368,0.19590932929316449,0.1569838587494898,1492.3076923076922,-1.0,59.34081854400579,2.71345025734078,
2023-08-12 16:33:49.654000,0.28915662650602414,6.0,7.542168674698796,6.361741263028816,0.47271612507664007,8.299202942979766,2.0,2.7230769230769236,367.23163841807906,0.055241536041024095,0.36734456034030644,0.4387856185536972,1489.3772893772893,-1.0,59.34081854400579,2.7135603679891336,
2023-08-12 16:33:49.661000,0.3132530120481928,6.024096385542169,7.542168674698796,6.427958307786634,0.47516860821581847,8.313917841814837,2.0,2.7230769230769236,367.23163841807906,0.3175805605733938,0.33879144571994596,0.30720820465007875,1486.4468864468863,-1.0,59.34081854400579,2.713670030872353,
2023-08-12 16:33:49.669000,0.3373493975903615,6.024096385542169,7.530120481927711,6.408338442673206,0.460453709380748,8.296750459840588,2.0,2.7230769230769236,367.23163841807906,0.07528698793776616,0.5846978614299865,0.33168230289610146,1481.3186813186812,-1.0,59.34081854400579,2.7137792463628,
2023-08-12 16:33:49.677000,0.3373493975903615,6.0120481927710845,7.55421686746988,6.398528510116493,0.48743102391171056,8.269773145309626,2.0,2.7230769230769236,367.23163841807906,0.07936600431210238,0.23227084668725662,0.5094108734922209,1475.4578754578754,-1.0,59.34081854400579,2.713888014954572,
2023-08-12 16:33:49.684000,0.3493975903614458,6.0361445783132535,7.530120481927711,6.400980993255671,0.5168608215818516,8.306560392397301,2.0,2.7230769230769236,367.23163841807906,-0.1906648796690164,0.49251209136996604,0.5176854495658764,1465.9340659340658,-1.0,59.34081854400579,2.7139963372514484,
2023-08-12 16:33:49.692000,0.3855421686746988,6.024096385542169,7.530120481927711,6.5113427345187,0.5045984058859595,8.259963212752911,2.0,2.7230769230769236,367.23163841807906,-0.12132160130528508,0.42969523920517544,0.7086999592098364,1456.4102564102564,-1.0,59.34081854400579,2.7141042139554883,
2023-08-12 16:33:49.700000,0.3614457831325301,6.0361445783132535,7.566265060240965,6.408338442673206,0.5144083384426732,8.318822808093193,2.0,2.7230769230769236,367.23163841807906,-0.0848435405862121,0.32294155352252096,0.2891439892780137,1447.6190476190475,-1.0,59.34081854400579,2.714211645856138,
2023-08-12 16:33:49.707000,0.3493975903614458,6.024096385542169,7.55421686746988,6.452483139178418,0.5413856529736357,8.282035561005518,2.0,2.7230769230769236,367.23163841807906,-0.09055416351028524,0.2771400268049637,0.1900821630441118,1439.5604395604394,-1.0,59.34081854400579,2.714318633819697,
2023-08-12 16:33:49.715000,0.3373493975903615,6.0120481927710845,7.542168674698796,6.398528510116493,0.5487431023911711,8.255058246474555,2.0,2.7216117216117217,367.4293405114401,0.07528698793776616,0.41407843365771213,0.07971563428704619,1431.5018315018315,-1.0,59.34081854400579,2.7144251783211617,
2023-08-12 16:33:49.723000,0.3493975903614458,6.0,7.530120481927711,6.4696505211526665,0.49724095646842426,8.255058246474555,2.0,2.7216117216117217,367.4293405114401,-0.3111706776994339,0.0018646931996968547,0.1332090204533534,1424.1758241758241,-1.0,59.34081854400579,2.714531279924346,
2023-08-12 16:33:49.730000,0.3614457831325301,6.0,7.530120481927711,6.37155119558553,0.5487431023911711,8.220723482526058,2.0,2.7230769230769236,367.23163841807906,-0.2970689353767267,0.6154652992249863,-0.14940854262572112,1423.4432234432234,-1.0,59.34081854400579,2.714636939095437,
2023-08-12 16:33:49.738000,0.3734939759036145,6.0120481927710845,7.566265060240965,6.3960760269773145,0.5045984058859595,8.284488044144696,2.0,2.7230769230769236,367.23163841807906,-0.29905017190140437,0.6116193695006118,-0.15721694539945213,1423.4432234432234,-1.0,59.34081854400579,2.7147421562243994,
2023-08-12 16:33:49.746000,0.3734939759036145,5.987951807228916,7.566265060240965,6.408338442673206,0.49724095646842426,8.264868179031268,2.0,2.7230769230769236,367.23163841807906,0.01794767204708353,0.2580269215080718,-0.2595419847328244,1424.1758241758241,-1.0,59.34081854400579,2.714846931715036,
2023-08-12 16:33:49.753000,0.3493975903614458,6.0,7.55421686746988,6.3666462293071735,0.5168608215818516,8.269773145309626,2.0,2.7230769230769236,367.23163841807906,-0.0019812365246776914,0.3359944059204007,-0.4687372530738303,1425.6410256410256,-1.0,59.34081854400579,2.7149512655819916,
2023-08-12 16:33:49.761000,0.3373493975903615,6.0120481927710845,7.566265060240965,6.4034334763948495,0.49969343960760265,8.318822808093193,2.0,2.7230769230769236,367.23163841807906,0.10162577938348553,0.0012819765747909368,-0.631082104772449,1424.9084249084249,-1.0,59.34081854400579,2.715055157926246,
2023-08-12 16:33:49.769000,0.3373493975903615,6.0120481927710845,7.566265060240965,6.435315757204169,0.49478847332924586,8.3408951563458,2.0,2.7230769230769236,367.23163841807906,0.0363615173940904,-0.05559116601596661,-0.42421770293106487,1423.4432234432234,-1.0,59.34081854400579,2.7151586089180233,
2023-08-12 16:33:49.776000,0.3493975903614458,6.0,7.566265060240965,6.489270386266094,0.5315757204169221,8.318822808093193,2.0,2.7230769230769236,367.23163841807906,-0.212108851465532,0.2524328419089795,-0.4793426956471066,1422.7106227106226,-1.0,59.34081854400579,2.715261618779669,
2023-08-12 16:33:49.784000,0.3253012048192771,6.024096385542169,7.578313253012048,6.445125689760882,0.5315757204169221,8.289393010423053,2.0,2.7230769230769236,367.23163841807906,0.16712312802284232,0.4193228832818602,-0.5183847095157628,1419.7802197802198,-1.0,59.34081854400579,2.715364187768426,
2023-08-12 16:33:49.792000,0.3493975903614458,6.0120481927710845,7.566265060240965,6.415695892090741,0.507050889025138,8.26241569589209,2.0,2.7245421245421246,367.03414896477545,-0.17143523104714195,0.4636093467746631,-0.6822446244391351,1415.3846153846152,-1.0,59.34081854400579,2.715466316159022,
2023-08-12 16:33:49.799000,0.3493975903614458,6.024096385542169,7.530120481927711,6.400980993255671,0.507050889025138,8.26241569589209,2.0,2.7230769230769236,367.23163841807906,-0.2498688887593959,0.3567391177670295,-0.6165141891498169,1410.989010989011,-1.0,59.34081854400579,2.7155680042608195,
2023-08-12 16:33:49.807000,0.3373493975903615,6.0,7.542168674698796,6.383813611281422,0.5217657878602084,8.286940527283875,2.0,2.7245421245421246,367.03414896477545,0.05698968591573838,0.12691568090437563,-0.7938931297709924,1406.5934065934066,-1.0,59.34081854400579,2.715669252046593,
2023-08-12 16:33:49.815000,0.3493975903614458,6.0120481927710845,7.566265060240965,6.391171060698957,0.48743102391171056,8.245248313917841,2.0,2.7245421245421246,367.03414896477545,0.17772857059611927,-0.025056814870928437,-0.661616455917487,1402.197802197802,-1.0,59.34081854400579,2.7157700595907435,
2023-08-12 16:33:49.822000,0.3253012048192771,6.0,7.542168674698796,6.356836296750459,0.5119558553034947,8.321275291232372,2.0,2.7245421245421246,367.03414896477545,-0.1466115028261752,0.1604801584989225,-0.6387739642211996,1398.5347985347985,-1.0,59.34081854400579,2.715870428035382,
2023-08-12 16:33:49.830000,0.3373493975903615,5.987951807228916,7.530120481927711,6.393623543838136,0.49478847332924586,8.306560392397301,2.0,2.7245421245421246,367.03414896477545,-0.2063982285414606,0.08123069751179923,-0.6596352193928097,1394.139194139194,-1.0,59.34081854400579,2.7159703585912327,
2023-08-12 16:33:49.838000,0.3253012048192771,6.0,7.530120481927711,6.400980993255671,0.4678111587982832,8.181483752299203,2.0,2.7245421245421246,367.03414896477545,-0.05477536274109902,0.049297826466989284,-0.48213973544665206,1389.7435897435896,-1.0,59.34081854400579,2.7160698521010787,
2023-08-12 16:33:49.845000,0.3373493975903615,5.987951807228916,7.55421686746988,6.3445738810545675,0.5045984058859595,8.277130594727161,2.0,2.7245421245421246,367.03414896477545,-0.20861255171609994,-0.04242177029310605,-0.42759745935551496,1385.3479853479853,-1.0,59.34081854400579,2.716168909516994,
2023-08-12 16:33:49.853000,0.3373493975903615,5.987951807228916,7.542168674698796,6.3862660944206,0.47516860821581847,8.27958307786634,2.0,2.7245421245421246,367.03414896477545,-0.10418973253306914,-0.08880601363556921,-0.5994988637025809,1383.150183150183,-1.0,59.34081854400579,2.716267531885429,
2023-08-12 16:33:49.861000,0.28915662650602414,5.975903614457832,7.530120481927711,6.413243408951563,0.4776210913549969,8.282035561005518,2.0,2.7245421245421246,367.03414896477545,-0.22749257036303192,-0.2581434648330509,-0.32503933337218144,1383.150183150183,-1.0,59.34081854400579,2.716365720332775,
