Shimmer_F5D4_Timestamp_FormattedUnix_CAL,Shimmer_F5D4_Accel_LN_X_CAL,Shimmer_F5D4_Accel_LN_Y_CAL,Shimmer_F5D4_Accel_LN_Z_CAL,Shimmer_F5D4_Accel_WR_X_CAL,Shimmer_F5D4_Accel_WR_Y_CAL,Shimmer_F5D4_Accel_WR_Z_CAL,Shimmer_F5D4_GSR_Range_CAL,Shimmer_F5D4_GSR_Skin_Conductance_CAL,Shimmer_F5D4_GSR_Skin_Resistance_CAL,Shimmer_F5D4_Gyro_X_CAL,Shimmer_F5D4_Gyro_Y_CAL,Shimmer_F5D4_Gyro_Z_CAL,Shimmer_F5D4_PPG_A13_CAL,Shimmer_F5D4_PPG_IBI_CAL,Shimmer_F5D4_PPGtoHR_CAL,Shimmer_F5D4_GSR_Skin_Conductance_LPF_CAL,Shimmer_F5D4_GSR_Skin_Resistance_LPF_CAL,
yyyy/mm/dd hh:mm:ss.000,m/(s^2),m/(s^2),m/(s^2),m/(s^2),m/(s^2),m/(s^2),no_units,uS,kOhms,deg/s,deg/s,deg/s,mV,ms,BPM,uS,kOhms,
2023-12-18 15:14:28.066000,-6.674698795180723,-5.819277108433735,-4.457831325301205,-5.822194972409564,-6.4408338442673205,-3.9460453709380747,2.0,2.1575091575091574,463.49745331069613,0.2931064623273704,-0.3885554454868586,-1.195501427655731,1310.6227106227104,-1.0,111.89982925441093,2.1600810853743804,462.94572625475575,
2023-12-18 15:14:28.074000,-6.614457831325302,-5.879518072289157,-4.457831325301205,-5.952176578786021,-6.303494788473329,-4.039239730226854,2.0,2.156043956043956,463.8124362895005,0.8732591340830955,-1.961074529456324,-0.1115319620068761,1303.2967032967033,-1.0,111.89982925441093,2.16004586075958,462.95327579147573,
2023-12-18 15:14:28.082000,-6.578313253012048,-5.903614457831326,-4.433734939759036,-6.015941140404659,-5.962599632127529,-4.15450643776824,2.0,2.156043956043956,463.8124362895005,1.0717324165258437,-2.2053493386166294,-0.05046325971679977,1296.7032967032967,-1.0,111.89982925441093,2.1600105926759197,462.96083483597243,
2023-12-18 15:14:28.089000,-6.602409638554217,-5.783132530120482,-4.421686746987952,-5.702023298589822,-6.5291232372777435,-3.9435928877988964,2.0,2.1575091575091574,463.49745331069613,-0.7145271254588891,1.2450323407726833,-3.760386923838937,1289.3772893772893,-1.0,111.89982925441093,2.159975289628732,462.9684015689976,
2023-12-18 15:14:28.097000,-6.662650602409639,-5.746987951807229,-4.46987951807229,-5.814837522992029,-6.391784181483752,-4.041692213366033,2.0,2.156043956043956,463.8124362895005,0.8732591340830955,-0.1900821630441105,-0.34053959559466235,1286.4468864468863,-1.0,111.89982925441093,2.159939960194972,462.9759741555234,
2023-12-18 15:14:28.105000,-6.566265060240964,-5.91566265060241,-4.445783132530121,-5.9816063764561616,-6.357449417535254,-4.029429797670141,2.0,2.1575091575091574,463.49745331069613,1.7587553172892023,-1.4572577355631944,-0.2184021910145097,1286.4468864468863,-1.0,111.89982925441093,2.1599046121321384,462.9835509357551,
2023-12-18 15:14:28.112000,-6.566265060240964,-5.843373493975904,-4.409638554216868,-5.878602084610668,-6.34763948497854,-3.8749233599019006,2.0,2.156043956043956,463.8124362895005,1.9724957753044696,-1.8694714760212097,0.42281918303129185,1290.10989010989,-1.0,111.89982925441093,2.159869252860467,462.9911303220746,
2023-12-18 15:14:28.120000,-6.542168674698796,-6.0361445783132535,-4.36144578313253,-6.177805027590435,-6.016554261189454,-4.103004291845493,2.0,2.1575091575091574,463.49745331069613,-1.0198706369092707,1.5656430277955842,-3.745119748266418,1297.4358974358975,-1.0,111.89982925441093,2.1598338894547116,462.998710800754,
2023-12-18 15:14:28.128000,-6.63855421686747,-5.759036144578314,-4.445783132530121,-5.841814837522992,-6.465358675659105,-3.9730226854690374,2.0,2.156043956043956,463.8124362895005,0.35417516461744675,1.3977040964978742,-2.172600664296952,1313.5531135531135,-1.0,111.89982925441093,2.159798528638258,463.0062909332536,
2023-12-18 15:14:28.135000,-6.590361445783133,-5.819277108433735,-4.506024096385542,-5.986511342734518,-6.389331698344574,-4.029429797670141,2.0,2.156043956043956,463.8124362895005,1.2549385233960726,-0.7855020103723548,-0.09626478643435701,1338.4615384615383,-1.0,111.89982925441093,2.1597631767795757,463.0138693569347,
2023-12-18 15:14:28.143000,-6.602409638554217,-5.879518072289157,-4.433734939759036,-5.903126916002452,-6.386879215205395,-4.004904966278357,2.0,2.156043956043956,463.8124362895005,1.2549385233960726,-0.7855020103723548,-0.09626478643435701,1373.6263736263736,-1.0,111.89982925441093,2.159727838940498,463.02144498916044,
2023-12-18 15:14:28.151000,-6.542168674698796,-5.9397590361445785,-4.409638554216868,-5.964438994481912,-6.227467811158798,-4.026977314530963,2.0,2.156043956043956,463.8124362895005,1.9114270730143932,-2.9687081172425835,0.2854146028786201,1416.8498168498168,-1.0,111.89982925441093,2.159692519822989,463.0290168243287,
2023-12-18 15:14:28.158000,-6.650602409638554,-5.759036144578314,-4.433734939759036,-5.7657878602084605,-6.453096259963212,-3.990190067443286,2.0,2.156043956043956,463.8124362895005,-1.050404988054309,1.580910203368103,-3.561913641396189,1465.9340659340658,-1.0,111.89982925441093,2.1596572242256142,463.0365838362726,
2023-12-18 15:14:28.166000,-6.614457831325302,-5.795180722891566,-4.46987951807229,-5.856529736358063,-6.443286327406499,-3.9534028203556097,2.0,2.156043956043956,463.8124362895005,0.018297302022026906,1.6877804323757368,-2.7527533360526775,1517.9487179487178,-1.0,111.89982925441093,2.1596219569772086,463.0441449924381,
2023-12-18 15:14:28.174000,-6.55421686746988,-6.0,-4.457831325301205,-6.094420600858369,-6.242182709993869,-4.009809932556713,2.0,2.156043956043956,463.8124362895005,1.6060835615640117,-0.8923722393799883,-0.7222189849076395,1568.4981684981683,-1.0,111.89982925441093,2.159586722451731,463.05169935761063,
2023-12-18 15:14:28.181000,-6.650602409638554,-5.879518072289157,-4.373493975903615,-5.93746167995095,-6.431023911710606,-3.926425505824647,2.0,2.156043956043956,463.8124362895005,-0.8061301788940036,0.29846745527650015,-3.3023716566633645,1610.2564102564102,-1.0,111.89982925441093,2.1595515245774064,463.05924609195705,
2023-12-18 15:14:28.189000,-6.614457831325302,-5.843373493975904,-4.397590361445784,-5.888412017167382,-6.325567136725935,-3.9730226854690374,2.0,2.156043956043956,463.8124362895005,0.3083736378998895,-0.006876056173881501,-2.111531962006876,1643.956043956044,-1.0,111.89982925441093,2.1595163663895414,463.0667845466349,
2023-12-18 15:14:28.197000,-6.578313253012048,-6.0120481927710845,-4.385542168674699,-6.0110361741263025,-6.359901900674433,-3.8626609442060085,2.0,2.156043956043956,463.8124362895005,0.7053202027853857,-1.4725249111357135,-1.2565701299458074,1667.3992673992673,-1.0,111.89982925441093,2.159481250567829,463.07431414890283,
2023-12-18 15:14:28.204000,-6.686746987951808,-5.807228915662651,-4.397590361445784,-5.822194972409564,-6.561005518087063,-3.894543225015328,2.0,2.156043956043956,463.8124362895005,-0.4244507895810265,0.008391119398637582,-3.8977915039916087,1676.923076923077,-1.0,111.89982925441093,2.159446179871083,463.0818343091653,
2023-12-18 15:14:28.212000,-6.63855421686747,-5.903614457831326,-4.409638554216868,-6.020846106683016,-6.362354383813611,-3.9681177191906802,2.0,2.156043956043956,463.8124362895005,0.8579919585105765,-0.44962414777693493,-1.3329060078084027,1673.260073260073,-1.0,111.89982925441093,2.1594111566601706,463.0893445229684,
2023-12-18 15:14:28.220000,-6.63855421686747,-5.963855421686747,-4.409638554216868,-6.035561005518087,-6.386879215205395,-3.896995708154506,2.0,2.156043956043956,463.8124362895005,1.5755492104189734,-1.9000058271662479,-0.7985548627702349,1655.6776556776556,-1.0,111.89982925441093,2.1593761829148916,463.0968443673839,
2023-12-18 15:14:28.227000,-6.602409638554217,-6.060240963855422,-4.349397590361446,-6.302881667688534,-5.923359901900674,-4.147148988350705,2.0,2.1545787545787545,464.12784767086026,1.682419439426607,-2.5717615523570876,-0.2947380688771051,1626.3736263736262,-1.0,111.89982925441093,2.1593412602520425,463.1043334971402,
2023-12-18 15:14:28.235000,-6.614457831325302,-5.91566265060241,-4.409638554216868,-5.834457388105457,-6.570815450643776,-3.8749233599019006,2.0,2.156043956043956,463.8124362895005,-2.19544315599324,3.6725132568032177,-6.584814404754967,1591.9413919413919,-1.0,111.89982925441093,2.159306389909768,463.1118116485446,
2023-12-18 15:14:28.243000,-6.698795180722892,-5.746987951807229,-4.433734939759036,-5.79767014101778,-6.443286327406499,-3.997547516860821,2.0,2.156043956043956,463.8124362895005,-0.16490880484820208,2.832818600314668,-3.1649670765106928,1553.8461538461538,-1.0,111.89982925441093,2.1592715726630627,463.1192786570816,
2023-12-18 15:14:28.250000,-6.63855421686747,-5.963855421686747,-4.445783132530121,-6.131207847946045,-6.372164316370324,-3.9509503372164314,2.0,2.156043956043956,463.8124362895005,1.3770759279762252,-1.6862653691509806,-0.4779441757473341,1512.8205128205127,-1.0,111.89982925441093,2.159236808948186,463.1267344301627,
2023-12-18 15:14:28.258000,-6.421686746987952,-6.1807228915662655,-4.36144578313253,-6.190067443286327,-6.2029429797670135,-3.8822808093194356,2.0,2.156043956043956,463.8124362895005,1.9419614241594314,-4.220616514189149,-0.813822038342754,1469.5970695970695,-1.0,111.89982925441093,2.1592020989180365,463.1341789357998,
2023-12-18 15:14:28.266000,-6.746987951807229,-5.710843373493976,-4.349397590361446,-5.6922133660331085,-6.592887798896382,-3.8822808093194356,2.0,2.156043956043956,463.8124362895005,0.17096905774721774,4.664879669016958,-2.7069518093351204,1425.6410256410256,-1.0,111.89982925441093,2.1591674424634597,463.1416121980428,
2023-12-18 15:14:28.273000,-6.518072289156627,-5.963855421686747,-4.36144578313253,-6.405885959534028,-5.815450643776824,-4.044144696505211,2.0,2.156043956043956,463.8124362895005,0.7816560806479811,0.9091544781772635,-0.6153487559000059,1382.4175824175823,-1.0,111.89982925441093,2.159132839235194,463.149034292278,
2023-12-18 15:14:28.281000,-6.542168674698796,-5.91566265060241,-4.385542168674699,-5.868792152053954,-6.504598405885959,-3.90680564071122,2.0,2.156043956043956,463.8124362895005,-0.45498514072606466,2.3595361575665765,-3.790921274983975,1342.1245421245421,-1.0,111.89982925441093,2.1590982886663648,463.15644534040786,
2023-12-18 15:14:28.289000,-6.710843373493976,-5.759036144578314,-4.349397590361446,-5.836909871244635,-6.418761496014715,-3.867565910484365,2.0,2.156043956043956,463.8124362895005,0.949595011945691,0.6801468445894773,-1.012295320785502,1304.7619047619046,-1.0,111.89982925441093,2.15906378999544,463.1638455059341,
2023-12-18 15:14:28.296000,-6.46987951807229,-6.0,-4.36144578313253,-5.959534028203556,-6.323114653586757,-3.8920907418761495,2.0,2.156043956043956,463.8124362895005,0.5068469203426376,1.2602995163452024,-2.462677000174815,1269.5970695970695,-1.0,111.89982925441093,2.1590293422895677,463.1712349889568,
2023-12-18 15:14:28.304000,-6.590361445783133,-5.807228915662651,-4.36144578313253,-5.805027590435316,-6.364806866952789,-3.8871857755977928,2.0,2.156043956043956,463.8124362895005,0.9190606608006529,1.3366353942077978,-1.6535166948313036,1239.5604395604396,-1.0,111.89982925441093,2.158994944468183,463.1786140211154,
2023-12-18 15:14:28.312000,-6.578313253012048,-5.91566265060241,-4.349397590361446,-6.1361128142244015,-6.163703249540159,-3.9681177191906802,2.0,2.1545787545787545,464.12784767086026,1.2854728745411108,1.0160247071848971,-1.3176388322358839,1213.1868131868132,-1.0,111.89982925441093,2.1589605953268265,463.1859828604864,
2023-12-18 15:14:28.319000,-6.590361445783133,-5.91566265060241,-4.373493975903615,-5.9816063764561616,-6.416309012875536,-4.022072348252606,2.0,2.156043956043956,463.8124362895005,0.9953965386632483,0.25266592855894293,-1.8519899772740516,1193.4065934065934,-1.0,111.89982925441093,2.1589262930683932,463.19334189251106,
2023-12-18 15:14:28.327000,-6.650602409638554,-5.867469879518072,-4.337349397590362,-5.908031882280809,-6.4481912936848556,-3.872470876762722,2.0,2.156043956043956,463.8124362895005,0.934327836373172,-0.05267758289143875,-1.1038983742206165,1178.7545787545787,-1.0,111.89982925441093,2.158892035747564,463.200691534349,
2023-12-18 15:14:28.335000,-6.542168674698796,-5.975903614457832,-4.349397590361446,-6.153280196198651,-5.89883507050889,-4.090741876149601,2.0,2.1545787545787545,464.12784767086026,2.018297302022027,-3.6709981935784617,0.041139793718314735,1167.032967032967,-1.0,111.89982925441093,2.1588578218191863,463.2080321168496,
2023-12-18 15:14:28.342000,-6.530120481927711,-6.060240963855422,-4.373493975903615,-6.0551808706315144,-6.431023911710606,-3.877375843041079,2.0,2.156043956043956,463.8124362895005,-0.13437445370316392,1.6877804323757368,-3.974127381854204,1156.7765567765566,-1.0,111.89982925441093,2.1588236492108717,463.2153640842149,
2023-12-18 15:14:28.350000,-6.771084337349398,-5.759036144578314,-4.301204819277109,-5.819742489270386,-6.624770079705701,-3.7719190680564068,2.0,2.156043956043956,463.8124362895005,0.8885263096556146,0.267933104131462,-1.6535166948313036,1150.18315018315,-1.0,111.89982925441093,2.1587895157664274,463.22268789856366,
2023-12-18 15:14:28.358000,-6.650602409638554,-5.9397590361445785,-4.385542168674699,-6.0698957694665845,-6.308399754751686,-3.9288779889638255,2.0,2.156043956043956,463.8124362895005,2.445778218052561,-2.7091661325097594,-0.3252724200221433,1147.2527472527472,-1.0,111.89982925441093,2.158755419793033,463.2300039221615,
2023-12-18 15:14:28.365000,-6.650602409638554,-5.975903614457832,-4.349397590361446,-5.966891477621091,-6.352544451256898,-3.896995708154506,2.0,2.156043956043956,463.8124362895005,2.7663889050754618,-3.8236699493036523,-0.5390128780374105,1149.4505494505493,-1.0,111.89982925441093,2.158721359625132,463.23731251132324,
2023-12-18 15:14:28.373000,-6.46987951807229,-6.1084337349397595,-4.36144578313253,-6.557939914163089,-5.6781115879828326,-4.228080931943593,2.0,2.156043956043956,463.8124362895005,2.277839286754851,-2.86183788823495,-1.4855777635335936,1156.0439560439559,-1.0,111.89982925441093,2.158687333645807,463.2446140118267,
2023-12-18 15:14:28.381000,-6.518072289156627,-6.0,-4.421686746987952,-5.993868792152053,-6.4923359901900675,-3.9681177191906802,2.0,2.1545787545787545,464.12784767086026,0.4305110424800422,4.512207913291767,-4.951226618495425,1164.102564102564,-1.0,111.89982925441093,2.1586533403077635,463.2519087544169,
2023-12-18 15:14:28.388000,-6.734939759036145,-5.710843373493976,-4.397590361445784,-5.800122624156959,-6.438381361128142,-3.990190067443286,2.0,2.1545787545787545,464.12784767086026,1.7587553172892023,0.7412155468795536,-1.6382495192587845,1172.8937728937728,-1.0,111.89982925441093,2.158619378119032,463.259197058432,
2023-12-18 15:14:28.396000,-6.518072289156627,-6.0120481927710845,-4.409638554216868,-6.12385039852851,-6.227467811158798,-3.9313304721030042,2.0,2.1545787545787545,464.12784767086026,2.4763125691975993,-1.4877920867082326,-2.111531962006876,1184.6153846153845,-1.0,111.89982925441093,2.158585445065638,463.2664793554911,
2023-12-18 15:14:28.403000,-6.578313253012048,-5.91566265060241,-4.349397590361446,-5.952176578786021,-6.367259350091968,-3.8503985285101163,2.0,2.156043956043956,463.8124362895005,2.751121729502943,0.3290018064215383,-1.1344327253656548,1200.0,-1.0,111.89982925441093,2.1585515386622034,463.27375617812186,
2023-12-18 15:14:28.411000,-6.626506024096386,-5.819277108433735,-4.253012048192772,-5.885959534028204,-6.367259350091968,-3.779276517473942,2.0,2.156043956043956,463.8124362895005,2.613717149350271,-0.5412272012120494,-0.1115319620068761,1216.8498168498168,-1.0,111.89982925441093,2.1585176569492726,463.2810279456576,
2023-12-18 15:14:28.419000,-6.530120481927711,-5.891566265060241,-4.289156626506024,-5.998773758430411,-6.156345800122624,-3.926425505824647,2.0,2.156043956043956,463.8124362895005,2.613717149350271,-0.5412272012120494,-0.1115319620068761,1233.6996336996335,-1.0,111.89982925441093,2.1584837985762553,463.2882949463937,
2023-12-18 15:14:28.426000,-6.409638554216868,-6.1807228915662655,-4.373493975903615,-6.116492949110975,-6.1931330472103,-3.936235438381361,2.0,2.156043956043956,463.8124362895005,2.5984499737777518,-0.7091661325097594,-0.3252724200221433,1252.7472527472526,-1.0,111.89982925441093,2.15844996235867,463.2955574329106,
2023-12-18 15:14:28.434000,-6.759036144578314,-5.746987951807229,-4.337349397590362,-5.719190680564071,-6.62722256284488,-3.8994481912936845,2.0,2.156043956043956,463.8124362895005,0.7816560806479811,5.000757531612378,-3.6687838704038227,1274.7252747252746,-1.0,111.89982925441093,2.1584161472926526,463.30281561896004,
2023-12-18 15:14:28.442000,-6.602409638554217,-5.91566265060241,-4.349397590361446,-6.074800735744941,-6.337829552421827,-3.8749233599019006,2.0,2.156043956043956,463.8124362895005,1.7282209661441643,1.3213682186352786,0.2854146028786201,1299.6336996336995,536.19384765625,111.89982925441093,2.158382352568869,463.3100696764783,
2023-12-18 15:14:28.449000,-6.493975903614458,-6.096385542168675,-4.337349397590362,-6.251379521765788,-6.1931330472103,-3.894543225015328,2.0,2.156043956043956,463.8124362895005,2.7358545539304235,-2.251150865334187,0.5754909387564826,1322.3443223443223,-1.0,111.89982925441093,2.15834857758584,463.31731973272775,
2023-12-18 15:14:28.457000,-6.650602409638554,-5.963855421686747,-4.313253012048193,-5.856529736358063,-6.607602697731453,-3.8209687308399753,2.0,2.156043956043956,463.8124362895005,0.35417516461744675,1.2297651652001642,-2.3863411223122197,1340.6593406593406,-1.0,111.89982925441093,2.1583148219626516,463.32456586756456,
2023-12-18 15:14:28.465000,-6.614457831325302,-5.91566265060241,-4.325301204819278,-6.217044757817289,-6.05334150827713,-3.9754751686082157,2.0,2.156043956043956,463.8124362895005,1.7282209661441643,1.733581959093294,-0.7527533360526777,1355.3113553113553,-1.0,111.89982925441093,2.1582810855510766,463.3318081108375,
2023-12-18 15:14:28.472000,-6.457831325301205,-6.1325301204819285,-4.385542168674699,-6.145922746781116,-6.345187001839362,-3.9534028203556097,2.0,2.156043956043956,463.8124362895005,1.514480508128897,-0.05267758289143875,-1.9588602062816853,1367.7655677655678,-1.0,111.89982925441093,2.158247368447099,463.33904643991065,
2023-12-18 15:14:28.480000,-6.710843373493976,-5.855421686746988,-4.337349397590362,-5.871244635193133,-6.531575720416922,-3.9509503372164314,2.0,2.156043956043956,463.8124362895005,1.3312744012586681,2.5580094400093243,-2.5237457024648915,1376.5567765567764,-1.0,111.89982925441093,2.1582136710018323,463.3462807773165,
2023-12-18 15:14:28.488000,-6.650602409638554,-5.903614457831326,-4.313253012048193,-5.9742489270386265,-6.335377069282648,-3.8111587982832615,2.0,2.156043956043956,463.8124362895005,1.8350911951517979,1.0465590583299353,-0.5542800536099296,1385.3479853479853,-1.0,111.89982925441093,2.158179993831863,463.35351098853397,
2023-12-18 15:14:28.495000,-6.397590361445784,-6.19277108433735,-4.36144578313253,-6.111587982832618,-6.296137339055794,-3.816063764561618,2.0,2.156043956043956,463.8124362895005,2.6747858516403475,-1.3961890332731182,-0.23366936658702878,1391.2087912087911,-1.0,111.89982925441093,2.1581463378289887,463.360736879892,
2023-12-18 15:14:28.503000,-6.662650602409639,-5.867469879518072,-4.325301204819278,-5.927651747394236,-6.4996934396076025,-3.86020846106683,2.0,2.156043956043956,463.8124362895005,1.9572285997319505,1.5198415010780268,-1.8825243284190898,1392.6739926739926,-1.0,111.89982925441093,2.158112704169376,463.3679581966004,
2023-12-18 15:14:28.511000,-6.686746987951808,-5.867469879518072,-4.301204819277109,-5.932556713672593,-6.386879215205395,-3.8111587982832615,2.0,2.156043956043956,463.8124362895005,2.2167705844647747,1.4587727987879504,-0.3100052444496242,1391.9413919413919,-1.0,111.89982925441093,2.1580790943221335,463.37517462090517,
2023-12-18 15:14:28.518000,-6.421686746987952,-6.156626506024097,-4.301204819277109,-6.317596566523605,-6.08522378908645,-3.8822808093194356,2.0,2.156043956043956,463.8124362895005,3.499213332556378,-1.7931355981586143,0.17854437387098648,1388.278388278388,-1.0,111.89982925441093,2.158045510057301,463.3823857703685,
2023-12-18 15:14:28.526000,-6.566265060240964,-5.963855421686747,-4.301204819277109,-5.939914163090129,-6.384426732066217,-3.896995708154506,2.0,2.156043956043956,463.8124362895005,2.4915797447701182,0.40533768428413375,-1.897791503991609,1381.6849816849815,-1.0,111.89982925441093,2.1580119534532485,463.3895911962739,
2023-12-18 15:14:28.534000,-6.674698795180723,-5.819277108433735,-4.240963855421687,-5.824647455548742,-6.4996934396076025,-3.713059472716125,2.0,2.1545787545787545,464.12784767086026,2.109900355457141,2.5580094400093243,-0.462677000174815,1368.4981684981683,-1.0,111.89982925441093,2.157978426903504,463.3967903821567,
2023-12-18 15:14:28.541000,-6.602409638554217,-5.867469879518072,-4.253012048192772,-5.935009196811771,-6.298589822194972,-3.76701410177805,2.0,2.1545787545787545,464.12784767086026,3.346541576831187,-0.831303537089912,0.3770176563137346,1353.113553113553,-1.0,111.89982925441093,2.157944933088187,463.403982750484,
2023-12-18 15:14:28.549000,-6.409638554216868,-6.204819277108434,-4.325301204819278,-6.241569589209074,-6.229920294297976,-3.847946045370938,2.0,2.156043956043956,463.8124362895005,2.919060660800653,-0.6633646057922021,-1.4855777635335936,1338.4615384615383,-1.0,111.89982925441093,2.1579114748402097,463.41116769137676,
2023-12-18 15:14:28.557000,-6.662650602409639,-5.879518072289157,-4.289156626506024,-5.89086450030656,-6.48743102391171,-3.7866339668914772,2.0,2.156043956043956,463.8124362895005,2.62898432492279,2.3748033331390954,-1.7603869238389371,1326.007326007326,-1.0,111.89982925441093,2.1578780551490566,463.41834456069114,
2023-12-18 15:14:28.564000,-6.686746987951808,-5.83132530120482,-4.240963855421687,-5.927651747394236,-6.418761496014715,-3.8038013488657265,2.0,2.156043956043956,463.8124362895005,3.316007225686149,-0.6633646057922021,0.45335353417633,1314.2857142857142,-1.0,111.89982925441093,2.1578446773021422,463.4255126496663,
2023-12-18 15:14:28.572000,-6.530120481927711,-6.048192771084338,-4.289156626506024,-6.214592274678111,-5.982219497240957,-3.9926425505824645,2.0,2.156043956043956,463.8124362895005,3.911427073014393,-2.770234834799836,0.5296894120389254,1303.2967032967033,-1.0,111.89982925441093,2.1578113449209577,463.4326711777144,
2023-12-18 15:14:28.580000,-6.590361445783133,-6.072289156626506,-4.228915662650603,-6.013488657265481,-6.605150214592275,-3.7939914163090127,2.0,2.156043956043956,463.8124362895005,3.2091369966785153,0.7106811957345154,-2.3252724200221433,1293.7728937728937,-1.0,111.89982925441093,2.1577780619618863,463.4398192922396,
2023-12-18 15:14:28.587000,-6.795180722891566,-5.783132530120482,-4.216867469879518,-5.851624770079705,-6.590435315757204,-3.695892090741876,2.0,2.156043956043956,463.8124362895005,3.728220966144164,1.382436920925355,0.3922848318862536,1283.5164835164835,-1.0,111.89982925441093,2.157744832716485,463.44695606857056,
2023-12-18 15:14:28.595000,-6.614457831325302,-5.975903614457832,-4.240963855421687,-6.101778050275904,-6.337829552421827,-3.816063764561618,2.0,2.156043956043956,463.8124362895005,4.842724782938057,-2.1900821630441105,1.0945749082221314,1271.062271062271,-1.0,111.89982925441093,2.1577116618112653,463.4540805100044,
2023-12-18 15:14:28.603000,-6.457831325301205,-6.144578313253012,-4.228915662650603,-6.209687308399754,-6.207847946045371,-3.754751686082158,2.0,2.156043956043956,463.8124362895005,3.712953790571645,-1.5946623157158661,-0.5542800536099296,1259.3406593406592,-1.0,111.89982925441093,2.1576785542069783,463.4611915479539,
2023-12-18 15:14:28.610000,-6.602409638554217,-6.060240963855422,-4.265060240963856,-5.986511342734518,-6.4481912936848556,-3.7228694052728386,2.0,2.156043956043956,463.8124362895005,3.0411980653808053,5.290833867490241,-1.8214556261290136,1250.5494505494505,-1.0,111.89982925441093,2.1576455151974123,463.4682880422015,
2023-12-18 15:14:28.618000,-6.602409638554217,-5.9397590361445785,-4.265060240963856,-5.993868792152053,-6.423666462293071,-3.7522992029429796,2.0,2.156043956043956,463.8124362895005,3.46867898141134,3.6419789056581795,-1.5619136413961892,1245.4212454212454,-1.0,111.89982925441093,2.157612550407713,463.4753687812562,
2023-12-18 15:14:28.626000,-6.746987951807229,-5.879518072289157,-4.228915662650603,-5.959534028203556,-6.563458001226241,-3.725321888412017,2.0,2.156043956043956,463.8124362895005,4.384709515762485,0.5732766155818436,0.1632771982984674,1241.7582417582416,-1.0,111.89982925441093,2.157579666250107,463.48243238477886,
2023-12-18 15:14:28.633000,-6.602409638554217,-6.060240963855422,-4.216867469879518,-6.155732679337829,-6.220110361741263,-3.7228694052728386,2.0,2.156043956043956,463.8124362895005,5.422877454693783,-1.1824485752578509,1.4915214731076276,1241.0256410256409,-1.0,111.89982925441093,2.157546869396148,463.48947741657344,
2023-12-18 15:14:28.641000,-6.590361445783133,-6.0120481927710845,-4.1807228915662655,-6.10913549969344,-6.33292458614347,-3.7204169221336603,2.0,2.156043956043956,463.8124362895005,5.529747683701416,-0.281685216479225,1.2319794883748032,1241.7582417582416,-1.0,111.89982925441093,2.157514166352507,463.49650247541405,
2023-12-18 15:14:28.649000,-6.421686746987952,-6.19277108433735,-4.265060240963856,-6.457388105456775,-6.119558553034947,-3.796443899448191,2.0,2.156043956043956,463.8124362895005,4.537381271487676,5.3061010430627595,-0.43214264902977684,1241.7582417582416,-1.0,111.89982925441093,2.157481563949402,463.503506090465,
2023-12-18 15:14:28.656000,-6.397590361445784,-6.19277108433735,-4.253012048192772,-6.244022072348252,-6.151440833844267,-3.830778663396689,2.0,2.156043956043956,463.8124362895005,3.3770759279762252,8.13052852397879,-2.844356389487792,1243.2234432234432,-1.0,111.89982925441093,2.157449069335906,463.51048672229246,
2023-12-18 15:14:28.664000,-6.771084337349398,-5.783132530120482,-4.265060240963856,-5.763335377069282,-6.683629675045983,-3.8209687308399753,2.0,2.156043956043956,463.8124362895005,4.690053027212866,6.252665928558943,0.8961016257793833,1247.6190476190475,-1.0,111.89982925441093,2.1574166904326137,463.51744266594494,
2023-12-18 15:14:28.672000,-6.698795180722892,-5.891566265060241,-4.19277108433735,-6.0257510729613735,-6.364806866952789,-3.6909871244635193,2.0,2.156043956043956,463.8124362895005,4.751121729502943,0.6954140201619964,1.8579336868480856,1260.07326007326,-1.0,111.89982925441093,2.157384435858716,463.52437206657396,
2023-12-18 15:14:28.679000,-6.566265060240964,-6.0361445783132535,-4.228915662650603,-6.0919681177191904,-6.303494788473329,-3.747394236664623,2.0,2.156043956043956,463.8124362895005,5.545014859273935,0.4358720354291719,2.11747567158091,1282.051282051282,-1.0,111.89982925441093,2.157352314437433,463.53127302532204,
2023-12-18 15:14:28.687000,-6.313253012048193,-6.253012048192772,-4.289156626506024,-6.32495401594114,-6.175965665236051,-3.7743715511955855,2.0,2.1545787545787545,464.12784767086026,3.850358370724317,7.9778567682535995,-2.0657304352893187,1315.018315018315,-1.0,111.89982925441093,2.1573203351929697,463.53814359998245,
2023-12-18 15:14:28.695000,-6.710843373493976,-5.795180722891566,-4.204819277108434,-5.7290006131207845,-6.637032495401594,-3.7596566523605146,2.0,2.156043956043956,463.8124362895005,3.850358370724317,7.9778567682535995,-2.0657304352893187,1359.7069597069597,-1.0,111.89982925441093,2.157288506853621,463.54498191196564,
2023-12-18 15:14:28.702000,-6.759036144578314,-5.759036144578314,-4.204819277108434,-5.898221949724095,-6.4629061925199265,-3.7572041692213363,2.0,2.156043956043956,463.8124362895005,3.7892896684342405,7.565643027795584,-0.1115319620068761,1412.4542124542124,-1.0,111.89982925441093,2.1572568382668535,463.551786056946,
2023-12-18 15:14:28.710000,-6.578313253012048,-6.024096385542169,-4.240963855421687,-6.0625383200490495,-6.342734518700183,-3.808706315144083,2.0,2.156043956043956,463.8124362895005,4.6747858516403475,1.382436920925355,1.567857350970223,1469.5970695970695,-1.0,111.89982925441093,2.157225338917217,463.55855399337344,
2023-12-18 15:14:28.718000,-6.602409638554217,-5.9397590361445785,-4.216867469879518,-5.949724095646842,-6.357449417535254,-3.754751686082158,2.0,2.156043956043956,463.8124362895005,5.422877454693783,-0.7702348347998357,2.102208496008391,1526.7399267399267,-1.0,111.89982925441093,2.1571940184601113,463.56528364283764,
2023-12-18 15:14:28.725000,-6.46987951807229,-6.1325301204819285,-4.228915662650603,-6.351931330472103,-6.109748620478234,-3.7694665849172284,2.0,2.156043956043956,463.8124362895005,5.285472874541111,-1.0755783462502173,2.3312161295961773,1577.2893772893772,-1.0,111.89982925441093,2.1571628867122907,463.5719728921159,
2023-12-18 15:14:28.733000,-6.746987951807229,-5.83132530120482,-4.27710843373494,-5.702023298589822,-6.710606989576946,-3.7572041692213363,2.0,2.156043956043956,463.8124362895005,3.0564652409533246,4.512207913291767,-2.111531962006876,1617.5824175824175,-1.0,111.89982925441093,2.1571319536412497,463.57861959545556,
2023-12-18 15:14:28.741000,-6.72289156626506,-5.903614457831326,-4.289156626506024,-6.0478234212139785,-6.364806866952789,-3.76701410177805,2.0,2.156043956043956,463.8124362895005,3.8350911951517976,2.4511392110016907,0.6670939921915972,1647.6190476190475,-1.0,111.89982925441093,2.157101229353531,463.5852215770922,
2023-12-18 15:14:28.748000,-6.602409638554217,-6.0843373493975905,-4.19277108433735,-6.197424892703863,-6.445738810545677,-3.7277743715511953,2.0,2.156043956043956,463.8124362895005,5.392343103548744,-1.0755783462502173,2.0716741448633527,1666.6666666666665,-1.0,111.89982925441093,2.157070724081987,463.591776633992,
2023-12-18 15:14:28.756000,-6.63855421686747,-6.024096385542169,-4.156626506024097,-6.074800735744941,-6.364806866952789,-3.683629675045984,2.0,2.156043956043956,463.8124362895005,5.514480508128897,-1.6404638424334235,2.346483305168696,1673.260073260073,-1.0,111.89982925441093,2.1570404481720216,463.5982825388138,
2023-12-18 15:14:28.764000,-6.590361445783133,-6.0120481927710845,-4.144578313253012,-6.10913549969344,-6.328019619865113,-3.683629675045984,2.0,2.156043956043956,463.8124362895005,5.392343103548744,-0.8771050638074692,2.483887885321368,1666.6666666666665,-1.0,111.89982925441093,2.1570104120668785,463.6047370430752,
2023-12-18 15:14:28.771000,-6.55421686746988,-6.048192771084338,-4.144578313253012,-6.190067443286327,-6.27161250766401,-3.6394849785407724,2.0,2.156043956043956,463.8124362895005,5.590816385991492,-0.3122195676242632,1.8884680379931238,1648.3516483516482,-1.0,111.89982925441093,2.156980626291992,463.61113788052194,
2023-12-18 15:14:28.779000,-6.566265060240964,-6.120481927710844,-4.072289156626506,-6.138565297363581,-6.359901900674433,-3.5928877988963825,2.0,2.156043956043956,463.8124362895005,4.598449973777752,1.199230814055126,1.3083153662373985,1617.5824175824175,-1.0,111.89982925441093,2.156951101438494,463.6174827706773,
2023-12-18 15:14:28.786000,-6.566265060240964,-6.1325301204819285,-4.072289156626506,-6.241569589209074,-6.313304721030042,-3.6296750459840585,2.0,2.156043956043956,463.8124362895005,5.392343103548744,0.7412155468795536,3.1251092593671697,1580.2197802197802,-1.0,111.89982925441093,2.1569218486037696,463.6237693244065,
2023-12-18 15:14:28.794000,-6.542168674698796,-6.156626506024097,-4.0361445783132535,-6.241569589209074,-6.291232372777436,-3.573267933782955,2.0,2.156043956043956,463.8124362895005,5.529747683701416,0.40533768428413375,3.4304527708175514,1541.3919413919414,-1.0,111.89982925441093,2.1568928788482755,463.6299951603862,
2023-12-18 15:14:28.802000,-6.55421686746988,-6.19277108433735,-4.0120481927710845,-6.266094420600858,-6.269160024524831,-3.5830778663396687,2.0,2.156043956043956,463.8124362895005,5.560282034846455,1.0465590583299353,3.3083153662373985,1499.6336996336995,-1.0,111.89982925441093,2.15686420275567,463.63615799942556,
2023-12-18 15:14:28.809000,-6.542168674698796,-6.1807228915662655,-4.0361445783132535,-6.253832004904966,-6.27161250766401,-3.524218270999387,2.0,2.156043956043956,463.8124362895005,5.880892721869355,1.7641163102383322,3.399918419672513,1457.8754578754579,-1.0,111.89982925441093,2.156835830905477,463.64225556314767,
2023-12-18 15:14:28.817000,-6.530120481927711,-6.240963855421687,-4.024096385542169,-6.3077866339668915,-6.337829552421827,-3.607602697731453,2.0,2.156043956043956,463.8124362895005,5.987762950876989,4.023658294971156,2.315948954023658,1413.9194139194137,-1.0,111.89982925441093,2.156807773852536,463.64828557841355,
2023-12-18 15:14:28.825000,-6.518072289156627,-6.228915662650603,-4.024096385542169,-6.300429184549356,-6.251992642550582,-3.5904353157572038,2.0,2.156043956043956,463.8124362895005,6.995396538663248,3.153429287337569,3.2777810150923603,1369.9633699633698,-1.0,111.89982925441093,2.1567800425638604,463.6542456836799,
2023-12-18 15:14:28.832000,-6.55421686746988,-6.253012048192772,-4.0602409638554215,-6.305334150827712,-6.298589822194972,-3.5830778663396687,2.0,2.156043956043956,463.8124362895005,7.209136996678515,3.0923605850474924,2.5449565876114444,1328.2051282051282,-1.0,111.89982925441093,2.1567526478721186,463.66013354618747,
2023-12-18 15:14:28.840000,-6.325301204819278,-6.397590361445784,-4.0361445783132535,-6.577559779276517,-5.925812385039853,-3.7719190680564068,2.0,2.1545787545787545,464.12784767086026,8.613717149350272,1.6572460812306986,2.483887885321368,1290.8424908424909,-1.0,111.89982925441093,2.156725600032835,463.6659469569149,
2023-12-18 15:14:28.848000,-6.542168674698796,-6.216867469879518,-4.19277108433735,-6.194972409564684,-6.4114040465971796,-3.678724708767627,2.0,2.1545787545787545,464.12784767086026,5.560282034846455,10.038925470543676,-2.080997610861838,1261.5384615384614,-1.0,111.89982925441093,2.156698909159718,463.67168373769664,
2023-12-18 15:14:28.855000,-6.530120481927711,-6.1807228915662655,-4.19277108433735,-6.351931330472103,-6.082771305947271,-3.747394236664623,2.0,2.156043956043956,463.8124362895005,8.766388905075463,9.748849134665813,1.5983917021152612,1238.8278388278388,-1.0,111.89982925441093,2.1566725850625557,463.67734177606036,
2023-12-18 15:14:28.863000,-6.36144578313253,-6.433734939759036,-4.132530120481928,-6.4696505211526665,-6.095033721643164,-3.6394849785407724,2.0,2.156043956043956,463.8124362895005,9.30074005011363,9.94732241710856,0.45335353417633,1223.4432234432234,-1.0,111.89982925441093,2.1566466372232536,463.6829190295559,
2023-12-18 15:14:28.871000,-6.46987951807229,-6.156626506024097,-4.1807228915662655,-6.158185162477007,-6.293684855916616,-3.678724708767627,2.0,2.156043956043956,463.8124362895005,9.377075927976225,11.29083386749024,0.22434590058854373,1212.4542124542124,-1.0,111.89982925441093,2.156621074910143,463.6884135012128,
2023-12-18 15:14:28.878000,-6.481927710843374,-6.156626506024097,-4.204819277108434,-6.293071735131821,-6.161250766400981,-3.683629675045984,2.0,2.156043956043956,463.8124362895005,9.98776295087699,13.000757531612377,0.7434298700541925,1207.3260073260074,-1.0,111.89982925441093,2.1565959071878393,463.6938232378484,
2023-12-18 15:14:28.886000,-6.337349397590362,-6.313253012048193,-4.216867469879518,-6.467198038013488,-6.036174126302881,-3.784181483752299,2.0,2.156043956043956,463.8124362895005,9.606083561564013,12.28320027970398,-1.54664646582367,1204.3956043956043,-1.0,111.89982925441093,2.1565711433505133,463.6991462371983,
2023-12-18 15:14:28.894000,-6.445783132530121,-6.289156626506024,-4.27710843373494,-6.280809319435929,-6.335377069282648,-3.7719190680564068,2.0,2.156043956043956,463.8124362895005,9.377075927976225,15.443505623215431,-2.7222189849076392,1202.9304029304028,-1.0,111.89982925441093,2.1565467928305035,463.7043804675309,
2023-12-18 15:14:28.901000,-6.590361445783133,-6.060240963855422,-4.289156626506024,-6.087063151440834,-6.367259350091968,-3.847946045370938,2.0,2.156043956043956,463.8124362895005,10.522114095915157,14.222131577413904,-1.54664646582367,1203.6630036630036,-1.0,111.89982925441093,2.1565228642285024,463.7095240755896,
2023-12-18 15:14:28.909000,-6.457831325301205,-6.1807228915662655,-4.265060240963856,-6.285714285714286,-6.190680564071122,-3.7522992029429796,2.0,2.156043956043956,463.8124362895005,10.338907989044928,12.817551424742149,-3.2718373055183263,1204.3956043956043,-1.0,111.89982925441093,2.156499365361574,463.7145753763206,
2023-12-18 15:14:28.917000,-6.481927710843374,-6.1325301204819285,-4.253012048192772,-6.082158185162477,-6.305947271612507,-3.816063764561618,2.0,2.156043956043956,463.8124362895005,10.338907989044928,11.519841501078027,-4.279470893304586,1210.2564102564102,-1.0,111.89982925441093,2.1564763037324437,463.7195327522779,
2023-12-18 15:14:28.924000,-6.578313253012048,-6.0361445783132535,-4.289156626506024,-6.148375229920294,-6.1955855303494785,-3.8528510116492947,2.0,2.156043956043956,463.8124362895005,10.232037760037295,10.496940737719248,-4.20313501544199,1219.047619047619,-1.0,111.89982925441093,2.1564536865070503,463.72439465846037,
2023-12-18 15:14:28.932000,-6.445783132530121,-6.156626506024097,-4.27710843373494,-6.27835683629675,-6.031269160024524,-3.8798283261802573,2.0,2.156043956043956,463.8124362895005,9.81982401957928,8.481673562146728,-5.897791503991608,1230.7692307692307,-1.0,111.89982925441093,2.156431520493108,463.7291596269236,
2023-12-18 15:14:28.940000,-6.63855421686747,-5.927710843373494,-4.27710843373494,-5.976701410177805,-6.546290619251992,-3.7596566523605146,2.0,2.156043956043956,463.8124362895005,9.667152263854089,6.817551424742149,-5.317638832235883,1243.956043956044,-1.0,111.89982925441093,2.156409812577706,463.73382617298574,
2023-12-18 15:14:28.947000,-6.590361445783133,-6.0361445783132535,-4.253012048192772,-6.180257510729613,-6.249540159411404,-3.737584304107909,2.0,2.156043956043956,463.8124362895005,9.850358370724317,5.107627760620011,-5.577180816968707,1257.142857142857,-1.0,111.89982925441093,2.156388569640996,463.73839281374444,
2023-12-18 15:14:28.955000,-6.457831325301205,-6.168674698795181,-4.19277108433735,-6.209687308399754,-6.2029429797670135,-3.830778663396689,2.0,2.156043956043956,463.8124362895005,8.186236233319738,4.206864401841385,-7.943593030709166,1271.062271062271,-1.0,111.89982925441093,2.156367797592256,463.7428582747618,
2023-12-18 15:14:28.963000,-6.614457831325302,-6.0361445783132535,-4.253012048192772,-6.064990803188228,-6.408951563458001,-3.7939914163090127,2.0,2.156043956043956,463.8124362895005,8.232037760037295,3.718314783520775,-6.844356389487792,1286.4468864468863,-1.0,111.89982925441093,2.156347501882372,463.7472213802063,
2023-12-18 15:14:28.970000,-6.578313253012048,-6.024096385542169,-4.1807228915662655,-6.0551808706315144,-6.249540159411404,-3.7007970570202326,2.0,2.156043956043956,463.8124362895005,8.232037760037295,3.718314783520775,-6.844356389487792,1298.9010989010987,-1.0,111.89982925441093,2.1563276879131705,463.7514809651112,
2023-12-18 15:14:28.978000,-6.481927710843374,-6.0120481927710845,-4.072289156626506,-6.114040465971796,-5.933169834457388,-3.725321888412017,2.0,2.156043956043956,463.8124362895005,8.384709515762486,-0.4801584989219731,-6.6458831070450435,1309.89010989011,-1.0,111.89982925441093,2.156308360534554,463.7556359832002,
2023-12-18 15:14:28.986000,-6.397590361445784,-6.313253012048193,-4.132530120481928,-6.27835683629675,-6.23973022685469,-3.6689147762109133,2.0,2.156043956043956,463.8124362895005,8.186236233319738,-3.8542043004486906,-6.03519608414428,1318.6813186813185,536.19384765625,111.89982925441093,2.1562895240352993,463.7596855088749,
2023-12-18 15:14:28.993000,-6.566265060240964,-6.156626506024097,-4.144578313253012,-6.177805027590435,-6.305947271612507,-3.7424892703862658,2.0,2.1545787545787545,464.12784767086026,6.338907989044928,-0.7702348347998357,-8.218402191014508,1325.2747252747251,-1.0,111.89982925441093,2.156271181677057,463.7636288371366,
2023-12-18 15:14:29.001000,-6.602409638554217,-6.0843373493975905,-4.132530120481928,-6.212139791538933,-6.399141630901287,-3.578172900061312,2.0,2.156043956043956,463.8124362895005,5.6824194394266065,0.40533768428413375,-8.310005244449624,1328.937728937729,-1.0,111.89982925441093,2.1562533357198093,463.7674654785683,
2023-12-18 15:14:29.009000,-6.445783132530121,-6.240963855421687,-4.048192771084338,-6.288166768853464,-5.984671980380135,-3.6468424279583074,2.0,2.156043956043956,463.8124362895005,6.873259134083096,-4.037410407318919,-6.218402191014509,1330.4029304029302,-1.0,111.89982925441093,2.1562359882576807,463.77119497978947,
2023-12-18 15:14:29.016000,-6.518072289156627,-6.240963855421687,-3.951807228915663,-6.27835683629675,-6.406499080318823,-3.484978540772532,2.0,2.156043956043956,463.8124362895005,6.644251500495309,-4.724433308082278,-5.5313792902511505,1328.2051282051282,-1.0,111.89982925441093,2.1562191412468543,463.77481691701934,
2023-12-18 15:14:29.024000,-6.481927710843374,-6.1807228915662655,-3.987951807228916,-6.270999386879215,-6.175965665236051,-3.6051502145922747,2.0,2.156043956043956,463.8124362895005,5.850358370724317,-3.228250101975408,-6.6458831070450435,1324.5421245421244,-1.0,111.89982925441093,2.156202796044497,463.77833099533893,
2023-12-18 15:14:29.032000,-6.493975903614458,-6.289156626506024,-3.9397590361445785,-6.3813611281422435,-6.25444512568976,-3.5291232372777435,2.0,2.156043956043956,463.8124362895005,5.392343103548744,-2.9076394149525076,-6.264203717732066,1322.3443223443223,-1.0,111.89982925441093,2.1561869534069125,463.7817370490939,
2023-12-18 15:14:29.039000,-6.530120481927711,-6.240963855421687,-3.91566265060241,-6.312691600245248,-6.283874923359901,-3.504598405885959,2.0,2.156043956043956,463.8124362895005,5.041198065380805,-3.243517277547927,-6.661150282617562,1321.6117216117216,-1.0,111.89982925441093,2.156171613489117,463.78503504199307,
2023-12-18 15:14:29.047000,-6.481927710843374,-6.313253012048193,-3.891566265060241,-6.435315757204169,-6.264255058246475,-3.465358675659105,2.0,2.156043956043956,463.8124362895005,5.071732416525844,-2.4496241477769347,-6.523745702464891,1320.8791208791208,-1.0,111.89982925441093,2.156156775845855,463.7882250668946,
2023-12-18 15:14:29.055000,-6.481927710843374,-6.301204819277109,-3.9036144578313254,-6.383813611281422,-6.1661557326793375,-3.514408338442673,2.0,2.156043956043956,463.8124362895005,5.193869821105996,-2.632830254647164,-6.997028145212982,1320.8791208791208,-1.0,111.89982925441093,2.156142439434098,463.7913073452753,
2023-12-18 15:14:29.062000,-6.493975903614458,-6.349397590361446,-3.8674698795180724,-6.430410790925812,-6.256897608828939,-3.4114040465971796,2.0,2.156043956043956,463.8124362895005,4.7969232562205,-2.480158498921973,-7.0886311986480965,1318.6813186813185,-1.0,111.89982925441093,2.1561286026170396,463.79428222637364,
2023-12-18 15:14:29.070000,-6.46987951807229,-6.313253012048193,-3.8313253012048194,-6.4107909258123845,-6.156345800122624,-3.362354383813611,2.0,2.156043956043956,463.8124362895005,5.056465240953324,-1.1061126973952555,-7.0886311986480965,1316.4835164835165,-1.0,111.89982925441093,2.1561152631696254,463.7971501860074,
2023-12-18 15:14:29.078000,-6.409638554216868,-6.349397590361446,-3.843373493975904,-6.398528510116493,-6.1440833844267315,-3.33292458614347,2.0,2.156043956043956,463.8124362895005,4.659518676067829,0.40533768428413375,-7.103898374220616,1315.018315018315,-1.0,111.89982925441093,2.156102418285609,463.7999118250599,
2023-12-18 15:14:29.085000,-6.409638554216868,-6.385542168674699,-3.7951807228915664,-6.474555487431023,-6.185775597792765,-3.3525444512568976,2.0,2.156043956043956,463.8124362895005,4.873259134083096,0.14579569955130933,-6.340539595594661,1312.087912087912,-1.0,111.89982925441093,2.156090064586145,463.8025678676331,
2023-12-18 15:14:29.093000,-6.337349397590362,-6.36144578313253,-3.7951807228915664,-6.442673206621704,-6.058246474555487,-3.345187001839362,2.0,2.156043956043956,463.8124362895005,4.735854553930424,0.3290018064215383,-5.882524328419089,1308.4249084249084,-1.0,111.89982925441093,2.1560781981299324,463.80511915887394,
2023-12-18 15:14:29.101000,-6.373493975903615,-6.421686746987952,-3.8313253012048194,-6.545677498467198,-6.119558553034947,-3.455548743102391,2.0,2.156043956043956,463.8124362895005,4.1251675310296605,2.771749898024592,-6.477944175747333,1305.4945054945053,-1.0,111.89982925441093,2.156066814424877,463.8075666624636,
2023-12-18 15:14:29.108000,-6.385542168674699,-6.433734939759036,-3.8674698795180724,-6.5113427345187,-6.188228080931943,-3.391784181483752,2.0,2.156043956043956,463.8124362895005,3.5908163859914923,4.359536157566576,-6.050463259716799,1304.0293040293038,-1.0,111.89982925441093,2.156055908441269,463.80991145778944,
2023-12-18 15:14:29.116000,-6.373493975903615,-6.445783132530121,-3.855421686746988,-6.567749846719804,-6.122011036174126,-3.4285714285714284,2.0,2.1545787545787545,464.12784767086026,3.8045568440067594,4.542742264436805,-5.684051045976341,1304.0293040293038,-1.0,111.89982925441093,2.156045474626469,463.8121547367877,
2023-12-18 15:14:29.124000,-6.337349397590362,-6.445783132530121,-3.855421686746988,-6.545677498467198,-6.087676272225628,-3.438381361128142,2.0,2.156043956043956,463.8124362895005,3.30074005011363,5.748849134665813,-5.1955014276557305,1304.7619047619046,-1.0,111.89982925441093,2.1560355064283634,463.81429790653266,
2023-12-18 15:14:29.131000,-6.337349397590362,-6.481927710843374,-3.8674698795180724,-6.60453709380748,-6.055793991416309,-3.4800735744941753,2.0,2.156043956043956,463.8124362895005,2.995396538663248,6.863352951459706,-4.5390128780374095,1305.4945054945053,-1.0,111.89982925441093,2.15602599673341,463.8163424949446,
2023-12-18 15:14:29.139000,-6.325301204819278,-6.518072289156627,-3.9397590361445785,-6.592274678111588,-6.050889025137952,-3.4702636419374615,2.0,2.156043956043956,463.8124362895005,2.583182798205233,7.764116310238332,-4.5390128780374095,1307.6923076923076,-1.0,111.89982925441093,2.1560169384100805,463.8182900338093,
2023-12-18 15:14:29.147000,-6.27710843373494,-6.46987951807229,-3.927710843373494,-6.521152667075413,-6.033721643163703,-3.4874310239117103,2.0,2.1545787545787545,464.12784767086026,2.1404347066021794,9.031291882757415,-4.569547229182448,1309.1575091575091,-1.0,111.89982925441093,2.1560083238706524,463.8201421531143,
2023-12-18 15:14:29.154000,-6.289156626506024,-6.506024096385542,-4.024096385542169,-6.597179644389945,-6.082771305947271,-3.5462906192519923,2.0,2.1545787545787545,464.12784767086026,1.3618087524037061,9.168696462910088,-4.859623565060311,1308.4249084249084,-1.0,111.89982925441093,2.156000145057378,463.8219005842986,
2023-12-18 15:14:29.162000,-6.313253012048193,-6.55421686746988,-4.0602409638554215,-6.60453709380748,-6.021459227467811,-3.5830778663396687,2.0,2.156043956043956,463.8124362895005,2.018297302022027,9.306101043062759,-3.6687838704038227,1304.0293040293038,-1.0,111.89982925441093,2.1559923933252576,463.823567185452,
2023-12-18 15:14:29.169000,-6.325301204819278,-6.530120481927711,-4.048192771084338,-6.636419374616799,-6.055793991416309,-3.578172900061312,2.0,2.156043956043956,463.8124362895005,1.6060835615640117,9.153429287337568,-3.8214556261290133,1298.9010989010987,-1.0,111.89982925441093,2.155985059922045,463.82514383770854,
2023-12-18 15:14:29.177000,-6.313253012048193,-6.590361445783133,-4.0843373493975905,-6.7590435315757205,-6.168608215818516,-3.595340282035561,2.0,2.156043956043956,463.8124362895005,2.3236408134724087,9.092360585047492,-3.8061884505564945,1295.2380952380952,-1.0,111.89982925441093,2.1559781356245185,463.82663252327933,
2023-12-18 15:14:29.185000,-6.216867469879518,-6.55421686746988,-4.0843373493975905,-6.624156958920907,-5.886572654812998,-3.683629675045984,2.0,2.156043956043956,463.8124362895005,2.064098828739584,7.5351086766505455,-2.7069518093351204,1294.5054945054944,-1.0,111.89982925441093,2.1559716103752167,463.82803540370065,
2023-12-18 15:14:29.192000,-6.240963855421687,-6.626506024096386,-4.144578313253012,-6.7271612507664,-5.974862047823421,-3.67381974248927,2.0,2.156043956043956,463.8124362895005,1.9724957753044696,7.061826233902454,-3.2718373055183263,1295.970695970696,-1.0,111.89982925441093,2.1559654737985467,463.8293547090245,
2023-12-18 15:14:29.200000,-6.228915662650603,-6.590361445783133,-4.132530120481928,-6.7148988350705086,-5.999386879215205,-3.5977927651747392,2.0,2.156043956043956,463.8124362895005,1.3923431035487444,7.397704096497874,-3.195501427655731,1298.9010989010987,-1.0,111.89982925441093,2.155959715225173,463.8305927325684,
2023-12-18 15:14:29.208000,-6.168674698795181,-6.590361445783133,-4.156626506024097,-6.611894543225015,-5.916002452483139,-3.676272225628449,2.0,2.156043956043956,463.8124362895005,1.2396713478235535,7.107627760620011,-2.6611502826175633,1307.6923076923076,-1.0,111.89982925441093,2.155954323717355,463.8317518254677,
2023-12-18 15:14:29.215000,-6.228915662650603,-6.578313253012048,-4.144578313253012,-6.675659104843654,-5.987124463519313,-3.713059472716125,2.0,2.156043956043956,463.8124362895005,0.8427247829380574,7.061826233902454,-3.1344327253656545,1323.076923076923,-1.0,111.89982925441093,2.155949288095102,463.83283439104457,
2023-12-18 15:14:29.223000,-6.19277108433735,-6.578313253012048,-4.144578313253012,-6.602084610668301,-5.94543225015328,-3.676272225628449,2.0,2.156043956043956,463.8124362895005,0.3236408134724086,7.336635394207797,-3.5924479925412274,1347.985347985348,-1.0,111.89982925441093,2.155944597421032,463.83384278070946,
2023-12-18 15:14:29.231000,-6.144578313253012,-6.710843373493976,-4.216867469879518,-6.916002452483139,-5.756591048436542,-3.6934396076026976,2.0,2.156043956043956,463.8124362895005,1.1175339432434008,5.779383485810851,-3.0886311986480974,1380.952380952381,-1.0,111.89982925441093,2.1559402405029,463.8347794007423,
2023-12-18 15:14:29.238000,-6.120481927710844,-6.734939759036145,-4.27710843373494,-6.734518700183936,-5.965052115266707,-3.8111587982832615,2.0,2.156043956043956,463.8124362895005,1.6060835615640117,5.5351086766505455,-1.6687838704038227,1425.6410256410256,-1.0,111.89982925441093,2.1559362055007982,463.8356467966104,
2023-12-18 15:14:29.246000,-6.1084337349397595,-6.445783132530121,-4.216867469879518,-6.415695892090741,-5.857142857142857,-3.7621091354996934,2.0,2.156043956043956,463.8124362895005,1.6060835615640117,5.5351086766505455,-1.6687838704038227,1477.6556776556777,-1.0,111.89982925441093,2.1559324804480258,463.83644754113095,
2023-12-18 15:14:29.254000,-6.433734939759036,-6.36144578313253,-4.156626506024097,-6.442673206621704,-6.200490496627835,-3.6983445738810543,2.0,2.156043956043956,463.8124362895005,1.46867898141134,4.817551424742149,-0.6153487559000059,1535.5311355311355,-1.0,111.89982925441093,2.1559290537376565,463.8371841300013,
2023-12-18 15:14:29.261000,-6.457831325301205,-6.481927710843374,-4.168674698795181,-6.616799509503371,-6.156345800122624,-3.7743715511955855,2.0,2.156043956043956,463.8124362895005,0.8274576073655383,2.054192646116195,-1.1191655497931356,1595.6043956043954,-1.0,111.89982925441093,2.155925913626445,463.8378590882846,
2023-12-18 15:14:29.269000,-6.421686746987952,-6.506024096385542,-4.19277108433735,-6.535867565910484,-6.063151440833844,-3.725321888412017,2.0,2.156043956043956,463.8124362895005,0.6595186760678284,-0.5717615523570876,-1.37870753452596,1652.0146520146518,-1.0,111.89982925441093,2.1559230483009544,463.83847495620336,
2023-12-18 15:14:29.277000,-6.325301204819278,-6.46987951807229,-4.0361445783132535,-6.631514408338442,-5.933169834457388,-3.56591048436542,2.0,2.156043956043956,463.8124362895005,0.6137171493502711,-3.6557310180059424,-2.508478526892372,1698.9010989010987,-1.0,111.89982925441093,2.155920445873978,463.8390342898906,
2023-12-18 15:14:29.284000,-6.337349397590362,-6.590361445783133,-4.19277108433735,-6.565297363580625,-6.276517473942366,-3.8209687308399753,2.0,2.156043956043956,463.8124362895005,-3.8900996445428584,-2.602295903502126,-8.111531962006875,1736.263736263736,-1.0,111.89982925441093,2.1559180944503056,463.8395396472587,
2023-12-18 15:14:29.292000,-6.421686746987952,-6.457831325301205,-4.36144578313253,-6.550582464745554,-6.05334150827713,-3.784181483752299,2.0,2.156043956043956,463.8124362895005,-2.69925994988637,-3.457257735563194,-5.36344035895344,1759.7069597069597,-1.0,111.89982925441093,2.1559159821226306,463.83999358886217,
2023-12-18 15:14:29.300000,-6.156626506024097,-6.518072289156627,-4.0843373493975905,-6.58982219497241,-5.798283261802575,-3.595340282035561,2.0,2.1545787545787545,464.12784767086026,0.24730493560981315,-7.655731018005942,-2.4474098246022957,1767.7655677655675,-1.0,111.89982925441093,2.1559140965787207,463.84039876221993,
2023-12-18 15:14:29.307000,-6.240963855421687,-6.530120481927711,-3.987951807228916,-6.624156958920907,-5.987124463519313,-3.6345800122624157,2.0,2.1545787545787545,464.12784767086026,-1.7221607132451486,-7.991608880601362,-4.386341122312219,1760.4395604395604,-1.0,111.89982925441093,2.155912425586766,463.84075779789123,
2023-12-18 15:14:29.315000,-6.325301204819278,-6.481927710843374,-4.144578313253012,-6.614347026364193,-6.060698957694665,-3.6640098099325566,2.0,2.156043956043956,463.8124362895005,-2.8061301788940036,-5.350387506555561,-3.37870753452596,1738.4615384615383,-1.0,111.89982925441093,2.1559109568831576,463.84107333359685,
2023-12-18 15:14:29.323000,-6.120481927710844,-6.614457831325302,-4.168674698795181,-6.754138565297363,-5.847332924586143,-3.6002452483139176,2.0,2.156043956043956,463.8124362895005,-0.516053843016141,-6.724433308082278,-1.8672571528465707,1704.0293040293038,-1.0,111.89982925441093,2.1559096786559704,463.8413479098567,
2023-12-18 15:14:29.330000,-6.0843373493975905,-6.590361445783133,-4.0120481927710845,-6.616799509503371,-5.859595340282035,-3.524218270999387,2.0,2.156043956043956,463.8124362895005,-0.042771400268049424,-6.464891323349454,-0.6916846337626014,1660.8058608058607,-1.0,111.89982925441093,2.1559085796410815,463.84158394930506,
2023-12-18 15:14:29.338000,-5.987951807228916,-6.542168674698796,-3.963855421686747,-6.611894543225015,-5.560392397302269,-3.602697731453096,2.0,2.156043956043956,463.8124362895005,-0.28704620942835474,-4.3580210943418205,-0.813822038342754,1610.2564102564102,-1.0,111.89982925441093,2.155907648692046,463.84178384928424,
2023-12-18 15:14:29.346000,-6.048192771084338,-6.518072289156627,-3.951807228915663,-6.621704475781729,-5.776210913549969,-3.3697118332311464,2.0,2.156043956043956,463.8124362895005,-2.119107278130645,-0.29695239205174406,-1.9435930307091662,1557.5091575091574,-1.0,111.89982925441093,2.1559068748066936,463.8419499761252,
2023-12-18 15:14:29.353000,-5.987951807228916,-6.481927710843374,-3.951807228915663,-6.597179644389945,-5.771305947271612,-3.497240956468424,2.0,2.156043956043956,463.8124362895005,-1.1267408659169043,-1.8847386515937288,-1.1191655497931356,1501.098901098901,-1.0,111.89982925441093,2.155906247152467,463.84208465969397,
2023-12-18 15:14:29.361000,-6.060240963855422,-6.481927710843374,-3.855421686746988,-6.580012262415695,-5.891477621091354,-3.3599019006744326,2.0,2.1545787545787545,464.12784767086026,-1.1267408659169043,-2.3732882699143394,-1.4245090612435174,1443.956043956044,-1.0,111.89982925441093,2.155905755090517,463.8421901882105,
2023-12-18 15:14:29.369000,-6.0843373493975905,-6.530120481927711,-3.843373493975904,-6.582464745554874,-5.7958307786633965,-3.465358675659105,2.0,2.156043956043956,463.8124362895005,-1.432084377367286,0.5732766155818436,-2.340539595594662,1386.8131868131868,-1.0,111.89982925441093,2.15590538770578,463.84226890940846,
2023-12-18 15:14:29.376000,-6.072289156626506,-6.493975903614458,-3.8674698795180724,-6.638871857755977,-5.8105456774984665,-3.455548743102391,2.0,2.156043956043956,463.8124362895005,-0.2565118582833166,-0.14428063632655325,-1.9435930307091662,1332.6007326007325,-1.0,111.89982925441093,2.1559051342488584,463.8423231354158,
2023-12-18 15:14:29.384000,-6.168674698795181,-6.518072289156627,-3.843373493975904,-6.633966891477621,-5.984671980380135,-3.3280196198651133,2.0,2.156043956043956,463.8124362895005,-2.7297943010314083,4.4206048598566525,-4.737486160480158,1280.5860805860805,-1.0,111.89982925441093,2.1559049846805367,463.84235502553975,
2023-12-18 15:14:29.392000,-6.096385542168675,-6.63855421686747,-3.963855421686747,-6.800735744941753,-5.835070508890251,-3.475168608215818,2.0,2.1545787545787545,464.12784767086026,-1.065672163626828,4.405337684284134,-5.638249519258784,1230.7692307692307,-1.0,111.89982925441093,2.1559049292318995,463.8423666809604,
2023-12-18 15:14:29.399000,-6.0120481927710845,-6.626506024096386,-3.951807228915663,-6.687921520539546,-5.52605763335377,-3.637032495401594,2.0,2.1545787545787545,464.12784767086026,0.4305110424800422,2.3900705087116147,-4.584814404754967,1187.5457875457876,-1.0,111.89982925441093,2.155904957928277,463.8423602472125,
2023-12-18 15:14:29.407000,-6.120481927710844,-6.72289156626506,-3.951807228915663,-6.871857755977928,-5.844880441446965,-3.4923359901900675,2.0,2.156043956043956,463.8124362895005,-0.11910727813064484,4.344268981994057,-6.6458831070450435,1150.9157509157508,-1.0,111.89982925441093,2.1559050605322647,463.8423379264523,
2023-12-18 15:14:29.415000,-6.024096385542169,-6.710843373493976,-4.0,-6.7369711833231145,-5.643776824034335,-3.595340282035561,2.0,2.156043956043956,463.8124362895005,1.4381446302663017,3.4893071499329884,-5.302371656663364,1121.6117216117216,-1.0,111.89982925441093,2.155905227502514,463.8423017710596,
2023-12-18 15:14:29.422000,-6.1325301204819285,-6.72289156626506,-4.0361445783132535,-6.837522992029429,-5.947884733292458,-3.4604537093807477,2.0,2.1545787545787545,464.12784767086026,0.44577821805256124,5.733581959093294,-6.905425091777868,1101.8315018315018,-1.0,111.89982925441093,2.155905450072206,463.8422536667484,
2023-12-18 15:14:29.430000,-6.096385542168675,-6.746987951807229,-4.072289156626506,-6.822808093194359,-5.7001839362354385,-3.7400367872470874,2.0,2.156043956043956,463.8124362895005,1.8045568440067596,5.107627760620011,-5.775654099411455,1090.10989010989,-1.0,111.89982925441093,2.1559057193084032,463.84219553505613,
2023-12-18 15:14:29.438000,-6.204819277108434,-6.746987951807229,-4.072289156626506,-6.923359901900674,-5.960147148988351,-3.6002452483139176,2.0,2.1545787545787545,464.12784767086026,1.5450148592739352,5.779383485810851,-6.615348755900005,1084.981684981685,-1.0,111.89982925441093,2.1559060265411514,463.8421292409725,
2023-12-18 15:14:29.445000,-6.156626506024097,-6.686746987951808,-4.0843373493975905,-6.729613733905579,-5.933169834457388,-3.6174126302881664,2.0,2.1545787545787545,464.12784767086026,2.048831653167065,5.0923605850474924,-5.256570129945807,1087.179487179487,-1.0,111.89982925441093,2.155906363402719,463.8420565844929,
2023-12-18 15:14:29.453000,-6.228915662650603,-6.662650602409639,-4.024096385542169,-6.761496014714899,-6.048436541998774,-3.4800735744941753,2.0,2.1545787545787545,464.12784767086026,1.0717324165258437,6.939688829322302,-6.4168754734572575,1094.5054945054944,-1.0,111.89982925441093,2.1559067213031304,463.84197941351795,
2023-12-18 15:14:29.461000,-6.1325301204819285,-6.662650602409639,-4.0602409638554215,-6.7075413856529735,-5.8105456774984665,-3.6174126302881664,2.0,2.1545787545787545,464.12784767086026,1.7282209661441643,5.489307149932989,-5.561913641396188,1107.6923076923076,-1.0,111.89982925441093,2.1559070923448562,463.8418994270843,
2023-12-18 15:14:29.468000,-6.1325301204819285,-6.590361445783133,-4.072289156626506,-6.746781115879828,-5.849785407725322,-3.6517473942366645,2.0,2.1545787545787545,464.12784767086026,1.0411980653808055,5.580910203368103,-5.851989977274051,1126.007326007326,-1.0,111.89982925441093,2.1559074692528504,463.84181819040344,
2023-12-18 15:14:29.476000,-6.144578313253012,-6.650602409638554,-4.048192771084338,-6.741876149601471,-5.901287553648069,-3.632127529123237,2.0,2.1545787545787545,464.12784767086026,1.499213332556378,5.153429287337569,-5.0886311986480965,1150.18315018315,-1.0,111.89982925441093,2.1559078444240196,463.8417373392031,
2023-12-18 15:14:29.484000,-6.120481927710844,-6.63855421686747,-4.072289156626506,-6.670754138565297,-5.8399754751686075,-3.6394849785407724,2.0,2.1545787545787545,464.12784767086026,0.6442515004953093,4.558009440009324,-4.722218984907639,1179.4871794871794,-1.0,111.89982925441093,2.155908209992405,463.8416585657178,
2023-12-18 15:14:29.491000,-6.144578313253012,-6.602409638554217,-4.0602409638554215,-6.673206621704475,-5.862047823421213,-3.5977927651747392,2.0,2.156043956043956,463.8124362895005,-0.13437445370316392,4.496940737719248,-5.119165549793135,1211.7216117216117,-1.0,111.89982925441093,2.155908558313468,463.8415835145767,
2023-12-18 15:14:29.499000,-6.168674698795181,-6.626506024096386,-4.072289156626506,-6.719803801348865,-5.925812385039853,-3.6615573267933783,2.0,2.1545787545787545,464.12784767086026,-0.30231338500087385,4.222131577413904,-4.600081580327486,1246.153846153846,-1.0,111.89982925441093,2.1559088824471715,463.8415136788125,
2023-12-18 15:14:29.507000,-6.1325301204819285,-6.650602409638554,-4.120481927710844,-6.729613733905579,-5.847332924586143,-3.683629675045984,2.0,2.1545787545787545,464.12784767086026,-0.5007866674436219,3.4435056232154313,-4.355806771167181,1277.6556776556777,-1.0,111.89982925441093,2.1559091757268356,463.8414504926687,
2023-12-18 15:14:29.514000,-6.168674698795181,-6.662650602409639,-4.156626506024097,-6.7443286327406495,-5.89883507050889,-3.649294911097486,2.0,2.156043956043956,463.8124362895005,-1.1878095682069807,2.695414020161996,-4.447409824602295,1306.227106227106,-1.0,111.89982925441093,2.1559094312230407,463.8413954470049,
2023-12-18 15:14:29.522000,-6.168674698795181,-6.626506024096386,-4.156626506024097,-6.6781115879828326,-5.812998160637646,-3.7302268546903736,2.0,2.1545787545787545,464.12784767086026,-1.1878095682069807,2.695414020161996,-4.447409824602295,1332.6007326007325,-1.0,111.89982925441093,2.155909642682411,463.8413498872036,
2023-12-18 15:14:29.530000,-6.1325301204819285,-6.698795180722892,-4.144578313253012,-6.847332924586143,-5.827713059472716,-3.7498467198038012,2.0,2.1545787545787545,464.12784767086026,-1.5084202552298813,3.183963638482607,-4.279470893304586,1356.7765567765566,543.853759765625,110.32377532125021,2.1559098040947045,463.8413151063591,
2023-12-18 15:14:29.537000,-6.1325301204819285,-6.650602409638554,-4.132530120481928,-6.697731453096259,-5.911097486204782,-3.6591048436541995,2.0,2.1545787545787545,464.12784767086026,-1.0809393391993471,1.4740399743604695,-3.6687838704038227,1378.021978021978,-1.0,110.32377532125021,2.1559099091553993,463.8412924609666,
2023-12-18 15:14:29.545000,-6.120481927710844,-6.662650602409639,-4.0843373493975905,-6.7811158798283255,-5.8326180257510725,-3.6689147762109133,2.0,2.1545787545787545,464.12784767086026,-1.7068935376726295,0.20686440184138566,-3.5008449391061127,1395.6043956043954,-1.0,110.32377532125021,2.155909952168761,463.8412831766482,
2023-12-18 15:14:29.552000,-6.1325301204819285,-6.590361445783133,-4.0602409638554215,-6.58982219497241,-5.8399754751686075,-3.6174126302881664,2.0,2.1545787545787545,464.12784767086026,-1.9511683468329348,-0.11374628518151508,-3.5161121146786316,1409.5238095238094,-1.0,110.32377532125021,2.155909927509823,463.84128846382055,
2023-12-18 15:14:29.560000,-6.060240963855422,-6.734939759036145,-4.0843373493975905,-6.79092581238504,-5.756591048436542,-3.6296750459840585,2.0,2.1545787545787545,464.12784767086026,-3.142008041489423,1.535108676650546,-4.325272420022142,1420.5128205128203,-1.0,110.32377532125021,2.1559098296481407,463.84130951258703,
2023-12-18 15:14:29.568000,-6.0843373493975905,-6.686746987951808,-4.0843373493975905,-6.761496014714899,-5.817903126916002,-3.607602697731453,2.0,2.1545787545787545,464.12784767086026,-2.53132101858866,-0.6328302546471639,-3.561913641396189,1427.106227106227,-1.0,110.32377532125021,2.1559096531017494,463.8413475026395,
2023-12-18 15:14:29.575000,-6.0843373493975905,-6.662650602409639,-4.0361445783132535,-6.7443286327406495,-5.754138565297363,-3.5683629675045982,2.0,2.1545787545787545,464.12784767086026,-2.8213973544665225,-1.915273002738767,-3.2718373055183263,1430.7692307692307,-1.0,110.32377532125021,2.1559093920026546,463.84140369666864,
2023-12-18 15:14:29.583000,-6.048192771084338,-6.602409638554217,-4.0,-6.633966891477621,-5.611894543225015,-3.6296750459840585,2.0,2.1545787545787545,464.12784767086026,-3.401550026222248,-1.4267233844181562,-3.8367228017015327,1429.3040293040292,-1.0,110.32377532125021,2.155909041033674,463.8414792389684,
2023-12-18 15:14:29.591000,-6.1084337349397595,-6.795180722891566,-4.048192771084338,-6.994481912936848,-5.8399754751686075,-3.6296750459840585,2.0,2.1545787545787545,464.12784767086026,-5.264145446069576,1.5656430277955842,-4.966493794067945,1426.3736263736262,-1.0,110.32377532125021,2.155908595347968,463.84157517273684,
2023-12-18 15:14:29.598000,-6.048192771084338,-6.698795180722892,-4.072289156626506,-6.7516860821581846,-5.793378295524218,-3.524218270999387,2.0,2.1545787545787545,464.12784767086026,-3.2946797972146142,-1.4877920867082326,-3.790921274983975,1420.5128205128203,-1.0,110.32377532125021,2.1559080500680676,463.8416925477737,
2023-12-18 15:14:29.606000,-6.120481927710844,-6.698795180722892,-4.024096385542169,-6.80564071122011,-5.859595340282035,-3.585530349478847,2.0,2.1545787545787545,464.12784767086026,-4.19544315599324,-2.648097430219683,-3.3329060078084027,1409.5238095238094,-1.0,110.32377532125021,2.1559073998198124,463.84183252067663,
2023-12-18 15:14:29.614000,-6.096385542168675,-6.698795180722892,-4.0361445783132535,-6.761496014714899,-5.825260576333537,-3.573267933782955,2.0,2.1545787545787545,464.12784767086026,-4.149641629275683,-2.4190897966318965,-3.5008449391061127,1395.6043956043954,-1.0,110.32377532125021,2.1559066392495265,463.84199624366136,
2023-12-18 15:14:29.621000,-6.144578313253012,-6.72289156626506,-4.0602409638554215,-6.7958307786633965,-5.86695278969957,-3.595340282035561,2.0,2.1545787545787545,464.12784767086026,-4.485519491871103,-2.0221432317464005,-3.180234252083212,1381.6849816849815,-1.0,110.32377532125021,2.1559057634375454,463.8421847756641,
2023-12-18 15:14:29.629000,-6.1325301204819285,-6.710843373493976,-4.0843373493975905,-6.786020846106682,-5.86695278969957,-3.6394849785407724,2.0,2.1545787545787545,464.12784767086026,-4.69925994988637,-2.4496241477769347,-3.241302954373288,1368.4981684981683,-1.0,110.32377532125021,2.1559047669412523,463.8423992880697,
2023-12-18 15:14:29.637000,-6.120481927710844,-6.734939759036145,-4.072289156626506,-6.8326180257510725,-5.849785407725322,-3.624770079705702,2.0,2.1545787545787545,464.12784767086026,-4.821397354466523,-2.510692850067011,-3.1344327253656545,1355.3113553113553,-1.0,110.32377532125021,2.155903644314363,463.8426409530759,
2023-12-18 15:14:29.644000,-6.1084337349397595,-6.710843373493976,-4.0602409638554215,-6.825260576333537,-5.8031882280809315,-3.5879828326180254,2.0,2.1545787545787545,464.12784767086026,-5.157275217061942,-2.7549676592273165,-2.859623565060311,1341.3919413919414,-1.0,110.32377532125021,2.1559023900651044,463.8429109526879,
2023-12-18 15:14:29.652000,-6.0843373493975905,-6.698795180722892,-4.0361445783132535,-6.8105456774984665,-5.79092581238504,-3.595340282035561,2.0,2.1545787545787545,464.12784767086026,-5.248878270497057,-3.1824485752578506,-2.5695472291824486,1325.2747252747251,-1.0,110.32377532125021,2.1559009986850657,463.84321047251484,
2023-12-18 15:14:29.660000,-6.096385542168675,-6.710843373493976,-4.024096385542169,-6.7958307786633965,-5.916002452483139,-3.5340282035561,2.0,2.1545787545787545,464.12784767086026,-5.813763766680263,-3.19771575083037,-2.294738068877105,1311.3553113553112,-1.0,110.32377532125021,2.1558994646097966,463.8435407102406,
2023-12-18 15:14:29.667000,-6.1084337349397595,-6.72289156626506,-4.0361445783132535,-6.798283261802575,-5.827713059472716,-3.5757204169221333,2.0,2.1545787545787545,464.12784767086026,-6.042771400268049,-3.060311170677698,-2.5695472291824486,1299.6336996336995,-1.0,110.32377532125021,2.155897782250309,463.84390286885304,
2023-12-18 15:14:29.675000,-6.0843373493975905,-6.710843373493976,-4.0361445783132535,-6.820355610055181,-5.869405272838749,-3.5757204169221333,2.0,2.1545787545787545,464.12784767086026,-6.287046209428355,-3.4877920867082324,-2.5695472291824486,1289.3772893772893,-1.0,110.32377532125021,2.1558959464143532,463.8442980660795,
2023-12-18 15:14:29.683000,-6.120481927710844,-6.72289156626506,-4.048192771084338,-6.768853464132434,-5.8105456774984665,-3.6345800122624157,2.0,2.1545787545787545,464.12784767086026,-6.592389720878736,-3.793135598158614,-2.080997610861838,1280.5860805860805,-1.0,110.32377532125021,2.1558939518157376,463.8447274398683,
2023-12-18 15:14:29.690000,-6.096385542168675,-6.710843373493976,-4.0602409638554215,-6.822808093194359,-5.837522992029429,-3.6394849785407724,2.0,2.1545787545787545,464.12784767086026,-6.561855369733698,-3.9000058271662477,-2.279470893304586,1273.260073260073,-1.0,110.32377532125021,2.155891793077585,463.84519214769074,
2023-12-18 15:14:29.698000,-6.1325301204819285,-6.686746987951808,-4.0361445783132535,-6.7811158798283255,-5.940527283874923,-3.6051502145922747,2.0,2.1545787545787545,464.12784767086026,-7.01987063690927,-3.5030592622807517,-2.080997610861838,1267.3992673992673,-1.0,110.32377532125021,2.1558894647368674,463.84569336556405,
2023-12-18 15:14:29.706000,-6.156626506024097,-6.674698795180723,-4.072289156626506,-6.786020846106682,-5.825260576333537,-3.578172900061312,2.0,2.1545787545787545,464.12784767086026,-7.01987063690927,-3.7320668958685377,-1.913058679564128,1260.8058608058607,-1.0,110.32377532125021,2.155886961250271,463.846232286787,
2023-12-18 15:14:29.713000,-6.1325301204819285,-6.662650602409639,-4.0361445783132535,-6.7664009809932555,-5.911097486204782,-3.6223175965665235,2.0,2.1545787545787545,464.12784767086026,-7.172542392634462,-3.6709981935784617,-1.9588602062816853,1254.9450549450548,-1.0,110.32377532125021,2.1558842770014364,463.8468101203841,
2023-12-18 15:14:29.721000,-6.1325301204819285,-6.674698795180723,-4.0361445783132535,-6.800735744941753,-5.903740036787247,-3.524218270999387,2.0,2.1545787545787545,464.12784767086026,-7.371015675077209,-3.793135598158614,-1.745119748266418,1250.5494505494505,-1.0,110.32377532125021,2.1558814063095606,463.84742808925137,
2023-12-18 15:14:29.729000,-6.1325301204819285,-6.674698795180723,-4.048192771084338,-6.692826486817903,-5.8326180257510725,-3.5634580012262416,2.0,2.1545787545787545,464.12784767086026,-7.462618728512324,-3.6404638424334235,-1.531379290251151,1250.5494505494505,-1.0,110.32377532125021,2.1558783434393916,463.84808742800715,
2023-12-18 15:14:29.736000,-6.1084337349397595,-6.674698795180723,-4.048192771084338,-6.7516860821581846,-5.8522378908645,-3.619865113427345,2.0,2.1545787545787545,464.12784767086026,-7.5389546063749195,-3.7015325447234995,-1.5619136413961892,1251.2820512820513,-1.0,110.32377532125021,2.15587508261261,463.8487893805398,
2023-12-18 15:14:29.744000,-6.1325301204819285,-6.662650602409639,-4.024096385542169,-6.7958307786633965,-5.91354996934396,-3.5830778663396687,2.0,2.1545787545787545,464.12784767086026,-7.493153079657362,-3.625196666860904,-1.5161121146786318,1254.212454212454,-1.0,110.32377532125021,2.1558716180205786,463.84953519726474,
2023-12-18 15:14:29.752000,-6.1084337349397595,-6.674698795180723,-4.0602409638554215,-6.690374003678724,-5.86695278969957,-3.5536480686695278,2.0,2.1545787545787545,464.12784767086026,-7.813763766680263,-3.6557310180059424,-1.5771808169687083,1258.6080586080586,-1.0,110.32377532125021,2.1558679438384543,463.8503261320863,
2023-12-18 15:14:29.759000,-6.156626506024097,-6.614457831325302,-4.048192771084338,-6.7958307786633965,-5.874310239117106,-3.6051502145922747,2.0,2.153113553113553,464.44368832936374,-7.569488957519957,-3.151914224112813,-1.2260357788007692,1270.3296703296703,-1.0,110.32377532125021,2.155864054240608,463.8511634390771,
2023-12-18 15:14:29.767000,-6.144578313253012,-6.614457831325302,-4.024096385542169,-6.763948497854077,-5.8399754751686075,-3.578172900061312,2.0,2.1545787545787545,464.12784767086026,-7.600023308664996,-3.53359361342579,-1.1344327253656548,1293.040293040293,-1.0,110.32377532125021,2.1558599433825387,463.852048376517,
2023-12-18 15:14:29.775000,-6.120481927710844,-6.614457831325302,-4.072289156626506,-6.673206621704475,-5.886572654812998,-3.5757204169221333,2.0,2.153113553113553,464.44368832936374,-7.416817201794767,-4.006876056173882,-1.3329060078084027,1330.4029304029302,-1.0,110.32377532125021,2.155855605314166,463.8529822254354,
2023-12-18 15:14:29.782000,-6.1325301204819285,-6.602409638554217,-4.0361445783132535,-6.6781115879828326,-5.837522992029429,-3.5806253832004904,2.0,2.1545787545787545,464.12784767086026,-7.508420255229881,-3.915273002738767,-0.9054250917778685,1380.952380952381,-1.0,110.32377532125021,2.155851033609631,463.8539663692927,
2023-12-18 15:14:29.790000,-6.1325301204819285,-6.590361445783133,-4.024096385542169,-6.700183936235438,-5.857142857142857,-3.5340282035561,2.0,2.1545787545787545,464.12784767086026,-7.615290484237515,-4.113746285181515,-1.195501427655731,1439.5604395604394,-1.0,110.32377532125021,2.155846221841515,463.8550021919087,
2023-12-18 15:14:29.798000,-6.144578313253012,-6.590361445783133,-4.0602409638554215,-6.695278969957081,-5.940527283874923,-3.5708154506437766,2.0,2.1545787545787545,464.12784767086026,-7.615290484237515,-4.113746285181515,-1.195501427655731,1501.8315018315018,-1.0,110.32377532125021,2.155841164125327,463.8560909600974,
2023-12-18 15:14:29.805000,-6.156626506024097,-6.590361445783133,-4.0602409638554215,-6.663396689147762,-5.874310239117106,-3.5757204169221333,2.0,2.1545787545787545,464.12784767086026,-7.676359186527591,-4.113746285181515,-1.6840510459763418,1561.1721611721612,-1.0,110.32377532125021,2.1558358546819827,463.8572339179858,
2023-12-18 15:14:29.813000,-6.156626506024097,-6.55421686746988,-4.0602409638554215,-6.621704475781729,-5.896382587369711,-3.6125076640098097,2.0,2.1545787545787545,464.12784767086026,-7.600023308664996,-3.915273002738767,-1.7756540994114562,1613.9194139194137,-1.0,110.32377532125021,2.155830287859084,463.85843228243385,
2023-12-18 15:14:29.821000,-6.1807228915662655,-6.566265060240964,-4.0843373493975905,-6.675659104843654,-5.837522992029429,-3.5634580012262416,2.0,2.1545787545787545,464.12784767086026,-7.7679622399627055,-4.449624147776935,-1.7909212749839754,1657.142857142857,-1.0,110.32377532125021,2.1558244581530417,463.859687238272,
2023-12-18 15:14:29.828000,-6.1807228915662655,-6.55421686746988,-4.048192771084338,-6.611894543225015,-5.925812385039853,-3.5634580012262416,2.0,2.1545787545787545,464.12784767086026,-7.752695064390187,-4.159547811899072,-1.531379290251151,1684.9816849816848,-1.0,110.32377532125021,2.155818360231938,463.86099993338036,
2023-12-18 15:14:29.836000,-6.1807228915662655,-6.542168674698796,-4.0361445783132535,-6.624156958920907,-5.923359901900674,-3.536480686695279,2.0,2.1545787545787545,464.12784767086026,-7.676359186527591,-3.961074529456324,-1.7603869238389371,1698.168498168498,-1.0,110.32377532125021,2.155811988959049,463.8623714736247,
2023-12-18 15:14:29.844000,-6.156626506024097,-6.542168674698796,-4.0120481927710845,-6.66584917228694,-5.864500306560392,-3.514408338442673,2.0,2.1545787545787545,464.12784767086026,-7.69162636210011,-4.144280636326553,-1.8061884505564945,1699.6336996336995,-1.0,110.32377532125021,2.155805339416907,463.8638029176776,
2023-12-18 15:14:29.851000,-6.156626506024097,-6.542168674698796,-4.0120481927710845,-6.58736971183323,-5.891477621091354,-3.5977927651747392,2.0,2.1545787545787545,464.12784767086026,-7.783229415535224,-3.594662315715866,-1.699318221548861,1688.6446886446886,-1.0,110.32377532125021,2.1557984073896685,463.86529517317933,
2023-12-18 15:14:29.859000,-6.156626506024097,-6.55421686746988,-4.0120481927710845,-6.621704475781729,-5.847332924586143,-3.5683629675045982,2.0,2.1545787545787545,464.12784767086026,-7.69162636210011,-3.4725249111357135,-1.8214556261290136,1663.7362637362637,-1.0,110.32377532125021,2.1557911888627976,463.86684910444006,
2023-12-18 15:14:29.867000,-6.19277108433735,-6.55421686746988,-4.072289156626506,-6.616799509503371,-5.947884733292458,-3.5585530349478844,2.0,2.1545787545787545,464.12784767086026,-7.661092010955072,-2.846570712662431,-1.7909212749839754,1624.9084249084249,-1.0,110.32377532125021,2.155783679626943,463.8684656177133,
2023-12-18 15:14:29.874000,-6.168674698795181,-6.55421686746988,-4.0602409638554215,-6.597179644389945,-5.854690374003678,-3.5389331698344573,2.0,2.1545787545787545,464.12784767086026,-7.554221781947438,-2.464891323349454,-2.0504632597167998,1575.091575091575,-1.0,110.32377532125021,2.155775876252895,463.8701454513183,
2023-12-18 15:14:29.882000,-6.168674698795181,-6.55421686746988,-4.072289156626506,-6.636419374616799,-5.876762722256284,-3.6394849785407724,2.0,2.1545787545787545,464.12784767086026,-7.523687430802401,-2.5412272012120494,-1.9588602062816853,1515.7509157509157,-1.0,110.32377532125021,2.155767775590798,463.87188928344375,
2023-12-18 15:14:29.890000,-6.1807228915662655,-6.542168674698796,-4.072289156626506,-6.599632127529123,-5.960147148988351,-3.6051502145922747,2.0,2.1545787545787545,464.12784767086026,-7.630557659810034,-2.174814987471591,-2.126799137579395,1451.2820512820513,-1.0,110.32377532125021,2.155759374373177,463.8736978176032,
2023-12-18 15:14:29.897000,-6.228915662650603,-6.55421686746988,-4.048192771084338,-6.633966891477621,-5.91354996934396,-3.5977927651747392,2.0,2.153113553113553,464.44368832936374,-7.783229415535224,-2.0679447584639576,-2.111531962006876,1386.080586080586,-1.0,110.32377532125021,2.1557506697307747,463.8755716715921,
2023-12-18 15:14:29.905000,-6.228915662650603,-6.55421686746988,-4.072289156626506,-6.611894543225015,-5.972409564684242,-3.595340282035561,2.0,2.1545787545787545,464.12784767086026,-7.523687430802401,-2.0526775828914388,-1.9588602062816853,1320.14652014652,-1.0,110.32377532125021,2.155741658722594,463.87751147879817,
2023-12-18 15:14:29.912000,-6.216867469879518,-6.530120481927711,-4.0602409638554215,-6.592274678111588,-5.933169834457388,-3.5462906192519923,2.0,2.153113553113553,464.44368832936374,-7.584756133092476,-1.9000058271662479,-2.2336693665870286,1256.4102564102564,-1.0,110.32377532125021,2.155732338778506,463.8795177927984,
2023-12-18 15:14:29.920000,-6.204819277108434,-6.55421686746988,-4.048192771084338,-6.626609442060086,-5.947884733292458,-3.5585530349478844,2.0,2.153113553113553,464.44368832936374,-7.676359186527591,-1.8236699493036523,-2.096264786434357,1200.7326007326008,-1.0,110.32377532125021,2.155722708210372,463.88159097732216,
2023-12-18 15:14:29.928000,-6.144578313253012,-6.566265060240964,-4.0361445783132535,-6.675659104843654,-5.918454935622317,-3.5806253832004904,2.0,2.153113553113553,464.44368832936374,-7.111473690344385,-2.174814987471591,-1.9283258551366471,1154.5787545787546,-1.0,110.32377532125021,2.1557127656347035,463.8837313306877,
2023-12-18 15:14:29.935000,-6.144578313253012,-6.55421686746988,-4.024096385542169,-6.648681790312692,-5.8399754751686075,-3.62722256284488,2.0,2.153113553113553,464.44368832936374,-7.142008041489423,-2.0221432317464005,-2.0504632597167998,1115.7509157509157,-1.0,110.32377532125021,2.1557025099556455,463.8859390893335,
2023-12-18 15:14:29.943000,-6.1084337349397595,-6.55421686746988,-4.048192771084338,-6.616799509503371,-5.842427958307787,-3.5634580012262416,2.0,2.153113553113553,464.44368832936374,-7.264145446069576,-1.564127964570828,-1.9741273818542042,1082.7838827838827,-1.0,110.32377532125021,2.1556919399225727,463.8882145230551,
2023-12-18 15:14:29.951000,-6.120481927710844,-6.578313253012048,-4.0602409638554215,-6.658491722869405,-5.896382587369711,-3.607602697731453,2.0,2.153113553113553,464.44368832936374,-7.706893537672629,-1.1519142241128129,-1.7909212749839754,1057.142857142857,-1.0,110.32377532125021,2.1556810542104334,463.89055791771096,
2023-12-18 15:14:29.958000,-6.120481927710844,-6.602409638554217,-4.072289156626506,-6.7271612507664,-5.891477621091354,-3.5879828326180254,2.0,2.153113553113553,464.44368832936374,-7.69162636210011,-0.6786317813647211,-2.0504632597167998,1038.8278388278388,-1.0,110.32377532125021,2.155669851918762,463.8929694678026,
2023-12-18 15:14:29.966000,-6.1325301204819285,-6.602409638554217,-4.0602409638554215,-6.660944206008583,-5.849785407725322,-3.5683629675045982,2.0,2.153113553113553,464.44368832936374,-7.813763766680263,-0.5717615523570876,-1.9588602062816853,1026.3736263736264,-1.0,110.32377532125021,2.1556583325761838,463.89544927550617,
2023-12-18 15:14:29.974000,-6.144578313253012,-6.626506024096386,-4.0602409638554215,-6.71244635193133,-5.869405272838749,-3.6174126302881664,2.0,2.153113553113553,464.44368832936374,-7.661092010955072,-0.25115086533418685,-2.310005244449624,1020.5128205128204,-1.0,110.32377532125021,2.155646496143053,463.89799735010683,
2023-12-18 15:14:29.981000,-6.1325301204819285,-6.626506024096386,-4.072289156626506,-6.776210913549969,-5.879215205395463,-3.5879828326180254,2.0,2.153113553113553,464.44368832936374,-7.661092010955072,0.3900705087116147,-2.1573334887244333,1021.978021978022,-1.0,110.32377532125021,2.155634343012202,463.9006136078397,
2023-12-18 15:14:29.989000,-6.1807228915662655,-6.614457831325302,-4.072289156626506,-6.729613733905579,-5.896382587369711,-3.632127529123237,2.0,2.153113553113553,464.44368832936374,-7.279412621642095,0.31373463084901926,-2.1573334887244333,1027.8388278388277,-1.0,110.32377532125021,2.1556218740077973,463.9032978721363,
2023-12-18 15:14:29.997000,-6.1807228915662655,-6.602409638554217,-4.1084337349397595,-6.683016554261189,-5.962599632127529,-3.6394849785407724,2.0,2.153113553113553,464.44368832936374,-7.126740865916904,0.3748033331390956,-2.5390128780374104,1040.2930402930401,-1.0,110.32377532125021,2.1556090903823204,463.9060498742781,
2023-12-18 15:14:30.004000,-6.1807228915662655,-6.578313253012048,-4.120481927710844,-6.65113427345187,-5.916002452483139,-3.708154506437768,2.0,2.153113553113553,464.44368832936374,-7.03513781248179,0.7259483713070345,-2.5237457024648915,1057.8754578754579,-1.0,110.32377532125021,2.1555959938116787,463.90886925445017,
2023-12-18 15:14:30.012000,-6.19277108433735,-6.578313253012048,-4.1084337349397595,-6.670754138565297,-5.94543225015328,-3.624770079705702,2.0,2.153113553113553,464.44368832936374,-7.248878270497057,0.7870170735971108,-2.768020511625197,1079.120879120879,-1.0,110.32377532125021,2.1555825863884777,463.91175556319007,
2023-12-18 15:14:30.020000,-6.19277108433735,-6.55421686746988,-4.144578313253012,-6.648681790312692,-5.957694665849172,-3.7057020232985898,2.0,2.153113553113553,464.44368832936374,-6.928267583474156,1.0618262339024542,-3.0428296719305403,1104.029304029304,-1.0,110.32377532125021,2.15556887061351,463.9147082632241,
2023-12-18 15:14:30.027000,-6.216867469879518,-6.542168674698796,-4.168674698795181,-6.641324340895156,-5.947884733292458,-3.6983445738810543,2.0,2.153113553113553,464.44368832936374,-6.68399277431385,0.817551424742149,-3.149699900938174,1128.2051282051282,-1.0,110.32377532125021,2.155554849385491,463.9177267316764,
2023-12-18 15:14:30.035000,-6.228915662650603,-6.530120481927711,-4.144578313253012,-6.611894543225015,-5.972409564684242,-3.6934396076026976,2.0,2.153113553113553,464.44368832936374,-6.485519491871103,0.40533768428413375,-3.027562496358021,1153.113553113553,-1.0,110.32377532125021,2.1555405259891187,463.9208102626412,
2023-12-18 15:14:30.043000,-6.253012048192772,-6.493975903614458,-4.144578313253012,-6.58982219497241,-5.999386879215205,-3.737584304107909,2.0,2.153113553113553,464.44368832936374,-6.69925994988637,0.5274750888642864,-3.37870753452596,1180.2197802197802,-1.0,110.32377532125021,2.1555259040815353,463.9239580701003,
2023-12-18 15:14:30.050000,-6.228915662650603,-6.46987951807229,-4.1807228915662655,-6.479460453709381,-6.031269160024524,-3.7596566523605146,2.0,2.153113553113553,464.44368832936374,-6.638191247596294,0.023658294971156665,-3.012295320785502,1209.5238095238094,-1.0,110.32377532125021,2.1555109876772485,463.9271692911684,
2023-12-18 15:14:30.058000,-6.240963855421687,-6.46987951807229,-4.19277108433735,-6.528510116492948,-5.967504598405886,-3.717964438994482,2.0,2.1545787545787545,464.12784767086026,-6.134374453703163,-0.464891323349454,-3.058096847503059,1241.7582417582416,-1.0,110.32377532125021,2.1554957811316386,463.930442989645,
2023-12-18 15:14:30.066000,-6.228915662650603,-6.457831325301205,-4.156626506024097,-6.533415082771306,-5.960147148988351,-3.703249540159411,2.0,2.1516483516483516,464.75995914198165,-6.19544315599324,-0.8465707126624311,-3.226035778800769,1271.7948717948716,-1.0,110.32377532125021,2.155480289615798,463.9337780536537,
2023-12-18 15:14:30.073000,-6.204819277108434,-6.445783132530121,-4.156626506024097,-6.513795217657878,-5.911097486204782,-3.678724708767627,2.0,2.153113553113553,464.44368832936374,-6.348114911718431,-0.9687081172425838,-3.5008449391061127,1301.098901098901,543.853759765625,110.32377532125021,2.1554645186421992,463.93717329816286,
2023-12-18 15:14:30.081000,-6.204819277108434,-6.433734939759036,-4.132530120481928,-6.543225015328019,-5.955242182709994,-3.6909871244635193,2.0,2.153113553113553,464.44368832936374,-6.348114911718431,-0.9687081172425838,-3.5008449391061127,1328.2051282051282,-1.0,110.32377532125021,2.1554484738732813,463.94062750609936,
2023-12-18 15:14:30.089000,-6.1807228915662655,-6.421686746987952,-4.096385542168675,-6.530962599632127,-5.994481912936848,-3.703249540159411,2.0,2.153113553113553,464.44368832936374,-6.592389720878736,-1.3198531554105226,-3.393974710098479,1349.4505494505493,-1.0,110.32377532125021,2.1554321611370404,463.94413942454935,
2023-12-18 15:14:30.096000,-6.1807228915662655,-6.445783132530121,-4.072289156626506,-6.481912936848559,-5.896382587369711,-3.7106069895769465,2.0,2.153113553113553,464.44368832936374,-6.714527125458889,-1.1519142241128129,-3.6840510459763416,1366.3003663003662,-1.0,110.32377532125021,2.155415586018036,463.9477078530713,
2023-12-18 15:14:30.104000,-6.19277108433735,-6.445783132530121,-4.1084337349397595,-6.521152667075413,-5.916002452483139,-3.6713672593500917,2.0,2.153113553113553,464.44368832936374,-7.004603461336751,-1.7626012470135761,-3.5924479925412274,1377.2893772893772,-1.0,110.32377532125021,2.1553987543260296,463.95133154281274,
2023-12-18 15:14:30.112000,-6.1807228915662655,-6.46987951807229,-4.132530120481928,-6.523605150214592,-5.862047823421213,-3.6394849785407724,2.0,2.153113553113553,464.44368832936374,-6.806130178894003,-1.4419905599906753,-3.8977915039916087,1380.2197802197802,-1.0,110.32377532125021,2.155381672071368,463.9550092018077,
2023-12-18 15:14:30.119000,-6.168674698795181,-6.46987951807229,-4.120481927710844,-6.58736971183323,-5.884120171673819,-3.6345800122624157,2.0,2.153113553113553,464.44368832936374,-6.8824660567565985,-1.3503875065555608,-4.03519608414428,1376.5567765567764,-1.0,110.32377532125021,2.1553643454399647,463.958739500363,
2023-12-18 15:14:30.127000,-6.1807228915662655,-6.46987951807229,-4.096385542168675,-6.555487431023911,-5.955242182709994,-3.632127529123237,2.0,2.153113553113553,464.44368832936374,-6.9893362857642325,-1.6404638424334235,-4.218402191014509,1366.3003663003662,-1.0,110.32377532125021,2.1553467807680193,463.96252107649764,
2023-12-18 15:14:30.135000,-6.168674698795181,-6.493975903614458,-4.096385542168675,-6.584917228694052,-5.957694665849172,-3.6934396076026976,2.0,2.153113553113553,464.44368832936374,-6.8824660567565985,-2.129013460754034,-4.248936542159547,1353.8461538461538,-1.0,110.32377532125021,2.1553289845166463,463.96635254140415,
2023-12-18 15:14:30.142000,-6.1807228915662655,-6.493975903614458,-4.1084337349397595,-6.567749846719804,-5.99202942979767,-3.619865113427345,2.0,2.1516483516483516,464.75995914198165,-7.096206514771866,-2.083211934036477,-4.20313501544199,1336.9963369963368,-1.0,110.32377532125021,2.155310963246574,463.97023248489154,
2023-12-18 15:14:30.150000,-6.204819277108434,-6.46987951807229,-4.1084337349397595,-6.58982219497241,-5.893930104230533,-3.666462293071735,2.0,2.1516483516483516,464.75995914198165,-7.2030767437795,-1.961074529456324,-4.584814404754967,1318.6813186813185,-1.0,110.32377532125021,2.1552927231004104,463.97415958712475,
2023-12-18 15:14:30.158000,-6.228915662650603,-6.493975903614458,-4.1084337349397595,-6.597179644389945,-5.984671980380135,-3.703249540159411,2.0,2.153113553113553,464.44368832936374,-6.821397354466522,-1.8236699493036523,-4.432142649029776,1299.6336996336995,-1.0,110.32377532125021,2.1552742697057687,463.97813263951747,
2023-12-18 15:14:30.165000,-6.228915662650603,-6.481927710843374,-4.156626506024097,-6.57265481299816,-6.05334150827713,-3.6934396076026976,2.0,2.1516483516483516,464.75995914198165,-6.69925994988637,-1.8694714760212097,-4.615348755900006,1280.5860805860805,-1.0,110.32377532125021,2.155255609096117,463.9821503459442,
2023-12-18 15:14:30.173000,-6.216867469879518,-6.518072289156627,-4.1084337349397595,-6.592274678111588,-5.967504598405886,-3.654199877375843,2.0,2.153113553113553,464.44368832936374,-6.561855369733698,-2.0526775828914388,-4.462677000174814,1260.07326007326,-1.0,110.32377532125021,2.15523674726069,463.9862114198772,
2023-12-18 15:14:30.181000,-6.1807228915662655,-6.506024096385542,-4.156626506024097,-6.560392397302268,-5.920907418761495,-3.715511955855303,2.0,2.153113553113553,464.44368832936374,-6.454985140726064,-1.6557310180059426,-4.126799137579394,1243.2234432234432,-1.0,110.32377532125021,2.155217690083333,463.9903145975702,
2023-12-18 15:14:30.188000,-6.19277108433735,-6.481927710843374,-4.132530120481928,-6.58982219497241,-5.908645003065604,-3.7326793378295524,2.0,2.153113553113553,464.44368832936374,-6.577122545306217,-0.9534409416700647,-4.722218984907639,1227.8388278388277,-1.0,110.32377532125021,2.1551984438442817,463.99445852972786,
2023-12-18 15:14:30.196000,-6.216867469879518,-6.493975903614458,-4.144578313253012,-6.594727161250766,-6.031269160024524,-3.7204169221336603,2.0,2.1516483516483516,464.75995914198165,-6.745061476603927,-0.6633646057922021,-4.233669366587028,1215.3846153846152,-1.0,110.32377532125021,2.1551790147401846,463.99864188509525,
2023-12-18 15:14:30.204000,-6.240963855421687,-6.481927710843374,-4.156626506024097,-6.592274678111588,-5.977314530962599,-3.7645616186388717,2.0,2.153113553113553,464.44368832936374,-6.3328477361459115,-0.9229065905250265,-3.8672571528465705,1207.3260073260074,-1.0,110.32377532125021,2.155159408370703,464.00286346126103,
2023-12-18 15:14:30.211000,-6.204819277108434,-6.481927710843374,-4.168674698795181,-6.570202329858982,-5.938074800735745,-3.737584304107909,2.0,2.153113553113553,464.44368832936374,-6.638191247596294,-0.9229065905250265,-3.943593030709166,1204.3956043956043,-1.0,110.32377532125021,2.1551396301397787,464.00712209802475,
2023-12-18 15:14:30.219000,-6.168674698795181,-6.481927710843374,-4.216867469879518,-6.545677498467198,-5.874310239117106,-3.725321888412017,2.0,2.1516483516483516,464.75995914198165,-6.68399277431385,-0.3732882699143395,-3.9283258551366464,1203.6630036630036,-1.0,110.32377532125021,2.1551196857625694,464.01141656795596,
2023-12-18 15:14:30.227000,-6.1807228915662655,-6.46987951807229,-4.19277108433735,-6.543225015328019,-5.89883507050889,-3.7057020232985898,2.0,2.1516483516483516,464.75995914198165,-6.790863003321484,-0.1900821630441105,-3.622982343686265,1206.5934065934066,-1.0,110.32377532125021,2.155099580756385,464.01574568653274,
2023-12-18 15:14:30.234000,-6.144578313253012,-6.46987951807229,-4.216867469879518,-6.562844880441447,-5.822808093194359,-3.76701410177805,2.0,2.1516483516483516,464.75995914198165,-7.187809568206981,-0.05267758289143875,-3.5161121146786316,1212.4542124542124,-1.0,110.32377532125021,2.1550793198288747,464.0201084438795,
2023-12-18 15:14:30.242000,-6.156626506024097,-6.493975903614458,-4.19277108433735,-6.523605150214592,-5.89883507050889,-3.7277743715511953,2.0,2.1516483516483516,464.75995914198165,-7.01987063690927,0.2832002797039811,-3.5161121146786316,1220.5128205128203,-1.0,110.32377532125021,2.1550589068967225,464.024504000471,
2023-12-18 15:14:30.250000,-6.120481927710844,-6.506024096385542,-4.216867469879518,-6.523605150214592,-5.847332924586143,-3.7939914163090127,2.0,2.1516483516483516,464.75995914198165,-7.065672163626828,0.2832002797039811,-3.790921274983975,1228.5714285714284,-1.0,110.32377532125021,2.155038345561114,464.028931584777,
2023-12-18 15:14:30.257000,-6.120481927710844,-6.481927710843374,-4.253012048192772,-6.597179644389945,-5.862047823421213,-3.7498467198038012,2.0,2.1516483516483516,464.75995914198165,-7.264145446069576,0.31373463084901926,-3.4550434123885556,1235.8974358974358,-1.0,110.32377532125021,2.1550176390921085,464.03339049662,
2023-12-18 15:14:30.265000,-6.1325301204819285,-6.481927710843374,-4.265060240963856,-6.557939914163089,-5.835070508890251,-3.8038013488657265,2.0,2.1516483516483516,464.75995914198165,-7.03513781248179,0.3595361575665765,-3.745119748266418,1241.7582417582416,-1.0,110.32377532125021,2.1549967904147227,464.0378801101679,
2023-12-18 15:14:30.273000,-6.1084337349397595,-6.506024096385542,-4.265060240963856,-6.562844880441447,-5.825260576333537,-3.779276517473942,2.0,2.1516483516483516,464.75995914198165,-6.928267583474156,-0.5106928500670113,-3.699318221548861,1246.8864468864467,-1.0,110.32377532125021,2.154975802096818,464.04239987653807,
2023-12-18 15:14:30.280000,-6.096385542168675,-6.493975903614458,-4.265060240963856,-6.58982219497241,-5.815450643776824,-3.744941753525444,2.0,2.1516483516483516,464.75995914198165,-6.806130178894003,-0.7091661325097594,-3.88252432841909,1248.3516483516482,-1.0,110.32377532125021,2.1549546763388654,464.046949325994,
2023-12-18 15:14:30.288000,-6.0843373493975905,-6.506024096385542,-4.27710843373494,-6.550582464745554,-5.786020846106683,-3.806253832004905,2.0,2.1516483516483516,464.75995914198165,-6.6534584231688125,-1.2587844531204464,-3.9283258551366464,1248.3516483516482,-1.0,110.32377532125021,2.1549334149656882,464.05152806972046,
2023-12-18 15:14:30.295000,-6.072289156626506,-6.506024096385542,-4.253012048192772,-6.567749846719804,-5.8105456774984665,-3.81361128142244,2.0,2.1516483516483516,464.75995914198165,-6.622924072023775,-1.19771575083037,-4.157333488724433,1250.5494505494505,-1.0,110.32377532125021,2.154912019420232,464.05613580115727,
2023-12-18 15:14:30.303000,-6.072289156626506,-6.506024096385542,-4.253012048192772,-6.580012262415695,-5.815450643776824,-3.7817290006131206,2.0,2.1516483516483516,464.75995914198165,-6.607656896451255,-1.7167997202960188,-4.050463259716799,1257.142857142857,-1.0,110.32377532125021,2.1548904907594464,464.0607722968826,
2023-12-18 15:14:30.311000,-6.048192771084338,-6.506024096385542,-4.265060240963856,-6.592274678111588,-5.7737584304107905,-3.865113427345187,2.0,2.153113553113553,464.44368832936374,-6.68399277431385,-1.4725249111357135,-4.050463259716799,1272.5274725274724,-1.0,110.32377532125021,2.1548688296523166,464.0654374170312,
2023-12-18 15:14:30.318000,-6.072289156626506,-6.518072289156627,-4.313253012048193,-6.60453709380748,-5.847332924586143,-3.816063764561618,2.0,2.1516483516483516,464.75995914198165,-6.4244507895810266,-1.6709981935784617,-4.111531962006875,1297.4358974358975,-1.0,110.32377532125021,2.154847036872733,464.07013099889883,
2023-12-18 15:14:30.326000,-6.072289156626506,-6.493975903614458,-4.27710843373494,-6.594727161250766,-5.842427958307787,-3.8503985285101163,2.0,2.1516483516483516,464.75995914198165,-6.561855369733698,-2.0374104073189194,-4.233669366587028,1335.5311355311355,-1.0,110.32377532125021,2.1548251128814524,464.0748529471756,
2023-12-18 15:14:30.334000,-6.0843373493975905,-6.518072289156627,-4.301204819277109,-6.562844880441447,-5.842427958307787,-3.835683629675046,2.0,2.1516483516483516,464.75995914198165,-6.622924072023775,-1.9916088806013623,-4.325272420022142,1383.8827838827838,-1.0,110.32377532125021,2.154803057306269,464.0796033461497,
2023-12-18 15:14:30.341000,-6.120481927710844,-6.493975903614458,-4.313253012048193,-6.624156958920907,-5.854690374003678,-3.877375843041079,2.0,2.1516483516483516,464.75995914198165,-6.225977507138278,-2.4190897966318965,-4.142066313151914,1441.7582417582416,-1.0,110.32377532125021,2.154780869407384,464.08438235925155,
2023-12-18 15:14:30.349000,-6.1084337349397595,-6.493975903614458,-4.301204819277109,-6.540772532188841,-5.869405272838749,-3.8626609442060085,2.0,2.1516483516483516,464.75995914198165,-6.180175980420721,-2.9534409416700647,-4.172600664296952,1503.2967032967033,-1.0,110.32377532125021,2.15475854808713,464.0891902269564,
2023-12-18 15:14:30.357000,-6.096385542168675,-6.493975903614458,-4.325301204819278,-6.58982219497241,-5.842427958307787,-3.867565910484365,2.0,2.1516483516483516,464.75995914198165,-6.180175980420721,-2.9534409416700647,-4.172600664296952,1565.5677655677655,-1.0,110.32377532125021,2.154736091901845,464.09402726421814,
2023-12-18 15:14:30.364000,-6.048192771084338,-6.506024096385542,-4.313253012048193,-6.575107296137339,-5.842427958307787,-3.9411404046597176,2.0,2.1516483516483516,464.75995914198165,-5.981702697977973,-3.1061126973952553,-4.294738068877105,1626.3736263736262,-1.0,110.32377532125021,2.1547134990758967,464.0988938574446,
2023-12-18 15:14:30.372000,-6.0843373493975905,-6.481927710843374,-4.289156626506024,-6.619251992642551,-5.854690374003678,-3.806253832004905,2.0,2.1516483516483516,464.75995914198165,-6.119107278130644,-2.8007691859448736,-4.248936542159547,1679.120879120879,-1.0,110.32377532125021,2.154690767517793,464.1037904610218,
2023-12-18 15:14:30.380000,-6.0843373493975905,-6.481927710843374,-4.27710843373494,-6.565297363580625,-5.808093194359288,-3.796443899448191,2.0,2.15018315018315,465.076660988075,-6.225977507138278,-3.2740516286929653,-4.4168754734572575,1719.4139194139193,-1.0,110.32377532125021,2.1546678952961837,464.1087174948372,
2023-12-18 15:14:30.387000,-6.060240963855422,-6.493975903614458,-4.240963855421687,-6.555487431023911,-5.7737584304107905,-3.8405885959534025,2.0,2.1516483516483516,464.75995914198165,-5.951168346832935,-3.36565468212808,-4.294738068877105,1745.7875457875457,-1.0,110.32377532125021,2.1546448801000273,464.1136754609158,
2023-12-18 15:14:30.395000,-6.060240963855422,-6.518072289156627,-4.265060240963856,-6.58982219497241,-5.822808093194359,-3.776824034334764,2.0,2.1516483516483516,464.75995914198165,-6.164908804848202,-3.625196666860904,-4.111531962006875,1755.311355311355,-1.0,110.32377532125021,2.1546217187347882,464.11866505149305,
2023-12-18 15:14:30.403000,-6.060240963855422,-6.481927710843374,-4.265060240963856,-6.580012262415695,-5.854690374003678,-3.8234212139791537,2.0,2.1516483516483516,464.75995914198165,-6.073305751413088,-3.6099294912883853,-3.745119748266418,1748.7179487179485,-1.0,110.32377532125021,2.154598407741555,464.12368701526873,
2023-12-18 15:14:30.410000,-6.048192771084338,-6.518072289156627,-4.265060240963856,-6.60453709380748,-5.763948497854077,-3.7596566523605146,2.0,2.1516483516483516,464.75995914198165,-6.287046209428355,-3.579395140143347,-4.233669366587028,1723.8095238095236,-1.0,110.32377532125021,2.154574943455354,464.1287421452497,
2023-12-18 15:14:30.418000,-6.072289156626506,-6.506024096385542,-4.27710843373494,-6.621704475781729,-5.825260576333537,-3.8209687308399753,2.0,2.1516483516483516,464.75995914198165,-6.241244682710797,-3.3351203309830417,-4.20313501544199,1684.9816849816848,-1.0,110.32377532125021,2.154551322030243,464.133831273337,
2023-12-18 15:14:30.426000,-6.060240963855422,-6.542168674698796,-4.289156626506024,-6.543225015328019,-5.8031882280809315,-3.8454935622317596,2.0,2.1516483516483516,464.75995914198165,-6.2107103315657595,-3.8542043004486906,-4.126799137579394,1633.6996336996335,-1.0,110.32377532125021,2.154527539465935,464.1389552645895,
2023-12-18 15:14:30.433000,-6.1325301204819285,-6.518072289156627,-4.253012048192772,-6.631514408338442,-5.844880441446965,-3.818516247700797,2.0,2.1516483516483516,464.75995914198165,-5.905366820115377,-3.8389371248761712,-4.218402191014509,1575.8241758241757,-1.0,110.32377532125021,2.1545035916358044,464.14411501118354,
2023-12-18 15:14:30.441000,-6.1084337349397595,-6.530120481927711,-4.253012048192772,-6.668301655426118,-5.756591048436542,-3.816063764561618,2.0,2.1516483516483516,464.75995914198165,-5.859565293397821,-4.678631781364721,-4.248936542159547,1513.5531135531135,-1.0,110.32377532125021,2.154479474316178,464.1493114260995,
2023-12-18 15:14:30.449000,-6.1084337349397595,-6.530120481927711,-4.228915662650603,-6.616799509503371,-5.812998160637646,-3.7522992029429796,2.0,2.1516483516483516,464.75995914198165,-5.752695064390187,-4.556494376784569,-4.3100052444496235,1451.2820512820513,-1.0,110.32377532125021,2.1544551832167866,464.1545454365578,
2023-12-18 15:14:30.456000,-6.0843373493975905,-6.506024096385542,-4.253012048192772,-6.663396689147762,-5.8031882280809315,-3.7743715511955855,2.0,2.1516483516483516,464.75995914198165,-5.645824835382553,-4.327486743196782,-4.70695180933512,1388.278388278388,-1.0,110.32377532125021,2.1544307140122414,464.15981797723276,
2023-12-18 15:14:30.464000,-6.072289156626506,-6.530120481927711,-4.204819277108434,-6.646229307173513,-5.783568362967504,-3.8111587982832615,2.0,2.15018315018315,465.076660988075,-5.783229415535224,-4.037410407318919,-4.4168754734572575,1329.6703296703297,-1.0,110.32377532125021,2.1544060623744006,464.1651299832761,
2023-12-18 15:14:30.472000,-6.0843373493975905,-6.530120481927711,-4.216867469879518,-6.624156958920907,-5.7664009809932555,-3.7596566523605146,2.0,2.1516483516483516,464.75995914198165,-5.935901171260416,-4.235883689761668,-4.630615931472525,1276.1904761904761,-1.0,110.32377532125021,2.154381223512823,464.1704824896668,
2023-12-18 15:14:30.479000,-6.120481927710844,-6.55421686746988,-4.216867469879518,-6.609442060085836,-5.830165542611894,-3.7106069895769465,2.0,2.1516483516483516,464.75995914198165,-5.569488957519957,-4.19008216304411,-4.5390128780374095,1226.3736263736264,-1.0,110.32377532125021,2.1543561926289545,464.17587653305804,
2023-12-18 15:14:30.487000,-6.120481927710844,-6.530120481927711,-4.216867469879518,-6.65113427345187,-5.749233599019006,-3.7572041692213363,2.0,2.1516483516483516,464.75995914198165,-5.752695064390187,-3.396189033273118,-4.462677000174814,1184.6153846153845,-1.0,110.32377532125021,2.1543309654747995,464.1813130310425,
2023-12-18 15:14:30.495000,-6.060240963855422,-6.566265060240964,-4.204819277108434,-6.631514408338442,-5.717351318209687,-3.808706315144083,2.0,2.15018315018315,465.076660988075,-5.279412621642095,-3.457257735563194,-4.691684633762601,1148.7179487179487,-1.0,110.32377532125021,2.154305537928893,464.1867928738247,
2023-12-18 15:14:30.502000,-6.096385542168675,-6.506024096385542,-4.216867469879518,-6.619251992642551,-5.8031882280809315,-3.6811771919068055,2.0,2.15018315018315,465.076660988075,-5.676359186527591,-2.6175630790746447,-4.447409824602295,1118.6813186813185,-1.0,110.32377532125021,2.1542799055376447,464.1923170233798,
2023-12-18 15:14:30.510000,-6.1084337349397595,-6.55421686746988,-4.19277108433735,-6.619251992642551,-5.7811158798283255,-3.737584304107909,2.0,2.15018315018315,465.076660988075,-5.340481323932171,-2.296952392051744,-4.3100052444496235,1093.7728937728937,-1.0,110.32377532125021,2.154254063477178,464.1978865217226,
2023-12-18 15:14:30.518000,-6.060240963855422,-6.530120481927711,-4.216867469879518,-6.599632127529123,-5.842427958307787,-3.7522992029429796,2.0,2.15018315018315,465.076660988075,-5.600023308664996,-1.7626012470135761,-4.477944175747334,1074.7252747252746,-1.0,110.32377532125021,2.1542280070395163,464.2035023858375,
2023-12-18 15:14:30.525000,-6.0361445783132535,-6.55421686746988,-4.204819277108434,-6.58736971183323,-5.817903126916002,-3.7498467198038012,2.0,2.15018315018315,465.076660988075,-5.600023308664996,-1.1671813996853317,-4.233669366587028,1059.3406593406592,-1.0,110.32377532125021,2.154201731659993,464.20916560177517,
2023-12-18 15:14:30.533000,-6.060240963855422,-6.542168674698796,-4.240963855421687,-6.577559779276517,-5.783568362967504,-3.7522992029429796,2.0,2.15018315018315,465.076660988075,-5.645824835382553,-0.5412272012120494,-4.325272420022142,1050.5494505494505,-1.0,110.32377532125021,2.1541752334015056,464.2148770204027,
2023-12-18 15:14:30.541000,-6.048192771084338,-6.518072289156627,-4.253012048192772,-6.545677498467198,-5.722256284488044,-3.7522992029429796,2.0,2.15018315018315,465.076660988075,-5.4320843773672856,-0.7702348347998357,-4.218402191014509,1049.8168498168498,-1.0,110.32377532125021,2.1541485084546217,464.2206374650123,
2023-12-18 15:14:30.548000,-6.060240963855422,-6.542168674698796,-4.265060240963856,-6.633966891477621,-5.798283261802575,-3.808706315144083,2.0,2.15018315018315,465.076660988075,-5.615290484237515,-0.22061651418914865,-3.8214556261290133,1054.9450549450548,-1.0,110.32377532125021,2.1541215527404325,464.22644781681106,
2023-12-18 15:14:30.556000,-6.048192771084338,-6.518072289156627,-4.27710843373494,-6.606989576946658,-5.800735744941753,-3.86020846106683,2.0,2.15018315018315,465.076660988075,-5.401550026222248,-0.6633646057922021,-3.989394557426723,1065.2014652014652,-1.0,110.32377532125021,2.154094362425209,464.2323089041296,
2023-12-18 15:14:30.564000,-6.072289156626506,-6.518072289156627,-4.289156626506024,-6.631514408338442,-5.80564071122011,-3.830778663396689,2.0,2.15018315018315,465.076660988075,-5.142008041489423,-0.7091661325097594,-4.0809976108618375,1081.3186813186812,-1.0,110.32377532125021,2.154066933940928,464.23822149800077,
2023-12-18 15:14:30.571000,-6.072289156626506,-6.542168674698796,-4.349397590361446,-6.680564071122011,-5.776210913549969,-3.843041079092581,2.0,2.15018315018315,465.076660988075,-5.264145446069576,-1.1519142241128129,-4.142066313151914,1103.2967032967033,-1.0,110.32377532125021,2.1540392640043153,464.24418630805826,
2023-12-18 15:14:30.579000,-6.060240963855422,-6.518072289156627,-4.325301204819278,-6.638871857755977,-5.749233599019006,-3.867565910484365,2.0,2.15018315018315,465.076660988075,-5.401550026222248,-1.2435172775479273,-4.142066313151914,1126.7399267399267,-1.0,110.32377532125021,2.1540113496343154,464.2502039787766,
2023-12-18 15:14:30.587000,-6.0843373493975905,-6.506024096385542,-4.301204819277109,-6.575107296137339,-5.768853464132434,-3.8577559779276513,2.0,2.15018315018315,465.076660988075,-5.554221781947438,-1.380921857700599,-4.355806771167181,1154.5787545787546,-1.0,110.32377532125021,2.153983188167937,464.25627508605623,
2023-12-18 15:14:30.594000,-6.0843373493975905,-6.506024096385542,-4.337349397590362,-6.594727161250766,-5.837522992029429,-3.884733292458614,2.0,2.15018315018315,465.076660988075,-5.294679797214614,-1.8847386515937288,-4.8748907406328295,1181.6849816849815,-1.0,110.32377532125021,2.153954777274475,464.26240013416384,
2023-12-18 15:14:30.602000,-6.096385542168675,-6.518072289156627,-4.337349397590362,-6.575107296137339,-5.837522992029429,-3.884733292458614,2.0,2.1516483516483516,464.75995914198165,-5.294679797214614,-2.0679447584639576,-4.5390128780374095,1205.8608058608058,-1.0,110.32377532125021,2.1539261149680327,464.26857955303547,
2023-12-18 15:14:30.610000,-6.1084337349397595,-6.530120481927711,-4.36144578313253,-6.692826486817903,-5.849785407725322,-3.8700183936235435,2.0,2.15018315018315,465.076660988075,-5.3252141483596525,-2.86183788823495,-4.661150282617562,1228.5714285714284,543.853759765625,110.32377532125021,2.153897200111035,464.27481358945124,
2023-12-18 15:14:30.617000,-6.096385542168675,-6.542168674698796,-4.337349397590362,-6.602084610668301,-5.800735744941753,-3.8528510116492947,2.0,2.15018315018315,465.076660988075,-5.371015675077209,-3.380921857700599,-4.233669366587028,1250.5494505494505,-1.0,110.32377532125021,2.1538680320029124,464.2811023959514,
2023-12-18 15:14:30.625000,-6.1084337349397595,-6.55421686746988,-4.337349397590362,-6.638871857755977,-5.800735744941753,-3.8528510116492947,2.0,2.15018315018315,465.076660988075,-5.569488957519957,-3.7778684225860952,-4.355806771167181,1273.260073260073,-1.0,110.32377532125021,2.1538386098630515,464.2874461425999,
2023-12-18 15:14:30.633000,-6.072289156626506,-6.542168674698796,-4.301204819277109,-6.611894543225015,-5.837522992029429,-3.8528510116492947,2.0,2.15018315018315,465.076660988075,-5.569488957519957,-3.7778684225860952,-4.355806771167181,1295.2380952380952,-1.0,110.32377532125021,2.153808933295092,464.29384491663416,
2023-12-18 15:14:30.640000,-6.060240963855422,-6.55421686746988,-4.301204819277109,-6.641324340895156,-5.815450643776824,-3.8454935622317596,2.0,2.15018315018315,465.076660988075,-5.493153079657362,-4.312219567624263,-4.019928908571761,1314.2857142857142,-1.0,110.32377532125021,2.1537790022916696,464.3002987214456,
2023-12-18 15:14:30.648000,-6.0361445783132535,-6.55421686746988,-4.289156626506024,-6.668301655426118,-5.808093194359288,-3.7106069895769465,2.0,2.15018315018315,465.076660988075,-5.676359186527591,-4.434356972204416,-4.0809976108618375,1331.8681318681317,-1.0,110.32377532125021,2.153748817237501,464.30680747591185,
2023-12-18 15:14:30.656000,-6.048192771084338,-6.542168674698796,-4.265060240963856,-6.705088902513795,-5.776210913549969,-3.779276517473942,2.0,2.15018315018315,465.076660988075,-6.317580560573393,-4.296952392051744,-3.9588602062816847,1347.2527472527472,-1.0,110.32377532125021,2.153718379368784,464.31337091550546,
2023-12-18 15:14:30.663000,-6.048192771084338,-6.566265060240964,-4.289156626506024,-6.670754138565297,-5.812998160637646,-3.81361128142244,2.0,2.15018315018315,465.076660988075,-6.271779033855835,-4.20534933861663,-3.5924479925412274,1357.5091575091574,-1.0,110.32377532125021,2.153687690248024,464.31998870534665,
2023-12-18 15:14:30.671000,-6.0361445783132535,-6.566265060240964,-4.265060240963856,-6.670754138565297,-5.763948497854077,-3.8209687308399753,2.0,2.15018315018315,465.076660988075,-6.36338208729095,-3.8236699493036523,-3.54664646582367,1362.6373626373625,-1.0,110.32377532125021,2.153656751341377,464.32666053118663,
2023-12-18 15:14:30.678000,-6.048192771084338,-6.542168674698796,-4.289156626506024,-6.619251992642551,-5.788473329245861,-3.8332311465358675,2.0,2.1487179487179486,465.39379474940336,-6.348114911718431,-3.3045859798380035,-3.6382495192587845,1364.8351648351647,-1.0,110.32377532125021,2.1536255645077294,464.3333859941251,
2023-12-18 15:14:30.686000,-6.048192771084338,-6.566265060240964,-4.27710843373494,-6.66584917228694,-5.837522992029429,-3.8283261802575104,2.0,2.15018315018315,465.076660988075,-6.2107103315657595,-2.8007691859448736,-3.9130586795641276,1367.032967032967,-1.0,110.32377532125021,2.1535941319589442,464.34016461974545,
2023-12-18 15:14:30.694000,-6.048192771084338,-6.55421686746988,-4.265060240963856,-6.65113427345187,-5.7516860821581846,-3.825873697118332,2.0,2.15018315018315,465.076660988075,-6.180175980420721,-2.4496241477769347,-4.019928908571761,1367.7655677655678,-1.0,110.32377532125021,2.153562456606896,464.346995782917,
2023-12-18 15:14:30.701000,-6.024096385542169,-6.566265060240964,-4.253012048192772,-6.638871857755977,-5.7737584304107905,-3.8283261802575104,2.0,2.15018315018315,465.076660988075,-6.042771400268049,-2.7091661325097594,-4.004661732999242,1366.3003663003662,-1.0,110.32377532125021,2.153530541634343,464.3538787995524,
2023-12-18 15:14:30.709000,-6.048192771084338,-6.566265060240964,-4.228915662650603,-6.683016554261189,-5.778663396689147,-3.7939914163090127,2.0,2.15018315018315,465.076660988075,-6.119107278130644,-2.7244333080822782,-3.9588602062816847,1361.904761904762,-1.0,110.32377532125021,2.153498390098908,464.360813012397,
2023-12-18 15:14:30.717000,-6.024096385542169,-6.55421686746988,-4.265060240963856,-6.633966891477621,-5.7664009809932555,-3.717964438994482,2.0,2.15018315018315,465.076660988075,-6.042771400268049,-2.2206165141891487,-3.943593030709166,1355.3113553113553,-1.0,110.32377532125021,2.1534660054144896,464.3677976873963,
2023-12-18 15:14:30.724000,-6.024096385542169,-6.590361445783133,-4.240963855421687,-6.6781115879828326,-5.783568362967504,-3.7302268546903736,2.0,2.15018315018315,465.076660988075,-5.294679797214614,-2.342753918769301,-4.096264786434356,1347.2527472527472,-1.0,110.32377532125021,2.1534333913391785,464.3748320162942,
2023-12-18 15:14:30.732000,-6.0361445783132535,-6.578313253012048,-4.265060240963856,-6.663396689147762,-5.830165542611894,-3.7719190680564068,2.0,2.15018315018315,465.076660988075,-5.7679622399627055,-2.113746285181515,-3.9588602062816847,1336.9963369963368,-1.0,110.32377532125021,2.1534005519625223,464.3819151193752,
2023-12-18 15:14:30.740000,-6.024096385542169,-6.55421686746988,-4.240963855421687,-6.680564071122011,-5.741876149601471,-3.8283261802575104,2.0,2.15018315018315,465.076660988075,-5.401550026222248,-2.602295903502126,-4.294738068877105,1326.7399267399267,-1.0,110.32377532125021,2.1533674916922476,464.3890460483199,
2023-12-18 15:14:30.747000,-6.0361445783132535,-6.578313253012048,-4.265060240963856,-6.71244635193133,-5.709993868792152,-3.847946045370938,2.0,2.15018315018315,465.076660988075,-5.569488957519957,-2.6175630790746447,-4.462677000174814,1315.7509157509157,-1.0,110.32377532125021,2.153334215240569,464.396223789148,
2023-12-18 15:14:30.755000,-6.048192771084338,-6.566265060240964,-4.27710843373494,-6.680564071122011,-5.761496014714899,-3.7522992029429796,2.0,2.15018315018315,465.076660988075,-5.3252141483596525,-2.083211934036477,-4.70695180933512,1304.0293040293038,-1.0,110.32377532125021,2.1533007276102536,464.4034472652192,
2023-12-18 15:14:30.763000,-6.0120481927710845,-6.602409638554217,-4.301204819277109,-6.717351318209687,-5.7443286327406495,-3.835683629675046,2.0,2.15018315018315,465.076660988075,-5.157275217061942,-2.52596002563953,-4.981760969640463,1293.040293040293,-1.0,110.32377532125021,2.153267034080526,464.4107153402604,
2023-12-18 15:14:30.770000,-6.060240963855422,-6.542168674698796,-4.349397590361446,-6.606989576946658,-5.722256284488044,-3.8749233599019006,2.0,2.15018315018315,465.076660988075,-4.928267583474156,-2.632830254647164,-4.600081580327486,1282.051282051282,-1.0,110.32377532125021,2.1532331401929725,464.4180268213968,
2023-12-18 15:14:30.778000,-6.060240963855422,-6.55421686746988,-4.289156626506024,-6.660944206008583,-5.732066217044758,-3.867565910484365,2.0,2.15018315018315,465.076660988075,-5.279412621642095,-2.4496241477769347,-5.164967076510693,1272.5274725274724,-1.0,110.32377532125021,2.1531990517375785,464.42538046215446,
2023-12-18 15:14:30.786000,-6.0361445783132535,-6.566265060240964,-4.313253012048193,-6.626609442060086,-5.685469037400368,-3.8503985285101163,2.0,2.15018315018315,465.076660988075,-5.2030767437795,-2.7091661325097594,-4.920692267350387,1265.2014652014652,-1.0,110.32377532125021,2.1531647747389817,464.4327749654132,
2023-12-18 15:14:30.793000,-6.0361445783132535,-6.542168674698796,-4.289156626506024,-6.65113427345187,-5.741876149601471,-3.808706315144083,2.0,2.15018315018315,465.076660988075,-5.3252141483596525,-2.5412272012120494,-5.103898374220616,1259.3406593406592,-1.0,110.32377532125021,2.153130315443095,464.4402089862805,
2023-12-18 15:14:30.801000,-6.024096385542169,-6.566265060240964,-4.289156626506024,-6.58982219497241,-5.761496014714899,-3.8209687308399753,2.0,2.15018315018315,465.076660988075,-5.4320843773672856,-1.9916088806013623,-5.073364023075578,1254.9450549450548,-1.0,110.32377532125021,2.153095680304194,464.447681134866,
2023-12-18 15:14:30.809000,-6.0361445783132535,-6.566265060240964,-4.313253012048193,-6.631514408338442,-5.768853464132434,-3.7866339668914772,2.0,2.1487179487179486,465.39379474940336,-5.630557659810034,-2.098479109608996,-5.119165549793135,1253.4798534798533,-1.0,110.32377532125021,2.153060875972553,464.45518997893464,
2023-12-18 15:14:30.816000,-6.0,-6.55421686746988,-4.337349397590362,-6.697731453096259,-5.709993868792152,-3.8700183936235435,2.0,2.1487179487179486,465.39379474940336,-5.966435522405454,-1.8847386515937288,-4.859623565060311,1254.212454212454,-1.0,110.32377532125021,2.1530259087900925,464.46273415305114,
2023-12-18 15:14:30.824000,-6.060240963855422,-6.602409638554217,-4.337349397590362,-6.7590435315757205,-5.7737584304107905,-3.8503985285101163,2.0,2.15018315018315,465.076660988075,-5.752695064390187,-1.579395140143347,-5.302371656663364,1256.4102564102564,-1.0,110.32377532125021,2.1529907847072294,464.4703123765553,
2023-12-18 15:14:30.832000,-6.0,-6.626506024096386,-4.289156626506024,-6.653586756591048,-5.705088902513795,-3.8920907418761495,2.0,2.1487179487179486,465.39379474940336,-6.36338208729095,-2.510692850067011,-4.783287687197715,1256.4102564102564,-1.0,110.32377532125021,2.15295551021773,464.47792325119946,
2023-12-18 15:14:30.839000,-6.0361445783132535,-6.590361445783133,-4.349397590361446,-6.734518700183936,-5.761496014714899,-3.896995708154506,2.0,2.1487179487179486,465.39379474940336,-5.737427888817668,-2.342753918769301,-4.233669366587028,1257.142857142857,-1.0,110.32377532125021,2.1529200923806817,464.4855652569112,
2023-12-18 15:14:30.847000,-6.024096385542169,-6.626506024096386,-4.325301204819278,-6.7369711833231145,-5.778663396689147,-3.926425505824647,2.0,2.1487179487179486,465.39379474940336,-6.36338208729095,-2.113746285181515,-3.9588602062816847,1260.8058608058607,-1.0,110.32377532125021,2.152884538213684,464.49323688303485,
2023-12-18 15:14:30.855000,-6.0120481927710845,-6.626506024096386,-4.325301204819278,-6.695278969957081,-5.71244635193133,-3.884733292458614,2.0,2.1487179487179486,465.39379474940336,-6.69925994988637,-2.0374104073189194,-3.5924479925412274,1271.7948717948716,-1.0,110.32377532125021,2.152848854190477,464.5009367359366,
2023-12-18 15:14:30.862000,-6.0,-6.602409638554217,-4.349397590361446,-6.734518700183936,-5.7001839362354385,-3.896995708154506,2.0,2.15018315018315,465.076660988075,-6.592389720878736,-1.930540178311286,-3.790921274983975,1291.5750915750914,-1.0,110.32377532125021,2.15281304629833,464.5086635266496,
2023-12-18 15:14:30.870000,-5.987951807228916,-6.614457831325302,-4.36144578313253,-6.71244635193133,-5.7001839362354385,-3.8994481912936845,2.0,2.15018315018315,465.076660988075,-6.7603286521764465,-2.831303537089912,-3.745119748266418,1322.3443223443223,-1.0,110.32377532125021,2.1527771210091333,464.5164158612474,
2023-12-18 15:14:30.878000,-5.987951807228916,-6.590361445783133,-4.349397590361446,-6.746781115879828,-5.663396689147762,-3.90680564071122,2.0,2.15018315018315,465.076660988075,-7.01987063690927,-3.0908455218227364,-3.317638832235884,1363.3699633699632,-1.0,110.32377532125021,2.152741085337982,464.52419222814723,
2023-12-18 15:14:30.885000,-5.975903614457832,-6.590361445783133,-4.373493975903615,-6.663396689147762,-5.7296137339055795,-3.914163090128755,2.0,2.1487179487179486,465.39379474940336,-7.126740865916904,-3.4419905599906753,-3.4397762368160363,1413.9194139194137,-1.0,110.32377532125021,2.15270494637798,464.5319910987836,
2023-12-18 15:14:30.893000,-6.0,-6.55421686746988,-4.373493975903615,-6.7148988350705086,-5.749233599019006,-3.9166155732679337,2.0,2.1487179487179486,465.39379474940336,-7.523687430802401,-3.564127964570828,-3.393974710098479,1471.7948717948716,-1.0,110.32377532125021,2.1526687108016205,464.5398110355164,
2023-12-18 15:14:30.901000,-6.024096385542169,-6.566265060240964,-4.349397590361446,-6.648681790312692,-5.734518700183936,-3.914163090128755,2.0,2.15018315018315,465.076660988075,-7.340481323932171,-4.556494376784569,-3.6077151681137463,1534.7985347985348,-1.0,110.32377532125021,2.15263238524195,464.5476506096549,
2023-12-18 15:14:30.908000,-6.024096385542169,-6.55421686746988,-4.36144578313253,-6.66584917228694,-5.768853464132434,-3.867565910484365,2.0,2.1487179487179486,465.39379474940336,-7.340481323932171,-4.556494376784569,-3.6077151681137463,1599.2673992673992,-1.0,110.32377532125021,2.1525959767093332,464.5555083106232,
