Shimmer_F5D4_Timestamp_FormattedUnix_CAL,Shimmer_F5D4_Accel_LN_X_CAL,Shimmer_F5D4_Accel_LN_Y_CAL,Shimmer_F5D4_Accel_LN_Z_CAL,Shimmer_F5D4_Accel_WR_X_CAL,Shimmer_F5D4_Accel_WR_Y_CAL,Shimmer_F5D4_Accel_WR_Z_CAL,Shimmer_F5D4_GSR_Range_CAL,Shimmer_F5D4_GSR_Skin_Conductance_CAL,Shimmer_F5D4_GSR_Skin_Resistance_CAL,Shimmer_F5D4_Gyro_X_CAL,Shimmer_F5D4_Gyro_Y_CAL,Shimmer_F5D4_Gyro_Z_CAL,Shimmer_F5D4_PPG_A13_CAL,Shimmer_F5D4_PPG_IBI_CAL,Shimmer_F5D4_PPGtoHR_CAL,Shimmer_F5D4_GSR_Skin_Conductance_LPF_CAL,
yyyy/mm/dd hh:mm:ss.000,m/(s^2),m/(s^2),m/(s^2),m/(s^2),m/(s^2),m/(s^2),no_units,uS,kOhms,deg/s,deg/s,deg/s,mV,ms,BPM,uS,
2023-08-15 12:56:45.883000,8.337349397590362,-0.5903614457831325,-5.265060240963856,-0.43899448191293683,9.039239730226853,-4.664622930717351,3.0,1.3371073371073372,747.8831147268802,0.0870578637608532,-0.12458481440475544,-0.011421245848144104,1244.6886446886447,-1.0,97.91235059760956,1.3366152352942609,
2023-08-15 12:56:45.891000,8.373493975903616,-0.5662650602409639,-5.253012048192772,-0.37768240343347637,9.019619865113427,-4.698957694665849,3.0,1.3375513375513377,747.6348547717841,0.14707767612610026,0.4083678107336407,0.04964745644193223,1217.5824175824175,-1.0,97.91235059760956,1.336640235321975,
2023-08-15 12:56:45.899000,8.361445783132531,-0.5421686746987953,-5.289156626506024,-0.4193746167995095,9.041692213366032,-4.74310239117106,3.0,1.3375513375513377,747.6348547717841,0.11840801818075895,0.021560515121496402,-0.07225686148825833,1195.6043956043954,-1.0,97.91235059760956,1.3366650716603998,
2023-08-15 12:56:45.906000,8.349397590361447,-0.5421686746987953,-5.289156626506024,-0.40465971796443895,9.031882280809318,-4.6817903126916,3.0,1.3375513375513377,747.6348547717841,0.08647514713594728,-0.25581259833343073,-0.19322883281860045,1178.021978021978,-1.0,97.91235059760956,1.3366897339829655,
2023-08-15 12:56:45.914000,8.373493975903616,-0.5421686746987953,-5.265060240963856,-0.39239730226854685,9.019619865113427,-4.686695278969957,3.0,1.3371073371073372,747.8831147268802,0.35953615756657475,-0.3002156051512144,0.11432900180642144,1165.5677655677655,-1.0,97.91235059760956,1.3367142119346804,
2023-08-15 12:56:45.922000,8.397590361445783,-0.5180722891566265,-5.313253012048193,-0.45861434702636417,9.04659717964439,-4.716125076640098,3.0,1.3371073371073372,747.8831147268802,0.12458481440475544,-0.45113921100168924,0.17341646757181964,1157.5091575091574,-1.0,97.91235059760956,1.3367384948628975,
2023-08-15 12:56:45.929000,8.397590361445783,-0.5301204819277109,-5.301204819277109,-0.3973022685469037,9.019619865113427,-4.745554874310239,3.0,1.3371073371073372,747.8831147268802,-0.20150340889225504,-0.4331915389546057,0.2914748557776352,1150.9157509157508,-1.0,97.91235059760956,1.3367625719533005,
2023-08-15 12:56:45.937000,8.409638554216867,-0.5301204819277109,-5.301204819277109,-0.3703249540159411,9.073574494175352,-4.730839975475169,3.0,1.3371073371073372,747.8831147268802,0.23903035953615728,-0.33855835906998427,0.08892255696055006,1145.054945054945,-1.0,97.91235059760956,1.336786432515383,
2023-08-15 12:56:45.945000,8.409638554216867,-0.5421686746987953,-5.325301204819278,-0.4095646842427958,9.134886572654812,-4.718577559779276,3.0,1.3371073371073372,747.8831147268802,-0.2530155585338854,-0.4563836606258373,0.11526134840626986,1139.194139194139,-1.0,97.91235059760956,1.3368100658321922,
2023-08-15 12:56:45.952000,8.433734939759036,-0.5180722891566265,-5.313253012048193,-0.3629675045984059,9.095646842427957,-4.772532188841201,3.0,1.336663336663337,748.1315396113602,-0.19217994289377077,-0.5277081755142481,-0.22376318396363862,1139.194139194139,-1.0,97.91235059760956,1.336833461042502,
2023-08-15 12:56:45.960000,8.421686746987952,-0.5301204819277109,-5.337349397590362,-0.3801348865726548,9.179031269160024,-4.74310239117106,3.0,1.3371073371073372,747.8831147268802,-0.05722277256570179,-0.1571004020744713,-0.19462735271837311,1142.1245421245421,-1.0,97.91235059760956,1.3368566072900356,
2023-08-15 12:56:45.968000,8.433734939759036,-0.5301204819277109,-5.349397590361446,-0.4218270999386879,9.12262415695892,-4.725935009196811,3.0,1.3371073371073372,747.8831147268802,-0.38016432608822276,0.05955363906532199,-0.08915564361051216,1150.18315018315,-1.0,97.91235059760956,1.3368794938418689,
2023-08-15 12:56:45.975000,8.421686746987952,-0.5180722891566265,-5.325301204819278,-0.40220723482526055,9.103004291845494,-4.713672593500919,3.0,1.336663336663337,748.1315396113602,-0.014334828972670657,-0.03228250101975418,-0.031583241069867866,1159.7069597069597,-1.0,97.91235059760956,1.3369021101115914,
2023-08-15 12:56:45.983000,8.3855421686747,-0.5421686746987953,-5.313253012048193,-0.3629675045984059,9.098099325567135,-4.676885346413243,3.0,1.3371073371073372,747.8831147268802,0.04207214031816354,0.4562671173008565,0.08985490356039848,1168.4981684981685,-1.0,97.91235059760956,1.336924445385255,
2023-08-15 12:56:45.991000,8.373493975903616,-0.5301204819277109,-5.27710843373494,-0.41201716738197425,9.063764561618639,-4.713672593500919,3.0,1.3371073371073372,747.8831147268802,0.0363615173940904,0.2554629683584865,-0.2019695821921801,1175.8241758241757,-1.0,97.91235059760956,1.3369464888246372,
2023-08-15 12:56:45.998000,8.373493975903616,-0.5301204819277109,-5.253012048192772,-0.38749233599019006,9.085836909871244,-4.659717964438994,3.0,1.3371073371073372,747.8831147268802,-0.21350737136530548,0.5598741332090197,-0.2605908746576541,1178.7545787545787,-1.0,97.91235059760956,1.3369682296617582,
2023-08-15 12:56:46.006000,8.373493975903616,-0.5421686746987953,-5.240963855421687,-0.44880441446965047,9.056407112201104,-4.686695278969957,3.0,1.3371073371073372,747.8831147268802,-0.38412679913757986,0.8153371015675079,-0.25569605500844944,1182.4175824175823,-1.0,97.91235059760956,1.336989657362435,
2023-08-15 12:56:46.014000,8.373493975903616,-0.5542168674698795,-5.27710843373494,-0.38994481912936846,9.056407112201104,-4.679337829552422,3.0,1.3362193362193362,748.3801295896328,-0.16945399452246426,0.7017073597109719,-0.08507662723617508,1185.3479853479853,-1.0,97.91235059760956,1.3370107614821405,
2023-08-15 12:56:46.021000,8.373493975903616,-0.5542168674698795,-5.228915662650603,-0.46842427958307786,9.031882280809318,-4.591048436541999,3.0,1.336663336663337,748.1315396113602,0.3053435114503817,0.3925179185362157,-0.03810966726880729,1189.7435897435896,-1.0,97.91235059760956,1.3370315315329744,
2023-08-15 12:56:46.029000,8.373493975903616,-0.5662650602409639,-5.265060240963856,-0.46842427958307786,9.049049662783569,-4.664622930717351,3.0,1.336663336663337,748.1315396113602,0.15208903910028493,0.6329467979721465,0.13192704387856202,1195.6043956043954,-1.0,97.91235059760956,1.3370519572138408,
2023-08-15 12:56:46.036000,8.373493975903616,-0.5542168674698795,-5.216867469879518,-0.4512568976088289,9.041692213366032,-4.6400980993255665,3.0,1.336663336663337,748.1315396113602,0.12155468795524675,0.2767903968300212,-0.08192995746168641,1205.8608058608058,-1.0,97.91235059760956,1.337072028288422,
2023-08-15 12:56:46.044000,8.361445783132531,-0.5542168674698795,-5.228915662650603,-0.4463519313304721,9.063764561618639,-4.605763335377069,3.0,1.336663336663337,748.1315396113602,0.5511333838354413,0.18040906707068372,0.33331390944583666,1227.106227106227,-1.0,97.91235059760956,1.3370917344841793,
2023-08-15 12:56:46.052000,8.3855421686747,-0.5542168674698795,-5.216867469879518,-0.4316370324954016,9.04659717964439,-4.642550582464746,3.0,1.336663336663337,748.1315396113602,0.3667618437154005,-0.1290134607540359,0.18052561039566456,1260.8058608058607,-1.0,97.91235059760956,1.3371110656576428,
2023-08-15 12:56:46.059000,8.3855421686747,-0.5180722891566265,-5.240963855421687,-0.4880441446965052,9.068669527896995,-4.657265481299816,3.0,1.336663336663337,748.1315396113602,0.5071965503175809,-0.09941145620884616,0.7936600431210302,1308.4249084249084,-1.0,97.91235059760956,1.3371300116717204,
2023-08-15 12:56:46.067000,8.3855421686747,-0.5301204819277109,-5.240963855421687,-0.46106683016554256,9.049049662783569,-4.654812998160637,3.0,1.336663336663337,748.1315396113602,0.705203659460404,-0.4975234543441524,0.560806479808869,1369.9633699633698,-1.0,97.91235059760956,1.3371485624321564,
2023-08-15 12:56:46.075000,8.3855421686747,-0.5542168674698795,-5.289156626506024,-0.4193746167995095,9.06131207847946,-4.686695278969957,3.0,1.336663336663337,748.1315396113602,0.5196666860905548,-0.4475263679272764,0.5103432200920692,1446.8864468864467,-1.0,97.91235059760956,1.3371667080515905,
2023-08-15 12:56:46.082000,8.409638554216867,-0.5421686746987953,-5.265060240963856,-0.4537093807480073,9.041692213366032,-4.721030042918454,3.0,1.336663336663337,748.1315396113602,0.39799545481032544,-0.5069634636676192,0.13891964337742566,1542.1245421245421,-1.0,97.91235059760956,1.3371844390031966,
2023-08-15 12:56:46.090000,8.397590361445783,-0.5542168674698795,-5.27710843373494,-0.49785407725321884,9.181483752299203,-4.684242795830778,3.0,1.336663336663337,748.1315396113602,0.7965736262455568,-0.733407144105822,0.0750539012878036,1654.9450549450548,-1.0,97.91235059760956,1.337201745976546,
2023-08-15 12:56:46.098000,8.44578313253012,-0.5783132530120483,-5.253012048192772,-0.48313917841814835,9.112814224402207,-4.730839975475169,3.0,1.336663336663337,748.1315396113602,0.12400209777984952,-0.39065322533651886,0.05687314259075798,1785.3479853479853,-1.0,97.91235059760956,1.337218619765029,
2023-08-15 12:56:46.105000,8.433734939759036,-0.5783132530120483,-5.289156626506024,-0.40465971796443895,9.073574494175352,-4.723482526057633,3.0,1.3362193362193362,748.3801295896328,0.26303828448225647,-0.8148709282675828,0.008274576073655443,1927.4725274725274,-1.0,97.91235059760956,1.337235051429993,
2023-08-15 12:56:46.113000,8.421686746987952,-0.5542168674698795,-5.301204819277109,-0.47087676272225626,9.093194359288779,-4.713672593500919,3.0,1.336663336663337,748.1315396113602,0.4774780024474104,-0.3962473049356094,-0.22236466406386554,2072.5274725274726,-1.0,97.91235059760956,1.33725103216625,
2023-08-15 12:56:46.121000,8.44578313253012,-0.5662650602409639,-5.325301204819278,-0.4782342121397915,9.078479460453709,-4.765174739423666,3.0,1.3362193362193362,748.3801295896328,0.13903618670240694,0.11351319853155341,-0.040440533768428356,2212.454212454212,-1.0,97.91235059760956,1.3372665534442014,
2023-08-15 12:56:46.128000,8.433734939759036,-0.5542168674698795,-5.337349397590362,-0.41692213366033104,9.073574494175352,-4.777437155119558,3.0,1.336663336663337,748.1315396113602,-0.07563661791270866,0.20593205524153552,-0.1636268282734107,2334.7985347985345,-1.0,97.91235059760956,1.3372816070340667,
2023-08-15 12:56:46.136000,8.409638554216867,-0.5542168674698795,-5.36144578313253,-0.45616186388718577,9.105456774984672,-4.757817290006131,3.0,1.336663336663337,748.1315396113602,0.07808402773731143,0.2997494318512911,-0.0903210768603227,2435.8974358974356,-1.0,97.91235059760956,1.3372961850087568,
2023-08-15 12:56:46.144000,8.361445783132531,-0.5421686746987953,-5.337349397590362,-0.41446965052115264,9.080931943592887,-4.777437155119558,3.0,1.336663336663337,748.1315396113602,0.07610279121263375,0.2980012819765751,-0.09206922673503871,2509.8901098901097,-1.0,97.91235059760956,1.3373102799168066,
2023-08-15 12:56:46.151000,8.3855421686747,-0.5421686746987953,-5.349397590361446,-0.48313917841814835,9.0907418761496,-4.735744941753525,3.0,1.3362193362193362,748.3801295896328,-0.20010488899248327,0.09871219625895941,-0.3510284948429577,2550.915750915751,-1.0,97.91235059760956,1.3373238846571616,
2023-08-15 12:56:46.159000,8.361445783132531,-0.5421686746987953,-5.325301204819278,-0.42427958307786634,9.056407112201104,-4.740649908031882,3.0,1.336663336663337,748.1315396113602,-0.415943126857409,0.20488316531670625,-0.48656838179593254,2557.5091575091574,-1.0,97.91235059760956,1.3373369923431249,
2023-08-15 12:56:46.167000,8.373493975903616,-0.5421686746987953,-5.301204819277109,-0.40465971796443895,9.088289393010422,-4.740649908031882,3.0,1.335775335775336,748.6288848263254,0.0102558125983327,0.2644368043820282,-0.17644659402132748,2525.274725274725,-1.0,97.91235059760956,1.3373495963039206,
2023-08-15 12:56:46.174000,8.361445783132531,-0.5421686746987953,-5.337349397590362,-0.41446965052115264,9.07602697731453,-4.735744941753525,3.0,1.335775335775336,748.6288848263254,-0.5117417399918422,0.5369150981877515,-0.339607248994814,2460.8058608058604,-1.0,97.91235059760956,1.337361690394167,
2023-08-15 12:56:46.182000,8.349397590361447,-0.5421686746987953,-5.337349397590362,-0.4438994481912937,9.031882280809318,-4.684242795830778,3.0,1.3362193362193362,748.3801295896328,-0.35837072431676464,0.3054600547753625,-0.39648039158557197,2367.032967032967,-1.0,97.91235059760956,1.3373732687713784,
2023-08-15 12:56:46.190000,8.361445783132531,-0.5421686746987953,-5.301204819277109,-0.40465971796443895,9.026977314530962,-4.698957694665849,3.0,1.335775335775336,748.6288848263254,-0.5576598100343804,0.07365538138803097,-0.47060194627352714,2252.014652014652,-1.0,97.91235059760956,1.3373843257673486,
2023-08-15 12:56:46.197000,8.337349397590362,-0.5542168674698795,-5.301204819277109,-0.43654199877375843,9.022072348252605,-4.689147762109135,3.0,1.3362193362193362,748.3801295896328,-0.2954373288269915,0.11735912825592969,-0.26735038750655565,2120.879120879121,-1.0,97.91235059760956,1.3373948559386906,
2023-08-15 12:56:46.205000,8.325301204819278,-0.5421686746987953,-5.27710843373494,-0.3850398528510116,9.012262415695892,-4.694052728387492,3.0,1.3362193362193362,748.3801295896328,-0.6783986947147594,0.15838237864926225,0.08973836023541765,1978.7545787545787,-1.0,97.91235059760956,1.3374048542123715,
2023-08-15 12:56:46.213000,8.337349397590362,-0.5301204819277109,-5.265060240963856,-0.41446965052115264,9.058859595340282,-4.667075413856529,3.0,1.3362193362193362,748.3801295896328,-0.27842200337975637,0.4475263679272764,0.24450789581026744,1831.5018315018315,-1.0,97.91235059760956,1.3374143160515148,
2023-08-15 12:56:46.220000,8.349397590361447,-0.5301204819277109,-5.27710843373494,-0.49540159411404044,8.997547516860822,-4.69650521152667,3.0,1.3362193362193362,748.3801295896328,-0.22993998018763467,0.1687547345725775,0.15675077209952792,1682.7838827838827,-1.0,97.91235059760956,1.337423237183831,
2023-08-15 12:56:46.228000,8.361445783132531,-0.5421686746987953,-5.265060240963856,-0.4463519313304721,9.019619865113427,-4.740649908031882,3.0,1.335775335775336,748.6288848263254,-0.3193287104481098,0.028553114620360476,0.5242118757648156,1538.4615384615383,-1.0,97.91235059760956,1.3374316136272115,
2023-08-15 12:56:46.236000,8.361445783132531,-0.5542168674698795,-5.27710843373494,-0.3850398528510116,9.105456774984672,-4.6817903126916,3.0,1.335775335775336,748.6288848263254,-0.21094341821572188,-0.4604626770001753,0.20057106229240704,1403.6630036630036,-1.0,97.91235059760956,1.3374394416928916,
2023-08-15 12:56:46.243000,8.3855421686747,-0.5542168674698795,-5.253012048192772,-0.3359901900674433,9.095646842427957,-4.686695278969957,3.0,1.335775335775336,748.6288848263254,-0.5126740865916907,-0.25895926810791847,0.04661732999242484,1281.3186813186812,-1.0,97.91235059760956,1.3374467179662024,
2023-08-15 12:56:46.251000,8.433734939759036,-0.5421686746987953,-5.265060240963856,-0.3948497854077253,9.147148988350704,-4.664622930717351,3.0,1.335775335775336,748.6288848263254,-0.049763999766912634,-0.08927218693549256,0.2893770759279763,1171.4285714285713,-1.0,97.91235059760956,1.3374534394457307,
2023-08-15 12:56:46.259000,8.44578313253012,-0.5421686746987953,-5.253012048192772,-0.35561005518087063,9.193746167995094,-4.63519313304721,3.0,1.335775335775336,748.6288848263254,-0.0025639531495836093,-0.22481207388846747,0.22469553056348707,1077.6556776556777,-1.0,97.91235059760956,1.3374596035429998,
2023-08-15 12:56:46.266000,8.44578313253012,-0.5060240963855422,-5.253012048192772,-0.42918454935622313,9.132434089515634,-4.657265481299816,3.0,1.335775335775336,748.6288848263254,-0.19742439251791882,-0.23634986306159284,0.3272536565468214,1000.7326007326006,-1.0,97.91235059760956,1.3374652080814586,
2023-08-15 12:56:46.274000,8.433734939759036,-0.5060240963855422,-5.289156626506024,-0.41446965052115264,9.12262415695892,-4.613120784794604,3.0,1.3353313353313354,748.8778054862843,-0.223180467338734,-0.12575024765456555,0.3053435114503817,942.124542124542,-1.0,97.91235059760956,1.3374702512947756,
2023-08-15 12:56:46.282000,8.433734939759036,-0.49397590361445787,-5.27710843373494,-0.42673206621704474,9.12262415695892,-4.684242795830778,3.0,1.3353313353313354,748.8778054862843,0.13402482372822055,-0.09346774663481136,0.544024241011596,900.3663003663003,-1.0,97.91235059760956,1.3374747316751756,
2023-08-15 12:56:46.289000,8.409638554216867,-0.5060240963855422,-5.301204819277109,-0.35806253832004903,9.13733905579399,-4.723482526057633,3.0,1.3353313353313354,748.8778054862843,-0.2912417691276727,-0.032049414369792514,0.3230580968475031,871.7948717948717,612.79296875,97.91235059760956,1.3374786479485483,
2023-08-15 12:56:46.297000,8.44578313253012,-0.5301204819277109,-5.301204819277109,-0.41201716738197425,9.154506437768239,-4.748007357449417,3.0,1.3353313353313354,748.8778054862843,0.07948254763708494,0.042654856943067726,-0.24613950236000218,858.6080586080585,-1.0,97.91235059760956,1.3374819992078835,
2023-08-15 12:56:46.305000,8.433734939759036,-0.5180722891566265,-5.349397590361446,-0.34334763948497854,9.142244022072347,-4.733292458614347,3.0,1.3353313353313354,748.8778054862843,0.3404230522696811,0.17877746052094853,-0.39776236816036376,858.6080586080585,-1.0,97.91235059760956,1.3374847849071716,
2023-08-15 12:56:46.312000,8.421686746987952,-0.5060240963855422,-5.301204819277109,-0.3850398528510116,9.144696505211526,-4.689147762109135,3.0,1.3353313353313354,748.8778054862843,-0.13623914690286165,-0.08227958743663023,-0.24322591923547562,873.2600732600732,-1.0,97.91235059760956,1.3374870048545746,
2023-08-15 12:56:46.320000,8.397590361445783,-0.5301204819277109,-5.325301204819278,-0.42918454935622313,9.0907418761496,-4.689147762109135,3.0,1.3344433344433346,749.3761437364831,-0.22562787716333504,0.1471942194510811,-0.5024182739933571,897.4358974358973,-1.0,97.91235059760956,1.3374886590661563,
2023-08-15 12:56:46.328000,8.3855421686747,-0.5301204819277109,-5.289156626506024,-0.3801348865726548,9.039239730226853,-4.721030042918454,3.0,1.334887334887335,749.126891734575,-0.05477536274109902,0.4665229298991892,-0.5000874074937356,931.1355311355311,-1.0,97.91235059760956,1.3374897477570113,
2023-08-15 12:56:46.335000,8.361445783132531,-0.5301204819277109,-5.325301204819278,-0.41692213366033104,9.068669527896995,-4.72838749233599,3.0,1.334887334887335,749.126891734575,-0.25511333838354394,0.15651768544956537,-0.36070159081638614,975.8241758241758,-1.0,97.91235059760956,1.337490271545285,
2023-08-15 12:56:46.343000,8.349397590361447,-0.5301204819277109,-5.337349397590362,-0.37768240343347637,8.985285101164928,-4.721030042918454,3.0,1.334887334887335,749.126891734575,-0.3167647572985262,0.4152438669075222,-0.311636850999359,1032.967032967033,-1.0,97.91235059760956,1.337490231303045,
2023-08-15 12:56:46.351000,8.373493975903616,-0.5542168674698795,-5.385542168674699,-0.3948497854077253,9.041692213366032,-4.770079705702023,3.0,1.334887334887335,749.126891734575,-0.3158324106986778,0.459413787075346,-0.46302663014975803,1098.168498168498,-1.0,97.91235059760956,1.3374896280273916,
2023-08-15 12:56:46.358000,8.325301204819278,-0.5421686746987953,-5.337349397590362,-0.39975475168608215,9.056407112201104,-4.767627222562845,3.0,1.334887334887335,749.126891734575,-0.4679214497989627,0.2283083736378995,-0.4263154827807238,1169.230769230769,-1.0,97.91235059760956,1.3374884629771542,
2023-08-15 12:56:46.366000,8.337349397590362,-0.5542168674698795,-5.337349397590362,-0.4218270999386879,9.06131207847946,-4.74310239117106,3.0,1.334887334887335,749.126891734575,-0.7732649612493444,-0.12248703455509517,-0.23809801293630886,1242.4908424908424,-1.0,97.91235059760956,1.337486737521031,
2023-08-15 12:56:46.374000,8.337349397590362,-0.5301204819277109,-5.301204819277109,-0.40465971796443895,9.036787247087675,-4.659717964438994,3.0,1.334887334887335,749.126891734575,-0.8951692791795354,0.033447934269564286,-0.3729386399393974,1316.4835164835165,-1.0,97.91235059760956,1.3374844531444525,
2023-08-15 12:56:46.381000,8.337349397590362,-0.5180722891566265,-5.289156626506024,-0.35561005518087063,9.031882280809318,-4.701410177805028,3.0,1.334887334887335,749.126891734575,-0.7689528582250448,0.40428879435930276,-0.20045451896742622,1386.080586080586,-1.0,97.91235059760956,1.3374816115837171,
2023-08-15 12:56:46.389000,8.373493975903616,-0.5180722891566265,-5.265060240963856,-0.37522992029429797,9.088289393010422,-4.701410177805028,3.0,1.334887334887335,749.126891734575,-0.9613658877687772,0.037760037293863916,-0.27212866383077905,1450.5494505494505,-1.0,97.91235059760956,1.3374782148108022,
2023-08-15 12:56:46.397000,8.361445783132531,-0.5180722891566265,-5.265060240963856,-0.37768240343347637,9.098099325567135,-4.698957694665849,3.0,1.334887334887335,749.126891734575,-0.6634811491171847,-0.05279412621642132,0.12749839752928155,1509.89010989011,-1.0,97.91235059760956,1.3374742650182196,
2023-08-15 12:56:46.404000,8.361445783132531,-0.5301204819277109,-5.301204819277109,-0.4316370324954016,9.088289393010422,-4.723482526057633,3.0,1.334887334887335,749.126891734575,-0.7943593030709174,0.17667968067129,0.37375444321426504,1558.974358974359,-1.0,97.91235059760956,1.3374697646040303,
2023-08-15 12:56:46.412000,8.397590361445783,-0.5060240963855422,-5.253012048192772,-0.40220723482526055,9.051502145922747,-4.711220110361741,3.0,1.334887334887335,749.126891734575,-0.6160480158498922,-0.12015616805547498,0.14474680962647876,1600.7326007326005,-1.0,97.91235059760956,1.3374647160183386,
2023-08-15 12:56:46.419000,8.373493975903616,-0.5301204819277109,-5.265060240963856,-0.40220723482526055,9.04659717964439,-4.711220110361741,3.0,1.334887334887335,749.126891734575,-0.6083561564011414,-0.12237049123011434,0.14602878620127013,1631.5018315018315,-1.0,97.91235059760956,1.3374591219080145,
2023-08-15 12:56:46.427000,8.373493975903616,-0.5421686746987953,-5.265060240963856,-0.4218270999386879,9.112814224402207,-4.6621704475781724,3.0,1.334887334887335,749.126891734575,-0.5990326904026572,-0.09125342346017198,0.07202377483829622,1649.8168498168498,-1.0,97.91235059760956,1.3374529852303076,
2023-08-15 12:56:46.435000,8.3855421686747,-0.5301204819277109,-5.265060240963856,-0.4095646842427958,9.02942979767014,-4.642550582464746,3.0,1.334887334887335,749.126891734575,-0.2829671930540177,-0.04696695996736735,0.4405337684284132,1657.142857142857,-1.0,97.91235059760956,1.3374463090902782,
2023-08-15 12:56:46.442000,8.409638554216867,-0.5060240963855422,-5.27710843373494,-0.3703249540159411,9.088289393010422,-4.686695278969957,3.0,1.3344433344433346,749.3761437364831,-0.5042829671930549,0.2098945282908926,0.4548685974010838,1650.5494505494505,-1.0,97.91235059760956,1.3374390967281098,
2023-08-15 12:56:46.450000,8.397590361445783,-0.5180722891566265,-5.27710843373494,-0.4193746167995095,9.07602697731453,-4.6327406499080315,3.0,1.3344433344433346,749.3761437364831,-0.11293048190664923,0.31373463084901754,0.20826292174115743,1634.4322344322343,-1.0,97.91235059760956,1.337431351219058,
2023-08-15 12:56:46.458000,8.433734939759036,-0.5421686746987953,-5.253012048192772,-0.43408951563458,9.15205395462906,-4.689147762109135,3.0,1.3344433344433346,749.3761437364831,-0.16700658469786148,0.15663422877454622,0.4942602412446825,1607.3260073260071,-1.0,97.91235059760956,1.3374230754606922,
2023-08-15 12:56:46.465000,8.433734939759036,-0.5421686746987953,-5.253012048192772,-0.40220723482526055,9.125076640098099,-4.667075413856529,3.0,1.3344433344433346,749.3761437364831,-0.3150166074238102,0.25989161470776695,-0.030650894470019438,1571.4285714285713,-1.0,97.91235059760956,1.3374142724475147,
2023-08-15 12:56:46.473000,8.421686746987952,-0.5180722891566265,-5.313253012048193,-0.42673206621704474,9.142244022072347,-4.723482526057633,3.0,1.3335553335553336,749.8751456633927,-0.003263213099470364,0.28669657945341137,-0.09311811665986841,1528.937728937729,-1.0,97.91235059760956,1.3374049452584382,
2023-08-15 12:56:46.481000,8.409638554216867,-0.5301204819277109,-5.289156626506024,-0.4316370324954016,9.10790925812385,-4.718577559779276,3.0,1.3339993339993341,749.6255616575137,0.38098012936309034,0.6948313035370904,0.16351028494842945,1484.2490842490843,-1.0,97.91235059760956,1.3373950970241313,
2023-08-15 12:56:46.488000,8.397590361445783,-0.5301204819277109,-5.27710843373494,-0.3850398528510116,9.103004291845494,-4.674432863274065,3.0,1.3339993339993341,749.6255616575137,0.16525843482314548,0.15267175572519084,0.10022725948371289,1441.0256410256409,-1.0,97.91235059760956,1.3373847308425355,
2023-08-15 12:56:46.496000,8.409638554216867,-0.5421686746987953,-5.289156626506024,-0.4071122011036174,9.078479460453709,-4.676885346413243,3.0,1.3344433344433346,749.3761437364831,0.7295612143814456,0.5168696462910095,-0.3291183497465183,1398.5347985347985,-1.0,97.91235059760956,1.3373738497898158,
2023-08-15 12:56:46.504000,8.433734939759036,-0.5542168674698795,-5.27710843373494,-0.46106683016554256,9.093194359288779,-4.698957694665849,3.0,1.3339993339993341,749.6255616575137,0.15919818192412982,0.34496824194394243,-0.15896509527416816,1356.0439560439559,-1.0,97.91235059760956,1.3373624569320082,
2023-08-15 12:56:46.511000,8.409638554216867,-0.5662650602409639,-5.27710843373494,-0.4071122011036174,9.095646842427957,-4.748007357449417,3.0,1.3339993339993341,749.6255616575137,0.5237457024648909,0.29508769885204894,-0.7859681836722803,1317.9487179487178,-1.0,97.91235059760956,1.3373505552093476,
2023-08-15 12:56:46.519000,8.397590361445783,-0.5542168674698795,-5.313253012048193,-0.41201716738197425,9.142244022072347,-4.718577559779276,3.0,1.3339993339993341,749.6255616575137,0.7324747975059734,0.4429811782530151,-0.4757298525726939,1281.3186813186812,-1.0,97.91235059760956,1.337338147417581,
2023-08-15 12:56:46.527000,8.3855421686747,-0.5783132530120483,-5.265060240963856,-0.3801348865726548,9.036787247087675,-4.615573267933783,3.0,1.3339993339993341,749.6255616575137,0.8311869937649329,0.5454227609113682,-0.5037002505681485,1247.6190476190475,-1.0,97.91235059760956,1.3373252363389652,
2023-08-15 12:56:46.534000,8.349397590361447,-0.5783132530120483,-5.27710843373494,-0.4438994481912937,9.100551808706316,-4.689147762109135,3.0,1.3339993339993341,749.6255616575137,0.8204650078666751,0.28098595652934,-0.5599906765340014,1217.5824175824175,-1.0,97.91235059760956,1.337311824735696,
2023-08-15 12:56:46.542000,8.373493975903616,-0.5662650602409639,-5.289156626506024,-0.43408951563458,9.098099325567135,-4.686695278969957,3.0,1.3339993339993341,749.6255616575137,0.9937649321135139,0.21642095448983162,-1.0136938406852747,1192.6739926739926,-1.0,97.91235059760956,1.3372979153445261,
2023-08-15 12:56:46.550000,8.409638554216867,-0.5301204819277109,-5.325301204819278,-0.4193746167995095,9.0907418761496,-4.701410177805028,3.0,1.3339993339993341,749.6255616575137,1.0441116485053326,0.15162286580036158,-0.6984441466115029,1173.6263736263736,-1.0,97.91235059760956,1.3372835108726393,
2023-08-15 12:56:46.557000,8.3855421686747,-0.5421686746987953,-5.289156626506024,-0.3973022685469037,9.115266707541386,-4.676885346413243,3.0,1.3335553335553336,749.8751456633927,0.8968008857292705,0.21001107161587346,-0.6294504982227145,1162.6373626373625,-1.0,97.91235059760956,1.3372686139947756,
2023-08-15 12:56:46.565000,8.409638554216867,-0.5301204819277109,-5.27710843373494,-0.4218270999386879,9.10790925812385,-4.69650521152667,3.0,1.3335553335553336,749.8751456633927,1.1166015966435516,0.40685274750888634,-1.0938756482722451,1156.7765567765566,-1.0,97.91235059760956,1.3372532272023623,
2023-08-15 12:56:46.573000,8.409638554216867,-0.5060240963855422,-5.27710843373494,-0.32127529123237275,9.115266707541386,-4.6621704475781724,3.0,1.3335553335553336,749.8751456633927,1.1679972029602013,0.326437853271953,-0.608239613076161,1158.2417582417581,-1.0,97.91235059760956,1.337237352781358,
2023-08-15 12:56:46.580000,8.409638554216867,-0.5060240963855422,-5.265060240963856,-0.35806253832004903,9.066217044757817,-4.679337829552422,3.0,1.3335553335553336,749.8751456633927,0.866033447934269,0.19719130586795713,-0.7687197715750831,1161.1721611721612,-1.0,97.91235059760956,1.3372209929503467,
2023-08-15 12:56:46.588000,8.433734939759036,-0.4819277108433735,-5.325301204819278,-0.3629675045984059,9.049049662783569,-4.711220110361741,3.0,1.3335553335553336,749.8751456633927,1.071499329875881,0.35976924421653816,-1.0356039857817145,1163.3699633699632,-1.0,97.91235059760956,1.3372041498610148,
2023-08-15 12:56:46.596000,8.433734939759036,-0.4819277108433735,-5.313253012048193,-0.3359901900674433,9.196198651134273,-4.637645616186388,3.0,1.3335553335553336,749.8751456633927,0.7261814579569962,0.24672221898490812,-0.9647456441932288,1165.5677655677655,-1.0,97.91235059760956,1.337186825599749,
2023-08-15 12:56:46.603000,8.409638554216867,-0.46987951807228917,-5.301204819277109,-0.34825260576333533,9.134886572654812,-4.708767627222563,3.0,1.3335553335553336,749.8751456633927,1.10098479109609,0.19555969931822195,-1.0928267583474154,1165.5677655677655,-1.0,97.91235059760956,1.3371690220516148,
2023-08-15 12:56:46.611000,8.421686746987952,-0.44578313253012053,-5.301204819277109,-0.34825260576333533,9.120171673819742,-4.718577559779276,3.0,1.3335553335553336,749.8751456633927,1.2155468795524744,0.23868072956121478,-0.9888701124643083,1166.3003663003662,-1.0,97.91235059760956,1.3371507410633372,
2023-08-15 12:56:46.619000,8.409638554216867,-0.44578313253012053,-5.349397590361446,-0.2575107296137339,9.129981606376456,-4.765174739423666,3.0,1.3335553335553336,749.8751456633927,0.7599790222015029,0.06339956878969827,-0.8255929141658415,1170.6959706959706,-1.0,97.91235059760956,1.337131984437124,
2023-08-15 12:56:46.626000,8.421686746987952,-0.44578313253012053,-5.36144578313253,-0.2452483139178418,9.112814224402207,-4.792152053954629,3.0,1.3326673326673328,750.374812593703,0.7531029660276215,-0.09253540003496293,-1.1075112172950294,1178.021978021978,-1.0,97.91235059760956,1.3371127538079943,
2023-08-15 12:56:46.634000,8.421686746987952,-0.4096385542168675,-5.349397590361446,-0.2550582464745555,9.147148988350704,-4.77498467198038,3.0,1.3326673326673328,750.374812593703,0.8858458131810494,-0.10791911893246285,-1.3714818483771343,1189.0109890109889,-1.0,97.91235059760956,1.3370930507780077,
2023-08-15 12:56:46.642000,8.433734939759036,-0.39759036144578314,-5.36144578313253,-0.26241569589209074,9.110361741263029,-4.725935009196811,3.0,1.3331113331113331,750.1248959200666,0.6785152380397421,0.015616805547461593,-1.6048015849892199,1199.2673992673992,-1.0,97.91235059760956,1.33707287670026,
2023-08-15 12:56:46.649000,8.421686746987952,-0.3855421686746988,-5.349397590361446,-0.3016554261189454,9.105456774984672,-4.752912323727774,3.0,1.3331113331113331,750.1248959200666,0.718023425208322,0.2776062001048888,-1.5764815570188222,1209.5238095238094,-1.0,97.91235059760956,1.3370522326964132,
2023-08-15 12:56:46.657000,8.421686746987952,-0.3855421686746988,-5.337349397590362,-0.23053341508277128,9.078479460453709,-4.716125076640098,3.0,1.3331113331113331,750.1248959200666,0.7260649146320136,0.5803857584056868,-1.7798496591107742,1213.9194139194137,-1.0,97.91235059760956,1.3370311198550386,
2023-08-15 12:56:46.665000,8.397590361445783,-0.3855421686746988,-5.325301204819278,-0.2869405272838749,9.085836909871244,-4.694052728387492,3.0,1.3331113331113331,750.1248959200666,0.412913000407902,0.40801818075869645,-1.5241536041023251,1219.047619047619,-1.0,97.91235059760956,1.3370095392499213,
2023-08-15 12:56:46.672000,8.409638554216867,-0.3855421686746988,-5.325301204819278,-0.2795830778663397,9.078479460453709,-4.706315144083384,3.0,1.3331113331113331,750.1248959200666,1.111590233669367,0.665695472291824,-1.5882524328419094,1224.9084249084249,-1.0,97.91235059760956,1.336987491948743,
2023-08-15 12:56:46.680000,8.373493975903616,-0.39759036144578314,-5.313253012048193,-0.2869405272838749,9.080931943592887,-4.711220110361741,3.0,1.3326673326673328,750.374812593703,0.9185944875007286,0.2336693665870284,-1.6539828681312274,1235.164835164835,-1.0,97.91235059760956,1.336964978883919,
2023-08-15 12:56:46.688000,8.373493975903616,-0.3855421686746988,-5.337349397590362,-0.2893930104230533,9.066217044757817,-4.74310239117106,3.0,1.3326673326673328,750.374812593703,1.0966726880717903,-0.3610512207913291,-1.5816094633179882,1244.6886446886447,-1.0,97.91235059760956,1.3369420008728712,
2023-08-15 12:56:46.695000,8.3855421686747,-0.39759036144578314,-5.289156626506024,-0.29429797670141017,9.100551808706316,-4.664622930717351,3.0,1.3326673326673328,750.374812593703,1.0907289784977574,-0.3559233144921619,-1.5731018005943707,1260.07326007326,-1.0,97.91235059760956,1.3369185585962802,
2023-08-15 12:56:46.703000,8.3855421686747,-0.3855421686746988,-5.27710843373494,-0.3359901900674433,9.088289393010422,-4.686695278969957,3.0,1.3326673326673328,750.374812593703,0.9740691101917144,-0.4740982460229592,-1.470310587961074,1279.8534798534797,-1.0,97.91235059760956,1.3368946526184546,
2023-08-15 12:56:46.711000,8.3855421686747,-0.39759036144578314,-5.228915662650603,-0.299202942979767,9.0907418761496,-4.667075413856529,3.0,1.3326673326673328,750.374812593703,1.2566866732707878,0.05034671639181855,-1.0197540935842895,1309.89010989011,-1.0,97.91235059760956,1.3368702835464072,
2023-08-15 12:56:46.718000,8.373493975903616,-0.4096385542168675,-5.240963855421687,-0.27713059472716123,9.044144696505212,-4.6400980993255665,3.0,1.3326673326673328,750.374812593703,0.848901579162053,-0.0102558125983327,-1.1203309830429466,1353.113553113553,-1.0,97.91235059760956,1.3368454520403192,
2023-08-15 12:56:46.726000,8.337349397590362,-0.43373493975903615,-5.265060240963856,-0.3359901900674433,9.019619865113427,-4.593500919681177,3.0,1.3326673326673328,750.374812593703,1.6052677582891448,-0.16152904842375176,-1.2808111415418686,1416.117216117216,-1.0,97.91235059760956,1.3368201588246547,
2023-08-15 12:56:46.734000,8.313253012048193,-0.46987951807228917,-5.289156626506024,-0.40220723482526055,8.985285101164928,-4.615573267933783,3.0,1.3326673326673328,750.374812593703,1.3931589068236112,-0.17469844414661231,-1.5000291358312448,1502.5641025641025,-1.0,97.91235059760956,1.3367944046998697,
2023-08-15 12:56:46.741000,8.301204819277109,-0.4819277108433735,-5.265060240963856,-0.3605150214592274,8.970570202329858,-4.686695278969957,3.0,1.3326673326673328,750.374812593703,1.717732066895869,-0.17353301089680048,-1.197249577530447,1616.8498168498168,-1.0,97.91235059760956,1.3367681905546636,
2023-08-15 12:56:46.749000,8.301204819277109,-0.49397590361445787,-5.253012048192772,-0.3114653586756591,9.066217044757817,-4.689147762109135,3.0,1.3326673326673328,750.374812593703,1.7181982401957923,-0.7997202960200446,-1.4909387564827217,1752.3809523809523,-1.0,97.91235059760956,1.3367415173787203,
2023-08-15 12:56:46.757000,8.325301204819278,-0.5060240963855422,-5.240963855421687,-0.3973022685469037,9.058859595340282,-4.711220110361741,3.0,1.3326673326673328,750.374812593703,2.0248237282209667,-0.7957578229706892,-1.200396247304936,1901.098901098901,-1.0,97.91235059760956,1.3367143862758908,
2023-08-15 12:56:46.764000,8.325301204819278,-0.5060240963855422,-5.253012048192772,-0.4193746167995095,9.024524831391783,-4.608215818516247,3.0,1.3326673326673328,750.374812593703,1.7931355981586143,-0.5636035196084151,-1.0943418215721703,2052.014652014652,-1.0,97.91235059760956,1.3366867984777413,
2023-08-15 12:56:46.772000,8.325301204819278,-0.5180722891566265,-5.27710843373494,-0.3703249540159411,9.039239730226853,-4.622930717351318,3.0,1.3326673326673328,750.374812593703,2.494726414544607,-0.6102208496008382,-1.0537847444787594,2197.8021978021975,-1.0,97.91235059760956,1.3366587553574314,
2023-08-15 12:56:46.780000,8.313253012048193,-0.5421686746987953,-5.265060240963856,-0.39975475168608215,9.051502145922747,-4.667075413856529,3.0,1.3317793317793318,750.8751458576429,2.535516578287978,-0.71452712545889,-0.8577588718606131,2328.205128205128,-1.0,97.91235059760956,1.3366302583050895,
2023-08-15 12:56:46.787000,8.325301204819278,-0.5180722891566265,-5.27710843373494,-0.42427958307786634,9.051502145922747,-4.664622930717351,3.0,1.3317793317793318,750.8751458576429,2.346832935143639,-0.4831886253714818,-0.6180292523745695,2438.095238095238,-1.0,97.91235059760956,1.3366013088801836,
2023-08-15 12:56:46.795000,8.325301204819278,-0.5301204819277109,-5.253012048192772,-0.3605150214592274,9.103004291845494,-4.654812998160637,3.0,1.3322233322233323,750.6248958506915,2.5391294213623925,-0.38972087873667044,-0.4252665928558945,2520.14652014652,-1.0,97.91235059760956,1.3365719087303323,
2023-08-15 12:56:46.802000,8.361445783132531,-0.5301204819277109,-5.301204819277109,-0.3973022685469037,9.044144696505212,-4.6817903126916,3.0,1.3322233322233323,750.6248958506915,2.3643144338907995,-0.44647747800244714,-0.6158149291999301,2569.9633699633696,-1.0,97.91235059760956,1.3365420594657975,
2023-08-15 12:56:46.810000,8.397590361445783,-0.5301204819277109,-5.289156626506024,-0.46842427958307786,9.134886572654812,-4.689147762109135,3.0,1.3322233322233323,750.6248958506915,2.6499621234193813,-0.6576539828681307,-0.6070741798263514,2586.080586080586,-1.0,97.91235059760956,1.3365117628629388,
2023-08-15 12:56:46.818000,8.361445783132531,-0.5180722891566265,-5.289156626506024,-0.43408951563458,9.056407112201104,-4.703862660944206,3.0,1.3322233322233323,750.6248958506915,2.6884214206631305,-0.6212924654740403,-0.7806071907231505,2566.300366300366,-1.0,97.91235059760956,1.336481020886428,
2023-08-15 12:56:46.825000,8.397590361445783,-0.5421686746987953,-5.301204819277109,-0.4537093807480073,9.036787247087675,-4.733292458614347,3.0,1.3322233322233323,750.6248958506915,2.8647514713594764,-0.8153371015675079,-0.5429753510867659,2513.5531135531132,-1.0,97.91235059760956,1.3364498357006775,
2023-08-15 12:56:46.833000,8.421686746987952,-0.5783132530120483,-5.337349397590362,-0.4193746167995095,9.049049662783569,-4.748007357449417,3.0,1.3322233322233323,750.6248958506915,2.304061534875591,-0.6696579453411812,-0.35242701474273114,2430.03663003663,-1.0,97.91235059760956,1.3364182095422052,
2023-08-15 12:56:46.841000,8.421686746987952,-0.5783132530120483,-5.349397590361446,-0.47332924586143466,9.112814224402207,-4.723482526057633,3.0,1.3322233322233323,750.6248958506915,2.2344851698618977,-0.6911019171376968,-0.45277081755142445,2320.14652014652,-1.0,97.91235059760956,1.3363861447507983,
2023-08-15 12:56:46.848000,8.421686746987952,-0.5542168674698795,-5.325301204819278,-0.48559166155732675,9.139791538933169,-4.784794604537094,3.0,1.3317793317793318,750.8751458576429,1.7573567973894297,-0.8813006235067881,-0.7694190315249694,2191.941391941392,-1.0,97.91235059760956,1.336353643927914,
2023-08-15 12:56:46.856000,8.421686746987952,-0.5783132530120483,-5.313253012048193,-0.4218270999386879,9.144696505211526,-4.723482526057633,3.0,1.3317793317793318,750.8751458576429,1.6947730318746008,-0.5069634636676192,-0.6531087931938689,2049.8168498168498,-1.0,97.91235059760956,1.3363207097963021,
2023-08-15 12:56:46.864000,8.44578313253012,-0.6144578313253012,-5.313253012048193,-0.43899448191293683,9.181483752299203,-4.664622930717351,3.0,1.3317793317793318,750.8751458576429,1.2829089213915281,-0.8054309189441177,-0.7528698793776585,1905.4945054945053,-1.0,97.91235059760956,1.3362873451868,
2023-08-15 12:56:46.871000,8.433734939759036,-0.6024096385542169,-5.325301204819278,-0.46842427958307786,9.132434089515634,-4.718577559779276,3.0,1.3317793317793318,750.8751458576429,1.3628576423285363,-0.3236408134724077,-0.8664996212341937,1761.172161172161,-1.0,97.91235059760956,1.3362535531838184,
2023-08-15 12:56:46.879000,8.409638554216867,-0.5903614457831325,-5.313253012048193,-0.4512568976088289,9.100551808706316,-4.708767627222563,3.0,1.3322233322233323,750.6248958506915,1.1520307674377954,-0.15080706252549397,-0.8112580851931708,1619.7802197802196,-1.0,97.91235059760956,1.3362193371316007,
2023-08-15 12:56:46.887000,8.409638554216867,-0.6024096385542169,-5.313253012048193,-0.48313917841814835,9.206008583690986,-4.706315144083384,3.0,1.3317793317793318,750.8751458576429,0.9111357147019412,-0.3474156517685452,-1.1538954606374923,1484.2490842490843,-1.0,97.91235059760956,1.3361847007892902,
2023-08-15 12:56:46.894000,8.433734939759036,-0.5903614457831325,-5.313253012048193,-0.45616186388718577,9.080931943592887,-4.657265481299816,3.0,1.3317793317793318,750.8751458576429,0.5497348639356696,-0.2695647106811954,-0.7600955655264847,1357.5091575091574,-1.0,97.91235059760956,1.336149648208794,
2023-08-15 12:56:46.902000,8.433734939759036,-0.6024096385542169,-5.27710843373494,-0.45861434702636417,9.112814224402207,-4.652360515021459,3.0,1.3313353313353316,751.1255627813906,0.3594196142415939,-0.32562204999708716,-0.7656896451255752,1242.4908424908424,-1.0,97.91235059760956,1.3361141835806023,
2023-08-15 12:56:46.910000,8.409638554216867,-0.5903614457831325,-5.27710843373494,-0.463519313304721,9.085836909871244,-4.6817903126916,3.0,1.3313353313353316,751.1255627813906,-0.028203484645417966,0.08915564361051173,-0.726298001281977,1145.7875457875457,-1.0,97.91235059760956,1.3360783112276877,
2023-08-15 12:56:46.917000,8.3855421686747,-0.5783132530120483,-5.253012048192772,-0.48068669527896996,9.147148988350704,-4.698957694665849,3.0,1.3313353313353316,751.1255627813906,-0.2910086824777127,-0.08146378416176263,-0.5201328593904782,1067.3992673992673,-1.0,97.91235059760956,1.3360420355875224,
2023-08-15 12:56:46.925000,8.397590361445783,-0.5783132530120483,-5.265060240963856,-0.45861434702636417,9.071122011036174,-4.6621704475781724,3.0,1.3313353313353316,751.1255627813906,0.07621933453761284,0.22213157741390302,-0.17574733407144072,1004.3956043956043,-1.0,97.91235059760956,1.3360053613525127,
2023-08-15 12:56:46.933000,8.3855421686747,-0.5903614457831325,-5.265060240963856,-0.48313917841814835,9.100551808706316,-4.6621704475781724,3.0,1.3304473304473305,751.6268980477223,-0.23285356331216253,0.4000932346599857,-0.35254355806771154,952.3809523809523,635.772705078125,94.37334997359957,1.335968293332211,
2023-08-15 12:56:46.940000,8.409638554216867,-0.5783132530120483,-5.240963855421687,-0.43654199877375843,9.117719190680564,-4.654812998160637,3.0,1.3308913308913308,751.3761467889908,-0.26723384418157353,0.42410115960608313,-0.4201386865567282,913.5531135531135,-1.0,94.37334997359957,1.335930836591605,
2023-08-15 12:56:46.948000,8.409638554216867,-0.5662650602409639,-5.265060240963856,-0.4880441446965052,9.0907418761496,-4.654812998160637,3.0,1.3308913308913308,751.3761467889908,-0.649146320144514,-0.08577588718606226,-0.12225394790513394,891.5750915750915,-1.0,94.37334997359957,1.3358929965043247,
2023-08-15 12:56:46.956000,8.409638554216867,-0.5662650602409639,-5.265060240963856,-0.4537093807480073,9.10790925812385,-4.6400980993255665,3.0,1.3308913308913308,751.3761467889908,-0.48225627877163163,-0.043121030242992804,0.0057106229240714,883.5164835164835,-1.0,94.37334997359957,1.3358547784840764,
2023-08-15 12:56:46.963000,8.433734939759036,-0.5783132530120483,-5.253012048192772,-0.41692213366033104,9.105456774984672,-4.684242795830778,3.0,1.3308913308913308,751.3761467889908,-0.5909912009789655,-0.10826874890740709,-0.12936309072897798,891.5750915750915,-1.0,94.37334997359957,1.3358161880128547,
2023-08-15 12:56:46.971000,8.409638554216867,-0.5783132530120483,-5.240963855421687,-0.43654199877375843,9.07602697731453,-4.652360515021459,3.0,1.3308913308913308,751.3761467889908,-0.5909912009789655,-0.10908455218227295,-0.12575024765456466,913.5531135531135,-1.0,94.37334997359957,1.3357772307852351,
2023-08-15 12:56:46.979000,8.3855421686747,-0.5783132530120483,-5.289156626506024,-0.46842427958307786,9.15205395462906,-4.684242795830778,3.0,1.3308913308913308,751.3761467889908,-0.5781714352310475,-0.001398519899773509,0.33669366587028743,948.7179487179486,-1.0,94.37334997359957,1.3357379125638886,
2023-08-15 12:56:46.986000,8.409638554216867,-0.5662650602409639,-5.265060240963856,-0.42918454935622313,9.085836909871244,-4.694052728387492,3.0,1.3308913308913308,751.3761467889908,-0.7916788065963513,-0.15476953557484935,-0.013052852397878852,995.6043956043956,-1.0,94.37334997359957,1.335698239193544,
2023-08-15 12:56:46.994000,8.397590361445783,-0.5542168674698795,-5.289156626506024,-0.43654199877375843,9.176578786020846,-4.74310239117106,3.0,1.3308913308913308,751.3761467889908,-0.8198822912417693,0.10896800885729212,0.14463026630149706,1050.5494505494505,-1.0,94.37334997359957,1.3356582168806996,
2023-08-15 12:56:47.002000,8.3855421686747,-0.5301204819277109,-5.301204819277109,-0.4414469650521152,9.078479460453709,-4.787247087676272,3.0,1.3304473304473305,751.6268980477223,-1.290600780840277,-0.14987471592564555,0.23786492628634717,1112.8205128205127,-1.0,94.37334997359957,1.335617852164551,
2023-08-15 12:56:47.009000,8.397590361445783,-0.5421686746987953,-5.313253012048193,-0.3850398528510116,9.15695892090742,-4.72838749233599,3.0,1.3304473304473305,751.6268980477223,-1.1946856243808648,0.09941145620884616,-0.11281393858166795,1178.021978021978,-1.0,94.37334997359957,1.335577151610734,
2023-08-15 12:56:47.017000,8.397590361445783,-0.5301204819277109,-5.313253012048193,-0.3384426732066217,9.142244022072347,-4.74310239117106,3.0,1.3304473304473305,751.6268980477223,-1.1007517044461266,-0.3382087290950418,0.13460754035312733,1246.8864468864467,-1.0,94.37334997359957,1.3355361217813744,
2023-08-15 12:56:47.025000,8.409638554216867,-0.5060240963855422,-5.337349397590362,-0.3825873697118332,9.088289393010422,-4.74310239117106,3.0,1.3304473304473305,751.6268980477223,-1.647106811957345,-0.6205932055241535,0.01503408892255741,1316.4835164835165,-1.0,94.37334997359957,1.3354947693637356,
2023-08-15 12:56:47.032000,8.409638554216867,-0.49397590361445787,-5.36144578313253,-0.4095646842427958,9.085836909871244,-4.772532188841201,3.0,1.3304473304473305,751.6268980477223,-1.7734397762368164,-0.2924072023774845,0.2020861255171601,1386.080586080586,-1.0,94.37334997359957,1.3354531010209316,
2023-08-15 12:56:47.040000,8.421686746987952,-0.43373493975903615,-5.337349397590362,-0.34334763948497854,9.120171673819742,-4.708767627222563,3.0,1.3304473304473305,751.6268980477223,-1.945690810558826,-0.17854437387098687,-0.13006235067886518,1452.014652014652,-1.0,94.37334997359957,1.335411123401414,
2023-08-15 12:56:47.048000,8.397590361445783,-0.43373493975903615,-5.36144578313253,-0.3139178418148375,9.036787247087675,-4.725935009196811,3.0,1.3304473304473305,751.6268980477223,-2.2999825185012526,-0.5567274634345319,0.1799428937707595,1508.4249084249084,-1.0,94.37334997359957,1.335368843275804,
2023-08-15 12:56:47.055000,8.409638554216867,-0.42168674698795183,-5.349397590361446,-0.25260576333537704,9.085836909871244,-4.711220110361741,3.0,1.3304473304473305,751.6268980477223,-2.6634811491171844,-0.627352718373056,-0.22679331041314602,1553.8461538461538,-1.0,94.37334997359957,1.3353262675244704,
2023-08-15 12:56:47.063000,8.397590361445783,-0.4096385542168675,-5.337349397590362,-0.3163703249540159,9.034334763948497,-4.777437155119558,3.0,1.3304473304473305,751.6268980477223,-2.3995105180350795,-0.30277955830079806,0.360818134141367,1586.8131868131868,-1.0,94.37334997359957,1.3352834031252185,
2023-08-15 12:56:47.071000,8.3855421686747,-0.4096385542168675,-5.313253012048193,-0.26241569589209074,9.06131207847946,-4.723482526057633,3.0,1.3304473304473305,751.6268980477223,-2.4722335528232624,-0.6369092710215019,0.30744129130004105,1609.5238095238094,-1.0,94.37334997359957,1.3352402571412132,
2023-08-15 12:56:47.078000,8.361445783132531,-0.42168674698795183,-5.325301204819278,-0.26241569589209074,9.06131207847946,-4.69650521152667,3.0,1.3304473304473305,751.6268980477223,-2.1915972262688665,-0.3150166074238102,0.29858399860148016,1626.3736263736262,-1.0,94.37334997359957,1.3351968367092104,
2023-08-15 12:56:47.086000,8.397590361445783,-0.4096385542168675,-5.27710843373494,-0.25260576333537704,9.068669527896995,-4.691600245248313,3.0,1.3295593295593295,752.1289029888128,-2.4181574500320484,0.09638132975933747,0.30476079482547663,1632.2344322344322,-1.0,94.37334997359957,1.3351531488894472,
2023-08-15 12:56:47.094000,8.361445783132531,-0.4096385542168675,-5.27710843373494,-0.3507050889025138,9.058859595340282,-4.674432863274065,3.0,1.3295593295593295,752.1289029888128,-1.7888234951343163,0.015616805547461593,0.5066138336926747,1630.7692307692307,-1.0,94.37334997359957,1.3351092007928245,
2023-08-15 12:56:47.101000,8.373493975903616,-0.39759036144578314,-5.289156626506024,-0.27713059472716123,8.997547516860822,-4.698957694665849,3.0,1.3300033300033303,751.8778167250875,-2.077151681137463,0.544373870986539,0.6301497581726012,1616.8498168498168,-1.0,94.37334997359957,1.3350649994749815,
2023-08-15 12:56:47.109000,8.349397590361447,-0.4096385542168675,-5.301204819277109,-0.23789086450030655,9.041692213366032,-4.630288166768853,3.0,1.3300033300033303,751.8778167250875,-1.4980478993065671,-0.2566284016082983,0.43202610570479566,1592.6739926739926,-1.0,94.37334997359957,1.3350205517866514,
2023-08-15 12:56:47.117000,8.337349397590362,-0.44578313253012053,-5.265060240963856,-0.25015328019619865,8.990190067443287,-4.664622930717351,3.0,1.3300033300033303,751.8778167250875,-1.3344210710331568,-0.6426198939455751,0.6472816269448172,1558.974358974359,-1.0,94.37334997359957,1.3349758645537104,
2023-08-15 12:56:47.124000,8.361445783132531,-0.43373493975903615,-5.228915662650603,-0.3016554261189454,9.078479460453709,-4.591048436541999,3.0,1.3300033300033303,751.8778167250875,-1.2008624206048613,-0.5187343394907064,0.5996154070275627,1521.6117216117216,-1.0,94.37334997359957,1.3349309447156166,
2023-08-15 12:56:47.132000,8.361445783132531,-0.42168674698795183,-5.228915662650603,-0.3237277743715512,9.068669527896995,-4.5738810545677495,3.0,1.3300033300033303,751.8778167250875,-0.6970456267117315,-0.16758930132276742,0.9354932696229824,1480.5860805860805,-1.0,94.37334997359957,1.3348857991561802,
2023-08-15 12:56:47.140000,8.349397590361447,-0.42168674698795183,-5.240963855421687,-0.3139178418148375,8.985285101164928,-4.627835683629675,3.0,1.3300033300033303,751.8778167250875,-1.0329234893071513,0.07668550783753793,1.027096323058097,1438.095238095238,-1.0,94.37334997359957,1.3348404345666665,
2023-08-15 12:56:47.147000,8.325301204819278,-0.44578313253012053,-5.240963855421687,-0.4095646842427958,9.024524831391783,-4.657265481299816,3.0,1.3300033300033303,751.8778167250875,-0.788648680146846,0.030883981119980676,1.3019054833634405,1394.8717948717947,-1.0,94.37334997359957,1.3347948575865178,
2023-08-15 12:56:47.155000,8.349397590361447,-0.45783132530120485,-5.289156626506024,-0.35561005518087063,9.007357449417535,-4.63519313304721,3.0,1.3300033300033303,751.8778167250875,-0.6817784511392124,-0.3355282326204773,1.225569605500845,1353.113553113553,-1.0,94.37334997359957,1.3347490747957638,
2023-08-15 12:56:47.162000,8.337349397590362,-0.44578313253012053,-5.265060240963856,-0.3703249540159411,8.958307786633966,-4.725935009196811,3.0,1.3295593295593295,752.1289029888128,-0.773381504574327,-0.3660625837655155,1.210302429928326,1315.018315018315,-1.0,94.37334997359957,1.3347030927084778,
2023-08-15 12:56:47.170000,8.325301204819278,-0.45783132530120485,-5.289156626506024,-0.32127529123237275,9.034334763948497,-4.740649908031882,3.0,1.3295593295593295,752.1289029888128,-0.5596410465590598,-0.5645358662082636,1.4851115902336693,1279.8534798534797,-1.0,94.37334997359957,1.3346569176180558,
2023-08-15 12:56:47.178000,8.349397590361447,-0.46987951807228917,-5.27710843373494,-0.34825260576333533,9.019619865113427,-4.684242795830778,3.0,1.3295593295593295,752.1289029888128,-0.10162577938348727,-0.5798030417807827,1.240836781073364,1249.8168498168498,-1.0,94.37334997359957,1.334610555571086,
2023-08-15 12:56:47.185000,8.337349397590362,-0.45783132530120485,-5.325301204819278,-0.30901287553648066,9.044144696505212,-4.745554874310239,3.0,1.3295593295593295,752.1289029888128,-0.3459005885437926,-0.7630091486510117,1.4545772390886313,1221.9780219780218,-1.0,94.37334997359957,1.3345640126401217,
2023-08-15 12:56:47.193000,8.349397590361447,-0.45783132530120485,-5.301204819277109,-0.34334763948497854,9.049049662783569,-4.725935009196811,3.0,1.3295593295593295,752.1289029888128,-0.3611677641163117,-0.6561389196433781,1.1492337276382496,1198.5347985347985,-1.0,94.37334997359957,1.3345172948996606,
2023-08-15 12:56:47.201000,8.373493975903616,-0.45783132530120485,-5.313253012048193,-0.25260576333537704,9.0907418761496,-4.676885346413243,3.0,1.3295593295593295,752.1289029888128,-0.04055707709341093,-0.5645358662082636,1.393508536798555,1178.7545787545787,-1.0,94.37334997359957,1.334470408275628,
2023-08-15 12:56:47.208000,8.373493975903616,-0.44578313253012053,-5.36144578313253,-0.3678724708767627,9.051502145922747,-4.72838749233599,3.0,1.3291153291153293,752.3801570068481,0.08158032748674174,-0.6866732707884162,1.6530505215313793,1166.3003663003662,-1.0,94.37334997359957,1.3344233585451155,
2023-08-15 12:56:47.216000,8.361445783132531,-0.44578313253012053,-5.325301204819278,-0.31882280809319435,9.078479460453709,-4.752912323727774,3.0,1.3295593295593295,752.1289029888128,0.06631315191422266,-0.8088106753685689,1.4545772390886313,1158.974358974359,-1.0,94.37334997359957,1.3343761511878125,
2023-08-15 12:56:47.224000,8.361445783132531,-0.45783132530120485,-5.325301204819278,-0.3384426732066217,9.073574494175352,-4.713672593500919,3.0,1.3291153291153293,752.3801570068481,0.1121146786317799,-0.5950702173533018,1.6377833459588602,1156.0439560439559,-1.0,94.37334997359957,1.3343287915151716,
2023-08-15 12:56:47.231000,8.397590361445783,-0.46987951807228917,-5.337349397590362,-0.3261802575107296,9.125076640098099,-4.765174739423666,3.0,1.3291153291153293,752.3801570068481,-0.17796165724608268,-0.6866732707884162,1.3629741856535167,1156.7765567765566,-1.0,94.37334997359957,1.3342812846828362,
2023-08-15 12:56:47.239000,8.373493975903616,-0.4819277108433735,-5.373493975903615,-0.3359901900674433,9.083384426732065,-4.689147762109135,3.0,1.3282273282273283,752.8831689787731,-0.05582425266593002,-0.5798030417807827,1.2561039566458831,1157.5091575091574,-1.0,94.37334997359957,1.334233635533659,
2023-08-15 12:56:47.247000,8.373493975903616,-0.49397590361445787,-5.349397590361446,-0.34825260576333533,9.10790925812385,-4.721030042918454,3.0,1.328671328671329,752.6315789473683,-0.05582425266593002,-0.5798030417807827,1.2561039566458831,1160.4395604395604,-1.0,94.37334997359957,1.3341858487184077,
2023-08-15 12:56:47.254000,8.409638554216867,-0.4819277108433735,-5.313253012048193,-0.3359901900674433,9.139791538933169,-4.718577559779276,3.0,1.328671328671329,752.6315789473683,0.1121146786317799,-0.3507954081929964,1.0881650253481734,1164.8351648351647,-1.0,94.37334997359957,1.334137928625718,
2023-08-15 12:56:47.262000,8.409638554216867,-0.4819277108433735,-5.337349397590362,-0.3507050889025138,9.073574494175352,-4.750459840588595,3.0,1.328671328671329,752.6315789473683,0.37165666336460434,-0.0759862478876529,0.9049589184779443,1170.6959706959706,-1.0,94.37334997359957,1.334089879407331,
2023-08-15 12:56:47.270000,8.421686746987952,-0.46987951807228917,-5.337349397590362,-0.31882280809319435,9.0907418761496,-4.72838749233599,3.0,1.3291153291153293,752.3801570068481,0.4785268923722379,0.09195268341005701,0.7064856360351962,1173.6263736263736,-1.0,94.37334997359957,1.3340417048544786,
2023-08-15 12:56:47.277000,8.397590361445783,-0.49397590361445787,-5.301204819277109,-0.3408951563458001,9.073574494175352,-4.676885346413243,3.0,1.3291153291153293,752.3801570068481,0.23425208321193258,-0.3813297593380346,0.5385467047374862,1176.5567765567764,-1.0,94.37334997359957,1.3339934085727059,
2023-08-15 12:56:47.285000,8.3855421686747,-0.5060240963855422,-5.289156626506024,-0.41201716738197425,9.04659717964439,-4.723482526057633,3.0,1.328671328671329,752.6315789473683,0.3869238389371234,-0.1523221257502483,0.7522871627527534,1178.021978021978,-1.0,94.37334997359957,1.3339449941574548,
2023-08-15 12:56:47.293000,8.349397590361447,-0.5060240963855422,-5.301204819277109,-0.3629675045984059,9.01471489883507,-4.733292458614347,3.0,1.328671328671329,752.6315789473683,0.37165666336460434,0.061418332265018846,0.8744245673329061,1182.4175824175823,-1.0,94.37334997359957,1.3338964649129064,
2023-08-15 12:56:47.300000,8.337349397590362,-0.4819277108433735,-5.313253012048193,-0.3850398528510116,9.049049662783569,-4.667075413856529,3.0,1.328671328671329,752.6315789473683,0.31058796107452796,0.1835557368451715,0.8133558650428298,1188.278388278388,-1.0,94.37334997359957,1.3338478238379678,
2023-08-15 12:56:47.308000,8.349397590361447,-0.4819277108433735,-5.301204819277109,-0.3163703249540159,9.0,-4.679337829552422,3.0,1.328671328671329,752.6315789473683,0.05104597634170357,0.45836489715051504,0.7522871627527534,1195.6043956043954,-1.0,94.37334997359957,1.3337990737721976,
2023-08-15 12:56:47.316000,8.325301204819278,-0.49397590361445787,-5.313253012048193,-0.40220723482526055,8.975475168608215,-4.645003065603924,3.0,1.328671328671329,752.6315789473683,0.5243284190897951,0.33622749257036233,1.027096323058097,1205.8608058608058,-1.0,94.37334997359957,1.3337502174037683,
2023-08-15 12:56:47.323000,8.349397590361447,-0.5060240963855422,-5.313253012048193,-0.3678724708767627,9.024524831391783,-4.72838749233599,3.0,1.328671328671329,752.6315789473683,0.5243284190897951,0.6110366528757059,0.8133558650428298,1216.8498168498168,-1.0,94.37334997359957,1.3337012572782485,
2023-08-15 12:56:47.331000,8.361445783132531,-0.5180722891566265,-5.289156626506024,-0.34334763948497854,9.039239730226853,-4.694052728387492,3.0,1.328671328671329,752.6315789473683,0.6311986480974288,0.09195268341005701,0.8286230406153489,1227.8388278388277,-1.0,94.37334997359957,1.3336521958081897,
2023-08-15 12:56:47.339000,8.3855421686747,-0.49397590361445787,-5.289156626506024,-0.40465971796443895,9.088289393010422,-4.708767627222563,3.0,1.3282273282273283,752.8831689787731,0.9976108618378867,-0.2897267059029201,0.6454169337451199,1241.7582417582416,-1.0,94.37334997359957,1.333603035283506,
2023-08-15 12:56:47.346000,8.409638554216867,-0.4819277108433735,-5.301204819277109,-0.29675045984058857,9.105456774984672,-4.6817903126916,3.0,1.3282273282273283,752.8831689787731,0.5853971213798714,-0.2591923547578819,0.7828215138977916,1262.2710622710622,-1.0,94.37334997359957,1.3335537777333732,
2023-08-15 12:56:47.354000,8.421686746987952,-0.46987951807228917,-5.289156626506024,-0.328632740649908,9.105456774984672,-4.691600245248313,3.0,1.3282273282273283,752.8831689787731,0.7228017015325432,-0.5492686906357445,1.210302429928326,1293.7728937728937,-1.0,94.37334997359957,1.3335044249163075,
2023-08-15 12:56:47.362000,8.3855421686747,-0.46987951807228917,-5.313253012048193,-0.3825873697118332,9.105456774984672,-4.748007357449417,3.0,1.3282273282273283,752.8831689787731,0.7228017015325432,-0.1523221257502483,1.225569605500845,1338.4615384615383,-1.0,94.37334997359957,1.333454978469971,
2023-08-15 12:56:47.369000,8.3855421686747,-0.4819277108433735,-5.313253012048193,-0.3359901900674433,9.073574494175352,-4.716125076640098,3.0,1.3282273282273283,752.8831689787731,0.6311986480974288,-0.3660625837655155,1.240836781073364,1402.197802197802,-1.0,94.37334997359957,1.3334054399227824,
2023-08-15 12:56:47.377000,8.3855421686747,-0.4819277108433735,-5.325301204819278,-0.3507050889025138,9.073574494175352,-4.787247087676272,3.0,1.3282273282273283,752.8831689787731,0.7075345259600242,0.015616805547461593,1.2561039566458831,1483.5164835164835,-1.0,94.37334997359957,1.3333558107060814,
2023-08-15 12:56:47.385000,8.373493975903616,-0.49397590361445787,-5.349397590361446,-0.38994481912936846,9.110361741263029,-4.777437155119558,3.0,1.3282273282273283,752.8831689787731,0.3869238389371234,-0.41186411048307275,1.0728978497756543,1586.080586080586,-1.0,94.37334997359957,1.3333060923055784,
2023-08-15 12:56:47.392000,8.3855421686747,-0.5180722891566265,-5.397590361445784,-0.38994481912936846,9.051502145922747,-4.755364806866953,3.0,1.3273393273393275,753.3868539889613,0.4479925412271997,-0.3507954081929964,0.843890216187868,1704.7619047619046,-1.0,94.37334997359957,1.333256286115438,
2023-08-15 12:56:47.400000,8.397590361445783,-0.49397590361445787,-5.36144578313253,-0.3654199877375843,9.085836909871244,-4.792152053954629,3.0,1.3273393273393275,753.3868539889613,-0.007458772798787419,-0.2617563079074638,0.3171143872734683,1841.7582417582416,-1.0,94.37334997359957,1.3332063933032916,
2023-08-15 12:56:47.408000,8.373493975903616,-0.5180722891566265,-5.36144578313253,-0.3973022685469037,9.004904966278357,-4.779889638258736,3.0,1.327783327783328,753.1349272696873,0.0597867257152854,0.01538371889749992,0.4716508361983573,1989.7435897435896,-1.0,94.37334997359957,1.333156414889009,
2023-08-15 12:56:47.415000,8.373493975903616,-0.49397590361445787,-5.397590361445784,-0.3408951563458001,9.04659717964439,-4.782342121397915,3.0,1.327783327783328,753.1349272696873,-0.424217702931064,-0.1505739758755323,0.12306975118000196,2140.6593406593406,-1.0,94.37334997359957,1.3331063517478101,
2023-08-15 12:56:47.423000,8.325301204819278,-0.5060240963855422,-5.373493975903615,-0.4071122011036174,9.058859595340282,-4.770079705702023,3.0,1.327783327783328,753.1349272696873,-0.445312044752637,0.24742147893479485,0.3555736845172185,2281.3186813186812,-1.0,94.37334997359957,1.3330562046658505,
2023-08-15 12:56:47.431000,8.337349397590362,-0.5060240963855422,-5.385542168674699,-0.4463519313304721,9.041692213366032,-4.787247087676272,3.0,1.327783327783328,753.1349272696873,-0.6952974768370138,-0.19730784919293798,0.4489248878270499,2402.9304029304026,-1.0,94.37334997359957,1.3330059742253701,
2023-08-15 12:56:47.438000,8.325301204819278,-0.5180722891566265,-5.373493975903615,-0.38749233599019006,9.056407112201104,-4.794604537093807,3.0,1.327783327783328,753.1349272696873,-0.8060136355690236,0.0791329176621407,0.23565060311170738,2498.168498168498,-1.0,94.37334997359957,1.3329556608384652,
2023-08-15 12:56:47.446000,8.337349397590362,-0.5060240963855422,-5.397590361445784,-0.3384426732066217,9.051502145922747,-4.770079705702023,3.0,1.327783327783328,753.1349272696873,-0.5013693840685269,0.36909271021502243,0.5153545830662547,2558.974358974359,-1.0,94.37334997359957,1.3329052649084991,
2023-08-15 12:56:47.454000,8.325301204819278,-0.5180722891566265,-5.36144578313253,-0.41692213366033104,8.973022685469036,-4.730839975475169,3.0,1.327783327783328,753.1349272696873,-0.7962239962706126,-0.012936309072897147,0.5030009906182622,2584.6153846153843,-1.0,94.37334997359957,1.3328547869811818,
2023-08-15 12:56:47.461000,8.325301204819278,-0.4819277108433735,-5.325301204819278,-0.3531575720416922,9.01471489883507,-4.792152053954629,3.0,1.327783327783328,753.1349272696873,-0.6584697861429982,0.17364955422178133,0.275158790280286,2572.8937728937726,-1.0,94.37334997359957,1.3328042277367427,
2023-08-15 12:56:47.469000,8.337349397590362,-0.4819277108433735,-5.385542168674699,-0.3629675045984059,9.068669527896995,-4.757817290006131,3.0,1.327783327783328,753.1349272696873,-0.6596352193928083,0.18973253306916799,0.7077676126099889,2525.274725274725,-1.0,94.37334997359957,1.3327535878547092,
2023-08-15 12:56:47.477000,8.361445783132531,-0.46987951807228917,-5.349397590361446,-0.37768240343347637,9.103004291845494,-4.772532188841201,3.0,1.327783327783328,753.1349272696873,-0.9367752461977739,0.11491171843132691,0.797272886195444,2446.8864468864467,-1.0,94.37334997359957,1.3327028680279738,
2023-08-15 12:56:47.484000,8.349397590361447,-0.46987951807228917,-5.337349397590362,-0.32127529123237275,9.031882280809318,-4.738197424892704,3.0,1.3273393273393275,753.3868539889613,-0.7535691393275448,0.09964454285880783,0.9041431152030776,2341.391941391941,-1.0,94.37334997359957,1.3326520689768822,
2023-08-15 12:56:47.492000,8.373493975903616,-0.49397590361445787,-5.313253012048193,-0.29675045984058857,9.036787247087675,-4.748007357449417,3.0,1.3273393273393275,753.3868539889613,-1.0131111240603692,-0.09882873958394024,0.5682652526076577,2219.78021978022,-1.0,94.37334997359957,1.3326011914527698,
2023-08-15 12:56:47.500000,8.397590361445783,-0.4819277108433735,-5.313253012048193,-0.2820355610055181,9.080931943592887,-4.730839975475169,3.0,1.3273393273393275,753.3868539889613,-0.8146378416176211,0.09964454285880783,0.6598683060427722,2084.2490842490843,-1.0,94.37334997359957,1.3325502360710297,
2023-08-15 12:56:47.507000,8.397590361445783,-0.46987951807228917,-5.325301204819278,-0.3163703249540159,9.044144696505212,-4.664622930717351,3.0,1.3273393273393275,753.3868539889613,-1.0894470019229647,0.28285064972903684,0.6446011304702531,1939.9267399267399,-1.0,94.37334997359957,1.3324992033346268,
2023-08-15 12:56:47.515000,8.373493975903616,-0.45783132530120485,-5.325301204819278,-0.3629675045984059,9.088289393010422,-4.74310239117106,3.0,1.3273393273393275,753.3868539889613,-0.8909737194802165,-0.11409591515645932,0.5377309014626196,1794.139194139194,-1.0,94.37334997359957,1.3324480939341148,
2023-08-15 12:56:47.523000,8.3855421686747,-0.4819277108433735,-5.349397590361446,-0.40465971796443895,9.112814224402207,-4.679337829552422,3.0,1.3273393273393275,753.3868539889613,-0.8909737194802165,-0.11409591515645932,0.5377309014626196,1652.0146520146518,-1.0,94.37334997359957,1.3323969086002898,
2023-08-15 12:56:47.530000,8.3855421686747,-0.4819277108433735,-5.36144578313253,-0.3163703249540159,9.095646842427957,-4.730839975475169,3.0,1.326895326895327,753.6389493056716,-0.9978439484878502,-0.053027212866383,0.5529980770351386,1515.018315018315,-1.0,94.37334997359957,1.3323456479881597,
2023-08-15 12:56:47.538000,8.409638554216867,-0.4819277108433735,-5.325301204819278,-0.328632740649908,9.147148988350704,-4.748007357449417,3.0,1.3273393273393275,753.3868539889613,-0.6619660858924303,-0.19043179301905475,0.3850591457374287,1385.3479853479853,-1.0,94.37334997359957,1.3322943126881535,
2023-08-15 12:56:47.545000,8.397590361445783,-0.46987951807228917,-5.325301204819278,-0.3261802575107296,9.095646842427957,-4.740649908031882,3.0,1.326007326007326,754.1436464088398,-0.7077676126099876,0.16071324514888416,0.33925761901987145,1265.2014652014652,-1.0,94.37334997359957,1.3322429033645717,
2023-08-15 12:56:47.553000,8.409638554216867,-0.49397590361445787,-5.337349397590362,-0.34580012262415694,9.098099325567135,-4.69650521152667,3.0,1.3264513264513267,753.8912133891213,-0.7688363149000639,0.09964454285880783,0.3239904434473524,1153.8461538461538,-1.0,94.37334997359957,1.332191420755018,
2023-08-15 12:56:47.561000,8.409638554216867,-0.5060240963855422,-5.289156626506024,-0.37768240343347637,9.06131207847946,-4.698957694665849,3.0,1.3264513264513267,753.8912133891213,-1.0131111240603692,0.511858283316823,0.17131868772216155,1057.8754578754579,-1.0,94.37334997359957,1.3321398654463406,
2023-08-15 12:56:47.568000,8.3855421686747,-0.46987951807228917,-5.325301204819278,-0.34825260576333533,9.083384426732065,-4.72838749233599,3.0,1.326895326895327,753.6389493056716,-0.37188975001456775,0.496591107744304,0.17131868772216155,977.2893772893772,-1.0,94.37334997359957,1.3320882380425105,
2023-08-15 12:56:47.576000,8.373493975903616,-0.45783132530120485,-5.337349397590362,-0.3825873697118332,9.04659717964439,-4.708767627222563,3.0,1.3264513264513267,753.8912133891213,-0.17341646757181964,0.7408659169046093,0.26292174115727607,915.018315018315,-1.0,94.37334997359957,1.3320365393317335,
2023-08-15 12:56:47.584000,8.3855421686747,-0.4819277108433735,-5.289156626506024,-0.2869405272838749,9.066217044757817,-4.703862660944206,3.0,1.3264513264513267,753.8912133891213,-0.6314317347473921,0.16071324514888416,0.35452479459239056,869.5970695970695,643.4326171875,93.2498577120091,1.3319847701656782,
2023-08-15 12:56:47.591000,8.361445783132531,-0.46987951807228917,-5.313253012048193,-0.30656039239730226,9.080931943592887,-4.691600245248313,3.0,1.3264513264513267,753.8912133891213,-0.21921799428937688,0.4660567565992658,0.04918128314200888,839.5604395604395,-1.0,93.2498577120091,1.3319329313065855,
2023-08-15 12:56:47.599000,8.349397590361447,-0.49397590361445787,-5.301204819277109,-0.3114653586756591,9.022072348252605,-4.664622930717351,3.0,1.3264513264513267,753.8912133891213,-0.46349280344968224,0.34391935201911317,-0.027154594720586532,827.106227106227,-1.0,93.2498577120091,1.331881023571709,
2023-08-15 12:56:47.607000,8.349397590361447,-0.45783132530120485,-5.325301204819278,-0.3531575720416922,9.009809932556713,-4.713672593500919,3.0,1.3264513264513267,753.8912133891213,-0.24975234543441507,0.14544606957636508,0.17131868772216155,830.7692307692307,-1.0,93.2498577120091,1.331829047838496,
2023-08-15 12:56:47.614000,8.349397590361447,-0.46987951807228917,-5.325301204819278,-0.34825260576333533,9.058859595340282,-4.703862660944206,3.0,1.3264513264513267,753.8912133891213,0.11665986830604294,0.17598042072140324,0.04918128314200888,852.7472527472527,-1.0,93.2498577120091,1.331777005049324,
2023-08-15 12:56:47.622000,8.325301204819278,-0.44578313253012053,-5.337349397590362,-0.34334763948497854,8.960760269773145,-4.789699570815451,3.0,1.3264513264513267,753.8912133891213,-0.21921799428937688,0.20651477186644143,0.4919293747450623,885.7142857142857,-1.0,93.2498577120091,1.3317248962158408,
2023-08-15 12:56:47.630000,8.301204819277109,-0.46987951807228917,-5.325301204819278,-0.3605150214592274,9.009809932556713,-4.733292458614347,3.0,1.326007326007326,754.1436464088398,-0.15814929199930056,0.05384301614125059,0.7667385350504058,932.6007326007325,-1.0,93.2498577120091,1.3316727224229805,
2023-08-15 12:56:47.637000,8.301204819277109,-0.46987951807228917,-5.325301204819278,-0.41692213366033104,9.007357449417535,-4.784794604537094,3.0,1.326007326007326,754.1436464088398,-0.1276149408542624,-0.09882873958394024,0.4003263213099478,986.8131868131868,-1.0,93.2498577120091,1.3316204846834097,
2023-08-15 12:56:47.645000,8.361445783132531,-0.49397590361445787,-5.349397590361446,-0.4095646842427958,9.022072348252605,-4.794604537093807,3.0,1.326007326007326,754.1436464088398,0.13192704387856202,0.038575840568731506,0.5224637258901005,1052.014652014652,-1.0,93.2498577120091,1.33156818405794,
2023-08-15 12:56:47.653000,8.361445783132531,-0.4819277108433735,-5.349397590361446,-0.3654199877375843,9.112814224402207,-4.752912323727774,3.0,1.326007326007326,754.1436464088398,-0.18868364314433872,0.20651477186644143,0.4003263213099478,1122.3443223443223,-1.0,93.2498577120091,1.3315158216368643,
2023-08-15 12:56:47.660000,8.3855421686747,-0.4819277108433735,-5.373493975903615,-0.34580012262415694,9.13733905579399,-4.738197424892704,3.0,1.326007326007326,754.1436464088398,-0.08181341413670515,0.130178894003846,0.1407843365771234,1197.8021978021977,-1.0,93.2498577120091,1.3314633985525415,
2023-08-15 12:56:47.668000,8.409638554216867,-0.45783132530120485,-5.385542168674699,-0.31882280809319435,9.176578786020846,-4.757817290006131,3.0,1.326007326007326,754.1436464088398,-0.1276149408542624,0.11491171843132691,0.09498280985956613,1273.9926739926739,-1.0,93.2498577120091,1.3314109159706375,
2023-08-15 12:56:47.676000,8.397590361445783,-0.46987951807228917,-5.349397590361446,-0.39239730226854685,9.063764561618639,-4.784794604537094,3.0,1.3255633255633252,754.396248534584,-0.35662257444204865,0.26758347415651773,0.09498280985956613,1346.5201465201465,-1.0,93.2498577120091,1.3313583749634783,
2023-08-15 12:56:47.683000,8.373493975903616,-0.4819277108433735,-5.36144578313253,-0.34580012262415694,9.041692213366032,-4.72838749233599,3.0,1.3255633255633252,754.396248534584,-0.2955538721519723,0.4202552298817086,0.4919293747450623,1414.6520146520145,-1.0,93.2498577120091,1.3313057765107843,
2023-08-15 12:56:47.691000,8.361445783132531,-0.4819277108433735,-5.337349397590362,-0.3605150214592274,9.024524831391783,-4.713672593500919,3.0,1.326007326007326,754.1436464088398,-0.4373870986539245,0.5941378707534534,0.22993998018763553,1475.4578754578754,-1.0,93.2498577120091,1.3312531216173331,
2023-08-15 12:56:47.699000,8.337349397590362,-0.45783132530120485,-5.337349397590362,-0.3359901900674433,9.017167381974248,-4.706315144083384,3.0,1.325119325119325,754.6490199363378,-0.26012470135773036,0.7570654390769769,0.2929899190023896,1528.937728937729,-1.0,93.2498577120091,1.3312004114411022,
2023-08-15 12:56:47.706000,8.349397590361447,-0.46987951807228917,-5.337349397590362,-0.29429797670141017,9.039239730226853,-4.74310239117106,3.0,1.325119325119325,754.6490199363378,-0.1604801584989225,1.0866499621234194,0.27912126332964315,1572.161172161172,-1.0,93.2498577120091,1.3311476471656882,
2023-08-15 12:56:47.714000,8.349397590361447,-0.46987951807228917,-5.325301204819278,-0.34825260576333533,9.0,-4.738197424892704,3.0,1.3255633255633252,754.396248534584,-0.15395373229998177,0.5883107045043994,0.09801293630907265,1606.5934065934066,-1.0,93.2498577120091,1.331094829927189,
2023-08-15 12:56:47.722000,8.361445783132531,-0.44578313253012053,-5.325301204819278,-0.30656039239730226,9.078479460453709,-4.701410177805028,3.0,1.3255633255633252,754.396248534584,0.1906648796690164,0.7694190315249698,-0.17003671114736932,1630.03663003663,-1.0,93.2498577120091,1.3310419608041049,
2023-08-15 12:56:47.729000,8.349397590361447,-0.44578313253012053,-5.313253012048193,-0.3408951563458001,9.022072348252605,-4.645003065603924,3.0,1.3255633255633252,754.396248534584,0.23961307616106145,0.5517161004603456,-0.11631023833109913,1640.2930402930401,-1.0,93.2498577120091,1.330989040998475,
2023-08-15 12:56:47.737000,8.349397590361447,-0.45783132530120485,-5.313253012048193,-0.3261802575107296,9.017167381974248,-4.605763335377069,3.0,1.3255633255633252,754.396248534584,0.30930598449973706,0.6856243808635852,0.042538313618087756,1640.2930402930401,-1.0,93.2498577120091,1.3309360716875862,
2023-08-15 12:56:47.745000,8.361445783132531,-0.45783132530120485,-5.253012048192772,-0.3261802575107296,9.039239730226853,-4.6695278969957075,3.0,1.3255633255633252,754.396248534584,0.7892313967717502,0.7114969990093812,0.13728803682769092,1629.3040293040292,-1.0,93.2498577120091,1.3308830538968994,
2023-08-15 12:56:47.752000,8.373493975903616,-0.43373493975903615,-5.27710843373494,-0.29429797670141017,9.073574494175352,-4.676885346413243,3.0,1.3255633255633252,754.396248534584,0.5963521939280927,1.0424800419555973,-0.056640055940796734,1608.7912087912086,-1.0,93.2498577120091,1.330829988650028,
2023-08-15 12:56:47.760000,8.361445783132531,-0.44578313253012053,-5.313253012048193,-0.34580012262415694,9.07602697731453,-4.698957694665849,3.0,1.3255633255633252,754.396248534584,0.8783870403822619,0.40428879435930276,0.3286521764465941,1578.7545787545787,-1.0,93.2498577120091,1.3307768769698338,
2023-08-15 12:56:47.768000,8.349397590361447,-0.43373493975903615,-5.301204819277109,-0.3041079092581238,8.995095033721643,-4.684242795830778,3.0,1.3255633255633252,754.396248534584,1.1149699900938181,0.6716391818658588,0.2549967950585631,1539.9267399267399,-1.0,93.2498577120091,1.3307237200187827,
2023-08-15 12:56:47.775000,8.337349397590362,-0.46987951807228917,-5.325301204819278,-0.3629675045984059,9.041692213366032,-4.69650521152667,3.0,1.3255633255633252,754.396248534584,1.0122953207855017,0.7707010080997607,0.6405221140959148,1498.168498168498,-1.0,93.2498577120091,1.3306705190807513,
2023-08-15 12:56:47.783000,8.337349397590362,-0.46987951807228917,-5.301204819277109,-0.3973022685469037,9.053954629061925,-4.718577559779276,3.0,1.3255633255633252,754.396248534584,0.9922498688887595,0.7769943476487381,0.21409008799021012,1450.5494505494505,-1.0,93.2498577120091,1.3306172754158732,
2023-08-15 12:56:47.791000,8.325301204819278,-0.49397590361445787,-5.313253012048193,-0.4414469650521152,9.058859595340282,-4.716125076640098,3.0,1.325119325119325,754.6490199363378,1.3393158906823606,0.44647747800244714,0.005943709574033941,1405.128205128205,-1.0,93.2498577120091,1.3305639902652124,
2023-08-15 12:56:47.798000,8.3855421686747,-0.5060240963855422,-5.36144578313253,-0.3139178418148375,9.083384426732065,-4.721030042918454,3.0,1.325119325119325,754.6490199363378,1.3466581201561671,0.4407668550783757,-4.6617329992464763E-4,1360.4395604395604,-1.0,93.2498577120091,1.3305106647067277,
2023-08-15 12:56:47.806000,8.397590361445783,-0.49397590361445787,-5.325301204819278,-0.33108522378908645,9.147148988350704,-4.735744941753525,3.0,1.325119325119325,754.6490199363378,1.2640289027445961,0.5273585455393038,-0.06654623856418693,1317.9487179487178,-1.0,93.2498577120091,1.3304572996393074,
2023-08-15 12:56:47.814000,8.397590361445783,-0.46987951807228917,-5.337349397590362,-0.32127529123237275,9.154506437768239,-4.738197424892704,3.0,1.325119325119325,754.6490199363378,1.1962006876056175,0.36850999359011655,-0.1336751937532776,1280.5860805860805,-1.0,93.2498577120091,1.3304038960651907,
2023-08-15 12:56:47.821000,8.397590361445783,-0.5060240963855422,-5.313253012048193,-0.32127529123237275,9.083384426732065,-4.77498467198038,3.0,1.325119325119325,754.6490199363378,1.3602936891789528,0.14812656605092953,0.08973836023541765,1248.3516483516482,-1.0,93.2498577120091,1.33035045507508,
2023-08-15 12:56:47.829000,8.3855421686747,-0.5060240963855422,-5.36144578313253,-0.3507050889025138,9.093194359288779,-4.72838749233599,3.0,1.325119325119325,754.6490199363378,1.050404988054308,0.6318979080473173,0.08099761086183756,1224.1758241758241,-1.0,93.2498577120091,1.3302969777062454,
2023-08-15 12:56:47.837000,8.373493975903616,-0.5060240963855422,-5.36144578313253,-0.38749233599019006,9.083384426732065,-4.767627222562845,3.0,1.325119325119325,754.6490199363378,1.1719596760095565,0.27073014393100553,-0.2924072023774841,1205.128205128205,-1.0,93.2498577120091,1.3302434649503965,
2023-08-15 12:56:47.844000,8.373493975903616,-0.5180722891566265,-5.36144578313253,-0.37522992029429797,9.063764561618639,-4.770079705702023,3.0,1.325119325119325,754.6490199363378,0.7084668725598743,0.21863527766447097,-0.20360118874191444,1193.4065934065934,-1.0,93.2498577120091,1.3301899177620486,
2023-08-15 12:56:47.852000,8.3855421686747,-0.5060240963855422,-5.373493975903615,-0.40220723482526055,9.100551808706316,-4.794604537093807,3.0,1.3242313242313242,755.1550712489523,0.6757181982401951,0.09032107686032356,-0.07050871161354187,1180.952380952381,-1.0,93.2498577120091,1.3301363370674306,
2023-08-15 12:56:47.860000,8.397590361445783,-0.49397590361445787,-5.36144578313253,-0.3261802575107296,9.10790925812385,-4.745554874310239,3.0,1.3242313242313242,755.1550712489523,0.5329526251383944,0.28203484645416926,-0.1241186411048308,1173.6263736263736,-1.0,93.2498577120091,1.3300827237528792,
2023-08-15 12:56:47.867000,8.421686746987952,-0.49397590361445787,-5.373493975903615,-0.3139178418148375,9.083384426732065,-4.718577559779276,3.0,1.3246753246753247,754.9019607843138,0.7268807179068812,0.3834275391876931,-0.5124409999417281,1166.3003663003662,-1.0,93.2498577120091,1.330029078451663,
2023-08-15 12:56:47.875000,8.3855421686747,-0.49397590361445787,-5.36144578313253,-0.3507050889025138,9.110361741263029,-4.718577559779276,3.0,1.3246753246753247,754.9019607843138,0.5805023017306676,0.26793310413146026,-0.4711846628984322,1163.3699633699632,-1.0,93.2498577120091,1.3299754017025007,
2023-08-15 12:56:47.883000,8.409638554216867,-0.5060240963855422,-5.313253012048193,-0.3801348865726548,9.041692213366032,-4.72838749233599,3.0,1.3246753246753247,754.9019607843138,0.0848435405862121,0.2637375444321432,-0.20220266884214222,1158.974358974359,-1.0,93.2498577120091,1.3299216941292469,
2023-08-15 12:56:47.890000,8.421686746987952,-0.49397590361445787,-5.349397590361446,-0.32127529123237275,9.058859595340282,-4.772532188841201,3.0,1.3246753246753247,754.9019607843138,0.03426373754443188,0.07761785443738635,-0.46931996969873535,1156.7765567765566,-1.0,93.2498577120091,1.3298679563124522,
2023-08-15 12:56:47.898000,8.421686746987952,-0.49397590361445787,-5.349397590361446,-0.3163703249540159,9.0907418761496,-4.755364806866953,3.0,1.3242313242313242,755.1550712489523,0.10453936250801338,-0.0017481498747160184,-0.29438843890216176,1155.3113553113553,-1.0,93.2498577120091,1.3298141888000055,
2023-08-15 12:56:47.906000,8.3855421686747,-0.4819277108433735,-5.337349397590362,-0.3948497854077253,9.139791538933169,-4.750459840588595,3.0,1.3246753246753247,754.9019607843138,-0.14894236932579713,0.08799021036070162,-0.2553464250335065,1153.113553113553,-1.0,93.2498577120091,1.3297603919688272,
2023-08-15 12:56:47.913000,8.397590361445783,-0.4819277108433735,-5.325301204819278,-0.3678724708767627,9.093194359288779,-4.718577559779276,3.0,1.3242313242313242,755.1550712489523,0.010372355923315273,0.3750364197890573,-0.21677058446477498,1153.113553113553,-1.0,93.2498577120091,1.3297065661636611,
2023-08-15 12:56:47.921000,8.373493975903616,-0.49397590361445787,-5.313253012048193,-0.3973022685469037,9.056407112201104,-4.72838749233599,3.0,1.3242313242313242,755.1550712489523,-0.15500262222481104,0.2813355865042825,-0.22411281393858157,1154.5787545787546,-1.0,93.2498577120091,1.3296527117184798,
2023-08-15 12:56:47.928000,8.373493975903616,-0.5060240963855422,-5.313253012048193,-0.3531575720416922,9.07602697731453,-4.686695278969957,3.0,1.3242313242313242,755.1550712489523,0.09113688013518942,0.3397237923197944,-0.32154303362274916,1158.974358974359,-1.0,93.2498577120091,1.329598828807854,
2023-08-15 12:56:47.936000,8.349397590361447,-0.5060240963855422,-5.289156626506024,-0.34580012262415694,9.022072348252605,-4.725935009196811,3.0,1.3242313242313242,755.1550712489523,-0.07400501136297521,0.6289843249227893,-0.553114620360119,1167.032967032967,-1.0,93.2498577120091,1.3295449175964473,
2023-08-15 12:56:47.944000,8.349397590361447,-0.5060240963855422,-5.289156626506024,-0.4193746167995095,9.041692213366032,-4.615573267933783,3.0,1.3242313242313242,755.1550712489523,-0.19439426606841012,0.3830779092127506,-0.6774663481149119,1175.8241758241757,-1.0,93.2498577120091,1.3294909782500226,
2023-08-15 12:56:47.951000,8.3855421686747,-0.49397590361445787,-5.301204819277109,-0.38749233599019006,9.009809932556713,-4.698957694665849,3.0,1.3242313242313242,755.1550712489523,-0.20721403181632816,0.6125517161004602,-0.6640638657420893,1184.6153846153845,-1.0,93.2498577120091,1.329437010946725,
2023-08-15 12:56:47.959000,8.3855421686747,-0.4819277108433735,-5.289156626506024,-0.40220723482526055,9.093194359288779,-4.654812998160637,3.0,1.3242313242313242,755.1550712489523,0.03671114736903465,0.45475205407610214,-0.7401666569547231,1190.4761904761904,-1.0,93.2498577120091,1.329383015888666,
2023-08-15 12:56:47.967000,8.361445783132531,-0.46987951807228917,-5.265060240963856,-0.3850398528510116,9.063764561618639,-4.6817903126916,3.0,1.3242313242313242,755.1550712489523,0.35638948779208524,-0.09847910960899774,-0.34147194219451127,1194.1391941391942,-1.0,93.2498577120091,1.3293289933138057,
2023-08-15 12:56:47.974000,8.361445783132531,-0.4819277108433735,-5.253012048192772,-0.37522992029429797,9.017167381974248,-4.642550582464746,3.0,1.3242313242313242,755.1550712489523,0.1689878212225392,-0.26630149758172683,-0.4354058621292464,1200.7326007326008,-1.0,93.2498577120091,1.3292749435081523,
2023-08-15 12:56:47.982000,8.373493975903616,-0.5060240963855422,-5.240963855421687,-0.3605150214592274,9.066217044757817,-4.689147762109135,3.0,1.3242313242313242,755.1550712489523,0.3951984150107784,-0.23436862653691515,-0.13169395722859947,1212.4542124542124,-1.0,93.2498577120091,1.3292208669570296,
2023-08-15 12:56:47.990000,8.349397590361447,-0.49397590361445787,-5.204819277108434,-0.3801348865726548,9.036787247087675,-4.6253832004904964,3.0,1.3237873237873237,755.4083515009224,0.31443389079890427,-0.5529980770351381,-0.31536623739875314,1236.6300366300366,-1.0,93.2498577120091,1.3291667643375313,
2023-08-15 12:56:47.997000,8.361445783132531,-0.5060240963855422,-5.240963855421687,-0.3678724708767627,9.024524831391783,-4.6400980993255665,3.0,1.3242313242313242,755.1550712489523,0.7669716217003653,-0.7329409708058968,0.01876347532195112,1274.7252747252746,-1.0,93.2498577120091,1.3291126362343864,
2023-08-15 12:56:48.005000,8.397590361445783,-0.46987951807228917,-5.265060240963856,-0.3359901900674433,9.049049662783569,-4.718577559779276,3.0,1.3228993228993227,755.9154220506797,0.5898257677291537,-0.5278247188392289,0.13775421012761468,1325.2747252747251,-1.0,93.2498577120091,1.3290584832819454,
2023-08-15 12:56:48.013000,8.3855421686747,-0.49397590361445787,-5.289156626506024,-0.3384426732066217,9.036787247087675,-4.684242795830778,3.0,1.3233433233433232,755.6618017111224,0.7614940854262573,-0.4636093467746631,-0.1251675310296605,1396.3369963369962,-1.0,93.2498577120091,1.3290043061674042,
2023-08-15 12:56:48.020000,8.3855421686747,-0.4819277108433735,-5.313253012048193,-0.37522992029429797,9.07602697731453,-4.723482526057633,3.0,1.3237873237873237,755.4083515009224,0.6423868072956116,-0.5812015616805545,-0.20558242526659298,1487.9120879120878,-1.0,93.2498577120091,1.3289501054107793,
2023-08-15 12:56:48.028000,8.373493975903616,-0.49397590361445787,-5.313253012048193,-0.3973022685469037,9.144696505211526,-4.674432863274065,3.0,1.3237873237873237,755.4083515009224,0.40265718780956755,-0.9913175222889111,-0.2530155585338846,1602.9304029304028,-1.0,93.2498577120091,1.3288958816863201,
2023-08-15 12:56:48.036000,8.3855421686747,-0.5060240963855422,-5.349397590361446,-0.3703249540159411,9.144696505211526,-4.716125076640098,3.0,1.3237873237873237,755.4083515009224,0.28261756307907515,-0.9272186935493262,-0.133092477128373,1734.7985347985348,-1.0,93.2498577120091,1.3288416357278774,
2023-08-15 12:56:48.043000,8.373493975903616,-0.49397590361445787,-5.349397590361446,-0.3948497854077253,9.031882280809318,-4.809319435928877,3.0,1.3233433233433232,755.6618017111224,0.42188683643144376,-0.647398170269798,-0.27224520715576034,1878.3882783882782,-1.0,93.2498577120091,1.3287873683621836,
2023-08-15 12:56:48.051000,8.373493975903616,-0.49397590361445787,-5.385542168674699,-0.3408951563458001,9.0907418761496,-4.745554874310239,3.0,1.3233433233433232,755.6618017111224,0.2990501719014026,-0.4451955014276562,-0.41291300040790113,2027.8388278388277,-1.0,93.2498577120091,1.3287330804997812,
2023-08-15 12:56:48.059000,8.373493975903616,-0.4819277108433735,-5.36144578313253,-0.37768240343347637,9.01471489883507,-4.797057020232986,3.0,1.3237873237873237,755.4083515009224,0.23530097313676532,-0.5985665171027338,-0.6265369150981874,2175.091575091575,-1.0,93.2498577120091,1.3286787729763627,
2023-08-15 12:56:48.066000,8.337349397590362,-0.5060240963855422,-5.385542168674699,-0.3850398528510116,9.105456774984672,-4.757817290006131,3.0,1.3237873237873237,755.4083515009224,0.2605908746576537,-0.6597517627177909,-0.6890041372880369,2315.0183150183148,-1.0,93.2498577120091,1.328624446851351,
2023-08-15 12:56:48.074000,8.373493975903616,-0.46987951807228917,-5.373493975903615,-0.3408951563458001,9.012262415695892,-4.853464132434089,3.0,1.3237873237873237,755.4083515009224,0.2415943126857409,-0.6569547229182456,-0.6855078375386052,2435.8974358974356,-1.0,93.2498577120091,1.3285701034398532,
2023-08-15 12:56:48.082000,8.3855421686747,-0.46987951807228917,-5.433734939759036,-0.3139178418148375,9.142244022072347,-4.811771919068057,3.0,1.3237873237873237,755.4083515009224,0.023425208321193255,-0.5040498805430914,-0.6672105355165784,2530.4029304029305,-1.0,93.2498577120091,1.3285157441852093,
2023-08-15 12:56:48.089000,8.361445783132531,-0.4819277108433735,-5.409638554216868,-0.3703249540159411,9.085836909871244,-4.814224402207235,3.0,1.3233433233433232,755.6618017111224,-0.09964454285880783,-0.4872676417458197,-0.8781539537322999,2589.7435897435894,-1.0,93.2498577120091,1.328461370670051,
2023-08-15 12:56:48.097000,8.3855421686747,-0.45783132530120485,-5.397590361445784,-0.3948497854077253,9.115266707541386,-4.779889638258736,3.0,1.3233433233433232,755.6618017111224,-0.36116776411630996,-0.8338674902394974,-0.7668550783753862,2606.5934065934066,-1.0,93.2498577120091,1.328406984616564,
2023-08-15 12:56:48.105000,8.373493975903616,-0.4819277108433735,-5.349397590361446,-0.33353770692826484,9.049049662783569,-4.792152053954629,3.0,1.3233433233433232,755.6618017111224,-0.7688363149000639,-0.4455451314025987,-0.609055416351029,2580.21978021978,-1.0,93.2498577120091,1.3283525878548101,
2023-08-15 12:56:48.112000,8.361445783132531,-0.49397590361445787,-5.373493975903615,-0.37522992029429797,9.036787247087675,-4.794604537093807,3.0,1.3233433233433232,755.6618017111224,-0.6719888118408014,-0.2697977973311571,-0.5125575432667094,2517.948717948718,-1.0,93.2498577120091,1.3282981823221407,
2023-08-15 12:56:48.120000,8.361445783132531,-0.5060240963855422,-5.325301204819278,-0.41201716738197425,9.02942979767014,-4.698957694665849,3.0,1.3233433233433232,755.6618017111224,-1.1365305052153145,-0.2540644484587147,-0.5251442223646641,2427.106227106227,-1.0,93.2498577120091,1.3282437700725636,
2023-08-15 12:56:48.128000,8.361445783132531,-0.5180722891566265,-5.325301204819278,-0.3850398528510116,8.995095033721643,-4.792152053954629,3.0,1.3233433233433232,755.6618017111224,-1.2910669541402022,-0.56197191305868,-0.3375094691451542,2310.6227106227107,-1.0,93.2498577120091,1.3281893532855156,
2023-08-15 12:56:48.135000,8.349397590361447,-0.5180722891566265,-5.325301204819278,-0.39239730226854685,9.078479460453709,-4.716125076640098,3.0,1.3233433233433232,755.6618017111224,-1.0465590583299336,-0.3627993706660451,-0.7012411864110477,2176.556776556776,-1.0,93.2498577120091,1.3281349342740756,
2023-08-15 12:56:48.143000,8.3855421686747,-0.5060240963855422,-5.325301204819278,-0.41692213366033104,9.115266707541386,-4.69650521152667,3.0,1.3228993228993227,755.9154220506797,-1.3038867198881186,-0.37620185303886733,-0.8611386282850652,2029.3040293040292,-1.0,93.2498577120091,1.3280805154926345,
2023-08-15 12:56:48.151000,8.3855421686747,-0.5060240963855422,-5.27710843373494,-0.3801348865726548,9.063764561618639,-4.659717964438994,3.0,1.3233433233433232,755.6618017111224,-1.073247479750597,-0.8609055416351035,-0.8816502534817323,1876.1904761904761,-1.0,93.2498577120091,1.32802609939475,
2023-08-15 12:56:48.158000,8.397590361445783,-0.49397590361445787,-5.265060240963856,-0.3408951563458001,9.058859595340282,-4.664622930717351,3.0,1.3220113220113219,756.4231738035265,-0.9188275741506903,-0.7468096264786441,-0.8540294854612194,1719.4139194139193,-1.0,93.2498577120091,1.3279716885672146,
2023-08-15 12:56:48.166000,8.397590361445783,-0.49397590361445787,-5.289156626506024,-0.3825873697118332,9.085836909871244,-4.69650521152667,3.0,1.3224553224553224,756.1692126909519,-0.9326962298234376,-0.9264028902744603,-0.5217644659402133,1572.161172161172,-1.0,93.2498577120091,1.3279172857248074,
2023-08-15 12:56:48.174000,8.397590361445783,-0.4819277108433735,-5.289156626506024,-0.3605150214592274,9.012262415695892,-4.659717964438994,3.0,1.3228993228993227,755.9154220506797,-1.115086533418799,-0.8605559116601592,-0.7569488957519955,1434.4322344322343,-1.0,93.2498577120091,1.3278628936200185,
2023-08-15 12:56:48.181000,8.421686746987952,-0.4819277108433735,-5.313253012048193,-0.3948497854077253,9.120171673819742,-4.718577559779276,3.0,1.3228993228993227,755.9154220506797,-0.7906299166715219,-0.5676825359827513,-1.0950410815220553,1309.1575091575091,-1.0,93.2498577120091,1.3278085151958436,
2023-08-15 12:56:48.189000,8.397590361445783,-0.49397590361445787,-5.289156626506024,-0.3384426732066217,9.120171673819742,-4.740649908031882,3.0,1.3224553224553224,756.1692126909519,-0.6635976924421655,-0.6740865916904616,-0.8979663189790811,1195.6043956043954,-1.0,93.2498577120091,1.3277541534923765,
2023-08-15 12:56:48.197000,8.409638554216867,-0.49397590361445787,-5.313253012048193,-0.3605150214592274,9.105456774984672,-4.664622930717351,3.0,1.3224553224553224,756.1692126909519,-0.31035487442456805,-0.17038634112231268,-1.1434065613891968,1095.970695970696,-1.0,93.2498577120091,1.3276998115104681,
2023-08-15 12:56:48.204000,8.397590361445783,-0.45783132530120485,-5.325301204819278,-0.35561005518087063,9.056407112201104,-4.718577559779276,3.0,1.3228993228993227,755.9154220506797,-0.08204650078666682,-0.6162811024998539,-1.053318571178836,1010.9890109890109,-1.0,93.2498577120091,1.3276454921916323,
2023-08-15 12:56:48.212000,8.397590361445783,-0.4096385542168675,-5.289156626506024,-0.3384426732066217,9.085836909871244,-4.652360515021459,3.0,1.3224553224553224,756.1692126909519,-0.32632130994697217,-0.3252724200221429,-1.2214905891265075,944.3223443223443,-1.0,93.2498577120091,1.327591198705623,
2023-08-15 12:56:48.220000,8.421686746987952,-0.4096385542168675,-5.337349397590362,-0.2795830778663397,9.088289393010422,-4.721030042918454,3.0,1.3224553224553224,756.1692126909519,0.1650253481731838,-0.29695239205174584,-1.325214148359653,894.5054945054944,-1.0,93.2498577120091,1.3275369344606207,
2023-08-15 12:56:48.227000,8.409638554216867,-0.4096385542168675,-5.289156626506024,-0.3359901900674433,9.095646842427957,-4.679337829552422,3.0,1.3224553224553224,756.1692126909519,0.6372589009964461,0.0813472408367818,-1.4142532486451833,859.3406593406593,651.092529296875,92.15280056245606,1.327482702922151,
2023-08-15 12:56:48.235000,8.3855421686747,-0.39759036144578314,-5.27710843373494,-0.29429797670141017,9.095646842427957,-4.698957694665849,3.0,1.3220113220113219,756.4231738035265,1.0146261872851237,-0.0759862478876529,-1.5468795524736312,836.6300366300366,-1.0,92.15280056245606,1.3274285076017458,
2023-08-15 12:56:48.243000,8.433734939759036,-0.3614457831325301,-5.289156626506024,-0.2575107296137339,9.117719190680564,-4.676885346413243,3.0,1.3224553224553224,756.1692126909519,0.9288503000990613,0.07248994813822088,-1.5124992716042194,829.3040293040292,-1.0,92.15280056245606,1.3273743519061896,
2023-08-15 12:56:48.250000,8.361445783132531,-0.3373493975903615,-5.325301204819278,-0.19619865113427343,9.009809932556713,-4.711220110361741,3.0,1.3220113220113219,756.4231738035265,1.0430627585805015,0.17481498747159316,-1.6775246197774023,832.9670329670329,-1.0,92.15280056245606,1.3273202392629133,
2023-08-15 12:56:48.258000,8.361445783132531,-0.3493975903614458,-5.313253012048193,-0.25260576333537704,9.056407112201104,-4.676885346413243,3.0,1.3220113220113219,756.4231738035265,1.2021443971796522,-0.18169104364547464,-1.7800827457607362,851.2820512820513,-1.0,92.15280056245606,1.3272661731271254,
2023-08-15 12:56:48.266000,8.361445783132531,-0.3373493975903615,-5.325301204819278,-0.18884120171673818,9.022072348252605,-4.752912323727774,3.0,1.3220113220113219,756.4231738035265,1.6207680205116257,-0.12155468795524675,-2.1119981353068,882.7838827838827,-1.0,92.15280056245606,1.3272121568180908,
2023-08-15 12:56:48.273000,8.361445783132531,-0.3253012048192771,-5.313253012048193,-0.18884120171673818,8.997547516860822,-4.765174739423666,3.0,1.3220113220113219,756.4231738035265,2.022842491696287,-0.12085542800536173,-1.740341471942195,926.0073260073259,-1.0,92.15280056245606,1.3271581936528072,
2023-08-15 12:56:48.281000,8.325301204819278,-0.3253012048192771,-5.325301204819278,-0.20600858369098712,9.0,-4.735744941753525,3.0,1.3215673215673214,756.6773055602218,2.346250218518735,0.3238739001223711,-1.8156284598799612,977.2893772893772,-1.0,92.15280056245606,1.3271042869405447,
2023-08-15 12:56:48.289000,8.301204819277109,-0.3132530120481928,-5.349397590361446,-0.21827099938687922,8.985285101164928,-4.777437155119558,3.0,1.3220113220113219,756.4231738035265,2.314084260823962,0.19672513256803206,-1.7693607598624794,1036.6300366300366,-1.0,92.15280056245606,1.327050439827814,
2023-08-15 12:56:48.296000,8.313253012048193,-0.28915662650602414,-5.36144578313253,-0.1079092581238504,8.93868792152054,-4.797057020232986,3.0,1.3220113220113219,756.4231738035265,2.6801468445894754,-0.30942252782471963,-1.8896334712429343,1104.7619047619046,-1.0,92.15280056245606,1.326996655419872,
2023-08-15 12:56:48.304000,8.301204819277109,-0.28915662650602414,-5.397590361445784,-0.15695892090741875,8.958307786633966,-4.784794604537094,3.0,1.3220113220113219,756.4231738035265,3.1195151797680793,-0.5352834916380164,-2.0995279995338274,1178.021978021978,-1.0,92.15280056245606,1.326942936933699,
2023-08-15 12:56:48.311000,8.313253012048193,-0.26506024096385544,-5.385542168674699,-0.14224402207234824,8.977927651747393,-4.816676885346413,3.0,1.321123321123321,756.9316081330869,3.112172950294271,-0.865334187984384,-1.926461161936949,1253.4798534798533,-1.0,92.15280056245606,1.326889287553135,
2023-08-15 12:56:48.319000,8.313253012048193,-0.2530120481927711,-5.385542168674699,-0.14714898835070508,8.95340282035561,-4.797057020232986,3.0,1.3215673215673214,756.6773055602218,3.1943359944059204,-0.9159139910261642,-1.846628984324922,1325.2747252747251,-1.0,92.15280056245606,1.3268357104018573,
2023-08-15 12:56:48.327000,8.313253012048193,-0.24096385542168675,-5.409638554216868,-0.14224402207234824,8.95340282035561,-4.762722256284488,3.0,1.3215673215673214,756.6773055602218,3.3403647806071914,-0.9058912650777932,-1.8262339024532361,1391.9413919413919,-1.0,92.15280056245606,1.3267822086025023,
2023-08-15 12:56:48.334000,8.313253012048193,-0.24096385542168675,-5.409638554216868,-0.11771919068056406,9.009809932556713,-4.865726548129981,3.0,1.3215673215673214,756.6773055602218,3.4087757123710745,-1.0769768661499908,-1.6853330225511327,1451.2820512820513,-1.0,92.15280056245606,1.3267287851326488,
2023-08-15 12:56:48.342000,8.325301204819278,-0.21686746987951808,-5.433734939759036,-0.1520539546290619,9.004904966278357,-4.806866952789699,3.0,1.3215673215673214,756.6773055602218,3.5994405920400907,-0.9300157333488731,-1.7131868772216068,1504.7619047619046,-1.0,92.15280056245606,1.3266754427018175,
2023-08-15 12:56:48.350000,8.313253012048193,-0.22891566265060243,-5.433734939759036,-0.0809319435928878,8.990190067443287,-4.82158185162477,3.0,1.3215673215673214,756.6773055602218,3.5775304469436517,-0.9244216537497826,-1.6962880950993526,1546.5201465201465,-1.0,92.15280056245606,1.326622183894849,
2023-08-15 12:56:48.357000,8.289156626506024,-0.22891566265060243,-5.409638554216868,-0.13733905579399142,8.960760269773145,-4.8412017167381975,3.0,1.3215673215673214,756.6773055602218,3.5677408076452424,-0.6437853271953851,-1.617271720762194,1575.8241758241757,-1.0,92.15280056245606,1.3265690111663433,
2023-08-15 12:56:48.365000,8.313253012048193,-0.2530120481927711,-5.421686746987952,-0.1226241569589209,8.990190067443287,-4.792152053954629,3.0,1.3215673215673214,756.6773055602218,3.787891148534468,-0.6422702639706308,-1.5965270089155652,1596.3369963369962,-1.0,92.15280056245606,1.326515926835542,
2023-08-15 12:56:48.373000,8.301204819277109,-0.24096385542168675,-5.409638554216868,-0.134886572654813,8.977927651747393,-4.824034334763948,3.0,1.3215673215673214,756.6773055602218,3.7008332847736147,-0.5003204941436977,-1.606200104888992,1604.3956043956043,-1.0,92.15280056245606,1.3264629330817892,
2023-08-15 12:56:48.380000,8.325301204819278,-0.24096385542168675,-5.409638554216868,-0.15695892090741875,9.066217044757817,-4.801961986511342,3.0,1.3215673215673214,756.6773055602218,4.361633937416233,-0.9870054192646115,-1.539187693024883,1600.0,-1.0,92.15280056245606,1.3264100319406686,
2023-08-15 12:56:48.388000,8.349397590361447,-0.24096385542168675,-5.409638554216868,-0.134886572654813,9.031882280809318,-4.816676885346413,3.0,1.3215673215673214,756.6773055602218,4.147893479400966,-0.8648680146844588,-1.4781189907348067,1583.8827838827838,-1.0,92.15280056245606,1.3263572254396694,
2023-08-15 12:56:48.396000,8.373493975903616,-0.22891566265060243,-5.397590361445784,-0.10545677498467197,9.01471489883507,-4.779889638258736,3.0,1.3215673215673214,756.6773055602218,4.4074354641337905,-0.4984558009440009,-1.6155235708874784,1559.7069597069597,-1.0,92.15280056245606,1.3263045155756155,
2023-08-15 12:56:48.403000,8.349397590361447,-0.24096385542168675,-5.36144578313253,-0.11526670754138564,9.0,-4.762722256284488,3.0,1.3215673215673214,756.6773055602218,4.804382029019287,-0.7121962589592681,-1.6613250976050358,1527.4725274725274,-1.0,92.15280056245606,1.326251904165458,
2023-08-15 12:56:48.411000,8.313253012048193,-0.26506024096385544,-5.36144578313253,-0.10300429184549356,9.01471489883507,-4.76026977314531,3.0,1.3215673215673214,756.6773055602218,5.58300798321776,-0.33051686964629096,-1.2491113571470205,1491.5750915750914,-1.0,92.15280056245606,1.3261993928472284,
2023-08-15 12:56:48.419000,8.325301204819278,-0.26506024096385544,-5.313253012048193,-0.1520539546290619,8.997547516860822,-4.657265481299816,3.0,1.3215673215673214,756.6773055602218,5.613542334362798,-0.33051686964629096,-1.3712487617271731,1450.5494505494505,-1.0,92.15280056245606,1.3261469829431958,
2023-08-15 12:56:48.426000,8.301204819277109,-0.30120481927710846,-5.337349397590362,-0.2035561005518087,9.01471489883507,-4.716125076640098,3.0,1.321123321123321,756.9316081330869,6.010488899248294,-0.33051686964629096,-1.3865159372996922,1409.5238095238094,-1.0,92.15280056245606,1.3260946756219283,
2023-08-15 12:56:48.434000,8.301204819277109,-0.3493975903614458,-5.325301204819278,-0.2035561005518087,9.026977314530962,-4.762722256284488,3.0,1.321123321123321,756.9316081330869,6.376901112988752,-0.23891381621117644,-1.340714410582135,1367.7655677655678,-1.0,92.15280056245606,1.3260424718806385,
2023-08-15 12:56:48.442000,8.325301204819278,-0.3614457831325301,-5.313253012048193,-0.1765787860208461,8.95340282035561,-4.721030042918454,3.0,1.321123321123321,756.9316081330869,6.7433133267292105,-0.4526542742264436,-1.3712487617271731,1323.8095238095236,-1.0,92.15280056245606,1.3259903725181426,
2023-08-15 12:56:48.449000,8.301204819277109,-0.3734939759036145,-5.337349397590362,-0.23789086450030655,9.022072348252605,-4.708767627222563,3.0,1.321123321123321,756.9316081330869,7.354000349629973,-0.7427306101043062,-1.6155235708874784,1282.051282051282,-1.0,92.15280056245606,1.3259383782581255,
2023-08-15 12:56:48.457000,8.301204819277109,-0.4096385542168675,-5.337349397590362,-0.3163703249540159,8.975475168608215,-4.738197424892704,3.0,1.3215673215673214,756.6773055602218,7.598275158790279,-0.34578404521881,-1.890332731192822,1245.4212454212454,-1.0,92.15280056245606,1.3258864896071192,
2023-08-15 12:56:48.465000,8.301204819277109,-0.43373493975903615,-5.313253012048193,-0.3041079092581238,9.04659717964439,-4.694052728387492,3.0,1.32023532023532,757.4407264166807,8.331099586271195,-0.8496008391119397,-1.8750655556203029,1212.4542124542124,-1.0,92.15280056245606,1.3258347070119645,
2023-08-15 12:56:48.472000,8.325301204819278,-0.42168674698795183,-5.313253012048193,-0.3041079092581238,8.950950337216431,-4.735744941753525,3.0,1.3206793206793208,757.1860816944024,8.2547637084086,-0.51372297651652,-1.737660975467631,1182.4175824175823,-1.0,92.15280056245606,1.3257830307204297,
2023-08-15 12:56:48.480000,8.337349397590362,-0.42168674698795183,-5.349397590361446,-0.30901287553648066,9.041692213366032,-4.789699570815451,3.0,1.3206793206793208,757.1860816944024,9.109725540469668,-0.6053260299516344,-1.6307907464599976,1156.7765567765566,-1.0,92.15280056245606,1.3257314605584023,
2023-08-15 12:56:48.488000,8.313253012048193,-0.44578313253012053,-5.36144578313253,-0.33353770692826484,8.990190067443287,-4.755364806866953,3.0,1.3206793206793208,757.1860816944024,9.292931647339897,-0.9412038925470543,-1.9666686090554173,1138.4615384615383,-1.0,92.15280056245606,1.3256799961003103,
2023-08-15 12:56:48.495000,8.337349397590362,-0.43373493975903615,-5.349397590361446,-0.29429797670141017,9.063764561618639,-4.782342121397915,3.0,1.3206793206793208,757.1860816944024,9.659343861080355,-1.0175397704096496,-2.0124701357729746,1127.4725274725274,-1.0,92.15280056245606,1.3256286366908048,
2023-08-15 12:56:48.503000,8.337349397590362,-0.43373493975903615,-5.36144578313253,-0.2722256284488044,9.007357449417535,-4.765174739423666,3.0,1.321123321123321,756.9316081330869,9.781481265660508,-0.9106695414020161,-2.287279296078318,1121.6117216117216,-1.0,92.15280056245606,1.3255773814565552,
2023-08-15 12:56:48.511000,8.3855421686747,-0.39759036144578314,-5.397590361445784,-0.27713059472716123,9.044144696505212,-4.767627222562845,3.0,1.3206793206793208,757.1860816944024,9.842549967950584,-1.0022725948371307,-2.3636151739409135,1118.6813186813185,-1.0,92.15280056245606,1.3255262294680017,
2023-08-15 12:56:48.518000,8.397590361445783,-0.42168674698795183,-5.433734939759036,-0.3041079092581238,9.098099325567135,-4.819129368485592,3.0,1.3206793206793208,757.1860816944024,9.934153021385699,-1.2007458772798787,-2.7758289143989288,1117.9487179487178,-1.0,92.15280056245606,1.3254751796250996,
2023-08-15 12:56:48.526000,8.397590361445783,-0.43373493975903615,-5.409638554216868,-0.32127529123237275,9.149601471489882,-4.819129368485592,3.0,1.3206793206793208,757.1860816944024,9.73567973894295,-0.9106695414020161,-3.157508303711906,1119.4139194139193,-1.0,92.15280056245606,1.3254242305122386,
2023-08-15 12:56:48.534000,8.3855421686747,-0.45783132530120485,-5.46987951807229,-0.33108522378908645,9.080931943592887,-4.819129368485592,3.0,1.3206793206793208,757.1860816944024,9.873084319095621,-1.0175397704096496,-3.3101800594370965,1119.4139194139193,-1.0,92.15280056245606,1.3253733805517587,
2023-08-15 12:56:48.541000,8.397590361445783,-0.44578313253012053,-5.481927710843374,-0.33108522378908645,9.105456774984672,-4.9147762109135495,3.0,1.3206793206793208,757.1860816944024,10.041023250393332,-0.528990152089039,-3.401783112872211,1119.4139194139193,-1.0,92.15280056245606,1.3253226281581738,
2023-08-15 12:56:48.549000,8.409638554216867,-0.44578313253012053,-5.493975903614458,-0.33108522378908645,9.095646842427957,-4.895156345800122,3.0,1.3206793206793208,757.1860816944024,9.964687372530737,-0.33051686964629096,-3.92086708233786,1123.076923076923,-1.0,92.15280056245606,1.325271971733981,
2023-08-15 12:56:48.557000,8.3855421686747,-0.44578313253012053,-5.493975903614458,-0.32127529123237275,9.110361741263029,-4.9074187614960145,3.0,1.32023532023532,757.4407264166807,10.08682477711089,-0.5442573276615581,-4.058271662490532,1125.2747252747251,-1.0,92.15280056245606,1.3252214095385726,
2023-08-15 12:56:48.564000,8.3855421686747,-0.44578313253012053,-5.46987951807229,-0.3139178418148375,9.085836909871244,-4.873083997547517,3.0,1.32023532023532,757.4407264166807,9.979954548103256,-0.3915855719363673,-4.439951051803509,1130.4029304029302,-1.0,92.15280056245606,1.3251709395576388,
2023-08-15 12:56:48.572000,8.397590361445783,-0.42168674698795183,-5.457831325301205,-0.29675045984058857,9.07602697731453,-4.875536480686695,3.0,1.32023532023532,757.4407264166807,9.857817143523103,-0.13204358720354287,-4.852164792261524,1137.7289377289376,-1.0,92.15280056245606,1.32512055950049,
2023-08-15 12:56:48.580000,8.3855421686747,-0.43373493975903615,-5.433734939759036,-0.3139178418148375,9.085836909871244,-4.88289393010423,3.0,1.32023532023532,757.4407264166807,10.010488899248294,0.34123885554454875,-4.6842258609638145,1145.7875457875457,-1.0,92.15280056245606,1.3250702669567829,
2023-08-15 12:56:48.587000,8.361445783132531,-0.42168674698795183,-5.397590361445784,-0.3114653586756591,9.022072348252605,-4.819129368485592,3.0,1.32023532023532,757.4407264166807,9.827282792378066,0.17329992424683882,-5.1422411281393865,1156.7765567765566,-1.0,92.15280056245606,1.3250200594147679,
2023-08-15 12:56:48.595000,8.349397590361447,-0.42168674698795183,-5.409638554216868,-0.2673206621704476,8.975475168608215,-4.762722256284488,3.0,1.32023532023532,757.4407264166807,9.918885845813179,0.3565060311170678,-4.959035021269158,1167.032967032967,-1.0,92.15280056245606,1.3249699342797863,
2023-08-15 12:56:48.603000,8.349397590361447,-0.43373493975903615,-5.409638554216868,-0.3016554261189454,8.995095033721643,-4.826486817903127,3.0,1.32023532023532,757.4407264166807,9.644076685507835,0.14276557310180063,-4.943767845696638,1180.2197802197802,-1.0,92.15280056245606,1.324919888893019,
2023-08-15 12:56:48.610000,8.337349397590362,-0.43373493975903615,-5.409638554216868,-0.4218270999386879,9.041692213366032,-4.863274064990803,3.0,1.32023532023532,757.4407264166807,10.056290425965852,-0.08624206048598561,-5.188042654856944,1196.3369963369962,-1.0,92.15280056245606,1.324869920550442,
2023-08-15 12:56:48.618000,8.313253012048193,-0.44578313253012053,-5.409638554216868,-0.3261802575107296,8.992642550582465,-4.789699570815451,3.0,1.3193473193473193,757.9505300353358,10.819649204591805,0.3717732066895869,-5.661325097605036,1213.1868131868132,-1.0,92.15280056245606,1.3248200265220011,
2023-08-15 12:56:48.626000,8.289156626506024,-0.44578313253012053,-5.373493975903615,-0.3531575720416922,9.068669527896995,-4.757817290006131,3.0,1.3193473193473193,757.9505300353358,10.75858050230173,-0.14731076277606195,-5.554454868597402,1235.8974358974358,-1.0,92.15280056245606,1.3247702040498754,
2023-08-15 12:56:48.633000,8.325301204819278,-0.43373493975903615,-5.325301204819278,-0.3654199877375843,9.024524831391783,-4.765174739423666,3.0,1.3197913197913198,757.6955424726661,10.75858050230173,-0.14731076277606195,-5.554454868597402,1265.9340659340658,-1.0,92.15280056245606,1.3247204502834877,
2023-08-15 12:56:48.641000,8.337349397590362,-0.43373493975903615,-5.349397590361446,-0.33353770692826484,9.039239730226853,-4.723482526057633,3.0,1.3197913197913198,757.6955424726661,11.033389662607073,-0.3610512207913291,-5.859798380047784,1308.4249084249084,-1.0,92.15280056245606,1.3246707622878426,
2023-08-15 12:56:48.649000,8.361445783132531,-0.45783132530120485,-5.313253012048193,-0.328632740649908,9.034334763948497,-4.738197424892704,3.0,1.3197913197913198,757.6955424726661,11.033389662607073,-0.4679214497989627,-5.829264028902745,1365.5677655677655,-1.0,92.15280056245606,1.3246211371040257,
2023-08-15 12:56:48.656000,8.361445783132531,-0.44578313253012053,-5.337349397590362,-0.328632740649908,9.031882280809318,-4.69650521152667,3.0,1.3197913197913198,757.6955424726661,11.155527067187226,-0.13204358720354287,-5.768195326612669,1444.6886446886447,-1.0,92.15280056245606,1.3245715717777111,
2023-08-15 12:56:48.664000,8.325301204819278,-0.44578313253012053,-5.337349397590362,-0.34825260576333533,9.012262415695892,-4.721030042918454,3.0,1.3197913197913198,757.6955424726661,11.384534700775012,-0.51372297651652,-5.600256395314959,1544.3223443223442,-1.0,92.15280056245606,1.3245220633768504,
2023-08-15 12:56:48.672000,8.325301204819278,-0.4819277108433735,-5.349397590361446,-0.49785407725321884,9.036787247087675,-4.782342121397915,3.0,1.3197913197913198,757.6955424726661,11.705145387797913,-0.20837946506613828,-5.813996853330226,1666.6666666666665,-1.0,92.15280056245606,1.3244726090090788,
2023-08-15 12:56:48.679000,8.337349397590362,-0.5060240963855422,-5.325301204819278,-0.43654199877375843,9.024524831391783,-4.801961986511342,3.0,1.3197913197913198,757.6955424726661,11.918885845813179,-0.3610512207913291,-5.951401433482898,1805.8608058608058,-1.0,92.15280056245606,1.324423205838833,
2023-08-15 12:56:48.687000,8.349397590361447,-0.49397590361445787,-5.337349397590362,-0.45861434702636417,9.034334763948497,-4.738197424892704,3.0,1.3197913197913198,757.6955424726661,12.147893479400965,-0.6511275566691916,-6.226210593788242,1958.2417582417581,-1.0,92.15280056245606,1.324373851104177,
2023-08-15 12:56:48.694000,8.337349397590362,-0.4819277108433735,-5.349397590361446,-0.41692213366033104,9.07602697731453,-4.748007357449417,3.0,1.3197913197913198,757.6955424726661,12.117359128255927,-0.33051686964629096,-6.501019754093585,2113.5531135531132,-1.0,92.15280056245606,1.3243245421333465,
2023-08-15 12:56:48.702000,8.361445783132531,-0.4819277108433735,-5.349397590361446,-0.37522992029429797,9.073574494175352,-4.797057020232986,3.0,1.3197913197913198,757.6955424726661,12.514305693141424,-0.40685274750888634,-6.623157158673738,2264.4688644688645,-1.0,92.15280056245606,1.3242752764997356,
2023-08-15 12:56:48.710000,8.361445783132531,-0.49397590361445787,-5.373493975903615,-0.37522992029429797,9.095646842427957,-4.787247087676272,3.0,1.3197913197913198,757.6955424726661,12.8959850824544,-0.4526542742264436,-6.852164792261524,2398.5347985347985,-1.0,92.15280056245606,1.3242260520174862,
2023-08-15 12:56:48.717000,8.349397590361447,-0.4819277108433735,-5.373493975903615,-0.3850398528510116,9.004904966278357,-4.801961986511342,3.0,1.3197913197913198,757.6955424726661,12.850183555736843,-0.4373870986539245,-7.08117242584931,2507.6923076923076,-1.0,92.15280056245606,1.3241768666091494,
2023-08-15 12:56:48.725000,8.361445783132531,-0.49397590361445787,-5.373493975903615,-0.3507050889025138,9.041692213366032,-4.745554874310239,3.0,1.3197913197913198,757.6955424726661,13.247130120622339,-0.1778451139211001,-7.264378532719539,2583.150183150183,-1.0,92.15280056245606,1.3241277183221785,
2023-08-15 12:56:48.733000,8.361445783132531,-0.46987951807228917,-5.385542168674699,-0.32127529123237275,9.053954629061925,-4.779889638258736,3.0,1.3197913197913198,757.6955424726661,13.888351494668141,-0.33051686964629096,-7.5849892197424404,2620.5128205128203,-1.0,92.15280056245606,1.3240786053449136,
2023-08-15 12:56:48.740000,8.361445783132531,-0.46987951807228917,-5.373493975903615,-0.3727774371551195,9.068669527896995,-4.779889638258736,3.0,1.3197913197913198,757.6955424726661,13.781481265660508,0.1580327486743197,-7.401783112872211,2619.78021978022,-1.0,92.15280056245606,1.3240295260220947,
2023-08-15 12:56:48.748000,8.361445783132531,-0.45783132530120485,-5.385542168674699,-0.33353770692826484,9.095646842427957,-4.767627222562845,3.0,1.3197913197913198,757.6955424726661,13.537206456500202,-0.34578404521881,-7.615523570887478,2580.9523809523807,-1.0,92.15280056245606,1.3239804790086442,
2023-08-15 12:56:48.756000,8.361445783132531,-0.44578313253012053,-5.385542168674699,-0.33108522378908645,9.112814224402207,-4.816676885346413,3.0,1.3193473193473193,757.9505300353358,13.689878212225393,-0.23891381621117644,-8.012470135772976,2508.424908424908,-1.0,92.15280056245606,1.3239314631250858,
2023-08-15 12:56:48.763000,8.349397590361447,-0.45783132530120485,-5.373493975903615,-0.31882280809319435,9.053954629061925,-4.814224402207235,3.0,1.3197913197913198,757.6955424726661,13.918885845813179,-0.4831886253714818,-7.997202960200456,2405.128205128205,-1.0,92.15280056245606,1.3238824772334725,
2023-08-15 12:56:48.771000,8.361445783132531,-0.44578313253012053,-5.397590361445784,-0.299202942979767,9.112814224402207,-4.819129368485592,3.0,1.3184593184593183,758.4610203738004,14.056290425965852,-0.4831886253714818,-8.317813647223357,2276.9230769230767,-1.0,92.15280056245606,1.3238335205071399,
2023-08-15 12:56:48.779000,8.361445783132531,-0.43373493975903615,-5.36144578313253,-0.33353770692826484,9.04659717964439,-4.816676885346413,3.0,1.3189033189033188,758.2056892778994,14.178427830546005,-0.055707709340947445,-8.43995105180351,2134.065934065934,-1.0,92.15280056245606,1.3237845922842306,
2023-08-15 12:56:48.786000,8.361445783132531,-0.44578313253012053,-5.349397590361446,-0.3261802575107296,9.01471489883507,-4.833844267320662,3.0,1.3193473193473193,757.9505300353358,14.178427830546005,0.12749839752928155,-8.699493036536333,1982.4175824175823,-1.0,92.15280056245606,1.323735691846536,
2023-08-15 12:56:48.794000,8.349397590361447,-0.45783132530120485,-5.421686746987952,-0.4095646842427958,9.058859595340282,-4.779889638258736,3.0,1.3193473193473193,757.9505300353358,14.010488899248294,-0.11677641163102377,-8.287279296078319,1828.5714285714284,-1.0,92.15280056245606,1.3236868187390474,
2023-08-15 12:56:48.802000,8.337349397590362,-0.46987951807228917,-5.385542168674699,-0.3727774371551195,9.01471489883507,-4.772532188841201,3.0,1.3193473193473193,757.9505300353358,14.2547637084086,0.1580327486743197,-8.5926228075287,1675.4578754578754,-1.0,92.15280056245606,1.3236379728115377,
2023-08-15 12:56:48.809000,8.337349397590362,-0.46987951807228917,-5.385542168674699,-0.3629675045984059,9.002452483139178,-4.762722256284488,3.0,1.3189033189033188,758.2056892778994,14.315832410698675,-0.20837946506613828,-8.745294563253891,1528.2051282051282,-1.0,92.15280056245606,1.3235891539507656,
2023-08-15 12:56:48.817000,8.325301204819278,-0.46987951807228917,-5.397590361445784,-0.3678724708767627,9.034334763948497,-4.757817290006131,3.0,1.3189033189033188,758.2056892778994,14.483771341996386,-0.11677641163102377,-8.836897616689006,1392.6739926739926,-1.0,92.15280056245606,1.3235403619603494,
2023-08-15 12:56:48.825000,8.361445783132531,-0.46987951807228917,-5.349397590361446,-0.3703249540159411,9.07602697731453,-4.789699570815451,3.0,1.3189033189033188,758.2056892778994,14.376901112988751,-0.7579977856768253,-8.714760212108853,1268.8644688644688,-1.0,92.15280056245606,1.3234915968335434,
2023-08-15 12:56:48.832000,8.361445783132531,-0.4819277108433735,-5.373493975903615,-0.3605150214592274,9.073574494175352,-4.740649908031882,3.0,1.3189033189033188,758.2056892778994,14.483771341996386,-0.4679214497989627,-8.638424334246258,1155.3113553113553,-1.0,92.15280056245606,1.3234428588759024,
2023-08-15 12:56:48.840000,8.349397590361447,-0.49397590361445787,-5.397590361445784,-0.43408951563458,9.019619865113427,-4.799509503372164,3.0,1.3189033189033188,758.2056892778994,14.605908746576539,-0.1931122894936192,-8.730027387681373,1057.8754578754579,-1.0,92.15280056245606,1.3233941485608052,
2023-08-15 12:56:48.848000,8.301204819277109,-0.4819277108433735,-5.337349397590362,-0.37522992029429797,9.02942979767014,-4.782342121397915,3.0,1.3189033189033188,758.2056892778994,14.514305693141424,0.1580327486743197,-8.638424334246258,973.6263736263736,-1.0,92.15280056245606,1.3233454665333684,
2023-08-15 12:56:48.855000,8.313253012048193,-0.4819277108433735,-5.36144578313253,-0.33108522378908645,9.009809932556713,-4.718577559779276,3.0,1.3184593184593183,758.4610203738004,14.560107219858981,0.21910145096439607,-8.226210593788242,901.8315018315018,-1.0,92.15280056245606,1.3232968136135128,
2023-08-15 12:56:48.863000,8.337349397590362,-0.49397590361445787,-5.385542168674699,-0.3654199877375843,9.022072348252605,-4.801961986511342,3.0,1.3184593184593183,758.4610203738004,14.468504166423866,0.09696404638424339,-8.470485402948547,847.6190476190476,-1.0,92.15280056245606,1.3232481906489504,
2023-08-15 12:56:48.871000,8.349397590361447,-0.5060240963855422,-5.36144578313253,-0.38749233599019006,9.019619865113427,-4.711220110361741,3.0,1.3184593184593183,758.4610203738004,14.499038517568904,-0.14731076277606195,-8.653691509818776,811.7216117216117,643.4326171875,93.2498577120091,1.32319959849488,
2023-08-15 12:56:48.878000,8.337349397590362,-0.4819277108433735,-5.313253012048193,-0.37522992029429797,9.06131207847946,-4.772532188841201,3.0,1.3184593184593183,758.4610203738004,14.987588135889515,-0.13204358720354287,-8.745294563253891,791.2087912087911,-1.0,93.2498577120091,1.3231510382907135,
2023-08-15 12:56:48.886000,8.361445783132531,-0.46987951807228917,-5.301204819277109,-0.32127529123237275,9.036787247087675,-4.689147762109135,3.0,1.3184593184593183,758.4610203738004,14.8959850824544,-0.13204358720354287,-8.485752578521067,789.010989010989,-1.0,93.2498577120091,1.3231025114381874,
2023-08-15 12:56:48.894000,8.349397590361447,-0.4819277108433735,-5.325301204819278,-0.3678724708767627,9.053954629061925,-4.671980380134887,3.0,1.3184593184593183,758.4610203738004,14.666977448866614,0.09696404638424339,-8.57735563195618,801.4652014652014,-1.0,93.2498577120091,1.3230540194511737,
2023-08-15 12:56:48.901000,8.349397590361447,-0.5060240963855422,-5.301204819277109,-0.4071122011036174,9.026977314530962,-4.721030042918454,3.0,1.3184593184593183,758.4610203738004,14.590641571004019,0.24963580210943423,-8.241477769360761,830.7692307692307,-1.0,93.2498577120091,1.3230055639540066,
