Shimmer_F5D4_Timestamp_FormattedUnix_CAL,Shimmer_F5D4_Accel_LN_X_CAL,Shimmer_F5D4_Accel_LN_Y_CAL,Shimmer_F5D4_Accel_LN_Z_CAL,Shimmer_F5D4_Accel_WR_X_CAL,Shimmer_F5D4_Accel_WR_Y_CAL,Shimmer_F5D4_Accel_WR_Z_CAL,Shimmer_F5D4_GSR_Range_CAL,Shimmer_F5D4_GSR_Skin_Conductance_CAL,Shimmer_F5D4_GSR_Skin_Resistance_CAL,Shimmer_F5D4_Gyro_X_CAL,Shimmer_F5D4_Gyro_Y_CAL,Shimmer_F5D4_Gyro_Z_CAL,Shimmer_F5D4_PPG_A13_CAL,Shimmer_F5D4_PPG_IBI_CAL,Shimmer_F5D4_PPGtoHR_CAL,Shimmer_F5D4_GSR_Skin_Conductance_LPF_CAL,
yyyy/mm/dd hh:mm:ss.000,m/(s^2),m/(s^2),m/(s^2),m/(s^2),m/(s^2),m/(s^2),no_units,uS,kOhms,deg/s,deg/s,deg/s,mV,ms,BPM,uS,
2023-08-09 09:56:13.878000,7.397590361445784,0.6506024096385542,-6.63855421686747,0.7553648068669527,8.055793991416309,-6.104230533415082,2.0,2.7567765567765568,362.74249269200106,-0.011421245848144537,3.420196958219217,0.04323757356797407,2410.25641025641,-1.0,78.32988047808765,2.7834210127662278,
2023-08-09 09:56:13.886000,7.397590361445784,0.6626506024096386,-6.626506024096386,0.7234825260576333,8.041079092581239,-6.084610668301655,2.0,2.7567765567765568,362.74249269200106,-0.24042887943593078,3.2980595536390647,0.2875123827282794,2591.941391941392,-1.0,78.32988047808765,2.78312250363675,
2023-08-09 09:56:13.894000,7.409638554216868,0.6626506024096386,-6.614457831325302,0.7798896382587369,8.055793991416309,-6.145922746781116,2.0,2.7567765567765568,362.74249269200106,0.11071615873200813,2.855311462036011,0.44018413845347026,2743.589743589743,-1.0,78.32988047808765,2.7828242567243455,
2023-08-09 09:56:13.901000,7.373493975903615,0.6626506024096386,-6.590361445783133,0.7259350091968118,8.036174126302882,-6.028203556100552,2.0,2.7567765567765568,362.74249269200106,0.11071615873200813,2.855311462036011,0.44018413845347026,2806.5934065934066,-1.0,78.32988047808765,2.782526292767863,
2023-08-09 09:56:13.909000,7.409638554216868,0.6265060240963856,-6.626506024096386,0.7431023911710607,8.109748620478234,-6.094420600858369,2.0,2.7553113553113553,362.93538952406277,-0.16409300157333537,3.1148534467688354,1.0356039857817145,2805.128205128205,-1.0,78.32988047808765,2.782228632721866,
2023-08-09 09:56:13.917000,7.397590361445784,0.6626506024096386,-6.590361445783133,0.7210300429184548,8.031269160024525,-6.082158185162477,2.0,2.7553113553113553,362.93538952406277,-0.05722277256570179,2.656838179593263,1.0050696346366763,2805.128205128205,-1.0,78.32988047808765,2.7819312977218824,
2023-08-09 09:56:13.924000,7.385542168674699,0.6626506024096386,-6.578313253012048,0.7700797057020232,8.075413856529735,-6.079705702023298,2.0,2.7553113553113553,362.93538952406277,-0.026688421420663622,1.71027329409708,0.8523978789114854,2805.128205128205,-1.0,78.32988047808765,2.781634308944281,
2023-08-09 09:56:13.932000,7.373493975903615,0.6385542168674699,-6.590361445783133,0.762722256284488,8.043531575720417,-6.023298589822194,2.0,2.7553113553113553,362.93538952406277,-0.05722277256570179,1.0995862711963165,0.7302604743313328,2779.487179487179,-1.0,78.32988047808765,2.7813376875691387,
2023-08-09 09:56:13.940000,7.385542168674699,0.6265060240963856,-6.566265060240964,0.7381974248927038,8.050889025137952,-6.067443286327406,2.0,2.7553113553113553,362.93538952406277,0.049647456441931796,0.4278305460054768,0.8676650544840045,2684.981684981685,-1.0,78.32988047808765,2.781041454776631,
2023-08-09 09:56:13.947000,7.397590361445784,0.6144578313253012,-6.590361445783133,0.7381974248927038,8.112201103617412,-6.079705702023298,2.0,2.753846153846154,363.12849162011173,-0.026688421420663622,-0.8088106753685689,0.6386574208962184,2548.7179487179487,773.651123046875,77.55433710701747,2.780745631742517,
2023-08-09 09:56:13.955000,7.397590361445784,0.6144578313253012,-6.63855421686747,0.6916002452483139,8.087676272225629,-6.114040465971796,2.0,2.753846153846154,363.12849162011173,0.17178486102208446,-0.6866732707884162,0.5012528407435466,2383.150183150183,-1.0,77.55433710701747,2.780450239140431,
2023-08-09 09:56:13.963000,7.385542168674699,0.6144578313253012,-6.626506024096386,0.6866952789699571,8.060698957694665,-6.160637645616186,2.0,2.753846153846154,363.12849162011173,0.1412505098770463,-1.6179709807120803,-0.09416700658469768,2201.4652014652015,-1.0,77.55433710701747,2.78015529706451,
2023-08-09 09:56:13.970000,7.385542168674699,0.6265060240963856,-6.614457831325302,0.7308399754751685,8.03862660944206,-6.064990803188228,2.0,2.753846153846154,363.12849162011173,0.2481207388846799,-1.6179709807120803,-0.3689761668900412,2019.7802197802196,-1.0,77.55433710701747,2.779860825476757,
2023-08-09 09:56:13.978000,7.373493975903615,0.5903614457831325,-6.650602409638554,0.7357449417535254,8.045984058859595,-6.121397915389331,2.0,2.753846153846154,363.12849162011173,-0.17936017714585445,-2.106520599032691,-0.6285181516228656,1843.2234432234432,-1.0,77.55433710701747,2.7795668441965278,
2023-08-09 09:56:13.986000,7.36144578313253,0.6385542168674699,-6.626506024096386,0.7480073574494175,7.994481912936848,-6.131207847946045,2.0,2.753846153846154,363.12849162011173,-0.011421245848144537,-2.335528232620477,-0.9643960142182855,1678.3882783882782,-1.0,77.55433710701747,2.7792733733483117,
2023-08-09 09:56:13.993000,7.36144578313253,0.6144578313253012,-6.626506024096386,0.7210300429184548,8.026364193746167,-6.165542611894543,2.0,2.7523809523809524,363.3217993079585,-0.026688421420663622,-2.3965969349105536,-1.0865334187984381,1531.135531135531,-1.0,77.55433710701747,2.7789804332851507,
2023-08-09 09:56:14.001000,7.36144578313253,0.6265060240963856,-6.662650602409639,0.7136725935009196,8.009196811771918,-6.138565297363581,2.0,2.753846153846154,363.12849162011173,-0.04195559699318271,-2.4118641104830725,-1.1018005943709572,1403.6630036630036,-1.0,77.55433710701747,2.7786880435994625,
2023-08-09 09:56:14.009000,7.373493975903615,0.6265060240963856,-6.674698795180723,0.7259350091968118,7.99202942979767,-6.155732679337829,2.0,2.7523809523809524,363.3217993079585,0.034380280869412715,-2.1523221257502483,-1.1170677699434763,1301.8315018315018,-1.0,77.55433710701747,2.7783962239984277,
2023-08-09 09:56:14.016000,7.385542168674699,0.6265060240963856,-6.662650602409639,0.7014101778050276,8.075413856529735,-6.155732679337829,2.0,2.750915750915751,363.51531291611184,-0.11829147485577812,-2.106520599032691,-0.8117242584930946,1218.3150183150183,-1.0,77.55433710701747,2.778104994266858,
2023-08-09 09:56:14.024000,7.385542168674699,0.6506024096385542,-6.662650602409639,0.745554874310239,7.987124463519313,-6.165542611894543,2.0,2.7523809523809524,363.3217993079585,0.08018180758696997,-2.259192354757882,-0.5674494493327893,1150.9157509157508,-1.0,77.55433710701747,2.7778143727553686,
2023-08-09 09:56:14.032000,7.385542168674699,0.6506024096385542,-6.698795180722892,0.7529123237277743,8.050889025137952,-6.199877375843041,2.0,2.750915750915751,363.51531291611184,-0.10302429928325904,-1.3278946448342177,-0.38424334246256026,1098.9010989010987,-1.0,77.55433710701747,2.7775243772580307,
2023-08-09 09:56:14.039000,7.385542168674699,0.6385542168674699,-6.698795180722892,0.7431023911710607,8.036174126302882,-6.153280196198651,2.0,2.7523809523809524,363.3217993079585,-0.011421245848144537,-0.8393450265136071,-0.3689761668900412,1060.07326007326,-1.0,77.55433710701747,2.777235025044541,
2023-08-09 09:56:14.047000,7.36144578313253,0.6506024096385542,-6.698795180722892,0.7259350091968118,8.023911710606988,-6.148375229920294,2.0,2.750915750915751,363.51531291611184,-0.04195559699318271,-0.3507954081929964,-0.13996853330225492,1025.6410256410256,-1.0,77.55433710701747,2.776946333281777,
2023-08-09 09:56:14.055000,7.385542168674699,0.6144578313253012,-6.710843373493976,0.762722256284488,7.982219497240956,-6.224402207234825,2.0,2.750915750915751,363.51531291611184,0.3091894411747562,0.24462443913524784,0.13484062700308858,997.069597069597,-1.0,77.55433710701747,2.776658319001179,
2023-08-09 09:56:14.062000,7.373493975903615,0.6385542168674699,-6.686746987951808,0.703862660944206,8.041079092581239,-6.212139791538933,2.0,2.7494505494505495,363.70903277378096,-0.07248994813822088,0.9927160421886829,0.4096497873084321,975.091575091575,-1.0,77.55433710701747,2.7763709980845652,
2023-08-09 09:56:14.070000,7.373493975903615,0.6506024096385542,-6.698795180722892,0.7357449417535254,8.016554261189453,-6.145922746781116,2.0,2.7494505494505495,363.70903277378096,-0.24042887943593078,1.6492045918070035,0.5623215430336229,960.4395604395604,-1.0,77.55433710701747,2.776084385691943,
2023-08-09 09:56:14.078000,7.36144578313253,0.6506024096385542,-6.674698795180723,0.7946045370938074,8.03862660944206,-6.209687308399754,2.0,2.7494505494505495,363.70903277378096,-0.3167647572985262,1.908746576539828,0.8523978789114854,948.7179487179486,-1.0,77.55433710701747,2.7757984961282225,
2023-08-09 09:56:14.085000,7.36144578313253,0.6506024096385542,-6.662650602409639,0.7946045370938074,8.026364193746167,-6.145922746781116,2.0,2.7494505494505495,363.70903277378096,-0.28623040615348805,2.137754210127614,0.6081230697511801,944.3223443223443,-1.0,77.55433710701747,2.7755133428151053,
2023-08-09 09:56:14.093000,7.373493975903615,0.6265060240963856,-6.63855421686747,0.7995095033721643,8.02145922746781,-6.207234825260576,2.0,2.7494505494505495,363.70903277378096,-0.4999708641687552,2.2140900879902095,0.9134665812015619,944.3223443223443,-1.0,77.55433710701747,2.77522893829855,
2023-08-09 09:56:14.101000,7.36144578313253,0.6385542168674699,-6.614457831325302,0.7406499080318822,8.026364193746167,-6.133660331085223,2.0,2.7494505494505495,363.70903277378096,-0.08775712371073996,2.488899248295553,0.9898024590641572,952.3809523809523,-1.0,77.55433710701747,2.774945294257427,
2023-08-09 09:56:14.108000,7.337349397590362,0.6265060240963856,-6.63855421686747,0.7431023911710607,7.920907418761495,-6.1704475781729,2.0,2.7494505494505495,363.70903277378096,-0.3167647572985262,2.0003496299749424,1.0814055124992716,969.9633699633699,-1.0,77.55433710701747,2.7746624219715073,
2023-08-09 09:56:14.116000,7.36144578313253,0.6144578313253012,-6.626506024096386,0.7210300429184548,8.063151440833844,-6.121397915389331,2.0,2.7494505494505495,363.70903277378096,-0.28623040615348805,1.8018763475321944,1.1119398636443099,994.139194139194,-1.0,77.55433710701747,2.7743803322661686,
2023-08-09 09:56:14.124000,7.337349397590362,0.6144578313253012,-6.63855421686747,0.7357449417535254,8.016554261189453,-6.12385039852851,2.0,2.7494505494505495,363.70903277378096,-0.2098945282908926,1.4965328360818126,0.7760620010488901,1026.3736263736264,-1.0,77.55433710701747,2.7740990350380983,
2023-08-09 09:56:14.131000,7.349397590361447,0.5903614457831325,-6.614457831325302,0.7602697731453096,7.994481912936848,-6.133660331085223,2.0,2.7494505494505495,363.70903277378096,-0.04195559699318271,0.9011129887535684,0.760794825476371,1063.7362637362637,-1.0,77.55433710701747,2.7738185392754833,
2023-08-09 09:56:14.139000,7.349397590361447,0.6024096385542169,-6.63855421686747,0.7234825260576333,8.048436541998774,-6.150827713059472,2.0,2.7494505494505495,363.70903277378096,-0.2098945282908926,0.33622749257036233,0.6233902453236992,1105.4945054945053,-1.0,77.55433710701747,2.773538853080314,
2023-08-09 09:56:14.147000,7.337349397590362,0.6024096385542169,-6.650602409638554,0.640098099325567,8.033721643163704,-6.101778050275904,2.0,2.747985347985348,363.9029592108771,-0.026688421420663622,0.15302138570013335,0.27224520715576034,1153.8461538461538,-1.0,77.55433710701747,2.773259983693083,
2023-08-09 09:56:14.154000,7.349397590361447,0.6024096385542169,-6.650602409638554,0.733292458614347,8.02145922746781,-6.148375229920294,2.0,2.747985347985348,363.9029592108771,0.034380280869412715,-0.4423984616281109,0.02797039799545499,1205.8608058608058,-1.0,77.55433710701747,2.772981937485384,
2023-08-09 09:56:14.162000,7.36144578313253,0.6024096385542169,-6.63855421686747,0.7063151440833844,8.016554261189453,-6.145922746781116,2.0,2.747985347985348,363.9029592108771,-0.04195559699318271,-0.9920167822387979,-0.0788998310121786,1260.8058608058607,-1.0,77.55433710701747,2.772704719850826,
2023-08-09 09:56:14.170000,7.349397590361447,0.5662650602409639,-6.650602409638554,0.6744328632740649,8.031269160024525,-6.150827713059472,2.0,2.747985347985348,363.9029592108771,-0.10302429928325904,-0.7782763242235308,-0.39951051803507936,1313.5531135531135,-1.0,77.55433710701747,2.7724283352025285,
2023-08-09 09:56:14.177000,7.349397590361447,0.5903614457831325,-6.686746987951808,0.7283874923359902,7.972409564684242,-6.131207847946045,2.0,2.747985347985348,363.9029592108771,-0.10302429928325904,-0.7782763242235308,-0.39951051803507936,1364.102564102564,-1.0,77.55433710701747,2.7721527870076073,
2023-08-09 09:56:14.185000,7.337349397590362,0.6024096385542169,-6.662650602409639,0.733292458614347,8.048436541998774,-6.160637645616186,2.0,2.747985347985348,363.9029592108771,0.1259833343045272,-0.9767496066662789,-0.18577006001981217,1408.058608058608,-1.0,77.55433710701747,2.7718780782819463,
2023-08-09 09:56:14.192000,7.36144578313253,0.6024096385542169,-6.662650602409639,0.7357449417535254,7.999386879215205,-6.138565297363581,2.0,2.746520146520147,364.09709255801545,0.18705203659460354,-1.1599557135365077,-0.29264028902744577,1444.6886446886447,-1.0,77.55433710701747,2.771604211562526,
2023-08-09 09:56:14.200000,7.349397590361447,0.6144578313253012,-6.698795180722892,0.7357449417535254,7.977314530962599,-6.190067443286327,2.0,2.746520146520147,364.09709255801545,0.11071615873200813,-1.2210244158265842,-0.17050288444729308,1471.062271062271,-1.0,77.55433710701747,2.7713311879688076,
2023-08-09 09:56:14.208000,7.337349397590362,0.6144578313253012,-6.698795180722892,0.762722256284488,8.041079092581239,-6.172900061312078,2.0,2.747985347985348,363.9029592108771,-0.05722277256570179,-1.2362915913991033,-0.10943418215721676,1490.8424908424906,-1.0,77.55433710701747,2.771059007179704,
2023-08-09 09:56:14.215000,7.36144578313253,0.6144578313253012,-6.662650602409639,0.7259350091968118,8.023911710606988,-6.160637645616186,2.0,2.745054945054945,364.2914331465172,-0.04195559699318271,-1.1294213623914697,-0.32317464017248393,1496.7032967032967,-1.0,77.55433710701747,2.770787668430322,
2023-08-09 09:56:14.223000,7.349397590361447,0.6144578313253012,-6.710843373493976,0.7259350091968118,8.004291845493562,-6.199877375843041,2.0,2.746520146520147,364.09709255801545,0.3091894411747562,-0.8546122020861262,-0.6285181516228656,1494.5054945054944,-1.0,77.55433710701747,2.7705171701050566,
2023-08-09 09:56:14.231000,7.337349397590362,0.6265060240963856,-6.686746987951808,0.7259350091968118,8.019006744328632,-6.1704475781729,2.0,2.746520146520147,364.09709255801545,-0.16409300157333537,-0.9004137288036834,-0.43004486918011753,1480.5860805860805,-1.0,77.55433710701747,2.7702475096170365,
2023-08-09 09:56:14.238000,7.36144578313253,0.6144578313253012,-6.686746987951808,0.7725321888412017,7.99202942979767,-6.275904353157571,2.0,2.746520146520147,364.09709255801545,-0.24042887943593078,-0.6714060952158971,-0.3537089913175221,1458.6080586080584,-1.0,77.55433710701747,2.7699786839559577,
2023-08-09 09:56:14.246000,7.373493975903615,0.6144578313253012,-6.72289156626506,0.7087676272225628,7.994481912936848,-6.234212139791539,2.0,2.746520146520147,364.09709255801545,-0.2251617038634117,-0.1523221257502483,-0.21630441116485033,1430.03663003663,-1.0,77.55433710701747,2.7697106892897514,
2023-08-09 09:56:14.254000,7.337349397590362,0.6144578313253012,-6.698795180722892,0.7087676272225628,7.965052115266707,-6.217044757817289,2.0,2.746520146520147,364.09709255801545,-0.27096323058096894,0.09195268341005701,0.1959093292931649,1399.2673992673992,-1.0,77.55433710701747,2.769443521026276,
2023-08-09 09:56:14.261000,7.337349397590362,0.6024096385542169,-6.686746987951808,0.733292458614347,7.969957081545064,-6.207234825260576,2.0,2.746520146520147,364.09709255801545,-0.11829147485577812,0.5805023017306676,-0.12470135772973584,1364.102564102564,-1.0,77.55433710701747,2.769177173877299,
2023-08-09 09:56:14.269000,7.337349397590362,0.5783132530120483,-6.686746987951808,0.7136725935009196,8.001839362354383,-6.219497240956468,2.0,2.746520146520147,364.09709255801545,-0.28623040615348805,1.1148534467688356,-0.09416700658469768,1328.937728937729,-1.0,77.55433710701747,2.7689116419249125,
2023-08-09 09:56:14.277000,7.325301204819278,0.6144578313253012,-6.698795180722892,0.7676272225628449,8.063151440833844,-6.194972409564684,2.0,2.745054945054945,364.2914331465172,-0.28623040615348805,0.9774488666161638,0.13484062700308858,1295.2380952380952,-1.0,77.55433710701747,2.7686469191483165,
2023-08-09 09:56:14.284000,7.36144578313253,0.6024096385542169,-6.674698795180723,0.7283874923359902,8.080318822808092,-6.234212139791539,2.0,2.745054945054945,364.2914331465172,0.049647456441931796,1.4354641337917364,-0.017831128722102258,1261.5384615384614,-1.0,77.55433710701747,2.768382998935422,
2023-08-09 09:56:14.292000,7.373493975903615,0.6024096385542169,-6.710843373493976,0.733292458614347,7.974862047823421,-6.172900061312078,2.0,2.745054945054945,364.2914331465172,-0.27096323058096894,1.4354641337917364,0.42491696288095115,1228.5714285714284,-1.0,77.55433710701747,2.7681198735964783,
2023-08-09 09:56:14.300000,7.373493975903615,0.6024096385542169,-6.710843373493976,0.703862660944206,8.004291845493562,-6.143470263641937,2.0,2.745054945054945,364.2914331465172,-0.37783345958860254,1.5728687139444082,0.10430627585805041,1197.069597069597,-1.0,77.55433710701747,2.7678575348969146,
2023-08-09 09:56:14.307000,7.337349397590362,0.6024096385542169,-6.674698795180723,0.7431023911710607,8.011649294911097,-6.131207847946045,2.0,2.745054945054945,364.2914331465172,-0.05722277256570179,2.1224870345550952,0.13484062700308858,1169.9633699633698,-1.0,77.55433710701747,2.767595974133791,
2023-08-09 09:56:14.315000,7.36144578313253,0.6265060240963856,-6.650602409638554,0.7700797057020232,8.001839362354383,-6.194972409564684,2.0,2.745054945054945,364.2914331465172,0.23285356331216078,1.8629450498222706,0.012703222422935909,1150.18315018315,-1.0,77.55433710701747,2.7673351826716344,
2023-08-09 09:56:14.323000,7.349397590361447,0.6144578313253012,-6.650602409638554,0.703862660944206,8.001839362354383,-6.145922746781116,2.0,2.7435897435897436,364.4859813084112,0.034380280869412715,1.6950061185245608,-0.002563953149583175,1136.2637362637363,-1.0,77.55433710701747,2.7670751514967944,
2023-08-09 09:56:14.330000,7.349397590361447,0.6265060240963856,-6.63855421686747,0.7234825260576333,7.967504598405886,-6.138565297363581,2.0,2.7435897435897436,364.4859813084112,-0.5457723908863125,1.71027329409708,0.36384826059087483,1126.007326007326,-1.0,77.55433710701747,2.766815870842561,
2023-08-09 09:56:14.338000,7.337349397590362,0.6144578313253012,-6.674698795180723,0.7651747394236664,8.033721643163704,-6.1361128142244015,2.0,2.7435897435897436,364.4859813084112,-0.14882582600081629,1.0537847444787594,0.07377192471301224,1117.9487179487178,-1.0,77.55433710701747,2.7665573306242965,
2023-08-09 09:56:14.346000,7.337349397590362,0.6144578313253012,-6.650602409638554,0.7995095033721643,8.014101778050275,-6.145922746781116,2.0,2.7435897435897436,364.4859813084112,-0.43890216187867886,0.7484412330283776,-0.17050288444729308,1115.018315018315,-1.0,77.55433710701747,2.7662995204868124,
2023-08-09 09:56:14.353000,7.337349397590362,0.6265060240963856,-6.662650602409639,0.7480073574494175,8.036174126302882,-6.165542611894543,2.0,2.7435897435897436,364.4859813084112,-0.37783345958860254,0.824777110890973,-0.3537089913175221,1116.4835164835165,-1.0,77.55433710701747,2.766042430344618,
2023-08-09 09:56:14.361000,7.337349397590362,0.6265060240963856,-6.686746987951808,0.7872470876762722,8.095033721643164,-6.182709993868792,2.0,2.7435897435897436,364.4859813084112,0.23285356331216078,0.5347007750131104,-0.32317464017248393,1119.4139194139193,-1.0,77.55433710701747,2.7657860503972604,
2023-08-09 09:56:14.369000,7.373493975903615,0.6265060240963856,-6.674698795180723,0.7798896382587369,7.977314530962599,-6.163090128755364,2.0,2.742124542124542,364.680737376436,-0.11829147485577812,0.7484412330283776,-0.32317464017248393,1126.007326007326,-1.0,77.55433710701747,2.765530370723743,
2023-08-09 09:56:14.376000,7.36144578313253,0.6144578313253012,-6.686746987951808,0.7995095033721643,8.036174126302882,-6.187614960147148,2.0,2.742124542124542,364.680737376436,-0.026688421420663622,0.5041664238680723,-0.23157158673736944,1135.5311355311355,-1.0,77.55433710701747,2.765275381334297,
2023-08-09 09:56:14.384000,7.337349397590362,0.6265060240963856,-6.674698795180723,0.7896995708154506,8.023911710606988,-6.192519926425505,2.0,2.7435897435897436,364.4859813084112,-0.026688421420663622,0.7179068818833394,-0.18577006001981217,1143.5897435897434,-1.0,77.55433710701747,2.765021072116992,
2023-08-09 09:56:14.392000,7.337349397590362,0.6265060240963856,-6.662650602409639,0.7185775597792765,8.011649294911097,-6.148375229920294,2.0,2.742124542124542,364.680737376436,0.049647456441931796,0.7331740574558585,-0.338441815745003,1148.7179487179487,-1.0,77.55433710701747,2.7647674333798204,
2023-08-09 09:56:14.399000,7.36144578313253,0.6144578313253012,-6.650602409638554,0.7651747394236664,8.031269160024525,-6.214592274678111,2.0,2.7435897435897436,364.4859813084112,-0.11829147485577812,1.0232503933337211,-0.4147776936075984,1156.7765567765566,-1.0,77.55433710701747,2.7645144555125696,
2023-08-09 09:56:14.407000,7.337349397590362,0.6385542168674699,-6.662650602409639,0.762722256284488,7.974862047823421,-6.194972409564684,2.0,2.742124542124542,364.680737376436,-0.04195559699318271,1.3285939047841027,-0.23157158673736944,1165.5677655677655,-1.0,77.55433710701747,2.76426212903546,
2023-08-09 09:56:14.415000,7.337349397590362,0.6385542168674699,-6.686746987951808,0.7578172900061312,8.033721643163704,-6.192519926425505,2.0,2.7435897435897436,364.4859813084112,0.049647456441931796,1.3438610803566218,-0.338441815745003,1172.8937728937728,-1.0,77.55433710701747,2.7640104451736307,
2023-08-09 09:56:14.422000,7.373493975903615,0.6385542168674699,-6.698795180722892,0.7136725935009196,7.982219497240956,-6.153280196198651,2.0,2.742124542124542,364.680737376436,-0.07248994813822088,1.6186702406619653,-0.3689761668900412,1181.6849816849815,-1.0,77.55433710701747,2.7637593958353697,
2023-08-09 09:56:14.430000,7.373493975903615,0.6385542168674699,-6.662650602409639,0.7823421213979154,8.05334150827713,-6.190067443286327,2.0,2.742124542124542,364.680737376436,-0.19462735271837353,1.6034030650894462,-0.5521822737602702,1189.7435897435896,-1.0,77.55433710701747,2.763508973237169,
2023-08-09 09:56:14.438000,7.397590361445784,0.6385542168674699,-6.674698795180723,0.7578172900061312,8.02145922746781,-6.165542611894543,2.0,2.742124542124542,364.680737376436,-0.4999708641687552,1.71027329409708,-0.43004486918011753,1197.8021978021977,-1.0,77.55433710701747,2.763259169457013,
2023-08-09 09:56:14.445000,7.385542168674699,0.6385542168674699,-6.662650602409639,0.7259350091968118,7.984671980380134,-6.153280196198651,2.0,2.742124542124542,364.680737376436,-0.33203193287104527,2.305693141425324,-0.24683876230988852,1204.3956043956043,-1.0,77.55433710701747,2.7630099769681022,
2023-08-09 09:56:14.453000,7.373493975903615,0.6506024096385542,-6.686746987951808,0.8068669527896996,7.994481912936848,-6.182709993868792,2.0,2.742124542124542,364.680737376436,0.11071615873200813,2.320960316997843,-0.03309830429462134,1210.2564102564102,-1.0,77.55433710701747,2.762761389170039,
2023-08-09 09:56:14.461000,7.36144578313253,0.6506024096385542,-6.686746987951808,0.7823421213979154,7.99202942979767,-6.180257510729613,2.0,2.742124542124542,364.680737376436,0.11071615873200813,2.320960316997843,-0.03309830429462134,1216.117216117216,-1.0,77.55433710701747,2.7625133999345124,
2023-08-09 09:56:14.468000,7.349397590361447,0.6265060240963856,-6.686746987951808,0.7553648068669527,7.942979767014101,-6.160637645616186,2.0,2.7406593406593407,364.8757016840417,-0.08775712371073996,2.3667618437154005,0.05850474914049316,1219.7802197802198,-1.0,77.55433710701747,2.762266003710363,
2023-08-09 09:56:14.476000,7.373493975903615,0.6385542168674699,-6.662650602409639,0.7431023911710607,8.023911710606988,-6.180257510729613,2.0,2.742124542124542,364.680737376436,-0.2251617038634117,2.5957694773031865,0.25697803158324123,1221.9780219780218,-1.0,77.55433710701747,2.762019195521579,
2023-08-09 09:56:14.484000,7.373493975903615,0.6265060240963856,-6.674698795180723,0.7970570202329859,8.043531575720417,-6.150827713059472,2.0,2.742124542124542,364.680737376436,-0.24042887943593078,2.259891614707767,0.4707184895985084,1224.1758241758241,-1.0,77.55433710701747,2.761772970962248,
2023-08-09 09:56:14.491000,7.337349397590362,0.6144578313253012,-6.662650602409639,0.745554874310239,8.004291845493562,-6.104230533415082,2.0,2.7406593406593407,364.8757016840417,-0.17936017714585445,2.656838179593263,0.394382611735913,1226.3736263736264,-1.0,77.55433710701747,2.7615273267852323,
2023-08-09 09:56:14.499000,7.349397590361447,0.6265060240963856,-6.626506024096386,0.7112201103617413,8.004291845493562,-6.150827713059472,2.0,2.7406593406593407,364.8757016840417,-0.14882582600081629,2.229357263562729,0.4096497873084321,1225.6410256410256,-1.0,77.55433710701747,2.7612822600122624,
2023-08-09 09:56:14.507000,7.373493975903615,0.6265060240963856,-6.63855421686747,0.7357449417535254,8.097486204782342,-6.155732679337829,2.0,2.742124542124542,364.680737376436,-0.08775712371073996,2.0003496299749424,0.7302604743313328,1224.9084249084249,-1.0,77.55433710701747,2.7610377683774527,
2023-08-09 09:56:14.514000,7.397590361445784,0.6144578313253012,-6.662650602409639,0.7308399754751685,8.036174126302882,-6.150827713059472,2.0,2.742124542124542,364.680737376436,-0.16409300157333537,1.908746576539828,0.7149932987588138,1227.8388278388277,-1.0,77.55433710701747,2.7607938512601105,
2023-08-09 09:56:14.522000,7.409638554216868,0.5903614457831325,-6.63855421686747,0.7431023911710607,8.097486204782342,-6.141017780502759,2.0,2.7406593406593407,364.8757016840417,0.003845929724374546,1.588135889516927,0.4859856651710275,1232.967032967033,-1.0,77.55433710701747,2.760550509314807,
2023-08-09 09:56:14.530000,7.397590361445784,0.6024096385542169,-6.662650602409639,0.7504598405885959,8.058246474555487,-6.177805027590435,2.0,2.7406593406593407,364.8757016840417,-0.10302429928325904,1.8324106986772326,0.2875123827282794,1241.0256410256409,-1.0,77.55433710701747,2.7603077440310355,
2023-08-09 09:56:14.537000,7.409638554216868,0.6144578313253012,-6.626506024096386,0.7504598405885959,8.019006744328632,-6.158185162477007,2.0,2.7406593406593407,364.8757016840417,-0.19462735271837353,2.1835557368451712,0.5470543674611038,1257.142857142857,-1.0,77.55433710701747,2.76006555764303,
2023-08-09 09:56:14.545000,7.397590361445784,0.6385542168674699,-6.614457831325302,0.762722256284488,8.033721643163704,-6.143470263641937,2.0,2.7406593406593407,364.8757016840417,0.26338791445719895,2.2904259658528052,0.4554513140259893,1282.7838827838827,-1.0,77.55433710701747,2.759823953139995,
2023-08-09 09:56:14.553000,7.385542168674699,0.6024096385542169,-6.63855421686747,0.7308399754751685,8.041079092581239,-6.116492949110975,2.0,2.7406593406593407,364.8757016840417,0.15651768544956537,1.6186702406619653,0.22644368043820307,1324.5421245421244,-1.0,77.55433710701747,2.759582934307054,
2023-08-09 09:56:14.560000,7.385542168674699,0.6144578313253012,-6.63855421686747,0.7725321888412017,8.033721643163704,-6.0772532188841195,2.0,2.7406593406593407,364.8757016840417,0.06491463201445088,1.6950061185245608,0.1959093292931649,1389.7435897435896,-1.0,77.55433710701747,2.759342505762205,
2023-08-09 09:56:14.568000,7.397590361445784,0.6024096385542169,-6.650602409638554,0.745554874310239,8.05334150827713,-6.141017780502759,2.0,2.7406593406593407,364.8757016840417,-0.026688421420663622,1.557601538371889,0.13484062700308858,1479.8534798534797,-1.0,77.55433710701747,2.759102672989513,
2023-08-09 09:56:14.575000,7.385542168674699,0.6024096385542169,-6.614457831325302,0.7210300429184548,8.043531575720417,-6.1361128142244015,2.0,2.7406593406593407,364.8757016840417,-0.1335586504282972,1.6034030650894462,-0.048365479867140425,1600.0,-1.0,77.55433710701747,2.758863442826538,
2023-08-09 09:56:14.583000,7.373493975903615,0.6024096385542169,-6.614457831325302,0.7063151440833844,8.065603923973022,-6.121397915389331,2.0,2.7406593406593407,364.8757016840417,0.003845929724374546,1.4507313093642555,-0.048365479867140425,1750.18315018315,-1.0,77.55433710701747,2.7586248234231863,
2023-08-09 09:56:14.591000,7.385542168674699,0.6144578313253012,-6.650602409638554,0.7112201103617413,8.009196811771918,-6.1287553648068664,2.0,2.7391941391941392,365.0708745653918,-0.37783345958860254,1.54233436279937,-0.23157158673736944,1931.135531135531,-1.0,77.55433710701747,2.758386823776207,
2023-08-09 09:56:14.598000,7.373493975903615,0.5903614457831325,-6.626506024096386,0.6719803801348866,8.004291845493562,-6.121397915389331,2.0,2.7406593406593407,364.8757016840417,-0.24042887943593078,1.0690519200512782,-0.2621059378824076,2129.6703296703295,-1.0,77.55433710701747,2.758149453717843,
2023-08-09 09:56:14.606000,7.36144578313253,0.5783132530120483,-6.63855421686747,0.6351931330472103,8.03862660944206,-6.141017780502759,2.0,2.7406593406593407,364.8757016840417,-0.36256628401608343,1.007983217761202,-0.32317464017248393,2331.135531135531,-1.0,77.55433710701747,2.75791272428901,
2023-08-09 09:56:14.614000,7.385542168674699,0.5903614457831325,-6.650602409638554,0.7185775597792765,8.05334150827713,-6.158185162477007,2.0,2.7406593406593407,364.8757016840417,0.003845929724374546,1.0385175689062403,-0.7811899073480564,2520.14652014652,-1.0,77.55433710701747,2.757676647792067,
2023-08-09 09:56:14.621000,7.373493975903615,0.6144578313253012,-6.662650602409639,0.7480073574494175,8.063151440833844,-6.158185162477007,2.0,2.7406593406593407,364.8757016840417,-0.43890216187867886,1.2980595536390647,-0.29264028902744577,2685.7142857142853,-1.0,77.55433710701747,2.7574412373495636,
2023-08-09 09:56:14.629000,7.385542168674699,0.5783132530120483,-6.662650602409639,0.6989576946658491,8.036174126302882,-6.141017780502759,2.0,2.7406593406593407,364.8757016840417,-0.14882582600081629,1.389662607074179,-0.4605792203251557,2805.128205128205,-1.0,77.55433710701747,2.7572065069173797,
2023-08-09 09:56:14.637000,7.409638554216868,0.6024096385542169,-6.650602409638554,0.7136725935009196,8.045984058859595,-6.126302881667688,2.0,2.7406593406593407,364.8757016840417,-0.05722277256570179,1.8934794009673088,-0.5521822737602702,2805.128205128205,-1.0,77.55433710701747,2.756972471752496,
2023-08-09 09:56:14.644000,7.385542168674699,0.6144578313253012,-6.63855421686747,0.6940527283874923,8.02145922746781,-6.096873083997547,2.0,2.7406593406593407,364.8757016840417,-0.10302429928325904,2.1224870345550952,-0.4605792203251557,2805.128205128205,-1.0,77.55433710701747,2.75673914835266,
2023-08-09 09:56:14.652000,7.397590361445784,0.6265060240963856,-6.662650602409639,0.6793378295524218,8.036174126302882,-6.143470263641937,2.0,2.7406593406593407,364.8757016840417,-0.28623040615348805,2.1988229124176906,-0.32317464017248393,2805.128205128205,-1.0,77.55433710701747,2.7565065539721783,
2023-08-09 09:56:14.660000,7.421686746987953,0.6024096385542169,-6.650602409638554,0.7602697731453096,8.03862660944206,-6.0625383200490495,2.0,2.7406593406593407,364.8757016840417,-0.24042887943593078,2.0156168055474617,-0.23157158673736944,2805.128205128205,-1.0,77.55433710701747,2.756274706627242,
2023-08-09 09:56:14.667000,7.409638554216868,0.6265060240963856,-6.63855421686747,0.733292458614347,8.063151440833844,-6.101778050275904,2.0,2.7406593406593407,364.8757016840417,-0.2098945282908926,2.5041664238680723,-0.048365479867140425,2776.556776556776,-1.0,77.55433710701747,2.756043625098362,
2023-08-09 09:56:14.675000,7.385542168674699,0.6385542168674699,-6.626506024096386,0.7578172900061312,8.063151440833844,-6.138565297363581,2.0,2.7391941391941392,365.0708745653918,-0.7137113221840223,2.473632072723034,-0.0788998310121786,2683.5164835164833,-1.0,77.55433710701747,2.755813328930167,
2023-08-09 09:56:14.683000,7.385542168674699,0.6506024096385542,-6.614457831325302,0.8142244022072348,8.08277130594727,-6.158185162477007,2.0,2.7391941391941392,365.0708745653918,-0.2556960550084499,2.3972961948604388,-0.32317464017248393,2552.3809523809523,-1.0,77.55433710701747,2.7555838383940356,
2023-08-09 09:56:14.690000,7.397590361445784,0.6144578313253012,-6.63855421686747,0.7087676272225628,8.036174126302882,-6.114040465971796,2.0,2.7391941391941392,365.0708745653918,-0.3472991084435644,2.4125633704329577,0.05850474914049316,2395.6043956043954,765.9912109375,78.32988047808765,2.755355174343958,
2023-08-09 09:56:14.698000,7.385542168674699,0.6265060240963856,-6.626506024096386,0.7700797057020232,8.023911710606988,-6.094420600858369,2.0,2.7406593406593407,364.8757016840417,-0.2251617038634117,2.519433599440591,0.577588718606142,2229.304029304029,-1.0,78.32988047808765,2.755127358173908,
2023-08-09 09:56:14.706000,7.397590361445784,0.6144578313253012,-6.63855421686747,0.6842427958307786,8.00674432863274,-6.104230533415082,2.0,2.7406593406593407,364.8757016840417,-0.11829147485577812,2.320960316997843,0.15010780257560766,2060.07326007326,-1.0,78.32988047808765,2.75490041229981,
2023-08-09 09:56:14.713000,7.373493975903615,0.6144578313253012,-6.662650602409639,0.7504598405885959,8.048436541998774,-6.155732679337829,2.0,2.7391941391941392,365.0708745653918,-0.5152380397412742,2.3820290192879194,0.21117650486568398,1895.970695970696,-1.0,78.32988047808765,2.7546743602184094,
2023-08-09 09:56:14.721000,7.36144578313253,0.6024096385542169,-6.626506024096386,0.7112201103617413,8.043531575720417,-6.143470263641937,2.0,2.7406593406593407,364.8757016840417,-0.4083678107336407,2.473632072723034,-0.09416700658469768,1744.3223443223442,-1.0,78.32988047808765,2.754449225546666,
2023-08-09 09:56:14.729000,7.373493975903615,0.6265060240963856,-6.626506024096386,0.7774371551195585,8.070508890251379,-6.10913549969344,2.0,2.7406593406593407,364.8757016840417,-0.19462735271837353,2.107219858982576,-0.12470135772973584,1608.7912087912086,-1.0,78.32988047808765,2.7542250328886033,
2023-08-09 09:56:14.736000,7.385542168674699,0.6144578313253012,-6.662650602409639,0.7504598405885959,8.014101778050275,-6.116492949110975,2.0,2.7391941391941392,365.0708745653918,-0.19462735271837353,2.107219858982576,-0.12470135772973584,1493.040293040293,-1.0,78.32988047808765,2.754001808279847,
2023-08-09 09:56:14.744000,7.36144578313253,0.6144578313253012,-6.626506024096386,0.7283874923359902,8.050889025137952,-6.12385039852851,2.0,2.7391941391941392,365.0708745653918,-0.5763067420313506,2.2140900879902095,-0.47584639589767475,1398.5347985347985,-1.0,78.32988047808765,2.7537795777344667,
2023-08-09 09:56:14.752000,7.385542168674699,0.6024096385542169,-6.650602409638554,0.7308399754751685,8.045984058859595,-6.072348252605763,2.0,2.7391941391941392,365.0708745653918,-0.46943651302371703,2.1835557368451712,-0.5827166249053083,1322.3443223443223,-1.0,78.32988047808765,2.753558367161476,
2023-08-09 09:56:14.759000,7.373493975903615,0.6144578313253012,-6.626506024096386,0.7063151440833844,8.011649294911097,-6.104230533415082,2.0,2.7391941391941392,365.0708745653918,-0.27096323058096894,2.320960316997843,-0.6895868539129419,1261.5384615384614,-1.0,78.32988047808765,2.7533382032626084,
2023-08-09 09:56:14.767000,7.385542168674699,0.6144578313253012,-6.614457831325302,0.733292458614347,8.05334150827713,-6.165542611894543,2.0,2.7391941391941392,365.0708745653918,-0.07248994813822088,2.061418332265019,-0.13996853330225492,1215.3846153846152,-1.0,78.32988047808765,2.7531191134455715,
2023-08-09 09:56:14.775000,7.385542168674699,0.6385542168674699,-6.626506024096386,0.745554874310239,8.043531575720417,-6.096873083997547,2.0,2.7391941391941392,365.0708745653918,-0.10302429928325904,2.2904259658528052,-0.3079074645999648,1175.0915750915751,-1.0,78.32988047808765,2.7529011253149167,
2023-08-09 09:56:14.782000,7.385542168674699,0.6144578313253012,-6.614457831325302,0.7921520539546291,8.031269160024525,-6.094420600858369,2.0,2.7391941391941392,365.0708745653918,-0.24042887943593078,2.1682885612726523,-0.4453120447526366,1141.3919413919414,-1.0,78.32988047808765,2.7526842666538776,
2023-08-09 09:56:14.790000,7.385542168674699,0.6265060240963856,-6.650602409638554,0.7553648068669527,8.072961373390557,-6.116492949110975,2.0,2.7391941391941392,365.0708745653918,-0.05722277256570179,2.091952683410057,-0.29264028902744577,1110.6227106227107,-1.0,78.32988047808765,2.7524685658626296,
2023-08-09 09:56:14.798000,7.397590361445784,0.6385542168674699,-6.63855421686747,0.7406499080318822,8.0680564071122,-6.126302881667688,2.0,2.7406593406593407,364.8757016840417,0.003845929724374546,1.908746576539828,-0.21630441116485033,1082.051282051282,-1.0,78.32988047808765,2.752254051870174,
2023-08-09 09:56:14.805000,7.397590361445784,0.6506024096385542,-6.650602409638554,0.7700797057020232,8.060698957694665,-6.111587982832618,2.0,2.7391941391941392,365.0708745653918,0.2175863877396417,1.9392809276848662,-0.03309830429462134,1056.4102564102564,-1.0,78.32988047808765,2.752040754116772,
2023-08-09 09:56:14.813000,7.421686746987953,0.6385542168674699,-6.650602409638554,0.8117719190680563,8.063151440833844,-6.126302881667688,2.0,2.7406593406593407,364.8757016840417,-0.24042887943593078,2.656838179593263,-0.09416700658469768,1036.6300366300366,-1.0,78.32988047808765,2.7518287021144285,
2023-08-09 09:56:14.821000,7.421686746987953,0.6506024096385542,-6.662650602409639,0.82158185162477,8.048436541998774,-6.114040465971796,2.0,2.7406593406593407,364.8757016840417,0.23285356331216078,3.0995862711963165,-0.06363265543965951,1023.4432234432234,-1.0,78.32988047808765,2.751617925394838,
2023-08-09 09:56:14.828000,7.409638554216868,0.6626506024096386,-6.590361445783133,0.7529123237277743,8.107296137339056,-6.0919681177191904,2.0,2.7391941391941392,365.0708745653918,-0.08775712371073996,3.8476778742497517,0.012703222422935909,1016.117216117216,-1.0,78.32988047808765,2.7514084540187875,
2023-08-09 09:56:14.836000,7.433734939759036,0.6626506024096386,-6.614457831325302,0.7602697731453096,8.087676272225629,-6.084610668301655,2.0,2.7391941391941392,365.0708745653918,-0.05722277256570179,3.71027329409708,-0.048365479867140425,1015.3846153846154,-1.0,78.32988047808765,2.7512003185254454,
2023-08-09 09:56:14.844000,7.421686746987953,0.6626506024096386,-6.614457831325302,0.7578172900061312,8.063151440833844,-6.084610668301655,2.0,2.7406593406593407,364.8757016840417,-0.27096323058096894,4.397296194860439,-0.048365479867140425,1020.5128205128204,-1.0,78.32988047808765,2.7509935497097504,
2023-08-09 09:56:14.851000,7.409638554216868,0.6626506024096386,-6.602409638554217,0.7995095033721643,8.041079092581239,-6.079705702023298,2.0,2.7406593406593407,364.8757016840417,0.1412505098770463,4.397296194860439,-0.27737311345492666,1035.8974358974358,-1.0,78.32988047808765,2.7507881785748505,
2023-08-09 09:56:14.859000,7.421686746987953,0.6987951807228916,-6.566265060240964,0.8240343347639485,8.077866339668914,-6.0331085223789085,2.0,2.7406593406593407,364.8757016840417,0.20231921216712262,3.8476778742497517,-0.13996853330225492,1059.3406593406592,-1.0,78.32988047808765,2.750584236389937,
2023-08-09 09:56:14.867000,7.445783132530121,0.6987951807228916,-6.566265060240964,0.8608215818516247,8.112201103617412,-6.052728387492336,2.0,2.7406593406593407,364.8757016840417,0.08018180758696997,4.076685507837538,-0.03309830429462134,1090.8424908424909,-1.0,78.32988047808765,2.7503817542221474,
2023-08-09 09:56:14.874000,7.445783132530121,0.674698795180723,-6.506024096385542,0.8166768853464133,8.102391171060699,-6.006131207847946,2.0,2.7406593406593407,364.8757016840417,0.08018180758696997,3.389662607074179,0.5623215430336229,1126.7399267399267,-1.0,78.32988047808765,2.7501807629256927,
2023-08-09 09:56:14.882000,7.421686746987953,0.6626506024096386,-6.506024096385542,0.8166768853464133,8.131820968730839,-6.001226241569589,2.0,2.7406593406593407,364.8757016840417,-0.28623040615348805,3.023250393333721,0.6997261231862947,1167.7655677655678,-1.0,78.32988047808765,2.7499812931304892,
2023-08-09 09:56:14.890000,7.457831325301205,0.6626506024096386,-6.518072289156627,0.7749846719803801,8.0680564071122,-5.986511342734518,2.0,2.7406593406593407,364.8757016840417,0.1259833343045272,2.0461511566924995,0.8523978789114854,1209.5238095238094,-1.0,78.32988047808765,2.7497833756883243,
2023-08-09 09:56:14.897000,7.445783132530121,0.6385542168674699,-6.542168674698796,0.7259350091968118,8.12936848559166,-5.96934396076027,2.0,2.742124542124542,364.680737376436,0.09544898315948905,1.0232503933337211,1.295145970514539,1250.5494505494505,-1.0,78.32988047808765,2.749587041593681,
2023-08-09 09:56:14.905000,7.445783132530121,0.5903614457831325,-6.506024096385542,0.7259350091968118,8.075413856529735,-5.971796443899448,2.0,2.742124542124542,364.680737376436,0.20231921216712262,0.4736320727230341,1.3867490239496534,1290.8424908424909,-1.0,78.32988047808765,2.7493923219760474,
2023-08-09 09:56:14.913000,7.433734939759036,0.6024096385542169,-6.493975903614458,0.762722256284488,8.060698957694665,-6.0110361741263025,2.0,2.742124542124542,364.680737376436,0.5992657770526187,-0.41186411048307275,1.1882757415069054,1330.4029304029302,-1.0,78.32988047808765,2.7491992481638197,
2023-08-09 09:56:14.920000,7.445783132530121,0.5662650602409639,-6.518072289156627,0.6768853464132434,8.080318822808092,-6.042918454935622,2.0,2.742124542124542,364.680737376436,-0.10302429928325904,-1.1446885379639888,1.2646116193695007,1366.3003663003662,-1.0,78.32988047808765,2.7490078512232334,
2023-08-09 09:56:14.928000,7.433734939759036,0.5421686746987953,-6.566265060240964,0.6621704475781729,8.075413856529735,-6.057633353770693,2.0,2.742124542124542,364.680737376436,0.034380280869412715,-1.755375560864752,0.6997261231862947,1397.069597069597,-1.0,78.32988047808765,2.748818161955415,
2023-08-09 09:56:14.936000,7.421686746987953,0.5301204819277109,-6.55421686746988,0.6082158185162476,8.134273451870017,-6.052728387492336,2.0,2.742124542124542,364.680737376436,-0.04195559699318271,-2.075986247887653,0.7302604743313328,1419.7802197802198,-1.0,78.32988047808765,2.748630210893761,
2023-08-09 09:56:14.943000,7.433734939759036,0.5301204819277109,-6.578313253012048,0.6253832004904966,8.173513182096872,-6.0625383200490495,2.0,2.742124542124542,364.680737376436,-0.24042887943593078,-2.4423984616281107,0.760794825476371,1430.7692307692307,-1.0,78.32988047808765,2.7484440287596055,
2023-08-09 09:56:14.951000,7.445783132530121,0.5060240963855422,-6.602409638554217,0.598405885959534,8.109748620478234,-6.138565297363581,2.0,2.742124542124542,364.680737376436,-0.36256628401608343,-2.5798030417807825,-0.002563953149583175,1432.9670329670328,-1.0,78.32988047808765,2.748259646393186,
2023-08-09 09:56:14.958000,7.421686746987953,0.5060240963855422,-6.602409638554217,0.6523605150214592,8.126916002452482,-6.167995095033722,2.0,2.742124542124542,364.680737376436,-0.28623040615348805,-2.45766563720063,-0.21630441116485033,1428.5714285714284,-1.0,78.32988047808765,2.748077094264018,
2023-08-09 09:56:14.966000,7.433734939759036,0.5060240963855422,-6.602409638554217,0.6376456161863887,8.112201103617412,-6.153280196198651,2.0,2.7435897435897436,364.4859813084112,-0.19462735271837353,-2.0454518967426147,-0.8117242584930946,1417.5824175824175,-1.0,78.32988047808765,2.7478964024737706,
2023-08-09 09:56:14.974000,7.445783132530121,0.5180722891566265,-6.626506024096386,0.6253832004904966,8.08277130594727,-6.194972409564684,2.0,2.7435897435897436,364.4859813084112,-0.17936017714585445,-1.4347648738418513,-0.6895868539129419,1398.5347985347985,-1.0,78.32988047808765,2.747717601251738,
2023-08-09 09:56:14.981000,7.445783132530121,0.5301204819277109,-6.63855421686747,0.615573267933783,8.19068056407112,-6.172900061312078,2.0,2.742124542124542,364.680737376436,-0.07248994813822088,-0.9767496066662789,-1.239205174523629,1374.3589743589744,-1.0,78.32988047808765,2.7475407210296736,
2023-08-09 09:56:14.989000,7.445783132530121,0.5421686746987953,-6.614457831325302,0.6646229307173512,8.077866339668914,-6.0625383200490495,2.0,2.7435897435897436,364.4859813084112,-0.05722277256570179,-0.5645358662082636,-1.3613425791037816,1347.2527472527472,-1.0,78.32988047808765,2.747365792415129,
2023-08-09 09:56:14.997000,7.433734939759036,0.5783132530120483,-6.602409638554217,0.6695278969957081,8.095033721643164,-6.12385039852851,2.0,2.7435897435897436,364.4859813084112,-0.11829147485577812,0.22935726356272876,-1.285006701241186,1321.6117216117216,-1.0,78.32988047808765,2.747192846028139,
2023-08-09 09:56:15.004000,7.445783132530121,0.5783132530120483,-6.602409638554217,0.6965052115266707,8.126916002452482,-6.116492949110975,2.0,2.7435897435897436,364.4859813084112,-0.37783345958860254,0.4278305460054768,-1.6514189149816443,1295.970695970696,-1.0,78.32988047808765,2.7470219121252506,
2023-08-09 09:56:15.012000,7.445783132530121,0.5783132530120483,-6.590361445783133,0.7234825260576333,8.12936848559166,-6.10913549969344,2.0,2.7435897435897436,364.4859813084112,-0.37783345958860254,0.4278305460054768,-1.6514189149816443,1271.062271062271,-1.0,78.32988047808765,2.746853020646073,
2023-08-09 09:56:15.020000,7.445783132530121,0.5783132530120483,-6.614457831325302,0.7161250766400981,8.156345800122624,-6.0698957694665845,2.0,2.7435897435897436,364.4859813084112,-0.16409300157333537,0.5194335994405913,-1.254472350096148,1246.153846153846,-1.0,78.32988047808765,2.7466862016825737,
2023-08-09 09:56:15.027000,7.433734939759036,0.6144578313253012,-6.590361445783133,0.7676272225628449,8.102391171060699,-6.050275904353157,2.0,2.7435897435897436,364.4859813084112,-0.33203193287104527,0.6568381795932631,-1.0407318920808808,1221.9780219780218,-1.0,78.32988047808765,2.7465214849649486,
2023-08-09 09:56:15.035000,7.433734939759036,0.6144578313253012,-6.602409638554217,0.7185775597792765,8.126916002452482,-6.096873083997547,2.0,2.745054945054945,364.2914331465172,-0.37783345958860254,0.7484412330283776,-0.9643960142182855,1200.0,-1.0,78.32988047808765,2.7463588999088553,
2023-08-09 09:56:15.043000,7.46987951807229,0.6144578313253012,-6.602409638554217,0.7283874923359902,8.16125076640098,-6.0404659717964435,2.0,2.745054945054945,364.2914331465172,-0.48470368859623614,0.8553114620360112,-0.88806013635569,1178.7545787545787,-1.0,78.32988047808765,2.74619847654274,
2023-08-09 09:56:15.050000,7.421686746987953,0.6265060240963856,-6.578313253012048,0.7406499080318822,8.072961373390557,-6.057633353770693,2.0,2.745054945054945,364.2914331465172,-0.36256628401608343,0.7484412330283776,-1.1628692966610334,1156.7765567765566,-1.0,78.32988047808765,2.7460402451001835,
2023-08-09 09:56:15.058000,7.421686746987953,0.6506024096385542,-6.590361445783133,0.7381974248927038,8.092581238503985,-6.079705702023298,2.0,2.745054945054945,364.2914331465172,-0.48470368859623614,0.4278305460054768,-0.8422586096381328,1134.065934065934,-1.0,78.32988047808765,2.7458842355789668,
2023-08-09 09:56:15.066000,7.433734939759036,0.6385542168674699,-6.590361445783133,0.7847946045370937,8.077866339668914,-6.052728387492336,2.0,2.745054945054945,364.2914331465172,-0.5457723908863125,0.2904259658528051,-1.1170677699434763,1113.5531135531135,-1.0,78.32988047808765,2.745730478214945,
2023-08-09 09:56:15.073000,7.409638554216868,0.6506024096385542,-6.614457831325302,0.7480073574494175,8.019006744328632,-6.0331085223789085,2.0,2.745054945054945,364.2914331465172,-0.36256628401608343,0.13775421012761427,-0.7353883806304992,1095.970695970696,-1.0,78.32988047808765,2.7455790029718132,
2023-08-09 09:56:15.081000,7.421686746987953,0.6506024096385542,-6.614457831325302,0.8191293684855916,8.072961373390557,-6.0772532188841195,2.0,2.745054945054945,364.2914331465172,-0.33203193287104527,0.061418332265018846,-0.7811899073480564,1083.5164835164835,-1.0,78.32988047808765,2.7454298395915524,
2023-08-09 09:56:15.089000,7.409638554216868,0.6506024096385542,-6.614457831325302,0.7431023911710607,8.060698957694665,-6.10913549969344,2.0,2.745054945054945,364.2914331465172,-0.39310063516112165,-0.41186411048307275,-0.7811899073480564,1077.6556776556777,-1.0,78.32988047808765,2.745283018031486,
2023-08-09 09:56:15.096000,7.421686746987953,0.6867469879518072,-6.566265060240964,0.8068669527896996,8.087676272225629,-6.1066830165542605,2.0,2.745054945054945,364.2914331465172,-0.5305052153137934,-0.4271312860555918,-0.6895868539129419,1076.923076923077,-1.0,78.32988047808765,2.74513856798605,
2023-08-09 09:56:15.104000,7.397590361445784,0.6626506024096386,-6.602409638554217,0.703862660944206,8.075413856529735,-6.114040465971796,2.0,2.746520146520147,364.09709255801545,-0.24042887943593078,-0.9004137288036834,-0.7811899073480564,1079.120879120879,-1.0,78.32988047808765,2.7449965188989043,
2023-08-09 09:56:15.112000,7.385542168674699,0.6867469879518072,-6.590361445783133,0.7480073574494175,8.031269160024525,-6.121397915389331,2.0,2.745054945054945,364.2914331465172,-0.36256628401608343,-1.2362915913991033,-0.6285181516228656,1084.2490842490843,-1.0,78.32988047808765,2.744856900465254,
2023-08-09 09:56:15.119000,7.385542168674699,0.6506024096385542,-6.590361445783133,0.762722256284488,8.031269160024525,-6.060085836909871,2.0,2.746520146520147,364.09709255801545,-0.3167647572985262,-1.6485053318571186,-1.071266243225919,1091.5750915750914,-1.0,78.32988047808765,2.744719742676301,
2023-08-09 09:56:15.127000,7.36144578313253,0.6385542168674699,-6.578313253012048,0.7749846719803801,8.028816676885347,-6.084610668301655,2.0,2.746520146520147,364.09709255801545,-0.3167647572985262,-2.3813297593380347,-0.9643960142182855,1100.3663003663003,-1.0,78.32988047808765,2.7445850757244696,
2023-08-09 09:56:15.135000,7.325301204819278,0.6265060240963856,-6.602409638554217,0.7921520539546291,8.004291845493562,-6.126302881667688,2.0,2.745054945054945,364.2914331465172,-0.6984441466115033,-2.9920167822387977,-0.7811899073480564,1109.89010989011,-1.0,78.32988047808765,2.7444529300471787,
2023-08-09 09:56:15.142000,7.289156626506024,0.6385542168674699,-6.650602409638554,0.627835683629675,7.75904353157572,-6.219497240956468,2.0,2.746520146520147,364.09709255801545,-0.1335586504282972,-4.304993881475439,-1.5750830371190487,1120.14652014652,-1.0,78.32988047808765,2.7443233358424335,
2023-08-09 09:56:15.150000,7.433734939759036,0.6385542168674699,-6.602409638554217,0.7896995708154506,8.107296137339056,-6.1704475781729,2.0,2.746520146520147,364.09709255801545,-0.7595128489015797,-2.8698793776586453,0.02797039799545499,1128.937728937729,-1.0,78.32988047808765,2.744196323427167,
2023-08-09 09:56:15.158000,7.36144578313253,0.710843373493976,-6.602409638554217,0.7872470876762722,8.050889025137952,-6.101778050275904,2.0,2.747985347985348,363.9029592108771,-0.3472991084435644,-3.526367927276966,-1.6514189149816443,1135.5311355311355,-1.0,78.32988047808765,2.744071923275181,
2023-08-09 09:56:15.165000,7.289156626506024,0.5783132530120483,-6.674698795180723,0.6548129981606376,7.906192519926425,-6.160637645616186,2.0,2.747985347985348,363.9029592108771,-0.28623040615348805,-4.747741973078492,-1.0407318920808808,1143.5897435897434,-1.0,78.32988047808765,2.7439501660534087,
2023-08-09 09:56:15.173000,7.421686746987953,0.6265060240963856,-6.650602409638554,0.8093194359288779,8.072961373390557,-6.207234825260576,2.0,2.747985347985348,363.9029592108771,-0.3472991084435644,-5.083619835673912,-0.9185944875007281,1152.3809523809523,-1.0,78.32988047808765,2.7438310826914285,
2023-08-09 09:56:15.181000,7.445783132530121,0.674698795180723,-6.698795180722892,0.8191293684855916,8.126916002452482,-6.187614960147148,2.0,2.747985347985348,363.9029592108771,0.034380280869412715,-4.839345026513607,-1.0865334187984381,1158.2417582417581,-1.0,78.32988047808765,2.743714703922305,
2023-08-09 09:56:15.188000,7.36144578313253,0.6385542168674699,-6.72289156626506,0.7136725935009196,7.996934396076027,-6.234212139791539,2.0,2.747985347985348,363.9029592108771,0.1259833343045272,-3.6790396830021566,-1.452945632538896,1166.3003663003662,-1.0,78.32988047808765,2.743601060277645,
2023-08-09 09:56:15.196000,7.301204819277109,0.6385542168674699,-6.72289156626506,0.733292458614347,7.933169834457388,-6.190067443286327,2.0,2.747985347985348,363.9029592108771,-0.05722277256570179,-2.7935434997960495,-1.5292815104014914,1175.8241758241757,-1.0,78.32988047808765,2.7434901820789666,
2023-08-09 09:56:15.204000,7.265060240963856,0.6626506024096386,-6.674698795180723,0.7578172900061312,7.886572654812998,-6.214592274678111,2.0,2.7494505494505495,363.70903277378096,0.18705203659460354,-2.259192354757882,-1.452945632538896,1183.8827838827838,-1.0,78.32988047808765,2.7433820998831733,
2023-08-09 09:56:15.211000,7.289156626506024,0.6626506024096386,-6.674698795180723,0.8142244022072348,7.908645003065604,-6.197424892703863,2.0,2.7494505494505495,363.70903277378096,-0.14882582600081629,-2.717207621933454,-1.0254647165083617,1189.0109890109889,-1.0,78.32988047808765,2.7432768448918026,
2023-08-09 09:56:15.219000,7.313253012048193,0.674698795180723,-6.698795180722892,0.8412017167381973,7.984671980380134,-6.23175965665236,2.0,2.7494505494505495,363.70903277378096,0.1412505098770463,-2.6103373929258207,-0.9491288386457664,1194.8717948717947,-1.0,78.32988047808765,2.7431744480569917,
2023-08-09 09:56:15.227000,7.301204819277109,0.6626506024096386,-6.72289156626506,0.7651747394236664,7.974862047823421,-6.268546903740036,2.0,2.7494505494505495,363.70903277378096,-0.2251617038634117,-2.12178777460521,-0.9491288386457664,1199.2673992673992,-1.0,78.32988047808765,2.7430749401341425,
2023-08-09 09:56:15.234000,7.349397590361447,0.6867469879518072,-6.72289156626506,0.8019619865113427,7.955242182709993,-6.148375229920294,2.0,2.7494505494505495,363.70903277378096,-0.2098945282908926,-2.0454518967426147,-0.9491288386457664,1200.7326007326008,-1.0,78.32988047808765,2.7429783520846427,
2023-08-09 09:56:15.242000,7.349397590361447,0.6987951807228916,-6.759036144578314,0.7798896382587369,7.974862047823421,-6.241569589209074,2.0,2.7494505494505495,363.70903277378096,-0.33203193287104527,-1.5111007517044468,-0.5369150981877511,1201.4652014652013,-1.0,78.32988047808765,2.7428847145615847,
2023-08-09 09:56:15.250000,7.337349397590362,0.674698795180723,-6.710843373493976,0.82158185162477,7.952789699570815,-6.266094420600858,2.0,2.7494505494505495,363.70903277378096,-0.2098945282908926,-0.6866732707884162,-0.5674494493327893,1205.128205128205,-1.0,78.32988047808765,2.7427940578843564,
2023-08-09 09:56:15.257000,7.337349397590362,0.674698795180723,-6.698795180722892,0.8264868179031268,7.984671980380134,-6.209687308399754,2.0,2.7494505494505495,363.70903277378096,-0.1335586504282972,-0.4729328127731491,-0.29264028902744577,1207.3260073260074,-1.0,78.32988047808765,2.7427064124673066,
2023-08-09 09:56:15.265000,7.337349397590362,0.6987951807228916,-6.710843373493976,0.8068669527896996,7.93071735131821,-6.197424892703863,2.0,2.7494505494505495,363.70903277378096,0.06491463201445088,-0.06071907231513382,0.012703222422935909,1210.989010989011,-1.0,78.32988047808765,2.742621808719542,
2023-08-09 09:56:15.273000,7.313253012048193,0.6987951807228916,-6.746987951807229,0.8240343347639485,7.950337216431636,-6.190067443286327,2.0,2.7494505494505495,363.70903277378096,-0.011421245848144537,0.04615115669249976,0.2875123827282794,1216.117216117216,-1.0,78.32988047808765,2.7425402765199096,
2023-08-09 09:56:15.280000,7.313253012048193,0.6867469879518072,-6.710843373493976,0.7676272225628449,8.014101778050275,-6.177805027590435,2.0,2.750915750915751,363.51531291611184,-0.19462735271837353,0.39729619486043866,0.577588718606142,1227.106227106227,-1.0,78.32988047808765,2.74246184518038,
2023-08-09 09:56:15.288000,7.313253012048193,0.6867469879518072,-6.698795180722892,0.8313917841814837,7.962599632127529,-6.148375229920294,2.0,2.7494505494505495,363.70903277378096,-0.19462735271837353,0.39729619486043866,0.577588718606142,1241.7582417582416,-1.0,78.32988047808765,2.7423865438979256,
2023-08-09 09:56:15.296000,7.313253012048193,0.6867469879518072,-6.650602409638554,0.7823421213979154,8.00674432863274,-6.155732679337829,2.0,2.7494505494505495,363.70903277378096,0.1259833343045272,0.30569314142532417,0.5470543674611038,1263.003663003663,-1.0,78.32988047808765,2.742314401747046,
2023-08-09 09:56:15.303000,7.325301204819278,0.674698795180723,-6.686746987951808,0.7774371551195585,7.972409564684242,-6.175352544451257,2.0,2.750915750915751,363.51531291611184,0.2175863877396417,0.5652351261581486,0.8676650544840045,1295.970695970696,-1.0,78.32988047808765,2.7422454470392306,
2023-08-09 09:56:15.311000,7.325301204819278,0.6867469879518072,-6.698795180722892,0.8044144696505211,7.969957081545064,-6.182709993868792,2.0,2.750915750915751,363.51531291611184,0.3244566167472753,0.4736320727230341,0.6997261231862947,1344.3223443223442,-1.0,78.32988047808765,2.7421797077331416,
2023-08-09 09:56:15.319000,7.349397590361447,0.6867469879518072,-6.686746987951808,0.7602697731453096,7.979767014101777,-6.221949724095647,2.0,2.750915750915751,363.51531291611184,0.2939222656022371,0.5652351261581486,0.9287337567740809,1411.7216117216117,-1.0,78.32988047808765,2.7421172114548464,
2023-08-09 09:56:15.326000,7.325301204819278,0.674698795180723,-6.698795180722892,0.8019619865113427,7.994481912936848,-6.241569589209074,2.0,2.750915750915751,363.51531291611184,0.09544898315948905,0.5805023017306676,0.8065963521939282,1506.227106227106,-1.0,78.32988047808765,2.7420579849894406,
2023-08-09 09:56:15.334000,7.313253012048193,0.674698795180723,-6.674698795180723,0.7847946045370937,7.903740036787247,-6.219497240956468,2.0,2.750915750915751,363.51531291611184,-0.19462735271837353,1.1453877979138738,0.8371307033389664,1630.7692307692307,-1.0,78.32988047808765,2.7420020542272683,
2023-08-09 09:56:15.341000,7.289156626506024,0.6626506024096386,-6.674698795180723,0.7381974248927038,7.938074800735745,-6.202329858982219,2.0,2.7523809523809524,363.3217993079585,0.049647456441931796,0.5041664238680723,0.8981994056290428,1784.6153846153845,-1.0,78.32988047808765,2.741949444107077,
2023-08-09 09:56:15.349000,7.289156626506024,0.674698795180723,-6.686746987951808,0.8093194359288779,7.925812385039852,-6.18516247700797,2.0,2.7523809523809524,363.3217993079585,0.2175863877396417,0.3667618437154005,0.18064215372064582,1959.7069597069597,-1.0,78.32988047808765,2.741900179506873,
2023-08-09 09:56:15.357000,7.2771084337349405,0.6506024096385542,-6.710843373493976,0.762722256284488,7.989576946658492,-6.207234825260576,2.0,2.750915750915751,363.51531291611184,0.3244566167472753,0.12248703455509517,0.5012528407435466,2150.1831501831502,-1.0,78.32988047808765,2.741854285186577,
2023-08-09 09:56:15.364000,7.313253012048193,0.6385542168674699,-6.698795180722892,0.7136725935009196,7.999386879215205,-6.18516247700797,2.0,2.7523809523809524,363.3217993079585,0.003845929724374546,0.15302138570013335,0.4859856651710275,2342.124542124542,-1.0,78.32988047808765,2.7418117842900522,
2023-08-09 09:56:15.372000,7.325301204819278,0.6385542168674699,-6.72289156626506,0.7431023911710607,7.999386879215205,-6.219497240956468,2.0,2.7523809523809524,363.3217993079585,0.15651768544956537,0.24462443913524784,0.3791154361633939,2521.6117216117214,-1.0,78.32988047808765,2.741772698708707,
2023-08-09 09:56:15.380000,7.325301204819278,0.6265060240963856,-6.710843373493976,0.7700797057020232,7.982219497240956,-6.268546903740036,2.0,2.7523809523809524,363.3217993079585,0.049647456441931796,0.41256337043295777,0.3027795583007985,2676.9230769230767,-1.0,78.32988047808765,2.74173704954726,
2023-08-09 09:56:15.387000,7.313253012048193,0.6506024096385542,-6.746987951807229,0.7946045370938074,7.99202942979767,-6.187614960147148,2.0,2.7523809523809524,363.3217993079585,0.06491463201445088,0.5957694773031867,0.05850474914049316,2795.6043956043954,-1.0,78.32988047808765,2.741704857062822,
2023-08-09 09:56:15.395000,7.325301204819278,0.6385542168674699,-6.72289156626506,0.7553648068669527,8.019006744328632,-6.234212139791539,2.0,2.753846153846154,363.12849162011173,0.08018180758696997,1.3438610803566218,0.08903910028553133,2805.128205128205,-1.0,78.32988047808765,2.7416761405354246,
2023-08-09 09:56:15.403000,7.349397590361447,0.6385542168674699,-6.734939759036145,0.7578172900061312,7.92826486817903,-6.23175965665236,2.0,2.753846153846154,363.12849162011173,0.23285356331216078,1.54233436279937,0.25697803158324123,2805.128205128205,-1.0,78.32988047808765,2.741650918209092,
2023-08-09 09:56:15.410000,7.325301204819278,0.6265060240963856,-6.72289156626506,0.7357449417535254,7.979767014101777,-6.209687308399754,2.0,2.753846153846154,363.12849162011173,-0.07248994813822088,1.4354641337917364,0.5012528407435466,2805.128205128205,-1.0,78.32988047808765,2.7416292073037685,
2023-08-09 09:56:15.418000,7.349397590361447,0.6385542168674699,-6.698795180722892,0.745554874310239,8.001839362354383,-6.256284488044145,2.0,2.753846153846154,363.12849162011173,0.049647456441931796,2.0766855078375377,0.5317871918885847,2802.9304029304026,-1.0,78.32988047808765,2.741611023501691,
2023-08-09 09:56:15.426000,7.325301204819278,0.6144578313253012,-6.72289156626506,0.733292458614347,7.952789699570815,-6.197424892703863,2.0,2.753846153846154,363.12849162011173,-0.07248994813822088,1.8782122253947897,0.4859856651710275,2739.194139194139,743.011474609375,80.75245410112129,2.741596380891491,
2023-08-09 09:56:15.433000,7.337349397590362,0.6024096385542169,-6.72289156626506,0.7651747394236664,7.99202942979767,-6.158185162477007,2.0,2.753846153846154,363.12849162011173,-0.10302429928325904,2.1988229124176906,0.4859856651710275,2638.095238095238,-1.0,80.75245410112129,2.7415852919124712,
2023-08-09 09:56:15.441000,7.349397590361447,0.6265060240963856,-6.686746987951808,0.703862660944206,8.014101778050275,-6.190067443286327,2.0,2.7523809523809524,363.3217993079585,0.4160596701823898,2.427830546005477,0.7913291766214091,2507.6923076923076,-1.0,80.75245410112129,2.741577767299311,
2023-08-09 09:56:15.449000,7.36144578313253,0.6144578313253012,-6.686746987951808,0.733292458614347,7.977314530962599,-6.163090128755364,2.0,2.753846153846154,363.12849162011173,0.11071615873200813,2.87057863760853,0.6233902453236992,2361.172161172161,-1.0,80.75245410112129,2.7415738159927505,
2023-08-09 09:56:15.456000,7.337349397590362,0.6024096385542169,-6.698795180722892,0.7234825260576333,8.0680564071122,-6.1704475781729,2.0,2.753846153846154,363.12849162011173,0.2481207388846799,3.221723675776469,0.6691917720412565,2206.5934065934066,-1.0,80.75245410112129,2.7415734454392644,
2023-08-09 09:56:15.464000,7.349397590361447,0.5903614457831325,-6.662650602409639,0.6965052115266707,7.955242182709993,-6.121397915389331,2.0,2.753846153846154,363.12849162011173,0.11071615873200813,3.6186702406619653,1.0508711613542336,2049.8168498168498,-1.0,80.75245410112129,2.7415766615749737,
2023-08-09 09:56:15.472000,7.337349397590362,0.5903614457831325,-6.662650602409639,0.7431023911710607,8.026364193746167,-6.131207847946045,2.0,2.753846153846154,363.12849162011173,0.06491463201445088,3.4507313093642553,0.8065963521939282,1896.7032967032965,-1.0,80.75245410112129,2.7415834683201474,
2023-08-09 09:56:15.479000,7.36144578313253,0.6024096385542169,-6.674698795180723,0.6940527283874923,7.960147148988351,-6.199877375843041,2.0,2.753846153846154,363.12849162011173,-0.026688421420663622,3.404929782646698,0.7302604743313328,1756.0439560439559,-1.0,80.75245410112129,2.741593867532802,
2023-08-09 09:56:15.487000,7.36144578313253,0.6024096385542169,-6.686746987951808,0.7847946045370937,8.016554261189453,-6.141017780502759,2.0,2.753846153846154,363.12849162011173,-0.24042887943593078,2.946914515471126,0.9134665812015619,1632.2344322344322,-1.0,80.75245410112129,2.7416078594216513,
2023-08-09 09:56:15.495000,7.349397590361447,0.6024096385542169,-6.650602409638554,0.6916002452483139,8.019006744328632,-6.163090128755364,2.0,2.753846153846154,363.12849162011173,0.034380280869412715,3.084319095623797,0.577588718606142,1528.937728937729,-1.0,80.75245410112129,2.741625442435684,
2023-08-09 09:56:15.502000,7.373493975903615,0.6024096385542169,-6.686746987951808,0.6965052115266707,8.02145922746781,-6.155732679337829,2.0,2.753846153846154,363.12849162011173,0.1412505098770463,3.20645650020395,0.33331390944583666,1445.4212454212454,-1.0,80.75245410112129,2.741646612734642,
2023-08-09 09:56:15.510000,7.349397590361447,0.6024096385542169,-6.626506024096386,0.7431023911710607,7.989576946658492,-6.165542611894543,2.0,2.753846153846154,363.12849162011173,-0.07248994813822088,2.5805023017306676,0.3027795583007985,1375.8241758241757,-1.0,80.75245410112129,2.741671364153756,
2023-08-09 09:56:15.518000,7.36144578313253,0.5783132530120483,-6.626506024096386,0.7014101778050276,8.090128755364807,-6.148375229920294,2.0,2.7553113553113553,362.93538952406277,-0.08775712371073996,2.687372530738301,0.04323757356797407,1316.4835164835165,-1.0,80.75245410112129,2.7416996881703635,
2023-08-09 09:56:15.525000,7.36144578313253,0.6144578313253012,-6.650602409638554,0.762722256284488,8.041079092581239,-6.143470263641937,2.0,2.7553113553113553,362.93538952406277,0.23285356331216078,2.4583648971505148,0.1195734514305695,1268.8644688644688,-1.0,80.75245410112129,2.7417315743652817,
2023-08-09 09:56:15.533000,7.373493975903615,0.6024096385542169,-6.650602409638554,0.745554874310239,8.009196811771918,-6.163090128755364,2.0,2.7553113553113553,362.93538952406277,-0.05722277256570179,2.5041664238680723,-0.2621059378824076,1227.106227106227,-1.0,80.75245410112129,2.7417670109239505,
2023-08-09 09:56:15.541000,7.385542168674699,0.5783132530120483,-6.63855421686747,0.7087676272225628,8.087676272225629,-6.1704475781729,2.0,2.7553113553113553,362.93538952406277,-0.11829147485577812,2.137754210127614,0.07377192471301224,1188.278388278388,-1.0,80.75245410112129,2.7418059836326005,
2023-08-09 09:56:15.548000,7.36144578313253,0.6144578313253012,-6.662650602409639,0.6793378295524218,8.09993868792152,-6.138565297363581,2.0,2.7553113553113553,362.93538952406277,0.1259833343045272,2.1988229124176906,-0.39951051803507936,1151.6483516483515,-1.0,80.75245410112129,2.741848475897657,
2023-08-09 09:56:15.556000,7.397590361445784,0.6144578313253012,-6.662650602409639,0.6768853464132434,8.070508890251379,-6.12385039852851,2.0,2.7553113553113553,362.93538952406277,-0.10302429928325904,2.2140900879902095,-0.6132509760503465,1117.9487179487178,-1.0,80.75245410112129,2.74189446961458,
2023-08-09 09:56:15.564000,7.397590361445784,0.6024096385542169,-6.626506024096386,0.7504598405885959,8.070508890251379,-6.138565297363581,2.0,2.7553113553113553,362.93538952406277,-0.10302429928325904,2.2140900879902095,-0.6132509760503465,1084.981684981685,-1.0,80.75245410112129,2.7419439441437237,
2023-08-09 09:56:15.571000,7.36144578313253,0.6265060240963856,-6.63855421686747,0.6989576946658491,8.028816676885347,-6.202329858982219,2.0,2.7553113553113553,362.93538952406277,-0.24042887943593078,1.8171435231047135,-0.5521822737602702,1053.4798534798533,-1.0,80.75245410112129,2.7419968763440257,
2023-08-09 09:56:15.579000,7.373493975903615,0.6265060240963856,-6.650602409638554,0.7921520539546291,8.03862660944206,-6.143470263641937,2.0,2.7553113553113553,362.93538952406277,-0.3472991084435644,2.0156168055474617,-0.7506555562030183,1028.5714285714284,-1.0,80.75245410112129,2.742053240540272,
2023-08-09 09:56:15.587000,7.373493975903615,0.6265060240963856,-6.686746987951808,0.7234825260576333,8.041079092581239,-6.163090128755364,2.0,2.7553113553113553,362.93538952406277,0.17178486102208446,1.8324106986772326,-1.0254647165083617,1008.058608058608,-1.0,80.75245410112129,2.7421130085631455,
2023-08-09 09:56:15.594000,7.36144578313253,0.6024096385542169,-6.686746987951808,0.7087676272225628,7.989576946658492,-6.180257510729613,2.0,2.753846153846154,363.12849162011173,-0.37783345958860254,2.1682885612726523,-0.9033273119282091,996.3369963369963,-1.0,80.75245410112129,2.742176150180983,
2023-08-09 09:56:15.602000,7.349397590361447,0.6024096385542169,-6.686746987951808,0.7161250766400981,8.05334150827713,-6.177805027590435,2.0,2.7553113553113553,362.93538952406277,-0.1335586504282972,2.488899248295553,-1.3002738768137052,994.8717948717948,-1.0,80.75245410112129,2.7422426325867546,
2023-08-09 09:56:15.610000,7.349397590361447,0.6144578313253012,-6.710843373493976,0.7136725935009196,8.045984058859595,-6.241569589209074,2.0,2.7553113553113553,362.93538952406277,-0.36256628401608343,2.9774488666161636,-1.3766097546763008,1002.1978021978022,-1.0,80.75245410112129,2.742312420769009,
2023-08-09 09:56:15.617000,7.36144578313253,0.6144578313253012,-6.72289156626506,0.8117719190680563,8.060698957694665,-6.224402207234825,2.0,2.7567765567765568,362.74249269200106,-0.454169337451198,3.4354641337917364,-1.7277547928442396,1019.0476190476189,-1.0,80.75245410112129,2.742385477569041,
2023-08-09 09:56:15.625000,7.373493975903615,0.6385542168674699,-6.698795180722892,0.7480073574494175,8.048436541998774,-6.207234825260576,2.0,2.7567765567765568,362.74249269200106,-0.33203193287104527,4.015616805547461,-1.5750830371190487,1044.6886446886447,-1.0,80.75245410112129,2.742461763743222,
2023-08-09 09:56:15.633000,7.385542168674699,0.6626506024096386,-6.686746987951808,0.8289393010423053,8.055793991416309,-6.182709993868792,2.0,2.7567765567765568,362.74249269200106,-0.2098945282908926,4.794242759745934,-1.7277547928442396,1076.1904761904761,-1.0,80.75245410112129,2.7425412380655922,
2023-08-09 09:56:15.640000,7.397590361445784,0.674698795180723,-6.674698795180723,0.7774371551195585,8.03862660944206,-6.180257510729613,2.0,2.7567765567765568,362.74249269200106,-0.2556960550084499,5.756074820814637,-2.094167006584698,1115.7509157509157,-1.0,80.75245410112129,2.742623856908903,
2023-08-09 09:56:15.648000,7.409638554216868,0.710843373493976,-6.63855421686747,0.8289393010423053,8.104843654199877,-6.121397915389331,2.0,2.7567765567765568,362.74249269200106,-0.16409300157333537,6.259891614707767,-1.7430219684167587,1159.7069597069597,-1.0,80.75245410112129,2.7427095742871765,
2023-08-09 09:56:15.656000,7.445783132530121,0.7228915662650602,-6.602409638554217,0.8166768853464133,8.05334150827713,-6.133660331085223,2.0,2.7567765567765568,362.74249269200106,-0.05722277256570179,7.0995862711963165,-1.7582891439892778,1205.128205128205,-1.0,80.75245410112129,2.742798341901907,
2023-08-09 09:56:15.663000,7.46987951807229,0.710843373493976,-6.578313253012048,0.8191293684855916,8.045984058859595,-6.020846106683016,2.0,2.7567765567765568,362.74249269200106,0.11071615873200813,7.359128255929141,-0.9185944875007281,1249.8168498168498,-1.0,80.75245410112129,2.742890109191947,
2023-08-09 09:56:15.671000,7.493975903614459,0.7228915662650602,-6.518072289156627,0.838749233599019,8.087676272225629,-5.96934396076027,2.0,2.7567765567765568,362.74249269200106,-0.026688421420663622,7.740807645242118,-0.5521822737602702,1292.3076923076922,-1.0,80.75245410112129,2.742984823387087,
2023-08-09 09:56:15.679000,7.481927710843374,0.7228915662650602,-6.46987951807229,0.8117719190680563,8.11465358675659,-5.964438994481912,2.0,2.7567765567765568,362.74249269200106,0.23285356331216078,7.282792378066545,-0.002563953149583175,1328.2051282051282,-1.0,80.75245410112129,2.7430824295652934,
2023-08-09 09:56:15.686000,7.46987951807229,0.7228915662650602,-6.457831325301205,0.851011649294911,8.107296137339056,-5.910484365419987,2.0,2.7567765567765568,362.74249269200106,0.6908688304877333,6.290425965852805,0.6539245964687375,1358.2417582417581,-1.0,80.75245410112129,2.743182871171466,
2023-08-09 09:56:15.694000,7.46987951807229,0.7228915662650602,-6.445783132530121,0.7995095033721643,8.139178418148374,-5.881054567749846,2.0,2.758241758241758,362.54980079681275,0.4007924946098707,4.473632072723034,1.0966726880717907,1381.6849816849815,-1.0,80.75245410112129,2.7432860900146814,
2023-08-09 09:56:15.702000,7.421686746987953,0.6987951807228916,-6.385542168674699,0.8755364806866952,8.095033721643164,-5.817290006131207,2.0,2.758241758241758,362.54980079681275,0.3397237923197944,1.6797389429520417,1.6157566575374396,1397.8021978021977,-1.0,80.75245410112129,2.743392026340513,
2023-08-09 09:56:15.709000,7.409638554216868,0.6867469879518072,-6.397590361445784,0.838749233599019,8.122011036174126,-5.836909871244635,2.0,2.758241758241758,362.54980079681275,0.4160596701823898,-0.9462152555212406,2.058504749140493,1405.8608058608058,-1.0,80.75245410112129,2.743500618978369,
2023-08-09 09:56:15.717000,7.433734939759036,0.6626506024096386,-6.409638554216868,0.7749846719803801,8.016554261189453,-5.858982219497241,2.0,2.758241758241758,362.54980079681275,0.003845929724374546,-3.6637725074296377,2.0127032224229358,1403.6630036630036,-1.0,80.75245410112129,2.7436118049670415,
2023-08-09 09:56:15.724000,7.409638554216868,0.6506024096385542,-6.445783132530121,0.7823421213979154,8.126916002452482,-5.935009196811771,2.0,2.758241758241758,362.54980079681275,0.2481207388846799,-6.671406095215897,1.6462910086824778,1391.9413919413919,-1.0,80.75245410112129,2.7437255196413743,
2023-08-09 09:56:15.732000,7.397590361445784,0.6385542168674699,-6.506024096385542,0.7602697731453096,8.058246474555487,-5.96934396076027,2.0,2.7567765567765568,362.74249269200106,0.8435405862129242,-8.671406095215897,1.6004894819649205,1372.161172161172,-1.0,80.75245410112129,2.743841697179879,
2023-08-09 09:56:15.740000,7.36144578313253,0.6144578313253012,-6.518072289156627,0.733292458614347,8.058246474555487,-6.0331085223789085,2.0,2.758241758241758,362.54980079681275,0.5687314259075806,-10.80881067536857,0.42491696288095115,1347.985347985348,-1.0,80.75245410112129,2.743960270137496,
2023-08-09 09:56:15.747000,7.385542168674699,0.5903614457831325,-6.55421686746988,0.6916002452483139,8.055793991416309,-6.060085836909871,2.0,2.7567765567765568,362.74249269200106,0.9504108152205577,-12.564535866208264,0.16537497814812674,1317.9487179487178,-1.0,80.75245410112129,2.744081169015268,
2023-08-09 09:56:15.755000,7.36144578313253,0.5903614457831325,-6.590361445783133,0.6548129981606376,8.050889025137952,-6.087063151440834,2.0,2.7567765567765568,362.74249269200106,0.7061360060602524,-14.198123652467805,-0.5369150981877511,1287.179487179487,-1.0,80.75245410112129,2.74420432337679,
2023-08-09 09:56:15.763000,7.349397590361447,0.5783132530120483,-6.650602409638554,0.6842427958307786,8.048436541998774,-6.1361128142244015,2.0,2.7567765567765568,362.74249269200106,0.8588077617854433,-15.205757240254064,-1.2086708233785908,1254.9450549450548,-1.0,80.75245410112129,2.7443296613169004,
2023-08-09 09:56:15.770000,7.313253012048193,0.5542168674698795,-6.698795180722892,0.7283874923359902,7.92826486817903,-6.165542611894543,2.0,2.758241758241758,362.54980079681275,1.026746693083153,-15.984383194452535,-1.7888234951343158,1221.9780219780218,-1.0,80.75245410112129,2.7444571091051118,
2023-08-09 09:56:15.778000,7.337349397590362,0.5783132530120483,-6.710843373493976,0.6597179644389944,7.965052115266707,-6.234212139791539,2.0,2.758241758241758,362.54980079681275,0.5687314259075806,-16.167589301322764,-2.338441815745003,1187.5457875457876,-1.0,80.75245410112129,2.7445865922703474,
2023-08-09 09:56:15.786000,7.337349397590362,0.5903614457831325,-6.746987951807229,0.6916002452483139,7.955242182709993,-6.24647455548743,2.0,2.758241758241758,362.54980079681275,1.026746693083153,-16.2744595303304,-2.9643960142182855,1157.5091575091574,-1.0,80.75245410112129,2.744718035773039,
2023-08-09 09:56:15.793000,7.313253012048193,0.5903614457831325,-6.746987951807229,0.657265481299816,7.982219497240956,-6.273451870018393,2.0,2.758241758241758,362.54980079681275,0.7214031816327715,-15.511100751704447,-3.086533418798438,1130.4029304029302,-1.0,80.75245410112129,2.7448513636530523,
2023-08-09 09:56:15.801000,7.325301204819278,0.6024096385542169,-6.783132530120482,0.7431023911710607,7.984671980380134,-6.251379521765788,2.0,2.758241758241758,362.54980079681275,0.446594021327428,-15.251558766971621,-2.9796631897908044,1107.6923076923076,-1.0,80.75245410112129,2.744986499136209,
2023-08-09 09:56:15.809000,7.313253012048193,0.6144578313253012,-6.855421686746988,0.7308399754751685,7.967504598405886,-6.3666462293071735,2.0,2.758241758241758,362.54980079681275,0.7977390594953668,-14.182856476895285,-2.7964570829205755,1087.179487179487,-1.0,80.75245410112129,2.745123364741355,
2023-08-09 09:56:15.816000,7.325301204819278,0.6144578313253012,-6.855421686746988,0.7161250766400981,7.92826486817903,-6.300429184549356,2.0,2.7597069597069597,362.3573135120786,0.6603344793426952,-12.915680904376202,-2.689586853912942,1071.062271062271,-1.0,80.75245410112129,2.745261882845577,
2023-08-09 09:56:15.824000,7.301204819277109,0.6385542168674699,-6.891566265060241,0.7823421213979154,7.916002452483139,-6.388718577559779,2.0,2.758241758241758,362.54980079681275,0.37025814346483255,-10.976749606666278,-2.139968533302255,1060.07326007326,-1.0,80.75245410112129,2.745401976217067,
2023-08-09 09:56:15.832000,7.313253012048193,0.6385542168674699,-6.891566265060241,0.7063151440833844,7.999386879215205,-6.3813611281422435,2.0,2.758241758241758,362.54980079681275,-0.1335586504282972,-9.694306858574675,-1.5750830371190487,1054.212454212454,-1.0,80.75245410112129,2.7455435672135513,
2023-08-09 09:56:15.839000,7.313253012048193,0.6506024096385542,-6.891566265060241,0.6989576946658491,7.947884733292458,-6.376456161863887,2.0,2.758241758241758,362.54980079681275,-0.1335586504282972,-9.694306858574675,-1.5750830371190487,1055.6776556776556,-1.0,80.75245410112129,2.745686577368343,
2023-08-09 09:56:15.847000,7.301204819277109,0.674698795180723,-6.91566265060241,0.8142244022072348,7.957694665849172,-6.378908645003065,2.0,2.758241758241758,362.54980079681275,0.20231921216712262,-7.999650370025057,-1.0407318920808808,1063.003663003663,-1.0,80.75245410112129,2.7458309279581123,
2023-08-09 09:56:15.855000,7.301204819277109,0.674698795180723,-6.903614457831326,0.8068669527896996,7.8988350705088894,-6.4107909258123845,2.0,2.758241758241758,362.54980079681275,0.034380280869412715,-6.106520599032691,-0.4605792203251557,1071.7948717948718,-1.0,80.75245410112129,2.7459765401112466,
2023-08-09 09:56:15.862000,7.265060240963856,0.6626506024096386,-6.891566265060241,0.7946045370938074,7.911097486204782,-6.442673206621704,2.0,2.758241758241758,362.54980079681275,0.034380280869412715,-4.640871744070859,0.5012528407435466,1083.5164835164835,-1.0,80.75245410112129,2.746123335372361,
2023-08-09 09:56:15.870000,7.265060240963856,0.674698795180723,-6.903614457831326,0.8436541998773758,7.911097486204782,-6.400980993255671,2.0,2.758241758241758,362.54980079681275,0.003845929724374546,-3.022551133383836,0.8523978789114854,1095.2380952380952,-1.0,80.75245410112129,2.7462712357396772,
2023-08-09 09:56:15.878000,7.240963855421687,0.674698795180723,-6.879518072289157,0.8313917841814837,7.8988350705088894,-6.339668914776211,2.0,2.7597069597069597,362.3573135120786,-0.14882582600081629,-1.526367927276966,1.2798787949420198,1106.227106227106,-1.0,80.75245410112129,2.746420163279129,
2023-08-09 09:56:15.885000,7.265060240963856,0.6867469879518072,-6.867469879518072,0.8068669527896996,7.874310239117106,-6.391171060698957,2.0,2.7597069597069597,362.3573135120786,-0.33203193287104527,-0.5492686906357445,1.6157566575374396,1117.9487179487178,-1.0,80.75245410112129,2.746570040720741,
2023-08-09 09:56:15.893000,7.228915662650603,0.674698795180723,-6.855421686746988,0.7823421213979154,7.8988350705088894,-6.383813611281422,2.0,2.7597069597069597,362.3573135120786,-0.5610395664588316,0.5041664238680723,1.9363673445603404,1130.4029304029302,-1.0,80.75245410112129,2.7467207916313052,
2023-08-09 09:56:15.901000,7.228915662650603,0.674698795180723,-6.843373493975904,0.7847946045370937,7.847332924586143,-6.31023911710607,2.0,2.758241758241758,362.54980079681275,-0.454169337451198,1.175922149058912,1.8294971155527069,1142.1245421245421,-1.0,80.75245410112129,2.7468723400591473,
2023-08-09 09:56:15.908000,7.216867469879518,0.6626506024096386,-6.83132530120482,0.7896995708154506,7.847332924586143,-6.280809319435929,2.0,2.758241758241758,362.54980079681275,-0.8969174290542514,1.0690519200512782,2.073771924713012,1155.3113553113553,-1.0,80.75245410112129,2.7470246105989995,
2023-08-09 09:56:15.916000,7.19277108433735,0.674698795180723,-6.807228915662651,0.7651747394236664,7.881667688534641,-6.332311465358675,2.0,2.758241758241758,362.54980079681275,-0.9427189557718086,1.4354641337917364,1.875298642270264,1169.230769230769,-1.0,80.75245410112129,2.747177528349086,
2023-08-09 09:56:15.924000,7.1807228915662655,0.6506024096385542,-6.807228915662651,0.745554874310239,7.886572654812998,-6.275904353157571,2.0,2.7597069597069597,362.3573135120786,-0.7137113221840223,0.6110366528757059,1.676825359827516,1184.6153846153845,-1.0,80.75245410112129,2.7473310185104185,
2023-08-09 09:56:15.931000,7.2048192771084345,0.6506024096385542,-6.783132530120482,0.7749846719803801,7.8031882280809315,-6.3372164316370325,2.0,2.758241758241758,362.54980079681275,-0.7137113221840223,0.24462443913524784,1.8142299399801878,1197.8021978021977,-1.0,80.75245410112129,2.7474850074918193,
2023-08-09 09:56:15.939000,7.168674698795181,0.6385542168674699,-6.795180722891566,0.7308399754751685,7.847332924586143,-6.288166768853464,2.0,2.7597069597069597,362.3573135120786,-0.7900472000466178,-0.9309480799487215,1.5241536041023251,1208.058608058608,-1.0,80.75245410112129,2.7476394225351077,
2023-08-09 09:56:15.947000,7.168674698795181,0.6385542168674699,-6.807228915662651,0.7480073574494175,7.847332924586143,-6.32495401594114,2.0,2.7597069597069597,362.3573135120786,-0.6679097954664651,-1.6179709807120803,1.2493444437969816,1214.6520146520145,-1.0,80.75245410112129,2.7477941917938824,
2023-08-09 09:56:15.954000,7.144578313253012,0.6265060240963856,-6.795180722891566,0.7602697731453096,7.786020846106682,-6.320049049662783,2.0,2.7597069597069597,362.3573135120786,-0.6221082687489079,-2.2744595303304007,0.42491696288095115,1219.7802197802198,-1.0,80.75245410112129,2.7479492449006195,
2023-08-09 09:56:15.962000,7.156626506024097,0.6144578313253012,-6.807228915662651,0.7651747394236664,7.815450643776823,-6.297976701410177,2.0,2.7597069597069597,362.3573135120786,-0.454169337451198,-3.0988870112464313,0.394382611735913,1219.047619047619,-1.0,80.75245410112129,2.7481045126162083,
2023-08-09 09:56:15.970000,7.1325301204819285,0.6385542168674699,-6.819277108433735,0.7921520539546291,7.793378295524218,-6.361741263028816,2.0,2.7597069597069597,362.3573135120786,-0.28623040615348805,-3.9843831944525383,0.16537497814812674,1213.1868131868132,-1.0,80.75245410112129,2.748259927321574,
2023-08-09 09:56:15.977000,7.1325301204819285,0.6265060240963856,-6.855421686746988,0.7504598405885959,7.734518700183936,-6.3813611281422435,2.0,2.7597069597069597,362.3573135120786,-0.14882582600081629,-5.1294213623914695,-0.17050288444729308,1205.8608058608058,-1.0,80.75245410112129,2.74841542259165,
2023-08-09 09:56:15.985000,7.1325301204819285,0.6265060240963856,-6.83132530120482,0.7283874923359902,7.709993868792152,-6.3666462293071735,2.0,2.7597069597069597,362.3573135120786,-0.011421245848144537,-5.816444263154828,-0.4453120447526366,1196.3369963369962,-1.0,80.75245410112129,2.748570933257491,
2023-08-09 09:56:15.993000,7.096385542168675,0.6385542168674699,-6.891566265060241,0.7749846719803801,7.768853464132434,-6.32495401594114,2.0,2.7597069597069597,362.3573135120786,0.23285356331216078,-6.839345026513607,-0.7506555562030183,1189.0109890109889,-1.0,80.75245410112129,2.748726395463849,
2023-08-09 09:56:16,7.0843373493975905,0.6506024096385542,-6.879518072289157,0.6916002452483139,7.7958307786633965,-6.4181483752299195,2.0,2.7597069597069597,362.3573135120786,0.446594021327428,-7.068352660101393,-1.1018005943709572,1183.8827838827838,-1.0,80.75245410112129,2.748881746722216,
2023-08-09 09:56:16.008000,7.1084337349397595,0.6385542168674699,-6.903614457831326,0.7308399754751685,7.7737584304107905,-6.420600858369099,2.0,2.7597069597069597,362.3573135120786,0.2175863877396417,-7.251558766971622,-1.1934036478060717,1178.7545787545787,-1.0,80.75245410112129,2.7490369264172227,
2023-08-09 09:56:16.016000,7.120481927710844,0.6385542168674699,-6.927710843373494,0.7161250766400981,7.86695278969957,-6.506437768240343,2.0,2.7597069597069597,362.3573135120786,0.1412505098770463,-7.053085484528874,-1.1018005943709572,1173.6263736263736,-1.0,80.75245410112129,2.7491918753255264,
2023-08-09 09:56:16.023000,7.1325301204819285,0.6385542168674699,-6.951807228915663,0.8264868179031268,7.800735744941753,-6.481912936848559,2.0,2.7597069597069597,362.3573135120786,0.46186119689994704,-6.549268690635745,-1.4834799836839343,1167.032967032967,-1.0,80.75245410112129,2.7493465352342827,
2023-08-09 09:56:16.031000,7.096385542168675,0.6385542168674699,-6.975903614457832,0.7529123237277743,7.768853464132434,-6.489270386266094,2.0,2.7597069597069597,362.3573135120786,0.5687314259075806,-5.877512965444905,-0.9949303653633236,1163.3699633699632,-1.0,80.75245410112129,2.749500849926232,
2023-08-09 09:56:16.039000,7.120481927710844,0.6506024096385542,-6.975903614457832,0.7651747394236664,7.827713059472716,-6.477007970570202,2.0,2.7597069597069597,362.3573135120786,0.4007924946098707,-5.602703805139561,-1.1934036478060717,1162.6373626373625,-1.0,80.75245410112129,2.749654765142668,
2023-08-09 09:56:16.046000,7.096385542168675,0.6506024096385542,-6.963855421686747,0.8142244022072348,7.7148988350705086,-6.45003065603924,2.0,2.7597069597069597,362.3573135120786,0.1259833343045272,-4.61033739292582,-0.5674494493327893,1163.3699633699632,-1.0,80.75245410112129,2.7498082276631814,
2023-08-09 09:56:16.054000,7.1084337349397595,0.6506024096385542,-6.975903614457832,0.745554874310239,7.729613733905579,-6.457388105456775,2.0,2.7597069597069597,362.3573135120786,0.09544898315948905,-4.060719072315134,-0.4147776936075984,1164.8351648351647,-1.0,80.75245410112129,2.749961185398421,
2023-08-09 09:56:16.062000,7.096385542168675,0.6385542168674699,-6.987951807228916,0.7921520539546291,7.741876149601471,-6.528510116492948,2.0,2.7597069597069597,362.3573135120786,0.034380280869412715,-3.541635102849485,-0.23157158673736944,1166.3003663003662,-1.0,80.75245410112129,2.750113588357169,
2023-08-09 09:56:16.069000,7.0843373493975905,0.6265060240963856,-7.0120481927710845,0.7431023911710607,7.746781115879828,-6.5113427345187,2.0,2.7597069597069597,362.3573135120786,0.2175863877396417,-2.5340015150632254,-0.0788998310121786,1174.3589743589744,-1.0,80.75245410112129,2.7502653885917168,
2023-08-09 09:56:16.077000,7.096385542168675,0.6385542168674699,-7.024096385542169,0.7357449417535254,7.754138565297363,-6.555487431023911,2.0,2.7597069597069597,362.3573135120786,0.2175863877396417,-1.8164442631548283,0.25697803158324123,1187.5457875457876,-1.0,80.75245410112129,2.750416539718364,
2023-08-09 09:56:16.084000,7.0843373493975905,0.6265060240963856,-7.0120481927710845,0.7578172900061312,7.697731453096259,-6.550582464745554,2.0,2.7597069597069597,362.3573135120786,-0.011421245848144537,-0.9156809043762025,0.10430627585805041,1207.3260073260074,-1.0,80.75245410112129,2.7505669969262976,
2023-08-09 09:56:16.092000,7.060240963855422,0.6265060240963856,-7.0,0.7676272225628449,7.71244635193133,-6.496627835683629,2.0,2.7597069597069597,362.3573135120786,0.17178486102208446,0.1988229124176906,0.24171085601072215,1241.0256410256409,-1.0,80.75245410112129,2.7507167169823696,
2023-08-09 09:56:16.100000,7.0843373493975905,0.6144578313253012,-7.0361445783132535,0.7529123237277743,7.7271612507664,-6.530962599632127,2.0,2.7597069597069597,362.3573135120786,-0.2251617038634117,0.7942427597459348,0.7149932987588138,1289.3772893772893,-1.0,80.75245410112129,2.750865658231892,
2023-08-09 09:56:16.107000,7.0843373493975905,0.6265060240963856,-6.975903614457832,0.7063151440833844,7.687921520539546,-6.501532801961986,2.0,2.7597069597069597,362.3573135120786,0.049647456441931796,1.6950061185245608,0.577588718606142,1358.974358974359,-1.0,80.75245410112129,2.75101378059565,
2023-08-09 09:56:16.115000,7.0843373493975905,0.6265060240963856,-6.987951807228916,0.7259350091968118,7.685469037400368,-6.479460453709381,2.0,2.7597069597069597,362.3573135120786,0.049647456441931796,1.6950061185245608,0.577588718606142,1452.014652014652,-1.0,80.75245410112129,2.7511610455632978,
2023-08-09 09:56:16.123000,7.072289156626506,0.6385542168674699,-6.951807228915663,0.745554874310239,7.756591048436541,-6.4622930717351315,2.0,2.7597069597069597,362.3573135120786,-0.3472991084435644,2.351494668142881,0.22644368043820307,1573.6263736263736,-1.0,80.75245410112129,2.751307416183344,
2023-08-09 09:56:16.130000,7.060240963855422,0.6144578313253012,-6.9397590361445785,0.7896995708154506,7.709993868792152,-6.494175352544451,2.0,2.7597069597069597,362.3573135120786,-0.27096323058096894,2.7331740574558583,0.4554513140259893,1720.8791208791208,-1.0,80.75245410112129,2.7514528575077573,
2023-08-09 09:56:16.138000,7.060240963855422,0.6144578313253012,-6.975903614457832,0.6793378295524218,7.705088902513795,-6.4402207234825255,2.0,2.761172161172161,362.1650305120722,-0.16409300157333537,3.0537847444787594,0.592855894178661,1893.040293040293,-1.0,80.75245410112129,2.7515973360505606,
2023-08-09 09:56:16.146000,7.096385542168675,0.6144578313253012,-6.951807228915663,0.7872470876762722,7.732066217044758,-6.4696505211526665,2.0,2.7597069597069597,362.3573135120786,-0.4236349863061598,3.54233436279937,0.22644368043820307,2082.7838827838827,-1.0,80.75245410112129,2.7517408198402635,
2023-08-09 09:56:16.153000,7.1084337349397595,0.6265060240963856,-6.9397590361445785,0.745554874310239,7.79092581238504,-6.4622930717351315,2.0,2.7597069597069597,362.3573135120786,-0.3472991084435644,3.6492045918070035,0.15010780257560766,2276.190476190476,-1.0,80.75245410112129,2.75188327846966,
2023-08-09 09:56:16.161000,7.1084337349397595,0.6024096385542169,-6.9397590361445785,0.7087676272225628,7.7075413856529735,-6.445125689760882,2.0,2.7597069597069597,362.3573135120786,0.01911310529689363,3.756074820814637,0.394382611735913,2458.6080586080584,-1.0,80.75245410112129,2.752024682546552,
2023-08-09 09:56:16.169000,7.1325301204819285,0.6144578313253012,-6.91566265060241,0.8117719190680563,7.7664009809932555,-6.4255058246474555,2.0,2.7597069597069597,362.3573135120786,0.26338791445719895,3.969815278829904,0.07377192471301224,2617.5824175824173,-1.0,80.75245410112129,2.7521650041252372,
2023-08-09 09:56:16.176000,7.096385542168675,0.6144578313253012,-6.927710843373494,0.7480073574494175,7.783568362967504,-6.413243408951563,2.0,2.761172161172161,362.1650305120722,-0.07248994813822088,4.259891614707767,0.1959093292931649,2740.6593406593406,-1.0,80.75245410112129,2.752304216678115,
2023-08-09 09:56:16.184000,7.096385542168675,0.6265060240963856,-6.903614457831326,0.7651747394236664,7.7737584304107905,-6.413243408951563,2.0,2.761172161172161,362.1650305120722,0.1259833343045272,3.8782122253947895,-0.017831128722102258,2805.128205128205,735.3515625,81.59362549800797,2.7524422955581924,
2023-08-09 09:56:16.192000,7.120481927710844,0.6144578313253012,-6.927710843373494,0.7774371551195585,7.7516860821581846,-6.3862660944206,2.0,2.761172161172161,362.1650305120722,-0.1335586504282972,4.183555736845172,-0.06363265543965951,2805.128205128205,-1.0,81.59362549800797,2.7525792180394806,
2023-08-09 09:56:16.199000,7.120481927710844,0.6506024096385542,-6.951807228915663,0.7578172900061312,7.7737584304107905,-6.459840588595953,2.0,2.761172161172161,362.1650305120722,-0.07248994813822088,3.924013752112347,-0.24683876230988852,2806.5934065934066,-1.0,81.59362549800797,2.752714962831519,
2023-08-09 09:56:16.207000,7.1325301204819285,0.6506024096385542,-6.91566265060241,0.7480073574494175,7.746781115879828,-6.334763948497853,2.0,2.758241758241758,362.54980079681275,0.17178486102208446,3.9850824544024235,-0.21630441116485033,2759.7069597069594,-1.0,81.59362549800797,2.752849510051195,
2023-08-09 09:56:16.215000,7.144578313253012,0.6506024096385542,-6.927710843373494,0.7504598405885959,7.827713059472716,-6.4181483752299195,2.0,2.7597069597069597,362.3573135120786,-0.2251617038634117,4.259891614707767,-0.09416700658469768,2666.6666666666665,-1.0,81.59362549800797,2.752982840666642,
2023-08-09 09:56:16.222000,7.1807228915662655,0.6626506024096386,-6.91566265060241,0.7700797057020232,7.763948497854077,-6.413243408951563,2.0,2.7597069597069597,362.3573135120786,-0.08775712371073996,4.504166423868072,-0.4605792203251557,2541.391941391941,-1.0,81.59362549800797,2.7531149367493932,
2023-08-09 09:56:16.230000,7.168674698795181,0.6626506024096386,-6.91566265060241,0.7823421213979154,7.835070508890251,-6.435315757204169,2.0,2.7597069597069597,362.3573135120786,-0.1335586504282972,5.130120622341354,-0.12470135772973584,2395.6043956043954,-1.0,81.59362549800797,2.7532457819337455,
2023-08-09 09:56:16.238000,7.168674698795181,0.6506024096385542,-6.903614457831326,0.7946045370938074,7.817903126916002,-6.3862660944206,2.0,2.7597069597069597,362.3573135120786,0.09544898315948905,5.496532836081813,-0.27737311345492666,2239.5604395604396,-1.0,81.59362549800797,2.753375360468802,
2023-08-09 09:56:16.245000,7.19277108433735,0.6385542168674699,-6.879518072289157,0.8068669527896996,7.886572654812998,-6.405885959534028,2.0,2.7597069597069597,362.3573135120786,-0.07248994813822088,5.969815278829904,-0.47584639589767475,2082.7838827838827,-1.0,81.59362549800797,2.7535036572523737,
2023-08-09 09:56:16.253000,7.1807228915662655,0.6506024096385542,-6.855421686746988,0.8093194359288779,7.854690374003678,-6.339668914776211,2.0,2.7597069597069597,362.3573135120786,0.11071615873200813,5.924013752112347,-0.521647922615232,1928.9377289377287,-1.0,81.59362549800797,2.7536306587429022,
2023-08-09 09:56:16.261000,7.1807228915662655,0.6506024096385542,-6.879518072289157,0.7406499080318822,7.800735744941753,-6.347026364193746,2.0,2.7597069597069597,362.3573135120786,0.15651768544956537,6.015616805547461,-0.29264028902744577,1781.6849816849815,-1.0,81.59362549800797,2.7537563523955204,
2023-08-09 09:56:16.268000,7.1807228915662655,0.6506024096385542,-6.855421686746988,0.7921520539546291,7.835070508890251,-6.342121397915389,2.0,2.7597069597069597,362.3573135120786,-0.36256628401608343,5.908746576539828,0.07377192471301224,1646.8864468864467,-1.0,81.59362549800797,2.753880726202053,
2023-08-09 09:56:16.276000,7.168674698795181,0.6506024096385542,-6.867469879518072,0.7725321888412017,7.891477621091354,-6.327406499080318,2.0,2.7597069597069597,362.3573135120786,-0.454169337451198,5.862945049822271,-0.048365479867140425,1527.4725274725274,-1.0,81.59362549800797,2.7540037696021167,
2023-08-09 09:56:16.284000,7.2048192771084345,0.6626506024096386,-6.867469879518072,0.7798896382587369,7.864500306560392,-6.283261802575107,2.0,2.7597069597069597,362.3573135120786,-0.04195559699318271,5.817143523104713,0.13484062700308858,1423.4432234432234,-1.0,81.59362549800797,2.754125473376611,
2023-08-09 09:56:16.291000,7.216867469879518,0.6626506024096386,-6.843373493975904,0.7921520539546291,7.8988350705088894,-6.339668914776211,2.0,2.7597069597069597,362.3573135120786,-0.16409300157333537,5.939280927684866,0.07377192471301224,1334.7985347985348,-1.0,81.59362549800797,2.7542458291203977,
2023-08-09 09:56:16.299000,7.19277108433735,0.6506024096385542,-6.819277108433735,0.762722256284488,7.817903126916002,-6.315144083384427,2.0,2.7597069597069597,362.3573135120786,-0.2251617038634117,5.496532836081813,0.13484062700308858,1259.3406593406592,-1.0,81.59362549800797,2.7543648292074137,
2023-08-09 09:56:16.307000,7.2048192771084345,0.6506024096385542,-6.83132530120482,0.7431023911710607,7.920907418761495,-6.293071735131821,2.0,2.7597069597069597,362.3573135120786,0.1412505098770463,5.236990851348988,0.42491696288095115,1194.1391941391942,-1.0,81.59362549800797,2.7544824667556433,
2023-08-09 09:56:16.314000,7.228915662650603,0.6506024096385542,-6.843373493975904,0.733292458614347,7.862047823421213,-6.327406499080318,2.0,2.7597069597069597,362.3573135120786,-0.2251617038634117,5.175922149058912,0.5012528407435466,1137.7289377289376,-1.0,81.59362549800797,2.754598735592061,
2023-08-09 09:56:16.322000,7.228915662650603,0.6506024096385542,-6.83132530120482,0.7676272225628449,7.879215205395463,-6.317596566523605,2.0,2.758241758241758,362.54980079681275,0.2175863877396417,5.282792378066546,0.44018413845347026,1091.5750915750914,-1.0,81.59362549800797,2.7547136302176036,
2023-08-09 09:56:16.330000,7.216867469879518,0.6144578313253012,-6.819277108433735,0.7700797057020232,7.911097486204782,-6.285714285714286,2.0,2.758241758241758,362.54980079681275,0.08018180758696997,4.733174057455859,0.5623215430336229,1054.9450549450548,-1.0,81.59362549800797,2.7548271452796196,
2023-08-09 09:56:16.337000,7.216867469879518,0.6265060240963856,-6.819277108433735,0.762722256284488,7.874310239117106,-6.295524218270999,2.0,2.758241758241758,362.54980079681275,0.06491463201445088,4.580502301730667,0.6539245964687375,1027.8388278388277,-1.0,81.59362549800797,2.7549392750071537,
2023-08-09 09:56:16.345000,7.240963855421687,0.6144578313253012,-6.795180722891566,0.7283874923359902,7.837522992029429,-6.315144083384427,2.0,2.7597069597069597,362.3573135120786,0.2939222656022371,4.397296194860439,0.3027795583007985,1002.9304029304028,-1.0,81.59362549800797,2.7550500141540293,
2023-08-09 09:56:16.353000,7.228915662650603,0.6265060240963856,-6.807228915662651,0.703862660944206,7.864500306560392,-6.305334150827712,2.0,2.7597069597069597,362.3573135120786,-0.05722277256570179,4.137754210127614,0.15010780257560766,983.1501831501831,-1.0,81.59362549800797,2.7551593584146303,
2023-08-09 09:56:16.360000,7.228915662650603,0.6144578313253012,-6.819277108433735,0.733292458614347,7.862047823421213,-6.342121397915389,2.0,2.7567765567765568,362.74249269200106,-0.026688421420663622,4.000349629974942,0.22644368043820307,969.2307692307692,-1.0,81.59362549800797,2.75526730403108,
2023-08-09 09:56:16.368000,7.228915662650603,0.6144578313253012,-6.795180722891566,0.6965052115266707,7.854690374003678,-6.283261802575107,2.0,2.758241758241758,362.54980079681275,0.08018180758696997,4.153021385700133,-0.17050288444729308,959.7069597069597,-1.0,81.59362549800797,2.755373847262261,
2023-08-09 09:56:16.376000,7.265060240963856,0.5903614457831325,-6.83132530120482,0.6916002452483139,7.933169834457388,-6.300429184549356,2.0,2.758241758241758,362.54980079681275,-0.04195559699318271,3.8171435231047135,-0.32317464017248393,955.3113553113552,-1.0,81.59362549800797,2.7554789846278913,
2023-08-09 09:56:16.383000,7.240963855421687,0.6144578313253012,-6.807228915662651,0.6621704475781729,7.893930104230533,-6.283261802575107,2.0,2.7597069597069597,362.3573135120786,0.034380280869412715,3.939280927684866,-0.3689761668900412,959.7069597069597,-1.0,81.59362549800797,2.75558271290359,
2023-08-09 09:56:16.391000,7.253012048192772,0.6144578313253012,-6.807228915662651,0.7651747394236664,7.952789699570815,-6.253832004904966,2.0,2.758241758241758,362.54980079681275,0.034380280869412715,3.939280927684866,-0.3689761668900412,974.3589743589743,-1.0,81.59362549800797,2.755685029185811,
2023-08-09 09:56:16.399000,7.253012048192772,0.6385542168674699,-6.807228915662651,0.6940527283874923,7.879215205395463,-6.256284488044145,2.0,2.7597069597069597,362.3573135120786,0.06491463201445088,3.6950061185245606,-0.4147776936075984,998.5347985347985,-1.0,81.59362549800797,2.7557859309230124,
2023-08-09 09:56:16.406000,7.240963855421687,0.6265060240963856,-6.819277108433735,0.7896995708154506,7.891477621091354,-6.27835683629675,2.0,2.758241758241758,362.54980079681275,-0.05722277256570179,3.8476778742497517,-0.5674494493327893,1032.967032967033,-1.0,81.59362549800797,2.755885415843966,
2023-08-09 09:56:16.414000,7.2771084337349405,0.6385542168674699,-6.795180722891566,0.7234825260576333,7.93071735131821,-6.283261802575107,2.0,2.758241758241758,362.54980079681275,-0.05722277256570179,3.7408076452421177,-0.12470135772973584,1076.1904761904761,-1.0,81.59362549800797,2.755983481957131,
2023-08-09 09:56:16.422000,7.253012048192772,0.6506024096385542,-6.783132530120482,0.7381974248927038,7.896382587369711,-6.315144083384427,2.0,2.758241758241758,362.54980079681275,0.11071615873200813,3.8782122253947895,-0.6895868539129419,1121.6117216117216,-1.0,81.59362549800797,2.7560801269894672,
2023-08-09 09:56:16.429000,7.253012048192772,0.6626506024096386,-6.783132530120482,0.7112201103617413,7.94543225015328,-6.302881667688534,2.0,2.758241758241758,362.54980079681275,-0.16409300157333537,3.252258026921507,-0.29264028902744577,1170.6959706959706,-1.0,81.59362549800797,2.7561753488096468,
2023-08-09 09:56:16.437000,7.253012048192772,0.6626506024096386,-6.783132530120482,0.8313917841814837,7.916002452483139,-6.295524218270999,2.0,2.758241758241758,362.54980079681275,0.06491463201445088,3.4659984849367746,-0.3537089913175221,1220.5128205128203,-1.0,81.59362549800797,2.7562691449369923,
2023-08-09 09:56:16.445000,7.253012048192772,0.6626506024096386,-6.795180722891566,0.7651747394236664,7.874310239117106,-6.261189454322501,2.0,2.758241758241758,362.54980079681275,-0.37783345958860254,3.007983217761202,-0.21630441116485033,1265.9340659340658,-1.0,81.59362549800797,2.756361512577085,
2023-08-09 09:56:16.452000,7.2771084337349405,0.6506024096385542,-6.771084337349398,0.7602697731453096,7.952789699570815,-6.226854690374004,2.0,2.758241758241758,362.54980079681275,-0.011421245848144537,2.656838179593263,-0.12470135772973584,1309.1575091575091,-1.0,81.59362549800797,2.756452449080143,
2023-08-09 09:56:16.460000,7.2771084337349405,0.6385542168674699,-6.746987951807229,0.7578172900061312,7.947884733292458,-6.26364193746168,2.0,2.758241758241758,362.54980079681275,-0.2098945282908926,2.5652351261581483,-0.048365479867140425,1350.9157509157508,-1.0,81.59362549800797,2.7565419519090444,
2023-08-09 09:56:16.467000,7.2771084337349405,0.6385542168674699,-6.771084337349398,0.7847946045370937,7.925812385039852,-6.27835683629675,2.0,2.758241758241758,362.54980079681275,-0.33203193287104527,2.2904259658528052,-0.0788998310121786,1385.3479853479853,-1.0,81.59362549800797,2.756630018609794,
2023-08-09 09:56:16.475000,7.253012048192772,0.6385542168674699,-6.771084337349398,0.7774371551195585,7.938074800735745,-6.283261802575107,2.0,2.758241758241758,362.54980079681275,-0.04195559699318271,2.137754210127614,-0.13996853330225492,1411.7216117216117,-1.0,81.59362549800797,2.7567166467844437,
2023-08-09 09:56:16.483000,7.253012048192772,0.6265060240963856,-6.771084337349398,0.7578172900061312,7.916002452483139,-6.288166768853464,2.0,2.758241758241758,362.54980079681275,0.034380280869412715,2.2140900879902095,0.1195734514305695,1429.3040293040292,-1.0,81.59362549800797,2.7568018340665126,
2023-08-09 09:56:16.490000,7.228915662650603,0.6265060240963856,-6.795180722891566,0.7602697731453096,7.955242182709993,-6.266094420600858,2.0,2.758241758241758,362.54980079681275,-0.5305052153137934,1.7255404696695988,0.16537497814812674,1440.2930402930401,-1.0,81.59362549800797,2.756885578098958,
2023-08-09 09:56:16.498000,7.253012048192772,0.6385542168674699,-6.819277108433735,0.8068669527896996,7.974862047823421,-6.273451870018393,2.0,2.758241758241758,362.54980079681275,-0.10302429928325904,1.8629450498222706,-0.2621059378824076,1443.2234432234432,-1.0,81.59362549800797,2.7569678765147017,
2023-08-09 09:56:16.506000,7.253012048192772,0.6265060240963856,-6.807228915662651,0.7553648068669527,7.871857755977927,-6.268546903740036,2.0,2.758241758241758,362.54980079681275,-0.28623040615348805,2.2140900879902095,-0.017831128722102258,1440.2930402930401,-1.0,81.59362549800797,2.7570487264618433,
2023-08-09 09:56:16.513000,7.253012048192772,0.6385542168674699,-6.83132530120482,0.8191293684855916,7.920907418761495,-6.329858982219497,2.0,2.7567765567765568,362.74249269200106,-0.04195559699318271,2.3972961948604388,-0.21630441116485033,1430.03663003663,-1.0,81.59362549800797,2.757128124656591,
2023-08-09 09:56:16.521000,7.289156626506024,0.6506024096385542,-6.795180722891566,0.7847946045370937,7.982219497240956,-6.295524218270999,2.0,2.7567765567765568,362.74249269200106,-0.10302429928325904,2.778975584173416,-0.3537089913175221,1413.1868131868132,-1.0,81.59362549800797,2.757206067825047,
2023-08-09 09:56:16.529000,7.265060240963856,0.6626506024096386,-6.795180722891566,0.8068669527896996,7.906192519926425,-6.32495401594114,2.0,2.758241758241758,362.54980079681275,-0.24042887943593078,3.20645650020395,-0.4147776936075984,1389.7435897435896,-1.0,81.59362549800797,2.757282552093022,
2023-08-09 09:56:16.536000,7.253012048192772,0.6867469879518072,-6.795180722891566,0.7553648068669527,7.893930104230533,-6.302881667688534,2.0,2.758241758241758,362.54980079681275,-0.33203193287104527,3.8782122253947895,-0.47584639589767475,1361.1721611721612,-1.0,81.59362549800797,2.7573575735001548,
2023-08-09 09:56:16.544000,7.2771084337349405,0.6626506024096386,-6.771084337349398,0.7602697731453096,7.942979767014101,-6.244022072348252,2.0,2.7567765567765568,362.74249269200106,-0.17936017714585445,4.183555736845172,-0.4605792203251557,1328.2051282051282,-1.0,81.59362549800797,2.757431128551338,
2023-08-09 09:56:16.552000,7.265060240963856,0.674698795180723,-6.771084337349398,0.7602697731453096,7.947884733292458,-6.283261802575107,2.0,2.7567765567765568,362.74249269200106,-0.3014975817260071,4.259891614707767,-0.506380747042713,1290.8424908424909,-1.0,81.59362549800797,2.7575032132607786,
2023-08-09 09:56:16.559000,7.265060240963856,0.6987951807228916,-6.759036144578314,0.7847946045370937,7.942979767014101,-6.251379521765788,2.0,2.7567765567765568,362.74249269200106,-0.24042887943593078,4.320960316997843,0.27224520715576034,1254.212454212454,-1.0,81.59362549800797,2.7575738230774673,
2023-08-09 09:56:16.567000,7.265060240963856,0.710843373493976,-6.759036144578314,0.82158185162477,7.889025137952176,-6.258736971183323,2.0,2.758241758241758,362.54980079681275,0.1412505098770463,4.641571004020744,0.012703222422935909,1219.047619047619,-1.0,81.59362549800797,2.7576429533381126,
2023-08-09 09:56:16.575000,7.265060240963856,0.710843373493976,-6.746987951807229,0.838749233599019,7.938074800735745,-6.214592274678111,2.0,2.7567765567765568,362.74249269200106,0.01911310529689363,4.397296194860439,0.27224520715576034,1187.5457875457876,-1.0,81.59362549800797,2.7577105992992923,
2023-08-09 09:56:16.582000,7.265060240963856,0.6867469879518072,-6.734939759036145,0.8461066830165542,7.935622317596566,-6.266094420600858,2.0,2.7567765567765568,362.74249269200106,-0.10302429928325904,4.733174057455859,0.5623215430336229,1158.974358974359,-1.0,81.59362549800797,2.7577767557838215,
2023-08-09 09:56:16.590000,7.2771084337349405,0.6987951807228916,-6.72289156626506,0.8044144696505211,7.8988350705088894,-6.199877375843041,2.0,2.7567765567765568,362.74249269200106,0.06491463201445088,4.107219858982576,0.8523978789114854,1136.9963369963368,-1.0,81.59362549800797,2.7578414171463623,
2023-08-09 09:56:16.598000,7.289156626506024,0.6867469879518072,-6.734939759036145,0.762722256284488,7.974862047823421,-6.177805027590435,2.0,2.7567765567765568,362.74249269200106,0.034380280869412715,4.198822912417691,0.9440009323466,1120.8791208791208,-1.0,81.59362549800797,2.7579045777320785,
2023-08-09 09:56:16.605000,7.337349397590362,0.674698795180723,-6.710843373493976,0.8068669527896996,7.989576946658492,-6.182709993868792,2.0,2.7567765567765568,362.74249269200106,0.2939222656022371,3.969815278829904,1.5241536041023251,1108.4249084249084,-1.0,81.59362549800797,2.75796623188004,
2023-08-09 09:56:16.613000,7.325301204819278,0.6867469879518072,-6.710843373493976,0.8117719190680563,7.967504598405886,-6.226854690374004,2.0,2.7567765567765568,362.74249269200106,0.23285356331216078,3.6492045918070035,1.7684284132626304,1101.098901098901,-1.0,81.59362549800797,2.7580263739291553,
2023-08-09 09:56:16.621000,7.349397590361447,0.6506024096385542,-6.674698795180723,0.7602697731453096,7.920907418761495,-6.190067443286327,2.0,2.7567765567765568,362.74249269200106,0.08018180758696997,3.191189324631431,2.0127032224229358,1094.5054945054944,-1.0,81.59362549800797,2.758084998226508,
2023-08-09 09:56:16.628000,7.36144578313253,0.6265060240963856,-6.674698795180723,0.7529123237277743,7.972409564684242,-6.18516247700797,2.0,2.7567765567765568,362.74249269200106,0.08018180758696997,2.5805023017306676,2.1501078025756075,1090.10989010989,-1.0,81.59362549800797,2.7581420991380043,
2023-08-09 09:56:16.636000,7.337349397590362,0.6144578313253012,-6.662650602409639,0.7112201103617413,8.02145922746781,-6.114040465971796,2.0,2.7567765567765568,362.74249269200106,0.2175863877396417,2.0766855078375377,2.5165200163160657,1088.6446886446886,-1.0,81.59362549800797,2.758197671061198,
2023-08-09 09:56:16.644000,7.337349397590362,0.5662650602409639,-6.63855421686747,0.6940527283874923,7.955242182709993,-6.1287553648068664,2.0,2.7567765567765568,362.74249269200106,-0.011421245848144537,1.2217236757764691,2.6539245964687375,1088.6446886446886,-1.0,81.59362549800797,2.7582517079822937,
2023-08-09 09:56:16.651000,7.349397590361447,0.5421686746987953,-6.614457831325302,0.6253832004904966,7.933169834457388,-6.160637645616186,2.0,2.7553113553113553,362.93538952406277,-0.08775712371073996,0.1988229124176906,2.730260474331333,1088.6446886446886,-1.0,81.59362549800797,2.7583042040180468,
2023-08-09 09:56:16.659000,7.337349397590362,0.5301204819277109,-6.614457831325302,0.6131207847946045,8.0680564071122,-6.165542611894543,2.0,2.7567765567765568,362.74249269200106,-0.14882582600081629,-1.3126274692616986,2.1348406270030886,1091.5750915750914,-1.0,81.59362549800797,2.75835515290491,
2023-08-09 09:56:16.667000,7.313253012048193,0.5060240963855422,-6.650602409638554,0.6033108522378908,7.987124463519313,-6.094420600858369,2.0,2.7553113553113553,362.93538952406277,-0.14882582600081629,-1.3126274692616986,2.1348406270030886,1094.5054945054944,-1.0,81.59362549800797,2.7584045480149277,
2023-08-09 09:56:16.674000,7.313253012048193,0.4819277108433735,-6.662650602409639,0.5591661557326794,7.923359901900674,-6.177805027590435,2.0,2.7553113553113553,362.93538952406277,0.06491463201445088,-2.640871744070859,1.844764291125226,1098.9010989010987,-1.0,81.59362549800797,2.758452383356128,
2023-08-09 09:56:16.682000,7.301204819277109,0.46987951807228917,-6.698795180722892,0.5640711220110362,7.950337216431636,-6.209687308399754,2.0,2.7553113553113553,362.93538952406277,-0.2556960550084499,-3.8469786142998665,1.2340772682244625,1101.8315018315018,-1.0,81.59362549800797,2.7584986525367126,
2023-08-09 09:56:16.690000,7.289156626506024,0.46987951807228917,-6.698795180722892,0.551808706315144,7.977314530962599,-6.202329858982219,2.0,2.7553113553113553,362.93538952406277,-0.16409300157333537,-5.495833576131927,0.9134665812015619,1105.4945054945053,-1.0,81.59362549800797,2.7585433488174855,
2023-08-09 09:56:16.697000,7.265060240963856,0.44578313253012053,-6.710843373493976,0.6008583690987124,7.935622317596566,-6.18516247700797,2.0,2.7553113553113553,362.93538952406277,-0.011421245848144537,-6.0149175455975765,-0.0788998310121786,1112.087912087912,-1.0,81.59362549800797,2.7585864651627245,
2023-08-09 09:56:16.705000,7.265060240963856,0.44578313253012053,-6.72289156626506,0.5493562231759657,7.957694665849172,-6.214592274678111,2.0,2.7553113553113553,362.93538952406277,-0.05722277256570179,-7.236291591399103,-0.49111357147019385,1122.3443223443223,-1.0,81.59362549800797,2.7586279943244696,
2023-08-09 09:56:16.713000,7.2771084337349405,0.4819277108433735,-6.746987951807229,0.5591661557326794,7.881667688534641,-6.209687308399754,2.0,2.7553113553113553,362.93538952406277,0.01911310529689363,-8.045451896742614,-1.1781364722335526,1136.2637362637363,-1.0,81.59362549800797,2.758667929348755,
2023-08-09 09:56:16.720000,7.265060240963856,0.46987951807228917,-6.759036144578314,0.6033108522378908,7.994481912936848,-6.239117106069895,2.0,2.7553113553113553,362.93538952406277,0.003845929724374546,-8.900413728803683,-1.7124876172717205,1150.18315018315,-1.0,81.59362549800797,2.758706263590516,
2023-08-09 09:56:16.728000,7.253012048192772,0.4819277108433735,-6.807228915662651,0.6106683016554261,7.94543225015328,-6.312691600245248,2.0,2.7553113553113553,362.93538952406277,0.1412505098770463,-9.740108385292233,-2.338441815745003,1164.102564102564,-1.0,81.59362549800797,2.7587429907297114,
2023-08-09 09:56:16.736000,7.253012048192772,0.49397590361445787,-6.83132530120482,0.6670754138565297,7.942979767014101,-6.320049049662783,2.0,2.7553113553113553,362.93538952406277,-0.08775712371073996,-9.648505331857118,-3.117067769943476,1177.2893772893772,-1.0,81.59362549800797,2.7587781047885684,
2023-08-09 09:56:16.743000,7.289156626506024,0.5060240963855422,-6.843373493975904,0.5714285714285714,7.94543225015328,-6.288166768853464,2.0,2.7553113553113553,362.93538952406277,-0.2251617038634117,-9.343161820406737,-3.7430219684167585,1186.080586080586,-1.0,81.59362549800797,2.75881159969191,
2023-08-09 09:56:16.751000,7.228915662650603,0.5421686746987953,-6.855421686746988,0.627835683629675,7.984671980380134,-6.3666462293071735,2.0,2.7553113553113553,362.93538952406277,-0.17936017714585445,-9.495833576131927,-4.0178311287221025,1195.6043956043954,-1.0,81.59362549800797,2.7588434693534776,
2023-08-09 09:56:16.759000,7.240963855421687,0.5903614457831325,-6.843373493975904,0.7308399754751685,7.962599632127529,-6.3960760269773145,2.0,2.7553113553113553,362.93538952406277,-0.1335586504282972,-8.411864110483073,-4.475846395897675,1204.3956043956043,-1.0,81.59362549800797,2.758873708184089,
2023-08-09 09:56:16.766000,7.240963855421687,0.6024096385542169,-6.879518072289157,0.6940527283874923,7.933169834457388,-6.3813611281422435,2.0,2.7553113553113553,362.93538952406277,0.049647456441931796,-8.060719072315134,-4.246838762309888,1209.5238095238094,-1.0,81.59362549800797,2.7589023111083764,
2023-08-09 09:56:16.774000,7.228915662650603,0.6024096385542169,-6.867469879518072,0.7283874923359902,7.8522378908645,-6.3862660944206,2.0,2.7553113553113553,362.93538952406277,-0.46943651302371703,-7.587436629567042,-4.4605792203251555,1213.9194139194137,-1.0,81.59362549800797,2.758929273582634,
2023-08-09 09:56:16.782000,7.216867469879518,0.6265060240963856,-6.867469879518072,0.7112201103617413,7.8399754751686075,-6.359288779889638,2.0,2.7553113553113553,362.93538952406277,-0.5610395664588316,-6.94621525552124,-4.06363265543966,1217.5824175824175,-1.0,81.59362549800797,2.758954591613666,
2023-08-09 09:56:16.789000,7.228915662650603,0.6506024096385542,-6.879518072289157,0.745554874310239,7.8522378908645,-6.4034334763948495,2.0,2.7567765567765568,362.74249269200106,-0.8053143756191369,-6.442398461628111,-4.002563953149584,1217.5824175824175,-1.0,81.59362549800797,2.758978261778467,
2023-08-09 09:56:16.797000,7.216867469879518,0.674698795180723,-6.903614457831326,0.7946045370938074,7.886572654812998,-6.405885959534028,2.0,2.7567765567765568,362.74249269200106,-0.6221082687489079,-5.938581667734981,-3.849892197424392,1218.3150183150183,-1.0,81.59362549800797,2.7590002817372787,
2023-08-09 09:56:16.805000,7.19277108433735,0.710843373493976,-6.91566265060241,0.7406499080318822,7.884120171673819,-6.4034334763948495,2.0,2.7567765567765568,362.74249269200106,-0.8816502534817323,-5.0225511333838355,-3.5598158615465296,1219.7802197802198,-1.0,81.59362549800797,2.7590206503267223,
2023-08-09 09:56:16.812000,7.19277108433735,0.710843373493976,-6.927710843373494,0.8608215818516247,7.837522992029429,-6.413243408951563,2.0,2.758241758241758,362.54980079681275,-0.4999708641687552,-4.091253423460172,-3.3155410523862243,1222.7106227106226,-1.0,81.59362549800797,2.7590393671288513,
2023-08-09 09:56:16.820000,7.2048192771084345,0.746987951807229,-6.891566265060241,0.9834457388105456,7.8694052728387485,-6.4328632740649905,2.0,2.7553113553113553,362.93538952406277,-0.8511159023366941,-3.78590991200979,-2.7964570829205755,1225.6410256410256,-1.0,81.59362549800797,2.759056432533724,
2023-08-09 09:56:16.828000,7.2771084337349405,0.6867469879518072,-6.83132530120482,0.7970570202329859,8.087676272225629,-6.322501532801962,2.0,2.7567765567765568,362.74249269200106,-0.6068410931763888,-3.5111007517044466,-2.8269914340656137,1229.3040293040292,-1.0,81.59362549800797,2.7590718473798583,
2023-08-09 09:56:16.835000,7.096385542168675,0.7710843373493976,-6.927710843373494,0.8902513795217657,7.79092581238504,-6.391171060698957,2.0,2.7567765567765568,362.74249269200106,-0.7137113221840223,-2.45766563720063,-2.21630441116485,1230.03663003663,-1.0,81.59362549800797,2.7590856133003028,
2023-08-09 09:56:16.843000,7.1084337349397595,0.7710843373493976,-6.91566265060241,0.8804414469650521,7.724708767627222,-6.45003065603924,2.0,2.7567765567765568,362.74249269200106,-0.19462735271837353,-2.259192354757882,-1.8804265485694305,1230.03663003663,-1.0,81.59362549800797,2.759097732785005,
2023-08-09 09:56:16.850000,7.253012048192772,0.674698795180723,-6.91566265060241,0.7700797057020232,7.935622317596566,-6.378908645003065,2.0,2.7567765567765568,362.74249269200106,-0.7595128489015797,-3.4958335761319277,-1.2086708233785908,1231.5018315018315,-1.0,81.59362549800797,2.7591082088201775,
2023-08-09 09:56:16.858000,7.120481927710844,0.7590361445783133,-6.9397590361445785,1.0006131207847946,7.763948497854077,-6.349478847332924,2.0,2.7567765567765568,362.74249269200106,-0.7137113221840223,-2.243925179185363,-1.0407318920808808,1239.5604395604396,-1.0,81.59362549800797,2.7591170454065725,
2023-08-09 09:56:16.866000,7.1807228915662655,0.819277108433735,-6.879518072289157,0.9245861434702636,7.739423666462293,-6.361741263028816,2.0,2.7567765567765568,362.74249269200106,-0.4083678107336407,-1.2973602936891795,-1.0254647165083617,1256.4102564102564,-1.0,81.59362549800797,2.7591242475854068,
2023-08-09 09:56:16.873000,7.0361445783132535,0.7349397590361446,-6.83132530120482,0.9074187614960146,7.629061925199264,-6.361741263028816,2.0,2.7567765567765568,362.74249269200106,0.4160596701823898,1.0690519200512782,-1.0254647165083617,1285.7142857142856,-1.0,81.59362549800797,2.75912982146439,
2023-08-09 09:56:16.881000,7.0843373493975905,0.7349397590361446,-6.759036144578314,0.8779889638258737,7.815450643776823,-6.266094420600858,2.0,2.7567765567765568,362.74249269200106,-1.0953907114969994,-2.5187343394907065,-0.20103723559233125,1332.6007326007325,-1.0,81.59362549800797,2.7591337737857913,
2023-08-09 09:56:16.889000,7.156626506024097,0.8072289156626506,-6.891566265060241,0.9540159411404046,7.8105456774984665,-6.437768240343347,2.0,2.7553113553113553,362.93538952406277,-1.2633296427947094,-3.556902278422004,0.9287337567740809,1400.0,-1.0,81.59362549800797,2.7591361120192834,
2023-08-09 09:56:16.896000,7.060240963855422,0.8674698795180723,-6.987951807228916,0.9858982219497241,7.7369711833231145,-6.503985285101164,2.0,2.7567765567765568,362.74249269200106,-0.36256628401608343,-3.2973602936891795,-0.29264028902744577,1492.3076923076922,-1.0,81.59362549800797,2.7591368448405578,
2023-08-09 09:56:16.904000,7.096385542168675,0.783132530120482,-6.963855421686747,0.8828939301042305,7.717351318209687,-6.459840588595953,2.0,2.7553113553113553,362.93538952406277,0.35499096789231344,-2.808810675368569,-0.7353883806304992,1613.9194139194137,-1.0,81.59362549800797,2.7591359820472574,
2023-08-09 09:56:16.912000,7.144578313253012,0.7349397590361446,-6.903614457831326,0.8191293684855916,7.825260576333537,-6.415695892090741,2.0,2.7553113553113553,362.93538952406277,0.01911310529689363,-3.1141541868189506,-0.6285181516228656,1761.172161172161,-1.0,81.59362549800797,2.759133534189889,
2023-08-09 09:56:16.919000,7.1084337349397595,0.7590361445783133,-6.891566265060241,0.7921520539546291,7.756591048436541,-6.3740036787247085,2.0,2.7553113553113553,362.93538952406277,-0.3167647572985262,-3.007283957811317,0.02797039799545499,1926.7399267399267,-1.0,81.59362549800797,2.7591295125527275,
