Shimmer_F5D4_Timestamp_FormattedUnix_CAL,Shimmer_F5D4_Accel_LN_X_CAL,Shimmer_F5D4_Accel_LN_Y_CAL,Shimmer_F5D4_Accel_LN_Z_CAL,Shimmer_F5D4_Accel_WR_X_CAL,Shimmer_F5D4_Accel_WR_Y_CAL,Shimmer_F5D4_Accel_WR_Z_CAL,Shimmer_F5D4_GSR_Range_CAL,Shimmer_F5D4_GSR_Skin_Conductance_CAL,Shimmer_F5D4_GSR_Skin_Resistance_CAL,Shimmer_F5D4_Gyro_X_CAL,Shimmer_F5D4_Gyro_Y_CAL,Shimmer_F5D4_Gyro_Z_CAL,Shimmer_F5D4_PPG_A13_CAL,Shimmer_F5D4_PPG_IBI_CAL,Shimmer_F5D4_PPGtoHR_CAL,Shimmer_F5D4_GSR_Skin_Conductance_LPF_CAL,
yyyy/mm/dd hh:mm:ss.000,m/(s^2),m/(s^2),m/(s^2),m/(s^2),m/(s^2),m/(s^2),no_units,uS,kOhms,deg/s,deg/s,deg/s,mV,ms,BPM,uS,
2023-08-16 12:07:20.060000,-5.072289156626506,-0.3132530120481928,-8.518072289156628,-0.23543838136112813,-4.711833231146535,-8.284488044144696,3.0,0.20757020757020755,4817.64705882353,0.08344502068644033,-0.028436571295379638,0.18588660334479346,1191.9413919413919,-1.0,73.2054957739137,0.20804473751003263,
2023-08-16 12:07:20.068000,-5.0602409638554215,-0.30120481927710846,-8.530120481927712,-0.21827099938687922,-4.694665849172287,-8.252605763335376,3.0,0.20801420801420803,4807.363927427961,-0.12050579803041749,0.21443971796515393,0.24881999883456662,1178.7545787545787,-1.0,73.2054957739137,0.20804317403074837,
2023-08-16 12:07:20.076000,-5.0843373493975905,-0.3253012048192771,-8.493975903614459,-0.24279583077866337,-4.704475781729,-8.237890864500306,3.0,0.20801420801420803,4807.363927427961,-0.06246722218984984,-0.018646931996970283,0.24928617213449084,1167.032967032967,-1.0,73.2054957739137,0.20804165442218103,
2023-08-16 12:07:20.083000,-5.0843373493975905,-0.3132530120481928,-8.506024096385543,-0.22562844880441446,-4.714285714285714,-8.206008583690986,3.0,0.20801420801420803,4807.363927427961,-0.39997669133500313,-0.021443971796515564,-0.10057688945865627,1157.5091575091574,-1.0,73.2054957739137,0.2080401796907584,
2023-08-16 12:07:20.091000,-5.0843373493975905,-0.3132530120481928,-8.542168674698795,-0.2673206621704476,-4.768240343347639,-8.286940527283875,3.0,0.20801420801420803,4807.363927427961,-0.3996270613600606,-0.023192121671231584,-0.09544898315948948,1150.9157509157508,-1.0,73.2054957739137,0.20803875067142044,
2023-08-16 12:07:20.099000,-5.0602409638554215,-0.3132530120481928,-8.542168674698795,-0.2673206621704476,-4.731453096259963,-8.289393010423053,3.0,0.20801420801420803,4807.363927427961,0.04382029019287956,0.037760037293863916,-0.2894936192529575,1148.7179487179487,-1.0,73.2054957739137,0.20803736803038184,
2023-08-16 12:07:20.106000,-5.0843373493975905,-0.3373493975903615,-8.55421686746988,-0.32127529123237275,-4.7657878602084605,-8.296750459840588,3.0,0.20801420801420803,4807.363927427961,0.026105704795757703,0.12808111415418746,-0.14614532952625142,1148.7179487179487,-1.0,73.2054957739137,0.2080360321298015,
2023-08-16 12:07:20.114000,-5.1084337349397595,-0.3493975903614458,-8.542168674698795,-0.269773145309626,-4.753525444512569,-8.203556100551808,3.0,0.20801420801420803,4807.363927427961,-0.3270205698968589,-0.4999708641687552,0.009789639298409356,1153.113553113553,-1.0,73.2054957739137,0.2080347431909553,
2023-08-16 12:07:20.121000,-5.096385542168675,-0.3253012048192771,-8.518072289156628,-0.2599632127529123,-4.790312691600245,-8.286940527283875,3.0,0.20801420801420803,4807.363927427961,0.08542625721111802,-0.099527999533827,-0.09638132975933791,1160.4395604395604,-1.0,73.2054957739137,0.20803350142648122,
2023-08-16 12:07:20.129000,-5.096385542168675,-0.3253012048192771,-8.518072289156628,-0.30656039239730226,-4.787860208461066,-8.250153280196198,3.0,0.20801420801420803,4807.363927427961,-0.006409882873958155,-0.3114037643493973,-0.17399918419672514,1170.6959706959706,-1.0,73.2054957739137,0.20803230689646454,
2023-08-16 12:07:20.137000,-5.096385542168675,-0.3253012048192771,-8.518072289156628,-0.3114653586756591,-4.7290006131207845,-8.259963212752911,3.0,0.20801420801420803,4807.363927427961,0.14777693607598702,-0.43086067245498555,-0.1741157275217064,1185.3479853479853,-1.0,73.2054957739137,0.20803115951432574,
2023-08-16 12:07:20.144000,-5.096385542168675,-0.3373493975903615,-8.518072289156628,-0.23789086450030655,-4.638258736971183,-8.259963212752911,3.0,0.20801420801420803,4807.363927427961,0.06876056173882716,-0.4101159606083567,-0.38972087873667044,1204.3956043956043,-1.0,73.2054957739137,0.20803005905317146,
2023-08-16 12:07:20.152000,-5.0843373493975905,-0.3132530120481928,-8.542168674698795,-0.3016554261189454,-4.7363580625383195,-8.245248313917841,3.0,0.20801420801420803,4807.363927427961,-0.037760037293863916,-0.16234485169861934,-0.35790455101684043,1226.3736263736264,-1.0,73.2054957739137,0.208029005152564,
2023-08-16 12:07:20.160000,-5.0843373493975905,-0.3253012048192771,-8.506024096385543,-0.30656039239730226,-4.6995708154506435,-8.257510729613733,3.0,0.20801420801420803,4807.363927427961,0.04020744711846669,-0.08344502068644033,-0.2060485985665172,1247.6190476190475,-1.0,73.2054957739137,0.20802799732565908,
2023-08-16 12:07:20.167000,-5.0843373493975905,-0.3132530120481928,-8.542168674698795,-0.2550582464745555,-4.719190680564071,-8.26241569589209,3.0,0.20801420801420803,4807.363927427961,-0.23693257968649875,0.14591224287628843,-0.4820231921216712,1266.6666666666665,-1.0,73.2054957739137,0.20802703496666408,
2023-08-16 12:07:20.175000,-5.1084337349397595,-0.3253012048192771,-8.518072289156628,-0.27713059472716123,-4.832004904966278,-8.242795830778663,3.0,0.20801420801420803,4807.363927427961,-0.099527999533827,0.20546588194161217,-0.45183847095157603,1283.5164835164835,-1.0,73.2054957739137,0.20802611735856774,
2023-08-16 12:07:20.183000,-5.120481927710844,-0.3253012048192771,-8.530120481927712,-0.2452483139178418,-4.7657878602084605,-8.274678111587983,3.0,0.20801420801420803,4807.363927427961,-0.3150166074238102,0.06876056173882716,-0.42037177320668945,1296.7032967032967,-1.0,73.2054957739137,0.20802524368108963,
2023-08-16 12:07:20.190000,-5.1084337349397595,-0.3253012048192771,-8.518072289156628,-0.19374616799509503,-4.741263028816677,-8.230533415082771,3.0,0.20801420801420803,4807.363927427961,0.0067595128489024,0.1018588660334472,-0.37049123011479507,1305.4945054945053,-1.0,73.2054957739137,0.20802441301880084,
2023-08-16 12:07:20.198000,-5.096385542168675,-0.3253012048192771,-8.530120481927712,-0.16922133660331085,-4.795217657878601,-8.269773145309626,3.0,0.20801420801420803,4807.363927427961,-0.07144105821339161,-0.11083270205698896,-0.5813181050055357,1306.227106227106,-1.0,73.2054957739137,0.2080236243693649,
2023-08-16 12:07:20.206000,-5.120481927710844,-0.30120481927710846,-8.506024096385543,-0.27467811158798283,-4.834457388105457,-8.24770079705702,3.0,0.20801420801420803,4807.363927427961,-0.11794184488083388,0.2720121205057982,-0.40801818075869734,1301.8315018315018,-1.0,73.2054957739137,0.2080228766518503,
2023-08-16 12:07:20.213000,-5.132530120481928,-0.3373493975903615,-8.55421686746988,-0.22562844880441446,-4.75107296137339,-8.299202942979766,3.0,0.20801420801420803,4807.363927427961,-0.4069692908338672,-0.3868072956121443,-0.14707767612609984,1292.3076923076922,-1.0,73.2054957739137,0.20802216871506593,
2023-08-16 12:07:20.221000,-5.156626506024097,-0.3253012048192771,-8.542168674698795,-0.19865113427345185,-4.780502759043531,-8.21827099938688,3.0,0.20801420801420803,4807.363927427961,0.08332847736145949,0.1329759338033913,-0.02389138162111747,1280.5860805860805,-1.0,73.2054957739137,0.20802149934587164,
2023-08-16 12:07:20.229000,-5.144578313253012,-0.30120481927710846,-8.518072289156628,-0.2207234825260576,-4.775597792765175,-8.242795830778663,3.0,0.20801420801420803,4807.363927427961,0.003496299749432037,0.025989161470776866,-0.08670823378590982,1268.131868131868,-1.0,73.2054957739137,0.2080208672774181,
2023-08-16 12:07:20.236000,-5.120481927710844,-0.3253012048192771,-8.518072289156628,-0.21336603310852237,-4.709380748007357,-8.259963212752911,3.0,0.20801420801420803,4807.363927427961,-0.08624206048598561,-0.20453353534176372,0.2489365421595479,1257.8754578754579,-1.0,73.2054957739137,0.208020271197272,
2023-08-16 12:07:20.244000,-5.072289156626506,-0.3373493975903615,-8.55421686746988,-0.269773145309626,-4.709380748007357,-8.255058246474555,3.0,0.20801420801420803,4807.363927427961,-0.08332847736145949,-0.06316648213973486,0.02925237457024636,1246.8864468864467,-1.0,73.2054957739137,0.20801970975538328,
2023-08-16 12:07:20.252000,-5.0843373493975905,-0.30120481927710846,-8.518072289156628,-0.2820355610055181,-4.724095646842428,-8.264868179031268,3.0,0.20801420801420803,4807.363927427961,0.1188741914806823,0.2150224345900581,0.4373870986539245,1238.8278388278388,-1.0,73.2054957739137,0.2080191815718547,
2023-08-16 12:07:20.259000,-5.096385542168675,-0.30120481927710846,-8.530120481927712,-0.2893930104230533,-4.6995708154506435,-8.21827099938688,3.0,0.20801420801420803,4807.363927427961,-0.23238739001223746,-0.14824310937591037,0.3709574034147193,1233.6996336996335,-1.0,73.2054957739137,0.20801868524447517,
2023-08-16 12:07:20.267000,-5.1084337349397595,-0.30120481927710846,-8.518072289156628,-0.2869405272838749,-4.667688534641324,-8.196198651134273,3.0,0.20801420801420803,4807.363927427961,0.10477244915797505,-0.08554280053609885,0.2912417691276736,1228.5714285714284,-1.0,73.2054957739137,0.20801821935598191,
2023-08-16 12:07:20.275000,-5.0843373493975905,-0.3132530120481928,-8.566265060240964,-0.2722256284488044,-4.716738197424893,-8.230533415082771,3.0,0.20801420801420803,4807.363927427961,0.19509352601829688,0.20569896859157383,0.08997144688537975,1224.1758241758241,-1.0,73.2054957739137,0.20801778248101802,
2023-08-16 12:07:20.282000,-5.072289156626506,-0.3132530120481928,-8.542168674698795,-0.2452483139178418,-4.721643163703249,-8.255058246474555,3.0,0.20801420801420803,4807.363927427961,0.13274284715342963,0.31350154419905585,0.025289901520890546,1216.117216117216,-1.0,73.2054957739137,0.20801737319275593,
2023-08-16 12:07:20.290000,-5.072289156626506,-0.3132530120481928,-8.55421686746988,-0.2452483139178418,-4.697118332311465,-8.215818516247701,3.0,0.20801420801420803,4807.363927427961,0.3323815628459878,0.28599731950352464,-0.08717440708583403,1205.128205128205,-1.0,73.2054957739137,0.20801699006915966,
2023-08-16 12:07:20.298000,-5.096385542168675,-0.30120481927710846,-8.55421686746988,-0.22317596566523604,-4.755977927651747,-8.277130594727161,3.0,0.20801420801420803,4807.363927427961,-0.06561389196433763,0.3788823495134318,0.15092360585047482,1193.4065934065934,-1.0,73.2054957739137,0.208016631698862,
2023-08-16 12:07:20.305000,-5.120481927710844,-0.3132530120481928,-8.566265060240964,-0.26241569589209074,-4.731453096259963,-8.291845493562231,3.0,0.20801420801420803,4807.363927427961,0.10232503933337228,-0.10966726880717886,-0.007575316123769124,1179.4871794871794,-1.0,73.2054957739137,0.20801629668663604,
2023-08-16 12:07:20.313000,-5.1084337349397595,-0.3132530120481928,-8.566265060240964,-0.2550582464745555,-4.768240343347639,-8.252605763335376,3.0,0.20801420801420803,4807.363927427961,0.03904201386865485,0.07750131111240552,-0.22376318396363862,1167.032967032967,-1.0,73.2054957739137,0.20801598365844387,
2023-08-16 12:07:20.321000,-5.072289156626506,-0.3132530120481928,-8.530120481927712,-0.19374616799509503,-4.6995708154506435,-8.24770079705702,3.0,0.20801420801420803,4807.363927427961,0.2995163452013294,-0.13285939047841044,-0.36023541751646154,1157.5091575091574,-1.0,73.2054957739137,0.20801569126604796,
2023-08-16 12:07:20.328000,-5.048192771084338,-0.3253012048192771,-8.530120481927712,-0.2844880441446965,-4.714285714285714,-8.255058246474555,3.0,0.20801420801420803,4807.363927427961,-0.08356156401142116,-0.011188159198181129,-0.28646349280344974,1149.4505494505493,-1.0,73.2054957739137,0.20801541819117542,
2023-08-16 12:07:20.336000,-5.072289156626506,-0.30120481927710846,-8.518072289156628,-0.23789086450030655,-4.7290006131207845,-8.255058246474555,3.0,0.20801420801420803,4807.363927427961,0.09789639298409182,0.0029135831245261186,-0.2741099003554576,1143.5897435897434,-1.0,73.2054957739137,0.2080151631492265,
2023-08-16 12:07:20.344000,-5.0843373493975905,-0.30120481927710846,-8.542168674698795,-0.2795830778663397,-4.682403433476394,-8.223175965665236,3.0,0.20801420801420803,4807.363927427961,0.23553405978672523,0.1713186877221611,-0.42713128605559136,1140.6593406593406,-1.0,73.2054957739137,0.2080149248925248,
2023-08-16 12:07:20.351000,-5.0843373493975905,-0.3253012048192771,-8.566265060240964,-0.24034334763948498,-4.731453096259963,-8.259963212752911,3.0,0.20801420801420803,4807.363927427961,-0.08659169046092811,-0.16444263154827787,-0.07586970456267077,1138.4615384615383,-1.0,73.2054957739137,0.20801470207435827,
2023-08-16 12:07:20.359000,-5.096385542168675,-0.3373493975903615,-8.590361445783133,-0.2452483139178418,-4.778050275904353,-8.264868179031268,3.0,0.20801420801420803,4807.363927427961,0.05069634636676106,0.11444554513140184,-0.368160363615174,1136.2637362637363,-1.0,73.2054957739137,0.20801449341044154,
2023-08-16 12:07:20.367000,-5.120481927710844,-0.3373493975903615,-8.530120481927712,-0.2820355610055181,-4.768240343347639,-8.301655426118945,3.0,0.20801420801420803,4807.363927427961,0.05244449624147708,0.11526134840626943,-0.36582949711555296,1131.135531135531,-1.0,73.2054957739137,0.20801429780841169,
2023-08-16 12:07:20.374000,-5.120481927710844,-0.3132530120481928,-8.530120481927712,-0.269773145309626,-4.753525444512569,-8.24770079705702,3.0,0.20801420801420803,4807.363927427961,0.006176796223996482,0.0025639531495836093,-0.3780665462385642,1123.8095238095236,-1.0,73.2054957739137,0.20801411422017133,
2023-08-16 12:07:20.382000,-5.120481927710844,-0.3253012048192771,-8.542168674698795,-0.3016554261189454,-4.743715511955855,-8.240343347639485,3.0,0.20801420801420803,4807.363927427961,-0.19101450964396066,-0.04696695996736735,-0.17493153079657311,1112.8205128205127,-1.0,73.2054957739137,0.20801394164309492,
2023-08-16 12:07:20.390000,-5.1084337349397595,-0.3253012048192771,-8.566265060240964,-0.2550582464745555,-4.785407725321888,-8.272225628448805,3.0,0.20801420801420803,4807.363927427961,-0.23378590991200923,0.3193287104481098,-0.06491463201445175,1097.4358974358975,-1.0,73.2054957739137,0.20801377912081548,
2023-08-16 12:07:20.397000,-5.096385542168675,-0.3253012048192771,-8.566265060240964,-0.25260576333537704,-4.773145309625996,-8.29429797670141,3.0,0.20801420801420803,4807.363927427961,-0.3969465648854962,0.27073014393100553,-0.5351669483130355,1082.051282051282,-1.0,73.2054957739137,0.2080136256048588,
2023-08-16 12:07:20.405000,-5.1084337349397595,-0.3373493975903615,-8.518072289156628,-0.2795830778663397,-4.785407725321888,-8.225628448804414,3.0,0.20801420801420803,4807.363927427961,-0.25429753510867636,-0.29485461220208553,-0.0846104539362513,1071.7948717948718,-1.0,73.2054957739137,0.20801347997501982,
2023-08-16 12:07:20.413000,-5.144578313253012,-0.3373493975903615,-8.530120481927712,-0.2795830778663397,-4.7657878602084605,-8.250153280196198,3.0,0.20801420801420803,4807.363927427961,-0.01992890857176122,-0.32550550667210454,-0.12633296427947058,1065.2014652014652,-1.0,73.2054957739137,0.20801334118698614,
2023-08-16 12:07:20.420000,-5.096385542168675,-0.3373493975903615,-8.493975903614459,-0.27713059472716123,-4.780502759043531,-8.23298589822195,3.0,0.20801420801420803,4807.363927427961,-0.21420663131519224,-0.20266884214206687,0.002563953149583175,1061.5384615384614,-1.0,73.2054957739137,0.2080132082705208,
2023-08-16 12:07:20.428000,-5.096385542168675,-0.3253012048192771,-8.518072289156628,-0.29429797670141017,-4.763335377069282,-8.213366033108523,3.0,0.20801420801420803,4807.363927427961,-0.13064506730376935,-0.0961482431093758,-0.14451372297651666,1060.8058608058607,-1.0,73.2054957739137,0.2080130803275225,
2023-08-16 12:07:20.436000,-5.096385542168675,-0.3493975903614458,-8.506024096385543,-0.23543838136112813,-4.711833231146535,-8.296750459840588,3.0,0.20801420801420803,4807.363927427961,-0.14171668317697136,0.010721985898257782,-0.10873492220733044,1060.07326007326,-1.0,73.2054957739137,0.20801295652998578,
2023-08-16 12:07:20.443000,-5.096385542168675,-0.3373493975903615,-8.506024096385543,-0.24279583077866337,-4.704475781729,-8.250153280196198,3.0,0.20801420801420803,4807.363927427961,-0.24310937591049522,-0.005244449624148055,-0.29986597517627195,1061.5384615384614,-1.0,73.2054957739137,0.20801283611788546,
2023-08-16 12:07:20.451000,-5.120481927710844,-0.3493975903614458,-8.506024096385543,-0.24770079705702022,-4.75107296137339,-8.245248313917841,3.0,0.20801420801420803,4807.363927427961,-0.08426082396130792,0.1119981353068008,-0.07820057106229227,1062.2710622710622,-1.0,73.2054957739137,0.20801271839700583,
2023-08-16 12:07:20.459000,-5.120481927710844,-0.3493975903614458,-8.481927710843374,-0.2795830778663397,-4.687308399754752,-8.196198651134273,3.0,0.20801420801420803,4807.363927427961,-0.2637375444321432,-0.011887419148067882,-0.17819474389604348,1063.7362637362637,-1.0,73.2054957739137,0.2080126027367372,
2023-08-16 12:07:20.466000,-5.132530120481928,-0.3253012048192771,-8.530120481927712,-0.2599632127529123,-4.6995708154506435,-8.235438381361128,3.0,0.20801420801420803,4807.363927427961,-0.04603461336751892,-0.15185595245032324,-0.32597167997202964,1068.8644688644688,-1.0,73.2054957739137,0.20801248856785917,
2023-08-16 12:07:20.474000,-5.096385542168675,-0.3253012048192771,-8.530120481927712,-0.2820355610055181,-4.731453096259963,-8.24770079705702,3.0,0.20801420801420803,4807.363927427961,-0.07412155468795606,-0.167356214672804,0.05955363906532286,1076.1904761904761,-1.0,73.2054957739137,0.20801237538032927,
2023-08-16 12:07:20.481000,-5.120481927710844,-0.3253012048192771,-8.506024096385543,-0.27713059472716123,-4.731453096259963,-8.240343347639485,3.0,0.20801420801420803,4807.363927427961,0.21851873433949015,-0.2898432492279009,0.04731658994231073,1084.981684981685,-1.0,73.2054957739137,0.20801226272109566,
2023-08-16 12:07:20.489000,-5.144578313253012,-0.30120481927710846,-8.518072289156628,-0.2575107296137339,-4.758430410790925,-8.250153280196198,3.0,0.20801420801420803,4807.363927427961,-0.024707184895985928,-0.12132160130528508,0.3556902278422002,1094.5054945054944,-1.0,73.2054957739137,0.20801215019194869,
2023-08-16 12:07:20.497000,-5.1084337349397595,-0.30120481927710846,-8.530120481927712,-0.2673206621704476,-4.78295524218271,-8.316370324954015,3.0,0.20801420801420803,4807.363927427961,0.010139269273351865,0.015849892197425,0.09708058970922423,1101.8315018315018,-1.0,73.2054957739137,0.208012037586177,
2023-08-16 12:07:20.504000,-5.120481927710844,-0.3614457831325301,-8.55421686746988,-0.33353770692826484,-4.763335377069282,-8.272225628448805,3.0,0.20801420801420803,4807.363927427961,-0.4468271079773914,-0.4275974593555152,0.1281976574791679,1106.227106227106,-1.0,73.2054957739137,0.20801192472741153,
2023-08-16 12:07:20.512000,-5.120481927710844,-0.3132530120481928,-8.493975903614459,-0.23543838136112813,-4.724095646842428,-8.291845493562231,3.0,0.20801420801420803,4807.363927427961,0.4906473981702692,0.183206106870229,-0.0982460229590352,1107.6923076923076,-1.0,73.2054957739137,0.20801181134006472,
2023-08-16 12:07:20.520000,-5.120481927710844,-0.3132530120481928,-8.493975903614459,-0.2329858982219497,-4.753525444512569,-8.179031269160024,3.0,0.20801420801420803,4807.363927427961,-0.059320552415360314,-0.12376901112988785,-0.17236757764699037,1105.4945054945053,-1.0,73.2054957739137,0.20801169733531719,
2023-08-16 12:07:20.527000,-5.096385542168675,-0.3373493975903615,-8.506024096385543,-0.29429797670141017,-4.682403433476394,-8.252605763335376,3.0,0.20801420801420803,4807.363927427961,-0.02587261814579603,0.19439426606841012,-0.0010488899248296977,1103.2967032967033,-1.0,73.2054957739137,0.20801158278877804,
2023-08-16 12:07:20.535000,-5.0602409638554215,-0.3132530120481928,-8.530120481927712,-0.23053341508277128,-4.709380748007357,-8.240343347639485,3.0,0.20801420801420803,4807.363927427961,0.03659460404405381,0.2818017598042076,0.26140667793252126,1102.5641025641025,-1.0,73.2054957739137,0.2080114677906374,
2023-08-16 12:07:20.543000,-5.0602409638554215,-0.3132530120481928,-8.542168674698795,-0.25260576333537704,-4.724095646842428,-8.274678111587983,3.0,0.20801420801420803,4807.363927427961,0.12831420080414915,0.020278538546705464,-0.16514189149816463,1101.098901098901,-1.0,73.2054957739137,0.20801135230627713,
2023-08-16 12:07:20.550000,-5.1084337349397595,-0.3253012048192771,-8.542168674698795,-0.3041079092581238,-4.733905579399141,-8.272225628448805,3.0,0.20801420801420803,4807.363927427961,0.3109375910494722,0.32562204999708716,-0.023541751646174527,1100.3663003663003,-1.0,73.2054957739137,0.20801123633468013,
2023-08-16 12:07:20.558000,-5.1084337349397595,-0.3132530120481928,-8.530120481927712,-0.2599632127529123,-4.773145309625996,-8.267320662170446,3.0,0.20801420801420803,4807.363927427961,0.06573043528931848,0.22982343686265383,0.039624730493560766,1101.8315018315018,-1.0,73.2054957739137,0.208011120035248,
2023-08-16 12:07:20.566000,-5.096385542168675,-0.3253012048192771,-8.566265060240964,-0.25015328019619865,-4.753525444512569,-8.274678111587983,3.0,0.20801420801420803,4807.363927427961,0.006642969523919828,0.3944991550608934,0.05547462269098533,1103.2967032967033,-1.0,73.2054957739137,0.20801100357784041,
2023-08-16 12:07:20.573000,-5.120481927710844,-0.30120481927710846,-8.542168674698795,-0.2452483139178418,-4.743715511955855,-8.282035561005518,3.0,0.20801420801420803,4807.363927427961,0.17481498747159316,0.34706602179360097,-0.021210885146553025,1101.8315018315018,-1.0,73.2054957739137,0.2080108871420446,
2023-08-16 12:07:20.581000,-5.120481927710844,-0.3253012048192771,-8.614457831325302,-0.23543838136112813,-4.731453096259963,-8.338442673206622,3.0,0.20801420801420803,4807.363927427961,-0.20499970864168707,0.3174640172484112,-0.3111706776994348,1098.9010989010987,-1.0,73.2054957739137,0.20801077091638567,
2023-08-16 12:07:20.589000,-5.1084337349397595,-0.3373493975903615,-8.530120481927712,-0.29675045984058857,-4.7363580625383195,-8.225628448804414,3.0,0.20801420801420803,4807.363927427961,0.4385525319037346,0.440067595128489,0.009673095973428084,1097.4358974358975,-1.0,73.2054957739137,0.20801065509748262,
2023-08-16 12:07:20.596000,-5.1084337349397595,-0.28915662650602414,-8.55421686746988,-0.1912936848559166,-4.721643163703249,-8.284488044144696,3.0,0.20801420801420803,4807.363927427961,0.14789347940096786,-0.42794708933045944,-0.0980129363090731,1097.4358974358975,-1.0,73.2054957739137,0.2080105397504054,
2023-08-16 12:07:20.604000,-5.120481927710844,-0.3253012048192771,-8.530120481927712,-0.25260576333537704,-4.787860208461066,-8.277130594727161,3.0,0.20801420801420803,4807.363927427961,-0.12586679097954637,-0.11619369500611786,-0.017831128722102258,1098.168498168498,-1.0,73.2054957739137,0.20801042496686614,
2023-08-16 12:07:20.612000,-5.120481927710844,-0.3373493975903615,-8.542168674698795,-0.23789086450030655,-4.770692826486818,-8.296750459840588,3.0,0.20801420801420803,4807.363927427961,0.13460754035312647,0.3278363731717265,-0.029135831245265524,1098.9010989010987,-1.0,73.2054957739137,0.20801031099185593,
2023-08-16 12:07:20.619000,-5.096385542168675,-0.3253012048192771,-8.542168674698795,-0.29675045984058857,-4.733905579399141,-8.32372777437155,3.0,0.20801420801420803,4807.363927427961,0.22562787716333504,-0.13111124060369442,0.23273701998718038,1098.9010989010987,-1.0,73.2054957739137,0.20801019807353882,
2023-08-16 12:07:20.627000,-5.144578313253012,-0.3493975903614458,-8.55421686746988,-0.2893930104230533,-4.812385039852851,-8.188841201716738,3.0,0.20801420801420803,4807.363927427961,-0.06794475846395957,-0.34135539886952954,0.05023017306683771,1096.7032967032967,-1.0,73.2054957739137,0.20801008646241193,
2023-08-16 12:07:20.635000,-5.132530120481928,-0.3132530120481928,-8.506024096385543,-0.2207234825260576,-4.7290006131207845,-8.23298589822195,3.0,0.20801420801420803,4807.363927427961,0.35860381096672633,0.27550842025523026,0.2481207388846803,1093.040293040293,-1.0,73.2054957739137,0.20800997641044192,
2023-08-16 12:07:20.642000,-5.0843373493975905,-0.28915662650602414,-8.493975903614459,-0.23053341508277128,-4.755977927651747,-8.255058246474555,3.0,0.20801420801420803,4807.363927427961,0.3559233144921619,0.2793543499796048,0.24322591923547562,1090.8424908424909,-1.0,73.2054957739137,0.20800986817018163,
2023-08-16 12:07:20.650000,-5.0843373493975905,-0.3132530120481928,-8.506024096385543,-0.29429797670141017,-4.741263028816677,-8.240343347639485,3.0,0.20801420801420803,4807.363927427961,-0.5499679505856295,-0.02365829497115493,-0.006876056173882803,1091.5750915750914,-1.0,73.2054957739137,0.2080097619938709,
2023-08-16 12:07:20.658000,-5.0843373493975905,-0.3373493975903615,-8.530120481927712,-0.22808093194359289,-4.6701410177805025,-8.23298589822195,3.0,0.20801420801420803,4807.363927427961,-0.18332265019520982,0.11840801818075895,0.25394790513373344,1092.3076923076922,-1.0,73.2054957739137,0.20800965813252573,
2023-08-16 12:07:20.665000,-5.0843373493975905,-0.3373493975903615,-8.566265060240964,-0.29675045984058857,-4.755977927651747,-8.252605763335376,3.0,0.20801420801420803,4807.363927427961,-0.1699201678223876,0.028553114620360476,0.711613542334363,1090.10989010989,903.86962890625,66.38125464244716,0.20800955683502,
2023-08-16 12:07:20.673000,-5.144578313253012,-0.3734939759036145,-8.530120481927712,-0.25260576333537704,-4.790312691600245,-8.230533415082771,3.0,0.20757020757020755,4817.64705882353,-0.17260066429695206,0.032049414369792514,0.7085834158848552,1082.7838827838827,-1.0,66.38125464244716,0.20800945834716442,
2023-08-16 12:07:20.681000,-5.168674698795181,-0.3132530120481928,-8.493975903614459,-0.20110361741263028,-4.790312691600245,-8.304107909258123,3.0,0.20757020757020755,4817.64705882353,-0.21851873433949015,0.2795874366295665,0.5055649437678458,1076.923076923077,-1.0,66.38125464244716,0.20800936276149273,
2023-08-16 12:07:20.688000,-5.156626506024097,-0.3253012048192771,-8.506024096385543,-0.27713059472716123,-4.827099938687922,-8.250153280196198,3.0,0.20801420801420803,4807.363927427961,-0.2832002797039794,-0.1305285239787885,-0.11036652875706562,1073.9926739926739,-1.0,66.38125464244716,0.2080092699944724,
2023-08-16 12:07:20.696000,-5.096385542168675,-0.3253012048192771,-8.530120481927712,-0.26241569589209074,-4.758430410790925,-8.316370324954015,3.0,0.20801420801420803,4807.363927427961,0.11013344210710395,-0.1580327486743197,-0.36734456034030644,1072.5274725274724,-1.0,66.38125464244716,0.2080091800719569,
2023-08-16 12:07:20.704000,-5.096385542168675,-0.3493975903614458,-8.530120481927712,-0.29429797670141017,-4.6995708154506435,-8.250153280196198,3.0,0.20801420801420803,4807.363927427961,0.18413845347007743,-0.35440825126740927,-0.2717790338558361,1073.9926739926739,-1.0,66.38125464244716,0.2080090931483017,
2023-08-16 12:07:20.711000,-5.072289156626506,-0.3132530120481928,-8.566265060240964,-0.22317596566523604,-4.655426118945432,-8.245248313917841,3.0,0.20801420801420803,4807.363927427961,0.7013577297360294,-0.231455043412389,0.23401899656197175,1075.4578754578754,-1.0,66.38125464244716,0.20800900936638594,
2023-08-16 12:07:20.719000,-5.096385542168675,-0.30120481927710846,-8.493975903614459,-0.25015328019619865,-4.7363580625383195,-8.230533415082771,3.0,0.20801420801420803,4807.363927427961,0.20954489831594839,-0.613250976050347,0.14008507662723618,1078.3882783882784,-1.0,66.38125464244716,0.20800892885642752,
2023-08-16 12:07:20.727000,-5.0843373493975905,-0.3132530120481928,-8.530120481927712,-0.20110361741263028,-4.704475781729,-8.257510729613733,3.0,0.20801420801420803,4807.363927427961,0.14637841617621353,0.10850183555736877,0.4792261523221255,1081.3186813186812,-1.0,66.38125464244716,0.20800885173485112,
2023-08-16 12:07:20.734000,-5.132530120481928,-0.3253012048192771,-8.530120481927712,-0.3261802575107296,-4.75107296137339,-8.206008583690986,3.0,0.20801420801420803,4807.363927427961,-0.05710622924072095,0.07447118466289857,0.04009090379348541,1082.7838827838827,-1.0,66.38125464244716,0.20800877810321744,
2023-08-16 12:07:20.742000,-5.132530120481928,-0.3493975903614458,-8.506024096385543,-0.22317596566523604,-4.748620478234212,-8.311465358675658,3.0,0.20801420801420803,4807.363927427961,0.4951925878445305,0.22504516053843088,0.45766563720062914,1083.5164835164835,-1.0,66.38125464244716,0.20800870804722177,
2023-08-16 12:07:20.750000,-5.1084337349397595,-0.3253012048192771,-8.530120481927712,-0.22562844880441446,-4.773145309625996,-8.21827099938688,3.0,0.20801420801420803,4807.363927427961,-0.10115960608356218,0.26839927743138536,0.38121321601305286,1084.981684981685,-1.0,66.38125464244716,0.20800864163577001,
2023-08-16 12:07:20.757000,-5.0843373493975905,-0.3132530120481928,-8.542168674698795,-0.21827099938687922,-4.7069282648681785,-8.296750459840588,3.0,0.20801420801420803,4807.363927427961,-0.32562204999708716,-0.11234776528174331,0.16549152147310758,1086.4468864468863,-1.0,66.38125464244716,0.20800857892013921,
2023-08-16 12:07:20.765000,-5.096385542168675,-0.3373493975903615,-8.578313253012048,-0.3016554261189454,-4.6995708154506435,-8.333537706928265,3.0,0.20801420801420803,4807.363927427961,-0.5049822271429398,0.16490880484820297,-0.004894819649204678,1087.9120879120878,-1.0,66.38125464244716,0.2080085199332296,
2023-08-16 12:07:20.773000,-5.0843373493975905,-0.3373493975903615,-8.542168674698795,-0.18148375229920294,-4.6701410177805025,-8.23298589822195,3.0,0.20801420801420803,4807.363927427961,-0.05535807936600493,-0.37002505681487086,0.008158032748674174,1094.5054945054944,-1.0,66.38125464244716,0.2080084646889153,
2023-08-16 12:07:20.780000,-5.096385542168675,-0.28915662650602414,-8.542168674698795,-0.22317596566523604,-4.748620478234212,-8.311465358675658,3.0,0.20801420801420803,4807.363927427961,-0.15884855194918732,-0.28774546937824064,-0.14544606957636508,1109.1575091575091,-1.0,66.38125464244716,0.20800841318149807,
2023-08-16 12:07:20.788000,-5.096385542168675,-0.30120481927710846,-8.530120481927712,-0.19619865113427343,-4.748620478234212,-8.304107909258123,3.0,0.20801420801420803,4807.363927427961,-0.8420255229881716,-0.3883223588368969,0.3107045043995106,1136.2637362637363,-1.0,66.38125464244716,0.20800836538527165,
2023-08-16 12:07:20.796000,-5.120481927710844,-0.3132530120481928,-8.578313253012048,-0.27713059472716123,-4.721643163703249,-8.264868179031268,3.0,0.20801420801420803,4807.363927427961,-0.6497290367694182,0.13600606025289824,0.05733931589068219,1180.2197802197802,-1.0,66.38125464244716,0.20800832125419916,
2023-08-16 12:07:20.803000,-5.0843373493975905,-0.28915662650602414,-8.518072289156628,-0.21827099938687922,-4.714285714285714,-8.257510729613733,3.0,0.20801420801420803,4807.363927427961,-0.04720004661733076,-0.25965852805780526,-0.026105704795757703,1238.095238095238,-1.0,66.38125464244716,0.20800828072170938,
2023-08-16 12:07:20.811000,-5.1084337349397595,-0.3373493975903615,-8.530120481927712,-0.30656039239730226,-4.7657878602084605,-8.240343347639485,3.0,0.20801420801420803,4807.363927427961,-0.41046559058329923,-0.6085892430511048,-0.07645242118757668,1309.1575091575091,-1.0,66.38125464244716,0.20800824370061424,
2023-08-16 12:07:20.819000,-5.132530120481928,-0.3493975903614458,-8.530120481927712,-0.25260576333537704,-4.75107296137339,-8.196198651134273,3.0,0.20801420801420803,4807.363927427961,-0.04009090379348585,-0.2861138628285072,0.3929840918361399,1390.4761904761904,-1.0,66.38125464244716,0.20800821008315054,
2023-08-16 12:07:20.826000,-5.144578313253012,-0.3132530120481928,-8.518072289156628,-0.27713059472716123,-4.78295524218271,-8.228080931943593,3.0,0.20801420801420803,4807.363927427961,-0.1305285239787885,-0.5615057397587548,0.721403181632772,1481.3186813186812,-1.0,66.38125464244716,0.20800817974114766,
2023-08-16 12:07:20.834000,-5.156626506024097,-0.3132530120481928,-8.530120481927712,-0.24770079705702022,-4.790312691600245,-8.29429797670141,3.0,0.20801420801420803,4807.363927427961,-0.49729036769419077,-0.6658120156168048,1.004953091311695,1580.9523809523807,-1.0,66.38125464244716,0.2080081525263228,
2023-08-16 12:07:20.842000,-5.144578313253012,-0.3253012048192771,-8.506024096385543,-0.269773145309626,-4.856529736358063,-8.235438381361128,3.0,0.20801420801420803,4807.363927427961,-0.32632130994697217,-0.2508012353592443,0.9236058504749142,1679.8534798534797,-1.0,66.38125464244716,0.208008128270703,
2023-08-16 12:07:20.849000,-5.156626506024097,-0.30120481927710846,-8.518072289156628,-0.22562844880441446,-4.841814837522992,-8.284488044144696,3.0,0.20801420801420803,4807.363927427961,-0.6781656080647979,-0.9375910494726414,0.8692966610337394,1768.4981684981683,-1.0,66.38125464244716,0.20800810678717505,
2023-08-16 12:07:20.857000,-5.216867469879518,-0.3373493975903615,-8.530120481927712,-0.2893930104230533,-4.812385039852851,-8.252605763335376,3.0,0.20801420801420803,4807.363927427961,-0.3394907056698327,-0.6407552007458764,1.7180816968708115,1846.153846153846,-1.0,66.38125464244716,0.20800808787016042,
2023-08-16 12:07:20.864000,-5.156626506024097,-0.27710843373493976,-8.55421686746988,-0.23543838136112813,-4.881054567749846,-8.299202942979766,3.0,0.20801420801420803,4807.363927427961,-0.12644950760445228,-0.4993881475438493,1.232445661674728,1909.8901098901097,-1.0,66.38125464244716,0.20800807129641444,
2023-08-16 12:07:20.872000,-5.1807228915662655,-0.3253012048192771,-8.506024096385543,-0.24770079705702022,-4.819742489270386,-8.17167381974249,3.0,0.20801420801420803,4807.363927427961,-0.6322475380222597,-0.8617213449099711,2.003496299749432,1958.2417582417581,-1.0,66.38125464244716,0.20800805682594592,
2023-08-16 12:07:20.880000,-5.132530120481928,-0.26506024096385544,-8.530120481927712,-0.22808093194359289,-4.797670141017781,-8.230533415082771,3.0,0.20801420801420803,4807.363927427961,-0.14323174640172398,-0.564419322883281,1.9152730027387679,1991.2087912087911,-1.0,66.38125464244716,0.20800804420305433,
2023-08-16 12:07:20.887000,-5.1084337349397595,-0.30120481927710846,-8.530120481927712,-0.3139178418148375,-4.758430410790925,-8.223175965665236,3.0,0.20801420801420803,4807.363927427961,-0.770001748149874,-0.531321018588661,1.4901229532078553,2008.7912087912086,-1.0,66.38125464244716,0.20800803315747943,
2023-08-16 12:07:20.895000,-5.1084337349397595,-0.30120481927710846,-8.518072289156628,-0.2673206621704476,-4.78295524218271,-8.272225628448805,3.0,0.20801420801420803,4807.363927427961,-0.2475380222597757,-0.4202552298817086,2.078317114387274,2010.989010989011,-1.0,66.38125464244716,0.20800802340565863,
2023-08-16 12:07:20.903000,-5.096385542168675,-0.30120481927710846,-8.506024096385543,-0.15695892090741875,-4.760882893930104,-8.196198651134273,3.0,0.20801420801420803,4807.363927427961,-0.18938290309422548,-0.3262047666219913,1.972029602004545,1999.9999999999998,-1.0,66.38125464244716,0.20800801465208635,
2023-08-16 12:07:20.910000,-5.0843373493975905,-0.28915662650602414,-8.55421686746988,-0.2599632127529123,-4.702023298589822,-8.208461066830164,3.0,0.20801420801420803,4807.363927427961,-0.38494260241244743,-0.13798729677757768,1.7461686381912478,1975.091575091575,-1.0,66.38125464244716,0.208008006590768,
2023-08-16 12:07:20.918000,-5.0602409638554215,-0.3132530120481928,-8.493975903614459,-0.2918454935622317,-4.6407112201103615,-8.208461066830164,3.0,0.20801420801420803,4807.363927427961,-0.38051395606316696,-0.1381038401025585,1.7322999825185015,1937.7289377289376,-1.0,66.38125464244716,0.20800799890676258,
2023-08-16 12:07:20.926000,-5.0361445783132535,-0.27710843373493976,-8.506024096385543,-0.23789086450030655,-4.672593500919681,-8.237890864500306,3.0,0.20801420801420803,4807.363927427961,-0.0564069692908342,0.15383718897500093,1.3859332206747854,1890.8424908424906,-1.0,66.38125464244716,0.20800799127780442,
2023-08-16 12:07:20.933000,-5.0120481927710845,-0.30120481927710846,-8.506024096385543,-0.23789086450030655,-4.589209074187615,-8.179031269160024,3.0,0.20801420801420803,4807.363927427961,-0.10011071615873118,-0.04696695996736735,1.0694015500262226,1838.095238095238,-1.0,66.38125464244716,0.2080079833759976,
2023-08-16 12:07:20.941000,-5.024096385542169,-0.3132530120481928,-8.506024096385543,-0.24279583077866337,-4.6039239730226855,-8.188841201716738,3.0,0.20801420801420803,4807.363927427961,0.07074179826350485,-0.04533535341763217,0.9861896159897444,1779.4871794871794,-1.0,66.38125464244716,0.20800797486957234,
2023-08-16 12:07:20.949000,-4.9879518072289155,-0.30120481927710846,-8.46987951807229,-0.22562844880441446,-4.64316370324954,-8.267320662170446,3.0,0.20801420801420803,4807.363927427961,0.136705320202785,-0.061068702290076333,0.21339082804032444,1718.6813186813185,-1.0,66.38125464244716,0.2080079654246947,
2023-08-16 12:07:20.956000,-5.048192771084338,-0.3253012048192771,-8.530120481927712,-0.31882280809319435,-4.608828939301042,-8.181483752299203,3.0,0.20801420801420803,4807.363927427961,0.10920109550725551,0.9460987121962581,0.012470135772974235,1654.212454212454,-1.0,66.38125464244716,0.2080079547073199,
2023-08-16 12:07:20.964000,-5.048192771084338,-0.3132530120481928,-8.518072289156628,-0.23789086450030655,-4.675045984058859,-8.196198651134273,3.0,0.20801420801420803,4807.363927427961,-0.2743429870054184,0.4658236699493042,-0.6278188916729794,1587.5457875457873,-1.0,66.38125464244716,0.2080079423850785,
2023-08-16 12:07:20.972000,-5.0361445783132535,-0.28915662650602414,-8.530120481927712,-0.24770079705702022,-4.6774984671980375,-8.286940527283875,3.0,0.20801420801420803,4807.363927427961,0.49181283142008103,0.5673329060078088,-1.1121729502942717,1524.5421245421244,-1.0,66.38125464244716,0.20800792812918567,
2023-08-16 12:07:20.979000,-5.072289156626506,-0.3132530120481928,-8.530120481927712,-0.2207234825260576,-4.702023298589822,-8.259963212752911,3.0,0.20801420801420803,4807.363927427961,0.5168696462910095,-0.21537206456500235,-0.7549676592273179,1465.9340659340658,-1.0,66.38125464244716,0.2080079116163616,
2023-08-16 12:07:20.987000,-5.072289156626506,-0.3132530120481928,-8.55421686746988,-0.19865113427345185,-4.738810545677498,-8.353157572041692,3.0,0.20801420801420803,4807.363927427961,0.06945982168871218,0.21455626129013475,-1.118349746518268,1413.9194139194137,-1.0,66.38125464244716,0.2080078925307531,
2023-08-16 12:07:20.995000,-5.1084337349397595,-0.27710843373493976,-8.578313253012048,-0.21091354996934394,-4.773145309625996,-8.301655426118945,3.0,0.20801420801420803,4807.363927427961,0.15814929199930056,-0.1848377134199642,-1.3104131460870574,1367.7655677655678,-1.0,66.38125464244716,0.20800787056584544,
2023-08-16 12:07:21.002000,-5.156626506024097,-0.28915662650602414,-8.566265060240964,-0.27713059472716123,-4.8295524218271,-8.299202942979766,3.0,0.20801420801420803,4807.363927427961,0.14474680962647835,0.06001981236524707,-1.011129887535691,1329.6703296703297,-1.0,66.38125464244716,0.208007845426352,
2023-08-16 12:07:21.010000,-5.204819277108434,-0.27710843373493976,-8.578313253012048,-0.22562844880441446,-4.832004904966278,-8.269773145309626,3.0,0.20801420801420803,4807.363927427961,-0.2822679331041309,-0.40044286463492823,-1.0225511333838355,1298.168498168498,-1.0,66.38125464244716,0.20800781683007222,
2023-08-16 12:07:21.018000,-5.204819277108434,-0.26506024096385544,-8.578313253012048,-0.15941140404659718,-4.881054567749846,-8.397302268546904,3.0,0.20801420801420803,4807.363927427961,-0.32573859332206795,-0.1551191655497936,-0.4984558009440009,1269.5970695970695,-1.0,66.38125464244716,0.2080077845097057,
2023-08-16 12:07:21.025000,-5.19277108433735,-0.30120481927710846,-8.590361445783133,-0.26486817903126914,-4.883507050889025,-8.284488044144696,3.0,0.20801420801420803,4807.363927427961,-0.49029776819532667,-0.2783054600547755,-0.695763650136938,1241.0256410256409,-1.0,66.38125464244716,0.20800774821461193,
2023-08-16 12:07:21.033000,-5.19277108433735,-0.2530120481927711,-8.518072289156628,-0.1912936848559166,-4.915389331698345,-8.284488044144696,3.0,0.20801420801420803,4807.363927427961,-0.22644368043820265,-0.2932230056523521,-0.4009090379348526,1214.6520146520145,-1.0,66.38125464244716,0.20800770771250573,
2023-08-16 12:07:21.041000,-5.168674698795181,-0.26506024096385544,-8.542168674698795,-0.17903126916002451,-4.834457388105457,-8.259963212752911,3.0,0.20801420801420803,4807.363927427961,-0.6358603810966726,-0.4555678573509697,0.013402482372822011,1193.4065934065934,-1.0,66.38125464244716,0.2080076627910764,
2023-08-16 12:07:21.048000,-5.144578313253012,-0.28915662650602414,-8.530120481927712,-0.269773145309626,-4.814837522992029,-8.17167381974249,3.0,0.20801420801420803,4807.363927427961,-0.9649787308431917,-0.5901753977040962,0.22725948371307023,1178.021978021978,-1.0,66.38125464244716,0.20800761325952238,
2023-08-16 12:07:21.056000,-5.1084337349397595,-0.30120481927710846,-8.506024096385543,-0.22562844880441446,-4.778050275904353,-8.166768853464133,3.0,0.20801420801420803,4807.363927427961,-0.7926111531962013,-0.12808111415418746,0.34659984849367764,1165.5677655677655,-1.0,66.38125464244716,0.20800755894999057,
2023-08-16 12:07:21.064000,-5.120481927710844,-0.3132530120481928,-8.493975903614459,-0.2035561005518087,-4.709380748007357,-8.196198651134273,3.0,0.20801420801420803,4807.363927427961,-0.5728104422819186,-0.1259833343045272,0.49402715459472085,1154.5787545787546,-1.0,66.38125464244716,0.2080074997189119,
2023-08-16 12:07:21.071000,-5.1084337349397595,-0.3253012048192771,-8.481927710843374,-0.25260576333537704,-4.731453096259963,-8.154506437768239,3.0,0.20801420801420803,4807.363927427961,-0.7195384884330747,0.04347066021793532,0.12470135772973584,1147.2527472527472,-1.0,66.38125464244716,0.20800743544822412,
2023-08-16 12:07:21.079000,-5.096385542168675,-0.3373493975903615,-8.481927710843374,-0.27467811158798283,-4.724095646842428,-8.161863887185776,3.0,0.20801420801420803,4807.363927427961,-0.3169978439484879,0.09136996678515283,0.04871510984208402,1139.194139194139,-1.0,66.38125464244716,0.20800736604647432,
2023-08-16 12:07:21.087000,-5.0843373493975905,-0.3373493975903615,-8.481927710843374,-0.24770079705702022,-4.6922133660331085,-8.164316370324954,3.0,0.20801420801420803,4807.363927427961,-0.3750364197890573,0.09136996678515283,-0.07248994813822,1133.3333333333333,-1.0,66.38125464244716,0.208007291449793,
2023-08-16 12:07:21.094000,-5.048192771084338,-0.3373493975903615,-8.457831325301205,-0.3261802575107296,-4.768240343347639,-8.220723482526058,3.0,0.20801420801420803,4807.363927427961,-0.038226210593788994,0.27457607365538184,0.06409882873958415,1128.937728937729,-1.0,66.38125464244716,0.2080072116227343,
2023-08-16 12:07:21.102000,-5.072289156626506,-0.3253012048192771,-8.481927710843374,-0.2673206621704476,-4.6774984671980375,-8.16922133660331,3.0,0.20801420801420803,4807.363927427961,0.26548569430685925,-0.06270030883981152,0.1385700134024827,1128.2051282051282,-1.0,66.38125464244716,0.2080071265589749,
2023-08-16 12:07:21.110000,-5.1084337349397595,-0.3253012048192771,-8.493975903614459,-0.2722256284488044,-4.748620478234212,-8.191293684855916,3.0,0.20801420801420803,4807.363927427961,0.20383427539187698,-0.13740458015267176,-0.07913291766214113,1130.4029304029302,-1.0,66.38125464244716,0.20800703628186798,
2023-08-16 12:07:21.117000,-5.132530120481928,-0.3253012048192771,-8.518072289156628,-0.19619865113427343,-4.832004904966278,-8.23298589822195,3.0,0.20801420801420803,4807.363927427961,0.4631431734747397,0.2013868655672742,-0.15675077209952748,1134.7985347985348,-1.0,66.38125464244716,0.20800694084484647,
2023-08-16 12:07:21.125000,-5.120481927710844,-0.3132530120481928,-8.518072289156628,-0.2918454935622317,-4.800122624156959,-8.198651134273451,3.0,0.20801420801420803,4807.363927427961,0.47351552939805325,0.3343627993706655,-0.4310937591049472,1142.857142857143,-1.0,66.38125464244716,0.20800684033167327,
2023-08-16 12:07:21.133000,-5.096385542168675,-0.28915662650602414,-8.518072289156628,-0.21091354996934394,-4.7290006131207845,-8.230533415082771,3.0,0.20757020757020755,4817.64705882353,0.33424625604568464,0.1029077559582782,-0.536215838237865,1153.113553113553,-1.0,66.38125464244716,0.2080067348565347,
2023-08-16 12:07:21.140000,-5.096385542168675,-0.27710843373493976,-8.506024096385543,-0.22562844880441446,-4.7657878602084605,-8.259963212752911,3.0,0.20757020757020755,4817.64705882353,0.16479226152322038,0.28378299632888526,-0.4578987238505912,1162.6373626373625,-1.0,66.38125464244716,0.20800662441468287,
2023-08-16 12:07:21.148000,-5.1084337349397595,-0.30120481927710846,-8.518072289156628,-0.24034334763948498,-4.75107296137339,-8.24770079705702,3.0,0.20801420801420803,4807.363927427961,0.05885437911543697,0.08064798088689504,-0.5175689062408954,1175.0915750915751,-1.0,66.38125464244716,0.2080065088603367,
2023-08-16 12:07:21.156000,-5.144578313253012,-0.30120481927710846,-8.530120481927712,-0.24770079705702022,-4.802575107296137,-8.274678111587983,3.0,0.20801420801420803,4807.363927427961,-0.09265194335994377,-0.04451955014276631,-0.4562671173008565,1189.7435897435896,-1.0,66.38125464244716,0.20800638819265632,
2023-08-16 12:07:21.163000,-5.156626506024097,-0.27710843373493976,-8.55421686746988,-0.20110361741263028,-4.770692826486818,-8.269773145309626,3.0,0.20801420801420803,4807.363927427961,0.12260357788007775,0.12318629450498193,-0.3341297127207038,1204.3956043956043,-1.0,66.38125464244716,0.20800626257520796,
2023-08-16 12:07:21.171000,-5.144578313253012,-0.30120481927710846,-8.542168674698795,-0.24279583077866337,-4.755977927651747,-8.299202942979766,3.0,0.20801420801420803,4807.363927427961,-0.1517394091253424,-0.015150632247538248,-0.3949653283608178,1219.047619047619,-1.0,66.38125464244716,0.20800613219615952,
2023-08-16 12:07:21.179000,-5.144578313253012,-0.30120481927710846,-8.542168674698795,-0.2452483139178418,-4.763335377069282,-8.250153280196198,3.0,0.20801420801420803,4807.363927427961,0.001398519899773509,-0.15069051920051313,-0.18262339024532395,1230.03663003663,-1.0,66.38125464244716,0.208005997267093,
2023-08-16 12:07:21.186000,-5.132530120481928,-0.3132530120481928,-8.506024096385543,-0.17167381974248927,-4.787860208461066,-8.183936235438381,3.0,0.20801420801420803,4807.363927427961,0.12388555445486868,0.3717732066895869,-0.3380921857700596,1239.5604395604396,-1.0,66.38125464244716,0.20800585802169225,
2023-08-16 12:07:21.194000,-5.144578313253012,-0.3132530120481928,-8.518072289156628,-0.2918454935622317,-4.802575107296137,-8.291845493562231,3.0,0.20801420801420803,4807.363927427961,-0.168405104597635,0.06479808868947004,-0.38529223238738997,1249.084249084249,-1.0,66.38125464244716,0.20800571471431487,
2023-08-16 12:07:21.202000,-5.156626506024097,-0.28915662650602414,-8.518072289156628,-0.20846106683016552,-4.763335377069282,-8.225628448804414,3.0,0.20801420801420803,4807.363927427961,-0.16595769477303224,0.06573043528931848,-0.3859914923372761,1255.6776556776556,-1.0,66.38125464244716,0.2080055676184583,
2023-08-16 12:07:21.209000,-5.132530120481928,-0.30120481927710846,-8.542168674698795,-0.23053341508277128,-4.7657878602084605,-8.21827099938688,3.0,0.20801420801420803,4807.363927427961,0.1412505098770463,-0.25557951168346904,-0.34252083211934053,1259.3406593406592,-1.0,66.38125464244716,0.20800541702512948,
2023-08-16 12:07:21.217000,-5.120481927710844,-0.30120481927710846,-8.506024096385543,-0.2550582464745555,-4.7657878602084605,-8.208461066830164,3.0,0.20801420801420803,4807.363927427961,-0.18017598042072205,-0.05244449624147708,-0.2523162985839987,1257.8754578754579,-1.0,66.38125464244716,0.20800526324112933,
2023-08-16 12:07:21.225000,-5.120481927710844,-0.3253012048192771,-8.506024096385543,-0.26486817903126914,-4.805027590435316,-8.210913549969343,3.0,0.20801420801420803,4807.363927427961,-0.31816327719829796,-0.11537789173125026,-0.25243284190897974,1254.212454212454,-1.0,66.38125464244716,0.2080051065872634,
2023-08-16 12:07:21.232000,-5.1084337349397595,-0.30120481927710846,-8.493975903614459,-0.26241569589209074,-4.785407725321888,-8.237890864500306,3.0,0.20801420801420803,4807.363927427961,-0.40557077093409544,0.22306392401375144,0.13006235067886474,1247.6190476190475,-1.0,66.38125464244716,0.20800494739648945,
2023-08-16 12:07:21.240000,-5.096385542168675,-0.3132530120481928,-8.506024096385543,-0.2820355610055181,-4.797670141017781,-8.225628448804414,3.0,0.20801420801420803,4807.363927427961,-0.17225103432200956,-0.12889691742905507,-0.10150923605850469,1241.7582417582416,-1.0,66.38125464244716,0.2080047860120152,
2023-08-16 12:07:21.247000,-5.096385542168675,-0.3132530120481928,-8.518072289156628,-0.26241569589209074,-4.795217657878601,-8.259963212752911,3.0,0.20801420801420803,4807.363927427961,-0.3383252724200226,0.17656313734630918,-0.22189849076394155,1237.3626373626373,-1.0,66.38125464244716,0.20800462278535775,
2023-08-16 12:07:21.255000,-5.072289156626506,-0.30120481927710846,-8.518072289156628,-0.22808093194359289,-4.795217657878601,-8.213366033108523,3.0,0.20801420801420803,4807.363927427961,-0.27410990035545674,0.7555503758522225,-0.09871219625895919,1232.967032967033,-1.0,66.38125464244716,0.20800445807437684,
2023-08-16 12:07:21.263000,-5.1084337349397595,-0.3132530120481928,-8.518072289156628,-0.19374616799509503,-4.755977927651747,-8.193746167995094,3.0,0.20801420801420803,4807.363927427961,-0.025639531495834356,0.49251209136996604,-0.5992657770526196,1226.3736263736264,-1.0,66.38125464244716,0.208004292241296,
2023-08-16 12:07:21.270000,-5.120481927710844,-0.30120481927710846,-8.542168674698795,-0.22317596566523604,-4.802575107296137,-8.230533415082771,3.0,0.20801420801420803,4807.363927427961,-0.22446244391352496,0.5492686906357445,-0.28727929607831687,1217.5824175824175,-1.0,66.38125464244716,0.20800412565072188,
2023-08-16 12:07:21.278000,-5.144578313253012,-0.27710843373493976,-8.530120481927712,-0.2795830778663397,-4.726548129981606,-8.242795830778663,3.0,0.20757020757020755,4817.64705882353,-0.0680613017889404,0.6212924654740403,-0.3904201386865563,1206.5934065934066,-1.0,66.38125464244716,0.20800395866767696,
2023-08-16 12:07:21.286000,-5.120481927710844,-0.28915662650602414,-8.530120481927712,-0.24279583077866337,-4.731453096259963,-8.23298589822195,3.0,0.20757020757020755,4817.64705882353,0.2710797739059498,0.31326845754909416,0.05535807936600428,1194.8717948717947,-1.0,66.38125464244716,0.20800379150636217,
2023-08-16 12:07:21.293000,-5.132530120481928,-0.28915662650602414,-8.518072289156628,-0.24034334763948498,-4.7363580625383195,-8.230533415082771,3.0,0.20801420801420803,4807.363927427961,-0.2783054600547755,0.6648796690169564,-0.4340073422294742,1181.6849816849815,-1.0,66.38125464244716,0.20800362420637478,
2023-08-16 12:07:21.301000,-5.0843373493975905,-0.28915662650602414,-8.55421686746988,-0.20600858369098712,-4.716738197424893,-8.277130594727161,3.0,0.20801420801420803,4807.363927427961,0.03298176096964094,0.5555620301847218,-0.874657653982868,1169.9633699633698,-1.0,66.38125464244716,0.2080034569172068,
2023-08-16 12:07:21.309000,-5.120481927710844,-0.30120481927710846,-8.530120481927712,-0.22562844880441446,-4.714285714285714,-8.27958307786634,3.0,0.20801420801420803,4807.363927427961,0.0030301264495069553,0.5698968591573925,-0.867315424509061,1158.2417582417581,-1.0,66.38125464244716,0.208003289916452,
2023-08-16 12:07:21.316000,-5.096385542168675,-0.27710843373493976,-8.518072289156628,-0.22808093194359289,-4.758430410790925,-8.21827099938688,3.0,0.20801420801420803,4807.363927427961,-0.22387972728861905,0.5345842316881296,-0.6168638191247594,1145.7875457875457,-1.0,66.38125464244716,0.20800312346897137,
2023-08-16 12:07:21.324000,-5.1084337349397595,-0.27710843373493976,-8.518072289156628,-0.2550582464745555,-4.6995708154506435,-8.267320662170446,3.0,0.20801420801420803,4807.363927427961,-0.0067595128489024,0.6993764932113518,-0.8279237806654621,1134.7985347985348,-1.0,66.38125464244716,0.20800295782491032,
2023-08-16 12:07:21.332000,-5.120481927710844,-0.28915662650602414,-8.506024096385543,-0.2673206621704476,-4.773145309625996,-8.223175965665236,3.0,0.20801420801420803,4807.363927427961,0.11910727813064571,0.6475147135947789,-0.5651185828331686,1124.5421245421244,-1.0,66.38125464244716,0.20800279321783313,
2023-08-16 12:07:21.339000,-5.1084337349397595,-0.30120481927710846,-8.530120481927712,-0.2452483139178418,-4.7363580625383195,-8.257510729613733,3.0,0.20801420801420803,4807.363927427961,-0.36955888351494753,0.6885379639881131,-0.15104014917545608,1115.7509157509157,-1.0,66.38125464244716,0.2080026298629881,
2023-08-16 12:07:21.347000,-5.096385542168675,-0.3132530120481928,-8.530120481927712,-0.16676885346413242,-4.75107296137339,-8.225628448804414,3.0,0.20801420801420803,4807.363927427961,-0.08973836023541765,0.21024415826583512,-0.7170910786084725,1106.9597069597069,-1.0,66.38125464244716,0.20800246795571667,
2023-08-16 12:07:21.355000,-5.096385542168675,-0.30120481927710846,-8.506024096385543,-0.25260576333537704,-4.655426118945432,-8.220723482526058,3.0,0.20801420801420803,4807.363927427961,-0.13157741390361952,0.3627993706660451,-1.066254880251734,1095.2380952380952,-1.0,66.38125464244716,0.20800230767001762,
2023-08-16 12:07:21.362000,-5.072289156626506,-0.30120481927710846,-8.506024096385543,-0.19865113427345185,-4.679950950337216,-8.291845493562231,3.0,0.20801420801420803,4807.363927427961,-0.19078142299399725,0.4505564943767851,-1.1505157042130412,1085.7142857142856,-1.0,66.38125464244716,0.2080021491572781,
2023-08-16 12:07:21.370000,-5.096385542168675,-0.30120481927710846,-8.530120481927712,-0.15450643776824033,-4.7657878602084605,-8.274678111587983,3.0,0.20801420801420803,4807.363927427961,0.22481207388846747,0.3565060311170678,-1.0072839578113164,1078.3882783882784,-1.0,66.38125464244716,0.20800199254518062,
2023-08-16 12:07:21.378000,-5.132530120481928,-0.30120481927710846,-8.530120481927712,-0.26241569589209074,-4.839362354383813,-8.230533415082771,3.0,0.20801420801420803,4807.363927427961,-0.2635044577821798,0.21735330108968004,-0.9109026280519784,1070.3296703296703,-1.0,66.38125464244716,0.20800183793679464,
2023-08-16 12:07:21.385000,-5.144578313253012,-0.28915662650602414,-8.55421686746988,-0.2158185162477008,-4.819742489270386,-8.24770079705702,3.0,0.20801420801420803,4807.363927427961,-0.22935726356272876,0.2921741157275211,-0.38785618553697315,1065.2014652014652,-1.0,66.38125464244716,0.20800168540986058,
2023-08-16 12:07:21.393000,-5.156626506024097,-0.30120481927710846,-8.530120481927712,-0.27467811158798283,-4.760882893930104,-8.274678111587983,3.0,0.20757020757020755,4817.64705882353,-0.07482081463784107,0.12178777460521016,-0.7069518093351204,1060.07326007326,-1.0,66.38125464244716,0.20800153501627155,
2023-08-16 12:07:21.401000,-5.144578313253012,-0.30120481927710846,-8.518072289156628,-0.24770079705702022,-4.814837522992029,-8.235438381361128,3.0,0.20801420801420803,4807.363927427961,-0.517219276265952,0.45929724375036346,-0.9922498688887591,1060.07326007326,-1.0,66.38125464244716,0.20800138663246462,
2023-08-16 12:07:21.408000,-5.096385542168675,-0.30120481927710846,-8.542168674698795,-0.26486817903126914,-4.814837522992029,-8.291845493562231,3.0,0.20801420801420803,4807.363927427961,-0.1636268282734103,0.2595419847328244,-0.561389196433774,1063.7362637362637,-1.0,66.38125464244716,0.2080012400867299,
2023-08-16 12:07:21.416000,-5.144578313253012,-0.30120481927710846,-8.566265060240964,-0.19865113427345185,-4.753525444512569,-8.257510729613733,3.0,0.20801420801420803,4807.363927427961,-0.2544140784336572,0.3165316706485628,-0.31361808752403714,1070.3296703296703,-1.0,66.38125464244716,0.20800109531824829,
2023-08-16 12:07:21.424000,-5.156626506024097,-0.28915662650602414,-8.566265060240964,-0.2207234825260576,-4.814837522992029,-8.237890864500306,3.0,0.20801420801420803,4807.363927427961,-0.49542567449449393,-0.10046034613367542,0.16094633179884626,1076.923076923077,-1.0,66.38125464244716,0.20800095223846587,
2023-08-16 12:07:21.431000,-5.156626506024097,-0.30120481927710846,-8.530120481927712,-0.24770079705702022,-4.805027590435316,-8.245248313917841,3.0,0.20801420801420803,4807.363927427961,-0.12540061767962304,-0.024823728220966765,0.0984791096089973,1084.2490842490843,-1.0,66.38125464244716,0.2080008107314353,
2023-08-16 12:07:21.439000,-5.120481927710844,-0.3253012048192771,-8.506024096385543,-0.3016554261189454,-4.697118332311465,-8.20110361741263,3.0,0.20757020757020755,4817.64705882353,-0.26140667793252126,0.11211467863178164,0.020045451896742925,1086.4468864468863,-1.0,66.38125464244716,0.20800067065437386,
2023-08-16 12:07:21.447000,-5.1084337349397595,-0.3132530120481928,-8.457831325301205,-0.18638871857755976,-4.743715511955855,-8.237890864500306,3.0,0.20757020757020755,4817.64705882353,-0.060602528990151255,0.08088106753685671,-0.11864110483072063,1092.3076923076922,-1.0,66.38125464244716,0.20800053168914373,
2023-08-16 12:07:21.454000,-5.0843373493975905,-0.28915662650602414,-8.481927710843374,-0.21827099938687922,-4.6627835683629675,-8.208461066830164,3.0,0.20801420801420803,4807.363927427961,-0.3964803915855711,0.2635044577821798,-0.34939688829322246,1098.9010989010987,-1.0,66.38125464244716,0.20800039332136327,
2023-08-16 12:07:21.462000,-5.072289156626506,-0.3253012048192771,-8.518072289156628,-0.2673206621704476,-4.758430410790925,-8.282035561005518,3.0,0.20801420801420803,4807.363927427961,0.14160013985199055,0.4151273235825414,0.049181283142008016,1101.8315018315018,-1.0,66.38125464244716,0.208000255127958,
2023-08-16 12:07:21.470000,-5.1084337349397595,-0.3132530120481928,-8.530120481927712,-0.25260576333537704,-4.7363580625383195,-8.29429797670141,3.0,0.20801420801420803,4807.363927427961,-0.2876289260532598,0.6562554629683589,0.031699784394848704,1100.3663003663003,-1.0,66.38125464244716,0.20800011679856326,
2023-08-16 12:07:21.477000,-5.096385542168675,-0.30120481927710846,-8.518072289156628,-0.23053341508277128,-4.75107296137339,-8.208461066830164,3.0,0.20801420801420803,4807.363927427961,-0.284482256278772,0.6501952100693432,0.02843657129537877,1095.970695970696,-1.0,66.38125464244716,0.2079999779980085,
2023-08-16 12:07:21.485000,-5.072289156626506,-0.3132530120481928,-8.493975903614459,-0.24279583077866337,-4.652973635806253,-8.220723482526058,3.0,0.20801420801420803,4807.363927427961,0.1764465940213266,0.506613833692675,-0.33832527242002197,1093.7728937728937,-1.0,66.38125464244716,0.2079998383677587,
2023-08-16 12:07:21.493000,-5.048192771084338,-0.3132530120481928,-8.493975903614459,-0.1765787860208461,-4.714285714285714,-8.198651134273451,3.0,0.20801420801420803,4807.363927427961,0.1475438494260236,0.2104772449157968,-0.565002039508187,1091.5750915750914,-1.0,66.38125464244716,0.20799969752755734,
2023-08-16 12:07:21.500000,-5.0602409638554215,-0.3132530120481928,-8.530120481927712,-0.22808093194359289,-4.7363580625383195,-8.32618025751073,3.0,0.20801420801420803,4807.363927427961,0.3307499562962526,0.3453178719188867,-0.4822562787716329,1089.3772893772893,-1.0,66.38125464244716,0.20799955507726559,
2023-08-16 12:07:21.508000,-5.1084337349397595,-0.3132530120481928,-8.55421686746988,-0.22317596566523604,-4.746167995095034,-8.245248313917841,3.0,0.20801420801420803,4807.363927427961,0.22271429403880894,0.38855544548686033,-0.020395081871685435,1090.10989010989,-1.0,66.38125464244716,0.20799941059888752,
2023-08-16 12:07:21.516000,-5.144578313253012,-0.28915662650602414,-8.55421686746988,-0.2207234825260576,-4.795217657878601,-8.255058246474555,3.0,0.20801420801420803,4807.363927427961,-0.010139269273351865,0.015849892197425,-0.3404230522696811,1093.7728937728937,-1.0,66.38125464244716,0.20799926365877375,
2023-08-16 12:07:21.523000,-5.120481927710844,-0.28915662650602414,-8.530120481927712,-0.2599632127529123,-4.812385039852851,-8.245248313917841,3.0,0.20801420801420803,4807.363927427961,0.11700949828098545,-0.2883281860031466,-0.3696754268399275,1099.6336996336995,-1.0,66.38125464244716,0.2079991138099924,
2023-08-16 12:07:21.531000,-5.144578313253012,-0.30120481927710846,-8.55421686746988,-0.19374616799509503,-4.68976088289393,-8.252605763335376,3.0,0.20801420801420803,4807.363927427961,0.10162577938348553,-0.3482314550434128,-0.2008041489423696,1105.4945054945053,-1.0,66.38125464244716,0.2079989605948544,
2023-08-16 12:07:21.539000,-5.1084337349397595,-0.27710843373493976,-8.55421686746988,-0.22317596566523604,-4.792765174739423,-8.30901287553648,3.0,0.20801420801420803,4807.363927427961,0.0102558125983327,0.08332847736145949,-0.4136122603577875,1109.1575091575091,-1.0,66.38125464244716,0.20799880354758224,
2023-08-16 12:07:21.546000,-5.120481927710844,-0.28915662650602414,-8.55421686746988,-0.2207234825260576,-4.790312691600245,-8.343347639484978,3.0,0.20801420801420803,4807.363927427961,-0.23262047666219912,0.2680496474564411,-0.5464716508361979,1111.3553113553112,-1.0,66.38125464244716,0.207998642197106,
2023-08-16 12:07:21.554000,-5.1084337349397595,-0.28915662650602414,-8.590361445783133,-0.22562844880441446,-4.768240343347639,-8.240343347639485,3.0,0.20801420801420803,4807.363927427961,-0.3660625837655155,0.02191014509643891,0.2039508187168587,1113.5531135531135,-1.0,66.38125464244716,0.2079984760699738,
2023-08-16 12:07:21.562000,-5.132530120481928,-0.30120481927710846,-8.530120481927712,-0.26486817903126914,-4.800122624156959,-8.272225628448805,3.0,0.20801420801420803,4807.363927427961,-0.48179010547170825,0.03950818716857993,0.0031466697744890935,1120.8791208791208,-1.0,66.38125464244716,0.20799830469335873,
2023-08-16 12:07:21.569000,-5.1084337349397595,-0.3132530120481928,-8.506024096385543,-0.2673206621704476,-4.802575107296137,-8.215818516247701,3.0,0.20801420801420803,4807.363927427961,-0.4152438669075222,0.04102325039333428,-0.07353883806305057,1131.135531135531,-1.0,66.38125464244716,0.20799812759814718,
2023-08-16 12:07:21.577000,-5.120481927710844,-0.30120481927710846,-8.506024096385543,-0.22562844880441446,-4.719190680564071,-8.188841201716738,3.0,0.20801420801420803,4807.363927427961,-0.3954315016607418,-0.04778276324223494,0.07948254763708451,1142.857142857143,-1.0,66.38125464244716,0.20799794432209062,
2023-08-16 12:07:21.585000,-5.096385542168675,-0.30120481927710846,-8.518072289156628,-0.2452483139178418,-4.746167995095034,-8.181483752299203,3.0,0.20801420801420803,4807.363927427961,0.037760037293863916,0.03169978439484827,-0.19672513256803162,1151.6483516483515,-1.0,66.38125464244716,0.2079977544130031,
2023-08-16 12:07:21.592000,-5.096385542168675,-0.30120481927710846,-8.530120481927712,-0.18148375229920294,-4.778050275904353,-8.24770079705702,3.0,0.20757020757020755,4817.64705882353,-0.3138511741739983,0.35464133791737096,-0.015034088922556543,1158.974358974359,-1.0,66.38125464244716,0.20799755743198575,
2023-08-16 12:07:21.600000,-5.1084337349397595,-0.30120481927710846,-8.542168674698795,-0.269773145309626,-4.755977927651747,-8.235438381361128,3.0,0.20801420801420803,4807.363927427961,0.0749373579628219,0.01957927859681871,-0.2292407202377488,1163.3699633699632,-1.0,66.38125464244716,0.2079973529461147,
2023-08-16 12:07:21.608000,-5.1084337349397595,-0.30120481927710846,-8.530120481927712,-0.2158185162477008,-4.768240343347639,-8.237890864500306,3.0,0.20801420801420803,4807.363927427961,0.382262105937883,0.1537206456500201,-0.30522696812540084,1160.4395604395604,-1.0,66.38125464244716,0.2079971404999523,
2023-08-16 12:07:21.615000,-5.1084337349397595,-0.3132530120481928,-8.518072289156628,-0.24279583077866337,-4.795217657878601,-8.220723482526058,3.0,0.20801420801420803,4807.363927427961,-0.18507080006992585,0.3654798671406096,-0.4105821339082805,1153.113553113553,-1.0,66.38125464244716,0.20799691965006348,
2023-08-16 12:07:21.623000,-5.096385542168675,-0.3132530120481928,-8.493975903614459,-0.21336603310852237,-4.7363580625383195,-8.220723482526058,3.0,0.20801420801420803,4807.363927427961,0.10885146553231127,0.5484528873608769,-0.3014975817260071,1142.857142857143,-1.0,66.38125464244716,0.20799668997832033,
2023-08-16 12:07:21.630000,-5.0602409638554215,-0.28915662650602414,-8.481927710843374,-0.2158185162477008,-4.68976088289393,-8.223175965665236,3.0,0.20801420801420803,4807.363927427961,-0.17889400384592938,0.28378299632888526,-0.7408659169046093,1131.135531135531,-1.0,66.38125464244716,0.2079964510946034,
2023-08-16 12:07:21.638000,-5.048192771084338,-0.28915662650602414,-8.481927710843374,-0.18884120171673818,-4.746167995095034,-8.223175965665236,3.0,0.20801420801420803,4807.363927427961,0.05244449624147708,0.6454169337451203,-0.7202377483829614,1119.4139194139193,-1.0,66.38125464244716,0.20799620263942847,
2023-08-16 12:07:21.646000,-5.0843373493975905,-0.30120481927710846,-8.530120481927712,-0.23543838136112813,-4.814837522992029,-8.32618025751073,3.0,0.20801420801420803,4807.363927427961,-0.08111415418681839,0.26082396130761537,-0.2249286172134496,1109.1575091575091,-1.0,66.38125464244716,0.20799594428648543,
2023-08-16 12:07:21.653000,-5.144578313253012,-0.27710843373493976,-8.566265060240964,-0.25015328019619865,-4.790312691600245,-8.29429797670141,3.0,0.20801420801420803,4807.363927427961,-0.18308956354524816,0.0012819765747909368,-0.03869238389371191,1098.168498168498,-1.0,66.38125464244716,0.20799567574507494,
2023-08-16 12:07:21.661000,-5.144578313253012,-0.3132530120481928,-8.530120481927712,-0.2575107296137339,-4.746167995095034,-8.272225628448805,3.0,0.20801420801420803,4807.363927427961,-0.04685041664238651,0.291008682477711,-0.26793310413146026,1087.179487179487,-1.0,66.38125464244716,0.2079953967624282,
2023-08-16 12:07:21.669000,-5.144578313253012,-0.28915662650602414,-8.542168674698795,-0.22317596566523604,-4.78295524218271,-8.252605763335376,3.0,0.20801420801420803,4807.363927427961,0.014801002272594002,0.029951634520132248,-0.37130703338966226,1079.8534798534797,-1.0,66.38125464244716,0.20799510712589858,
2023-08-16 12:07:21.676000,-5.144578313253012,-0.27710843373493976,-8.542168674698795,-0.2844880441446965,-4.7363580625383195,-8.181483752299203,3.0,0.20801420801420803,4807.363927427961,0.2287745469378246,-8.15803274867591E-4,-0.5161703863411219,1073.260073260073,1011.1083984375,59.34081854400579,0.2079948066650104,
2023-08-16 12:07:21.684000,-5.144578313253012,-0.26506024096385544,-8.566265060240964,-0.2452483139178418,-4.805027590435316,-8.286940527283875,3.0,0.20801420801420803,4807.363927427961,0.33424625604568464,-0.5351669483130355,-0.21712021443971838,1068.8644688644688,-1.0,59.34081854400579,0.207994495253354,
2023-08-16 12:07:21.692000,-5.120481927710844,-0.26506024096385544,-8.566265060240964,-0.2550582464745555,-4.746167995095034,-8.277130594727161,3.0,0.20801420801420803,4807.363927427961,0.1942777227434293,-0.2849484295786954,0.3377425557951167,1064.4688644688645,-1.0,59.34081854400579,0.20799417281031496,
2023-08-16 12:07:21.699000,-5.1084337349397595,-0.27710843373493976,-8.542168674698795,-0.17412630288166767,-4.753525444512569,-8.235438381361128,3.0,0.20801420801420803,4807.363927427961,0.16176213507371343,-0.3450847852689233,0.273061010430627,1060.8058608058607,-1.0,59.34081854400579,0.20799383930262716,
2023-08-16 12:07:21.707000,-5.1084337349397595,-0.30120481927710846,-8.518072289156628,-0.26486817903126914,-4.719190680564071,-8.220723482526058,3.0,0.20801420801420803,4807.363927427961,0.514189149816445,-0.38972087873667044,0.4969407377192465,1057.142857142857,-1.0,59.34081854400579,0.20799349474573972,
2023-08-16 12:07:21.715000,-5.096385542168675,-0.3132530120481928,-8.506024096385543,-0.24034334763948498,-4.733905579399141,-8.237890864500306,3.0,0.20757020757020755,4817.64705882353,0.437037468678982,-0.2523162985839987,-0.058854379115436534,1057.8754578754579,-1.0,59.34081854400579,0.2079931392049886,
2023-08-16 12:07:21.722000,-5.072289156626506,-0.30120481927710846,-8.493975903614459,-0.24770079705702022,-4.694665849172287,-8.230533415082771,3.0,0.20801420801420803,4807.363927427961,0.3796981527882994,-0.35930307091661307,0.12621642095448932,1061.5384615384614,-1.0,59.34081854400579,0.20799277264727106,
2023-08-16 12:07:21.730000,-5.0843373493975905,-0.3132530120481928,-8.530120481927712,-0.30901287553648066,-4.733905579399141,-8.188841201716738,3.0,0.20801420801420803,4807.363927427961,0.21222539479051283,-0.1630441116485061,0.11071615873200813,1065.9340659340658,-1.0,59.34081854400579,0.20799239506922174,
2023-08-16 12:07:21.738000,-5.1084337349397595,-0.28915662650602414,-8.578313253012048,-0.22317596566523604,-4.738810545677498,-8.264868179031268,3.0,0.20801420801420803,4807.363927427961,0.33564477594545816,-0.11549443505623284,0.2811024998543217,1073.260073260073,-1.0,59.34081854400579,0.20799200665669168,
2023-08-16 12:07:21.745000,-5.132530120481928,-0.30120481927710846,-8.55421686746988,-0.22808093194359289,-4.758430410790925,-8.220723482526058,3.0,0.20757020757020755,4817.64705882353,0.3650136938406845,-0.32806945982168817,0.23308664996212292,1084.2490842490843,-1.0,59.34081854400579,0.20799160764613456,
2023-08-16 12:07:21.753000,-5.120481927710844,-0.28915662650602414,-8.530120481927712,-0.21336603310852237,-4.785407725321888,-8.291845493562231,3.0,0.20801420801420803,4807.363927427961,0.36781073364023154,-0.3241069867723328,0.23436862653691515,1102.5641025641025,-1.0,59.34081854400579,0.20799119817523182,
2023-08-16 12:07:21.761000,-5.1084337349397595,-0.28915662650602414,-8.506024096385543,-0.2869405272838749,-4.724095646842428,-8.26241569589209,3.0,0.20801420801420803,4807.363927427961,0.30499388147543915,-0.30452770817551406,0.06712895518909198,1128.937728937729,-1.0,59.34081854400579,0.20799077841001237,
2023-08-16 12:07:21.768000,-5.1084337349397595,-0.30120481927710846,-8.518072289156628,-0.17167381974248927,-4.6701410177805025,-8.183936235438381,3.0,0.20801420801420803,4807.363927427961,-0.23238739001223746,-0.07423809801293689,-0.22259775071382767,1165.5677655677655,-1.0,59.34081854400579,0.2079903487032761,
2023-08-16 12:07:21.776000,-5.072289156626506,-0.27710843373493976,-8.518072289156628,-0.21336603310852237,-4.721643163703249,-8.255058246474555,3.0,0.20801420801420803,4807.363927427961,0.14894236932579713,-0.05733931589068263,-0.4961249344443794,1215.3846153846152,-1.0,59.34081854400579,0.2079899094549304,
2023-08-16 12:07:21.784000,-5.096385542168675,-0.28915662650602414,-8.566265060240964,-0.2452483139178418,-4.704475781729,-8.272225628448805,3.0,0.20801420801420803,4807.363927427961,0.05745585921566346,0.12330283782996276,-0.248353825534642,1282.051282051282,-1.0,59.34081854400579,0.20798946111087316,
2023-08-16 12:07:21.791000,-5.120481927710844,-0.28915662650602414,-8.55421686746988,-0.1765787860208461,-4.770692826486818,-8.237890864500306,3.0,0.20801420801420803,4807.363927427961,0.05745585921566346,-0.017481498747158448,0.026921508070625728,1363.3699633699632,-1.0,59.34081854400579,0.20798900416167812,
2023-08-16 12:07:21.799000,-5.1084337349397595,-0.30120481927710846,-8.530120481927712,-0.23053341508277128,-4.790312691600245,-8.210913549969343,3.0,0.20801420801420803,4807.363927427961,0.06747858516403449,-0.32597167997202964,0.3188625371481843,1459.3406593406592,-1.0,59.34081854400579,0.20798853914109042,
2023-08-16 12:07:21.807000,-5.120481927710844,-0.30120481927710846,-8.506024096385543,-0.23543838136112813,-4.758430410790925,-8.191293684855916,3.0,0.20801420801420803,4807.363927427961,0.1551191655497936,-0.18542043004486836,0.05710622924071965,1567.032967032967,-1.0,59.34081854400579,0.20798806662433936,
2023-08-16 12:07:21.814000,-5.096385542168675,-0.3132530120481928,-8.518072289156628,-0.22808093194359289,-4.704475781729,-8.193746167995094,3.0,0.20801420801420803,4807.363927427961,-0.012936309072897147,0.05792203251558681,0.10209195268340975,1682.7838827838827,-1.0,59.34081854400579,0.2079875872262779,
2023-08-16 12:07:21.822000,-5.096385542168675,-0.3253012048192771,-8.518072289156628,-0.2893930104230533,-4.7363580625383195,-8.240343347639485,3.0,0.20801420801420803,4807.363927427961,0.06176796223996309,0.1287803741040725,-0.09789639298409225,1799.9999999999998,-1.0,59.34081854400579,0.20798710159935815,
2023-08-16 12:07:21.830000,-5.120481927710844,-0.3253012048192771,-8.542168674698795,-0.27467811158798283,-4.780502759043531,-8.272225628448805,3.0,0.20801420801420803,4807.363927427961,0.031816327719829104,-0.3175805605733938,-0.10955072548219803,1913.5531135531135,-1.0,59.34081854400579,0.20798661043145347,
2023-08-16 12:07:21.837000,-5.144578313253012,-0.30120481927710846,-8.530120481927712,-0.24279583077866337,-4.75107296137339,-8.215818516247701,3.0,0.20801420801420803,4807.363927427961,-0.41081522055824177,-0.24357554921041857,-0.4238680729561219,2022.7106227106226,-1.0,59.34081854400579,0.20798611444353826,
2023-08-16 12:07:21.845000,-5.132530120481928,-0.30120481927710846,-8.506024096385543,-0.2820355610055181,-4.702023298589822,-8.208461066830164,3.0,0.20801420801420803,4807.363927427961,0.1242351844298112,0.07330575141308847,0.014567915622632328,2122.3443223443223,-1.0,59.34081854400579,0.2079856143872375,
2023-08-16 12:07:21.853000,-5.144578313253012,-0.30120481927710846,-8.506024096385543,-0.21091354996934394,-4.6922133660331085,-8.272225628448805,3.0,0.20801420801420803,4807.363927427961,0.183206106870229,0.055008449391060685,-0.4058038575840567,2209.523809523809,-1.0,59.34081854400579,0.20798511104225803,
2023-08-16 12:07:21.860000,-5.096385542168675,-0.3132530120481928,-8.518072289156628,-0.17903126916002451,-4.797670141017781,-8.188841201716738,3.0,0.20801420801420803,4807.363927427961,0.2695647106811954,0.4285298059553636,-0.1515063224753803,2278.388278388278,-1.0,59.34081854400579,0.20798460521371545,
2023-08-16 12:07:21.868000,-5.1084337349397595,-0.27710843373493976,-8.566265060240964,-0.14224402207234824,-4.755977927651747,-8.267320662170446,3.0,0.20801420801420803,4807.363927427961,0.35778800769185876,0.663947322417108,-0.3200279703979957,2330.4029304029305,-1.0,59.34081854400579,0.2079840977293687,
2023-08-16 12:07:21.876000,-5.120481927710844,-0.28915662650602414,-8.566265060240964,-0.2158185162477008,-4.760882893930104,-8.242795830778663,3.0,0.20801420801420803,4807.363927427961,0.599615407027563,0.10465590583299422,0.04358720354291745,2362.6373626373625,-1.0,59.34081854400579,0.20798358943677756,
2023-08-16 12:07:21.883000,-5.156626506024097,-0.27710843373493976,-8.55421686746988,-0.23053341508277128,-4.790312691600245,-8.304107909258123,3.0,0.20801420801420803,4807.363927427961,0.438785618553698,0.29485461220208553,0.2577938348581084,2375.091575091575,-1.0,59.34081854400579,0.20798308120039596,
2023-08-16 12:07:21.891000,-5.156626506024097,-0.28915662650602414,-8.55421686746988,-0.2329858982219497,-4.760882893930104,-8.333537706928265,3.0,0.20801420801420803,4807.363927427961,0.28285064972903684,0.24147776936076004,0.24089505273585457,2371.428571428571,-1.0,59.34081854400579,0.207982573898616,
2023-08-16 12:07:21.899000,-5.156626506024097,-0.27710843373493976,-8.530120481927712,-0.23789086450030655,-4.78295524218271,-8.24770079705702,3.0,0.20801420801420803,4807.363927427961,0.41337917370782534,0.24975234543441507,0.1142124584814406,2345.7875457875457,-1.0,59.34081854400579,0.20798206842077674,
2023-08-16 12:07:21.906000,-5.0843373493975905,-0.28915662650602414,-8.518072289156628,-0.1765787860208461,-4.684855916615573,-8.26241569589209,3.0,0.20801420801420803,4807.363927427961,0.45521822737602724,0.22819183031291865,0.1152613484062703,2306.9597069597066,-1.0,59.34081854400579,0.20798156566415255,
2023-08-16 12:07:21.914000,-5.0843373493975905,-0.30120481927710846,-8.542168674698795,-0.22808093194359289,-4.667688534641324,-8.259963212752911,3.0,0.20801420801420803,4807.363927427961,0.22236466406386643,0.11584406503117535,-0.006409882873958589,2257.875457875458,-1.0,59.34081854400579,0.2079810665309349,
2023-08-16 12:07:21.922000,-5.096385542168675,-0.28915662650602414,-8.55421686746988,-0.24770079705702022,-4.716738197424893,-8.272225628448805,3.0,0.20801420801420803,4807.363927427961,0.24928617213449172,0.14311520307674316,0.1308781539537323,2200.0,-1.0,59.34081854400579,0.20798057192522196,
2023-08-16 12:07:21.929000,-5.1084337349397595,-0.30120481927710846,-8.530120481927712,-0.20846106683016552,-4.763335377069282,-8.264868179031268,3.0,0.20801420801420803,4807.363927427961,-0.19730784919293798,-0.08938873026047514,0.5420430044869179,2138.461538461538,-1.0,59.34081854400579,0.20798008275003044,
2023-08-16 12:07:21.937000,-5.120481927710844,-0.30120481927710846,-8.518072289156628,-0.24770079705702022,-4.770692826486818,-8.225628448804414,3.0,0.20801420801420803,4807.363927427961,-0.22586096381329673,-0.21105996154070272,0.5506672105355167,2075.457875457875,-1.0,59.34081854400579,0.20797959990434295,
2023-08-16 12:07:21.945000,-5.132530120481928,-0.28915662650602414,-8.506024096385543,-0.23053341508277128,-4.748620478234212,-8.26241569589209,3.0,0.20801420801420803,4807.363927427961,-0.05605733931588995,-0.05850474914049272,0.2974185653516696,2012.4542124542122,-1.0,59.34081854400579,0.20797912428020418,
2023-08-16 12:07:21.952000,-5.1084337349397595,-0.3132530120481928,-8.578313253012048,-0.2599632127529123,-4.724095646842428,-8.26241569589209,3.0,0.20801420801420803,4807.363927427961,0.2206165141891504,0.01654915214731002,0.0913699667851524,1950.18315018315,-1.0,59.34081854400579,0.20797865675987914,
2023-08-16 12:07:21.960000,-5.072289156626506,-0.30120481927710846,-8.518072289156628,-0.20600858369098712,-4.7290006131207845,-8.24770079705702,3.0,0.20801420801420803,4807.363927427961,-0.11502826175630776,-0.3060427714002684,0.23227084668725576,1887.179487179487,-1.0,59.34081854400579,0.20797819821308625,
2023-08-16 12:07:21.968000,-5.096385542168675,-0.30120481927710846,-8.542168674698795,-0.19865113427345185,-4.748620478234212,-8.225628448804414,3.0,0.20801420801420803,4807.363927427961,-0.3262047666219913,-0.22154886078899882,0.24847036885962326,1825.6410256410254,-1.0,59.34081854400579,0.2079777494943159,
2023-08-16 12:07:21.975000,-5.0843373493975905,-0.3132530120481928,-8.530120481927712,-0.24034334763948498,-4.7363580625383195,-8.223175965665236,3.0,0.20801420801420803,4807.363927427961,0.22469553056348662,-0.37025814346483255,0.2291241769127675,1766.3003663003662,-1.0,59.34081854400579,0.20797731144024692,
2023-08-16 12:07:21.983000,-5.0843373493975905,-0.30120481927710846,-8.530120481927712,-0.19619865113427343,-4.731453096259963,-8.228080931943593,3.0,0.20801420801420803,4807.363927427961,0.029135831245264657,-0.4711846628984331,0.06876056173882629,1711.3553113553112,-1.0,59.34081854400579,0.20797688486727117,
2023-08-16 12:07:21.991000,-5.096385542168675,-0.30120481927710846,-8.481927710843374,-0.2158185162477008,-4.755977927651747,-8.269773145309626,3.0,0.20801420801420803,4807.363927427961,0.12540061767962304,-0.012353592447992964,-0.22516170386341083,1660.07326007326,-1.0,59.34081854400579,0.20797647056913565,
2023-08-16 12:07:21.998000,-5.096385542168675,-0.30120481927710846,-8.506024096385543,-0.2550582464745555,-4.7290006131207845,-8.242795830778663,3.0,0.20801420801420803,4807.363927427961,0.01911310529689363,-0.19497698269331604,-0.21432317464017223,1610.989010989011,-1.0,59.34081854400579,0.20797606931471152,
2023-08-16 12:07:22.006000,-5.096385542168675,-0.3132530120481928,-8.518072289156628,-0.23543838136112813,-4.760882893930104,-8.208461066830164,3.0,0.20801420801420803,4807.363927427961,0.18914981644426382,0.10931763883223636,0.02389138162111747,1561.1721611721612,-1.0,59.34081854400579,0.207975681845898,
2023-08-16 12:07:22.013000,-5.132530120481928,-0.30120481927710846,-8.518072289156628,-0.1765787860208461,-4.724095646842428,-8.250153280196198,3.0,0.20801420801420803,4807.363927427961,0.006642969523919828,0.3978789114853446,-0.25662840160829786,1512.8205128205127,-1.0,59.34081854400579,0.20797530887566879,
2023-08-16 12:07:22.021000,-5.120481927710844,-0.30120481927710846,-8.542168674698795,-0.25015328019619865,-4.746167995095034,-8.245248313917841,3.0,0.20801420801420803,4807.363927427961,0.4940271545947204,0.1616455917487326,-0.29089213915273016,1468.131868131868,-1.0,59.34081854400579,0.20797495108626687,
2023-08-16 12:07:22.029000,-5.120481927710844,-0.30120481927710846,-8.542168674698795,-0.23053341508277128,-4.802575107296137,-8.242795830778663,3.0,0.20801420801420803,4807.363927427961,0.48878270497057236,0.1580327486743197,-0.29042596585280595,1426.3736263736262,-1.0,59.34081854400579,0.20797460912755336,
2023-08-16 12:07:22.036000,-5.144578313253012,-0.27710843373493976,-8.530120481927712,-0.26241569589209074,-4.814837522992029,-8.257510729613733,3.0,0.20801420801420803,4807.363927427961,0.13111124060369442,-0.24345900588543773,0.059670182390303694,1390.4761904761904,-1.0,59.34081854400579,0.20797428361551543,
2023-08-16 12:07:22.044000,-5.1807228915662655,-0.28915662650602414,-8.542168674698795,-0.14714898835070508,-4.768240343347639,-8.259963212752911,3.0,0.20801420801420803,4807.363927427961,0.1903152496940739,-8.15803274867591E-4,0.01235359244799253,1362.6373626373625,-1.0,59.34081854400579,0.2079739751309361,
2023-08-16 12:07:22.052000,-5.132530120481928,-0.26506024096385544,-8.55421686746988,-0.2599632127529123,-4.78295524218271,-8.245248313917841,3.0,0.20801420801420803,4807.363927427961,0.20010488899248327,-0.0666627818891669,0.060136355690227905,1345.054945054945,-1.0,59.34081854400579,0.20797368421822907,
2023-08-16 12:07:22.059000,-5.144578313253012,-0.27710843373493976,-8.530120481927712,-0.21091354996934394,-4.753525444512569,-8.23298589822195,3.0,0.20801420801420803,4807.363927427961,0.08507662723617551,-0.4537031641512729,0.26187285123244547,1332.6007326007325,-1.0,59.34081854400579,0.20797341138443962,
2023-08-16 12:07:22.067000,-5.132530120481928,-0.27710843373493976,-8.518072289156628,-0.2452483139178418,-4.760882893930104,-8.228080931943593,3.0,0.20757020757020755,4817.64705882353,-0.18052561039566456,-0.1778451139211001,0.35615640114212443,1323.076923076923,-1.0,59.34081854400579,0.20797315709841313,
2023-08-16 12:07:22.075000,-5.1084337349397595,-0.30120481927710846,-8.506024096385543,-0.2550582464745555,-4.805027590435316,-8.259963212752911,3.0,0.20801420801420803,4807.363927427961,-0.09136996678515283,-0.28576423285356295,0.35930307091661307,1315.7509157509157,-1.0,59.34081854400579,0.20797292164083683,
2023-08-16 12:07:22.082000,-5.096385542168675,-0.28915662650602414,-8.530120481927712,-0.21827099938687922,-4.738810545677498,-8.257510729613733,3.0,0.20801420801420803,4807.363927427961,-0.20255229881708603,-0.23891381621117644,0.26804964745644194,1313.5531135531135,-1.0,59.34081854400579,0.2079727052311587,
2023-08-16 12:07:22.090000,-5.096385542168675,-0.30120481927710846,-8.506024096385543,-0.2158185162477008,-4.719190680564071,-8.188841201716738,3.0,0.20801420801420803,4807.363927427961,-0.41675893013227655,-0.207330575141309,0.23798146961132802,1312.8205128205127,-1.0,59.34081854400579,0.20797250818619034,
2023-08-16 12:07:22.098000,-5.096385542168675,-0.3253012048192771,-8.506024096385543,-0.24770079705702022,-4.687308399754752,-8.240343347639485,3.0,0.20801420801420803,4807.363927427961,0.2251617038634117,-0.3286521764465941,0.2682827341064041,1317.216117216117,-1.0,59.34081854400579,0.20797233078099883,
2023-08-16 12:07:22.105000,-5.0843373493975905,-0.3132530120481928,-8.506024096385543,-0.2844880441446965,-4.731453096259963,-8.252605763335376,3.0,0.20801420801420803,4807.363927427961,-0.3108210477244914,-0.17283375094691372,0.45207155760153855,1323.076923076923,-1.0,59.34081854400579,0.20797217324871414,
2023-08-16 12:07:22.113000,-5.072289156626506,-0.3253012048192771,-8.481927710843374,-0.27713059472716123,-4.7069282648681785,-8.208461066830164,3.0,0.20801420801420803,4807.363927427961,-0.229706893537673,-0.1276149408542624,0.14649495950119434,1330.4029304029302,-1.0,59.34081854400579,0.20797203578049983,
2023-08-16 12:07:22.121000,-5.0843373493975905,-0.30120481927710846,-8.518072289156628,-0.20846106683016552,-4.714285714285714,-8.245248313917841,3.0,0.20801420801420803,4807.363927427961,-0.07330575141308847,-0.2512674086591694,0.024823728220965898,1339.194139194139,-1.0,59.34081854400579,0.2079719185256849,
2023-08-16 12:07:22.128000,-5.120481927710844,-0.3132530120481928,-8.530120481927712,-0.2452483139178418,-4.748620478234212,-8.257510729613733,3.0,0.20801420801420803,4807.363927427961,-0.053493386166308075,-0.035545714119224546,-0.11176504865683826,1349.4505494505493,-1.0,59.34081854400579,0.20797182159205138,
2023-08-16 12:07:22.136000,-5.1084337349397595,-0.30120481927710846,-8.506024096385543,-0.27467811158798283,-4.755977927651747,-8.245248313917841,3.0,0.20801420801420803,4807.363927427961,-0.1252840743546422,-0.20208612551716096,-0.020395081871685435,1361.904761904762,-1.0,59.34081854400579,0.20797174504627503,
2023-08-16 12:07:22.144000,-5.1084337349397595,-0.28915662650602414,-8.530120481927712,-0.22562844880441446,-4.773145309625996,-8.235438381361128,3.0,0.20801420801420803,4807.363927427961,-0.4112813938581668,-0.1553522521997553,-0.12901346075403503,1375.091575091575,-1.0,59.34081854400579,0.20797168891451112,
2023-08-16 12:07:22.151000,-5.1084337349397595,-0.30120481927710846,-8.566265060240964,-0.21091354996934394,-4.778050275904353,-8.24770079705702,3.0,0.20801420801420803,4807.363927427961,-0.07039216828856061,0.28937707592797585,-0.48050812889691735,1390.4761904761904,-1.0,59.34081854400579,0.20797165318312158,
2023-08-16 12:07:22.159000,-5.0843373493975905,-0.27710843373493976,-8.542168674698795,-0.2207234825260576,-4.694665849172287,-8.24770079705702,3.0,0.20801420801420803,4807.363927427961,-0.038226210593788994,-0.2631548278072373,-0.03589534409416706,1408.7912087912086,-1.0,59.34081854400579,0.20797163779953579,
2023-08-16 12:07:22.167000,-5.1084337349397595,-0.30120481927710846,-8.566265060240964,-0.17167381974248927,-4.7290006131207845,-8.240343347639485,3.0,0.20801420801420803,4807.363927427961,-0.09906182623390192,-0.12540061767962304,-0.11328011188159218,1425.6410256410256,-1.0,59.34081854400579,0.20797164267323712,
2023-08-16 12:07:22.174000,-5.132530120481928,-0.26506024096385544,-8.518072289156628,-0.20846106683016552,-4.758430410790925,-8.289393010423053,3.0,0.20801420801420803,4807.363927427961,-0.050929433016724465,-0.07901637433715986,-0.17388264087174385,1440.2930402930401,-1.0,59.34081854400579,0.20797166767686892,
2023-08-16 12:07:22.182000,-5.144578313253012,-0.30120481927710846,-8.55421686746988,-0.2207234825260576,-4.805027590435316,-8.272225628448805,3.0,0.20801420801420803,4807.363927427961,-0.40219101450964423,-0.01876347532195112,0.08612551716100478,1449.8168498168498,-1.0,59.34081854400579,0.20797171264745073,
2023-08-16 12:07:22.190000,-5.120481927710844,-0.30120481927710846,-8.55421686746988,-0.27467811158798283,-4.795217657878601,-8.267320662170446,3.0,0.20801420801420803,4807.363927427961,-0.2610570479575788,0.07050871161354318,0.009906182623390191,1454.9450549450548,-1.0,59.34081854400579,0.20797177738769618,
2023-08-16 12:07:22.197000,-5.132530120481928,-0.30120481927710846,-8.530120481927712,-0.18884120171673818,-4.763335377069282,-8.257510729613733,3.0,0.20801420801420803,4807.363927427961,-0.13530680030301323,-0.2797039799545473,0.33005069634636675,1454.9450549450548,-1.0,59.34081854400579,0.20797186166742382,
2023-08-16 12:07:22.205000,-5.1084337349397595,-0.30120481927710846,-8.542168674698795,-0.21091354996934394,-4.758430410790925,-8.296750459840588,3.0,0.20757020757020755,4817.64705882353,-0.24171085601072173,0.1185245615057398,-0.07015908163859894,1449.8168498168498,-1.0,59.34081854400579,0.20797196522505168,
2023-08-16 12:07:22.213000,-5.1084337349397595,-0.28915662650602414,-8.518072289156628,-0.24034334763948498,-4.787860208461066,-8.235438381361128,3.0,0.20801420801420803,4807.363927427961,0.06491463201445088,0.14731076277606195,0.17388264087174385,1441.0256410256409,-1.0,59.34081854400579,0.20797208775862097,
2023-08-16 12:07:22.220000,-5.1084337349397595,-0.28915662650602414,-8.518072289156628,-0.18393623543838136,-4.716738197424893,-8.272225628448805,3.0,0.20801420801420803,4807.363927427961,-0.6208262921741152,-0.04032399044344752,0.09579861313443243,1427.106227106227,-1.0,59.34081854400579,0.20797222903446716,
2023-08-16 12:07:22.228000,-5.096385542168675,-0.28915662650602414,-8.542168674698795,-0.17903126916002451,-4.743715511955855,-8.291845493562231,3.0,0.20801420801420803,4807.363927427961,-0.5404113979371835,0.049763999766912634,0.37014160013985214,1413.1868131868132,-1.0,59.34081854400579,0.20797238876110216,
2023-08-16 12:07:22.236000,-5.1084337349397595,-0.28915662650602414,-8.55421686746988,-0.2869405272838749,-4.719190680564071,-8.24770079705702,3.0,0.20801420801420803,4807.363927427961,-0.37002505681487086,-0.10558825243284264,0.031699784394849134,1399.2673992673992,-1.0,59.34081854400579,0.20797256647349469,
2023-08-16 12:07:22.243000,-5.0843373493975905,-0.30120481927710846,-8.542168674698795,-0.2722256284488044,-4.770692826486818,-8.255058246474555,3.0,0.20801420801420803,4807.363927427961,-0.17108560107219944,0.2313385000874082,0.06514771866441342,1386.080586080586,-1.0,59.34081854400579,0.20797276168355933,
2023-08-16 12:07:22.251000,-5.096385542168675,-0.30120481927710846,-8.518072289156628,-0.24034334763948498,-4.743715511955855,-8.225628448804414,3.0,0.20801420801420803,4807.363927427961,-0.06351611211467911,0.013402482372822228,0.2034846454169336,1369.9633699633698,-1.0,59.34081854400579,0.20797297388139063,
2023-08-16 12:07:22.259000,-5.096385542168675,-0.28915662650602414,-8.493975903614459,-0.18638871857755976,-4.7657878602084605,-8.299202942979766,3.0,0.20801420801420803,4807.363927427961,-0.3397237923197944,0.13530680030301323,0.17190140434706616,1353.113553113553,-1.0,59.34081854400579,0.20797320253653276,
2023-08-16 12:07:22.266000,-5.120481927710844,-0.28915662650602414,-8.55421686746988,-0.2599632127529123,-4.7657878602084605,-8.269773145309626,3.0,0.20801420801420803,4807.363927427961,-0.21642095448983162,-0.10570479575782349,0.2636210011071615,1338.4615384615383,-1.0,59.34081854400579,0.20797344709928126,
2023-08-16 12:07:22.274000,-5.096385542168675,-0.30120481927710846,-8.566265060240964,-0.24770079705702022,-4.790312691600245,-8.228080931943593,3.0,0.20801420801420803,4807.363927427961,-0.06165141891498225,-0.4079016374337156,0.06071907231513339,1324.5421245421244,-1.0,59.34081854400579,0.20797370700201454,
2023-08-16 12:07:22.282000,-5.1084337349397595,-0.30120481927710846,-8.530120481927712,-0.22808093194359289,-4.748620478234212,-8.250153280196198,3.0,0.20801420801420803,4807.363927427961,-0.0927684866849246,-0.020278538546705464,0.1517394091253424,1312.8205128205127,-1.0,59.34081854400579,0.20797398166055117,
2023-08-16 12:07:22.289000,-5.096385542168675,-0.30120481927710846,-8.518072289156628,-0.26486817903126914,-4.758430410790925,-8.188841201716738,3.0,0.20801420801420803,4807.363927427961,-0.3209603169978433,0.3192121671231272,-0.03356447759454599,1301.8315018315018,-1.0,59.34081854400579,0.2079742704755308,
2023-08-16 12:07:22.297000,-5.0843373493975905,-0.28915662650602414,-8.493975903614459,-0.21336603310852237,-4.7069282648681785,-8.210913549969343,3.0,0.20801420801420803,4807.363927427961,0.0658469786142993,-0.04848202319212169,-0.2293572635627292,1291.5750915750914,-1.0,59.34081854400579,0.20797457283381485,
2023-08-16 12:07:22.305000,-5.0843373493975905,-0.27710843373493976,-8.530120481927712,-0.1912936848559166,-4.785407725321888,-8.23298589822195,3.0,0.20801420801420803,4807.363927427961,0.06386574208962162,-0.04428646349280291,-0.228891090262805,1282.051282051282,-1.0,59.34081854400579,0.20797488810990472,
2023-08-16 12:07:22.312000,-5.096385542168675,-0.28915662650602414,-8.55421686746988,-0.18884120171673818,-4.802575107296137,-8.220723482526058,3.0,0.20801420801420803,4807.363927427961,0.09474972320960402,0.06596352193928014,-0.18600314666977427,1273.9926739926739,-1.0,59.34081854400579,0.2079752156673731,
2023-08-16 12:07:22.320000,-5.120481927710844,-0.27710843373493976,-8.506024096385543,-0.23789086450030655,-4.711833231146535,-8.286940527283875,3.0,0.20801420801420803,4807.363927427961,0.17096905774721688,-0.053493386166308075,-0.31140376434939687,1265.9340659340658,-1.0,59.34081854400579,0.20797555486030778,
2023-08-16 12:07:22.328000,-5.120481927710844,-0.28915662650602414,-8.506024096385543,-0.21336603310852237,-4.733905579399141,-8.24770079705702,3.0,0.20801420801420803,4807.363927427961,-0.3352951459705139,-0.01957927859681871,-0.2813355865042829,1254.9450549450548,-1.0,59.34081854400579,0.20797590503476193,
2023-08-16 12:07:22.335000,-5.144578313253012,-0.28915662650602414,-8.530120481927712,-0.20846106683016552,-4.760882893930104,-8.26241569589209,3.0,0.20801420801420803,4807.363927427961,-0.07272303478818254,-0.35102849484295806,0.021677058446477673,1241.7582417582416,-1.0,59.34081854400579,0.2079762655302103,
2023-08-16 12:07:22.343000,-5.120481927710844,-0.27710843373493976,-8.542168674698795,-0.19865113427345185,-4.721643163703249,-8.257510729613733,3.0,0.20801420801420803,4807.363927427961,-0.25394790513373383,0.4495076044519558,-0.3474156517685448,1227.106227106227,-1.0,59.34081854400579,0.20797663568100713,
2023-08-16 12:07:22.351000,-5.120481927710844,-0.30120481927710846,-8.542168674698795,-0.17412630288166767,-4.741263028816677,-8.267320662170446,3.0,0.20801420801420803,4807.363927427961,-0.20849600839111912,-0.11444554513140184,-0.3288852630965562,1213.1868131868132,-1.0,59.34081854400579,0.20797701481784348,
2023-08-16 12:07:22.358000,-5.120481927710844,-0.28915662650602414,-8.55421686746988,-0.1618638871857756,-4.746167995095034,-8.237890864500306,3.0,0.20757020757020755,4817.64705882353,0.17458190082162975,0.05512499271604152,0.08216304411164853,1200.7326007326008,-1.0,59.34081854400579,0.20797740226920008,
2023-08-16 12:07:22.366000,-5.120481927710844,-0.27710843373493976,-8.542168674698795,-0.2844880441446965,-4.795217657878601,-8.250153280196198,3.0,0.20801420801420803,4807.363927427961,0.050579803041780225,-0.05023017306683771,0.1515063224753803,1195.6043956043954,-1.0,59.34081854400579,0.20797779721350085,
2023-08-16 12:07:22.373000,-5.120481927710844,-0.27710843373493976,-8.542168674698795,-0.18638871857755976,-4.741263028816677,-8.259963212752911,3.0,0.20801420801420803,4807.363927427961,0.06444845871452753,-0.16933745119748342,0.2959035021269157,1194.8717948717947,-1.0,59.34081854400579,0.20797819880796736,
2023-08-16 12:07:22.381000,-5.144578313253012,-0.27710843373493976,-8.530120481927712,-0.2673206621704476,-4.755977927651747,-8.20110361741263,3.0,0.20801420801420803,4807.363927427961,0.020278538546705464,-0.1355398869529749,0.33331390944583666,1197.8021978021977,-1.0,59.34081854400579,0.20797860634898235,
2023-08-16 12:07:22.389000,-5.1084337349397595,-0.30120481927710846,-8.530120481927712,-0.18884120171673818,-4.773145309625996,-8.277130594727161,3.0,0.20801420801420803,4807.363927427961,-0.36314900064098765,-0.2556960550084499,0.12679913757939523,1200.7326007326008,-1.0,59.34081854400579,0.20797901913456532,
2023-08-16 12:07:22.396000,-5.0843373493975905,-0.26506024096385544,-8.55421686746988,-0.21091354996934394,-4.763335377069282,-8.259963212752911,3.0,0.20801420801420803,4807.363927427961,-0.3312161295961777,-0.11479517510634608,0.18530388671988796,1203.6630036630036,-1.0,59.34081854400579,0.20797943646558975,
2023-08-16 12:07:22.404000,-5.096385542168675,-0.27710843373493976,-8.542168674698795,-0.21827099938687922,-4.721643163703249,-8.240343347639485,3.0,0.20801420801420803,4807.363927427961,-0.23728220966144126,-0.3884389021618795,0.2103607015908164,1205.8608058608058,-1.0,59.34081854400579,0.20797985764698995,
2023-08-16 12:07:22.412000,-5.120481927710844,-0.27710843373493976,-8.55421686746988,-0.24034334763948498,-4.797670141017781,-8.284488044144696,3.0,0.20801420801420803,4807.363927427961,-0.30009906182623364,0.02960200454518974,0.29403880892721884,1206.5934065934066,-1.0,59.34081854400579,0.2079802819889592,
2023-08-16 12:07:22.419000,-5.1084337349397595,-0.30120481927710846,-8.506024096385543,-0.22808093194359289,-4.824647455548742,-8.220723482526058,3.0,0.20801420801420803,4807.363927427961,-0.054425732766156504,0.04603461336751892,-0.03193287104481081,1205.128205128205,-1.0,59.34081854400579,0.20798070880813732,
2023-08-16 12:07:22.427000,-5.132530120481928,-0.28915662650602414,-8.530120481927712,-0.27713059472716123,-4.721643163703249,-8.264868179031268,3.0,0.20801420801420803,4807.363927427961,-0.2387972728861956,0.0170153254472351,-0.01771458539712142,1203.6630036630036,-1.0,59.34081854400579,0.2079811374287873,
2023-08-16 12:07:22.435000,-5.120481927710844,-0.30120481927710846,-8.530120481927712,-0.27713059472716123,-4.679950950337216,-8.286940527283875,3.0,0.20801420801420803,4807.363927427961,-0.14882582600081629,0.10721985898257609,-0.10687022900763359,1201.4652014652013,-1.0,59.34081854400579,0.20798156718396021,
2023-08-16 12:07:22.442000,-5.0843373493975905,-0.28915662650602414,-8.542168674698795,-0.23789086450030655,-4.7069282648681785,-8.26241569589209,3.0,0.20801420801420803,4807.363927427961,-0.20942835499096754,-0.24544024241011544,-0.07365538138803097,1200.0,-1.0,59.34081854400579,0.207981997416649,
2023-08-16 12:07:22.450000,-5.0843373493975905,-0.3132530120481928,-8.518072289156628,-0.2207234825260576,-4.716738197424893,-8.225628448804414,3.0,0.20801420801420803,4807.363927427961,-0.4690868830487728,0.2605908746576537,-0.22446244391352496,1199.2673992673992,-1.0,59.34081854400579,0.20798242748092793,
2023-08-16 12:07:22.458000,-5.1084337349397595,-0.30120481927710846,-8.542168674698795,-0.1618638871857756,-4.721643163703249,-8.203556100551808,3.0,0.20801420801420803,4807.363927427961,-0.6947147602121095,0.15185595245032324,-0.5583590699842667,1200.0,-1.0,59.34081854400579,0.20798285674307904,
2023-08-16 12:07:22.465000,-5.132530120481928,-0.30120481927710846,-8.530120481927712,-0.20600858369098712,-4.770692826486818,-8.245248313917841,3.0,0.20801420801420803,4807.363927427961,-0.508944700192297,-0.04626770001748233,-0.4181574500320492,1200.7326007326008,-1.0,59.34081854400579,0.20798328458270351,
2023-08-16 12:07:22.473000,-5.1084337349397595,-0.3253012048192771,-8.55421686746988,-0.24770079705702022,-4.743715511955855,-8.32618025751073,3.0,0.20801420801420803,4807.363927427961,-0.7632422353009733,0.04836547986714086,-0.4133791737078258,1199.2673992673992,-1.0,59.34081854400579,0.20798371039381694,
2023-08-16 12:07:22.481000,-5.1084337349397595,-0.30120481927710846,-8.530120481927712,-0.21827099938687922,-4.733905579399141,-8.306560392397301,3.0,0.20801420801420803,4807.363927427961,-0.6218751820989444,-0.13064506730376935,-0.5461220208612549,1196.3369963369962,-1.0,59.34081854400579,0.20798413358592704,
2023-08-16 12:07:22.488000,-5.120481927710844,-0.30120481927710846,-8.542168674698795,-0.24770079705702022,-4.787860208461066,-8.237890864500306,3.0,0.20801420801420803,4807.363927427961,-0.6952974768370138,-0.09451663655964061,-0.40300681778451136,1194.8717948717947,-1.0,59.34081854400579,0.20798455358509363,
2023-08-16 12:07:22.496000,-5.132530120481928,-0.28915662650602414,-8.530120481927712,-0.24279583077866337,-4.733905579399141,-8.223175965665236,3.0,0.20801420801420803,4807.363927427961,-0.5356331216129588,-0.4260823961307608,-0.7370199871802343,1195.6043956043954,-1.0,59.34081854400579,0.20798496983496745,
2023-08-16 12:07:22.504000,-5.120481927710844,-0.28915662650602414,-8.530120481927712,-0.20600858369098712,-4.763335377069282,-8.252605763335376,3.0,0.20757020757020755,4817.64705882353,-0.8811840801818072,0.11293048190664923,-0.5053318571178836,1197.069597069597,-1.0,59.34081854400579,0.20798538179780776,
2023-08-16 12:07:22.511000,-5.156626506024097,-0.28915662650602414,-8.530120481927712,-0.18148375229920294,-4.7657878602084605,-8.267320662170446,3.0,0.20757020757020755,4817.64705882353,-0.7951751063457833,-0.3129188275741499,-0.366412213740458,1200.0,-1.0,59.34081854400579,0.2079857888061825,
2023-08-16 12:07:22.519000,-5.132530120481928,-0.27710843373493976,-8.578313253012048,-0.16922133660331085,-4.778050275904353,-8.20110361741263,3.0,0.20801420801420803,4807.363927427961,-1.0159081638599146,-0.09393391993473643,-0.17924363382087274,1202.9304029304028,-1.0,59.34081854400579,0.2079861900420612,
2023-08-16 12:07:22.527000,-5.096385542168675,-0.27710843373493976,-8.530120481927712,-0.17903126916002451,-4.768240343347639,-8.250153280196198,3.0,0.20801420801420803,4807.363927427961,-0.7480916030534351,-0.0015150632247543454,-0.560806479808869,1205.128205128205,-1.0,59.34081854400579,0.2079865848241123,
2023-08-16 12:07:22.534000,-5.1084337349397595,-0.27710843373493976,-8.530120481927712,-0.3016554261189454,-4.714285714285714,-8.250153280196198,3.0,0.20801420801420803,4807.363927427961,-0.48132393217178493,-0.1105996154070273,-0.6801468445894764,1205.128205128205,-1.0,59.34081854400579,0.20798697262861915,
2023-08-16 12:07:22.542000,-5.1084337349397595,-0.27710843373493976,-8.481927710843374,-0.22808093194359289,-4.741263028816677,-8.208461066830164,3.0,0.20801420801420803,4807.363927427961,-0.888409766330633,-0.12773148417924324,-0.8430744129130003,1205.8608058608058,-1.0,59.34081854400579,0.20798735295125112,
2023-08-16 12:07:22.550000,-5.096385542168675,-0.30120481927710846,-8.506024096385543,-0.24034334763948498,-4.785407725321888,-8.188841201716738,3.0,0.20801420801420803,4807.363927427961,-0.8655672746343456,0.0417225103432193,-0.2887943593030708,1203.6630036630036,-1.0,59.34081854400579,0.20798772530756993,
2023-08-16 12:07:22.557000,-5.0843373493975905,-0.27710843373493976,-8.530120481927712,-0.1765787860208461,-4.778050275904353,-8.277130594727161,3.0,0.20801420801420803,4807.363927427961,-0.9210418973253314,0.1960258726181453,0.04650078666744357,1199.2673992673992,-1.0,59.34081854400579,0.20798808923352452,
2023-08-16 12:07:22.565000,-5.1084337349397595,-0.27710843373493976,-8.55421686746988,-0.22317596566523604,-4.733905579399141,-8.328632740649908,3.0,0.20801420801420803,4807.363927427961,-0.8702290076335878,-0.17178486102208446,-0.10360701590816408,1189.7435897435896,-1.0,59.34081854400579,0.20798844428593596,
2023-08-16 12:07:22.573000,-5.120481927710844,-0.27710843373493976,-8.518072289156628,-0.18148375229920294,-4.697118332311465,-8.24770079705702,3.0,0.20801420801420803,4807.363927427961,-1.0039042013868658,0.19614241594312615,-0.2540644484587147,1180.952380952381,-1.0,59.34081854400579,0.2079887900429737,
2023-08-16 12:07:22.580000,-5.1084337349397595,-0.27710843373493976,-8.518072289156628,-0.21336603310852237,-4.763335377069282,-8.250153280196198,3.0,0.20801420801420803,4807.363927427961,-0.9986597517627177,0.19486043936833522,-0.25126740865916897,1171.4285714285713,-1.0,59.34081854400579,0.20798912610462425,
2023-08-16 12:07:22.588000,-5.096385542168675,-0.26506024096385544,-8.481927710843374,-0.21091354996934394,-4.697118332311465,-8.223175965665236,3.0,0.20801420801420803,4807.363927427961,-1.054367461103665,0.37608530971388654,-0.5679156226327139,1163.3699633699632,-1.0,59.34081854400579,0.2079894520931538,
2023-08-16 12:07:22.596000,-5.0843373493975905,-0.26506024096385544,-8.518072289156628,-0.27713059472716123,-4.768240343347639,-8.269773145309626,3.0,0.20757020757020755,4817.64705882353,-0.4193228832818602,0.15954781189907408,-0.5941378707534525,1156.7765567765566,-1.0,59.34081854400579,0.20798976765356578,
2023-08-16 12:07:22.603000,-5.096385542168675,-0.28915662650602414,-8.493975903614459,-0.20846106683016552,-4.758430410790925,-8.284488044144696,3.0,0.20757020757020755,4817.64705882353,-0.6314317347473921,0.2371656663364604,-0.37445370316415133,1153.8461538461538,-1.0,59.34081854400579,0.20799007230475755,
2023-08-16 12:07:22.611000,-5.1084337349397595,-0.2530120481927711,-8.55421686746988,-0.24034334763948498,-4.711833231146535,-8.304107909258123,3.0,0.20801420801420803,4807.363927427961,-0.45731600722568577,-0.08530971388613719,-0.005360992949128891,1156.7765567765566,-1.0,59.34081854400579,0.2079903654180926,
2023-08-16 12:07:22.619000,-5.1084337349397595,-0.27710843373493976,-8.530120481927712,-0.22808093194359289,-4.809932556713672,-8.257510729613733,3.0,0.20801420801420803,4807.363927427961,-0.48062467222189814,-0.38902161878678365,-0.2656022376318392,1158.974358974359,-1.0,59.34081854400579,0.20799064650419707,
2023-08-16 12:07:22.626000,-5.132530120481928,-0.2530120481927711,-8.518072289156628,-0.2207234825260576,-4.770692826486818,-8.27958307786634,3.0,0.20757020757020755,4817.64705882353,-0.09579861313443329,-0.13915273002738776,0.024940271545946736,1158.2417582417581,-1.0,59.34081854400579,0.20799091523340102,
2023-08-16 12:07:22.634000,-5.144578313253012,-0.27710843373493976,-8.518072289156628,-0.15450643776824033,-4.758430410790925,-8.215818516247701,3.0,0.20757020757020755,4817.64705882353,-0.07808402773731143,-0.16455917487325872,-0.11339665520657344,1153.8461538461538,-1.0,59.34081854400579,0.20799117114776453,
2023-08-16 12:07:22.642000,-5.156626506024097,-0.28915662650602414,-8.530120481927712,-0.22562844880441446,-4.775597792765175,-8.272225628448805,3.0,0.20801420801420803,4807.363927427961,-0.4443796981527886,0.1899656197191314,-0.16246139502360019,1149.4505494505493,-1.0,59.34081854400579,0.20799141363928533,
2023-08-16 12:07:22.649000,-5.156626506024097,-0.27710843373493976,-8.530120481927712,-0.23789086450030655,-4.814837522992029,-8.250153280196198,3.0,0.20801420801420803,4807.363927427961,-0.5618553697336974,0.04079016374337087,-0.19579278596818364,1145.054945054945,-1.0,59.34081854400579,0.20799164223635433,
2023-08-16 12:07:22.657000,-5.132530120481928,-0.26506024096385544,-8.518072289156628,-0.20846106683016552,-4.785407725321888,-8.24770079705702,3.0,0.20801420801420803,4807.363927427961,-0.8168521647922605,0.3326146494959495,-0.49997086416875436,1142.1245421245421,-1.0,59.34081854400579,0.20799185662387806,
2023-08-16 12:07:22.665000,-5.144578313253012,-0.26506024096385544,-8.518072289156628,-0.2207234825260576,-4.819742489270386,-8.24770079705702,3.0,0.20757020757020755,4817.64705882353,-0.7500728395781128,0.2690985373812721,-0.18973253306916887,1138.4615384615383,1011.1083984375,59.34081854400579,0.20799205650430944,
2023-08-16 12:07:22.672000,-5.0843373493975905,-0.26506024096385544,-8.506024096385543,-0.25015328019619865,-4.719190680564071,-8.228080931943593,3.0,0.20757020757020755,4817.64705882353,-0.48423751529631104,-0.036011887419147896,0.19276265951867583,1136.9963369963368,-1.0,59.34081854400579,0.20799224158692675,
2023-08-16 12:07:22.680000,-5.0843373493975905,-0.26506024096385544,-8.493975903614459,-0.22317596566523604,-4.724095646842428,-8.23298589822195,3.0,0.20801420801420803,4807.363927427961,-0.3573218343919354,0.19357846279354426,0.0982460229590352,1138.4615384615383,-1.0,59.34081854400579,0.20799241154545034,
2023-08-16 12:07:22.688000,-5.1084337349397595,-0.27710843373493976,-8.530120481927712,-0.22317596566523604,-4.679950950337216,-8.237890864500306,3.0,0.20757020757020755,4817.64705882353,-0.3060427714002667,0.20744711846628985,-0.271545947205874,1141.3919413919414,-1.0,59.34081854400579,0.20799256601758323,
2023-08-16 12:07:22.695000,-5.1084337349397595,-0.28915662650602414,-8.55421686746988,-0.22808093194359289,-4.758430410790925,-8.220723482526058,3.0,0.20757020757020755,4817.64705882353,-0.49857234426898345,0.8583415884855199,0.18810092651943325,1147.985347985348,-1.0,59.34081854400579,0.20799270449718935,
2023-08-16 12:07:22.703000,-5.132530120481928,-0.27710843373493976,-8.566265060240964,-0.17167381974248927,-4.785407725321888,-8.264868179031268,3.0,0.20801420801420803,4807.363927427961,-0.4310937591049472,0.4831886253714818,-0.19124759629392235,1154.5787545787546,-1.0,59.34081854400579,0.20799282632225635,
2023-08-16 12:07:22.711000,-5.132530120481928,-0.2530120481927711,-8.530120481927712,-0.26486817903126914,-4.785407725321888,-8.237890864500306,3.0,0.20801420801420803,4807.363927427961,-0.4101159606083567,-0.11864110483072063,0.02727113804556867,1159.7069597069597,-1.0,59.34081854400579,0.2079929309606332,
2023-08-16 12:07:22.718000,-5.144578313253012,-0.26506024096385544,-8.530120481927712,-0.22562844880441446,-4.822194972409564,-8.311465358675658,3.0,0.20801420801420803,4807.363927427961,-0.08123069751179923,-0.22772565701299533,-0.05943709574034159,1163.3699633699632,-1.0,59.34081854400579,0.20799301802951758,
2023-08-16 12:07:22.726000,-5.120481927710844,-0.2530120481927711,-8.506024096385543,-0.24279583077866337,-4.787860208461066,-8.255058246474555,3.0,0.20801420801420803,4807.363927427961,0.07668550783753793,-0.30441116485053327,-0.30231338500087385,1166.3003663003662,-1.0,59.34081854400579,0.20799308715593928,
2023-08-16 12:07:22.734000,-5.1084337349397595,-0.24096385542168675,-8.518072289156628,-0.20110361741263028,-4.753525444512569,-8.235438381361128,3.0,0.20801420801420803,4807.363927427961,0.3703746867898134,-0.10652059903269108,-0.17551424742147861,1167.7655677655678,-1.0,59.34081854400579,0.20799313797613347,
2023-08-16 12:07:22.741000,-5.1084337349397595,-0.22891566265060243,-8.530120481927712,-0.20600858369098712,-4.721643163703249,-8.304107909258123,3.0,0.20801420801420803,4807.363927427961,0.0651477186644143,-0.4124468271079769,0.37771691626362086,1166.3003663003662,-1.0,59.34081854400579,0.20799317013506607,
2023-08-16 12:07:22.749000,-5.1084337349397595,-0.22891566265060243,-8.542168674698795,-0.18393623543838136,-4.814837522992029,-8.291845493562231,3.0,0.20801420801420803,4807.363927427961,0.17539770409649733,-0.7614940854262573,0.622690985373813,1161.904761904762,-1.0,59.34081854400579,0.20799318328612346,
2023-08-16 12:07:22.756000,-5.132530120481928,-0.2530120481927711,-8.518072289156628,-0.11526670754138564,-4.7290006131207845,-8.230533415082771,3.0,0.20801420801420803,4807.363927427961,0.5751413087815388,-0.422469553056348,0.45323699085134866,1156.0439560439559,-1.0,59.34081854400579,0.20799317709097467,
2023-08-16 12:07:22.764000,-5.096385542168675,-0.24096385542168675,-8.481927710843374,-0.21091354996934394,-4.770692826486818,-8.196198651134273,3.0,0.20757020757020755,4817.64705882353,0.5291066954140199,0.02086125517160965,0.3308664996212343,1152.3809523809523,-1.0,59.34081854400579,0.2079931512196158,
2023-08-16 12:07:22.772000,-5.1084337349397595,-0.24096385542168675,-8.481927710843374,-0.21336603310852237,-4.675045984058859,-8.21827099938688,3.0,0.20801420801420803,4807.363927427961,0.3150166074238102,-0.1497581726006647,0.6814288211642677,1152.3809523809523,-1.0,59.34081854400579,0.20799310520130807,
2023-08-16 12:07:22.779000,-5.072289156626506,-0.2530120481927711,-8.506024096385543,-0.11771919068056406,-4.733905579399141,-8.208461066830164,3.0,0.20801420801420803,4807.363927427961,0.8007691859448756,-0.4852864052211403,0.29427189557718053,1156.0439560439559,-1.0,59.34081854400579,0.20799303855242166,
2023-08-16 12:07:22.787000,-5.096385542168675,-0.24096385542168675,-8.506024096385543,-0.18638871857755976,-4.7290006131207845,-8.24770079705702,3.0,0.20801420801420803,4807.363927427961,0.6139502360002337,-0.19217994289377077,0.5644193228832819,1167.032967032967,-1.0,59.34081854400579,0.2079929509359944,
2023-08-16 12:07:22.795000,-5.1084337349397595,-0.2530120481927711,-8.530120481927712,-0.18884120171673818,-4.7363580625383195,-8.272225628448805,3.0,0.20801420801420803,4807.363927427961,0.7026397063108204,-0.15943126857409323,0.11677641163102377,1185.3479853479853,-1.0,59.34081854400579,0.20799284202361795,
2023-08-16 12:07:22.802000,-5.1084337349397595,-0.24096385542168675,-8.530120481927712,-0.15941140404659718,-4.75107296137339,-8.252605763335376,3.0,0.20801420801420803,4807.363927427961,0.9738360235417509,-0.0363615173940904,0.2394965328360815,1214.6520146520145,-1.0,59.34081854400579,0.20799271149627854,
2023-08-16 12:07:22.810000,-5.096385542168675,-0.2530120481927711,-8.530120481927712,-0.18884120171673818,-4.721643163703249,-8.264868179031268,3.0,0.20757020757020755,4817.64705882353,0.5102266767670879,0.06817784511392125,0.05815511916554978,1257.142857142857,-1.0,59.34081854400579,0.2079925590454054,
2023-08-16 12:07:22.818000,-5.096385542168675,-0.2530120481927711,-8.506024096385543,-0.17903126916002451,-4.802575107296137,-8.24770079705702,3.0,0.20757020757020755,4817.64705882353,0.5088281568673161,0.005011362974186382,0.18157450032049424,1317.216117216117,-1.0,59.34081854400579,0.20799238436357873,
2023-08-16 12:07:22.825000,-5.1084337349397595,-0.24096385542168675,-8.518072289156628,-0.1520539546290619,-4.770692826486818,-8.196198651134273,3.0,0.20757020757020755,4817.64705882353,0.5977507138278662,-0.14742730610104277,0.16700658469786148,1398.5347985347985,-1.0,59.34081854400579,0.20799218710372835,
2023-08-16 12:07:22.833000,-5.1084337349397595,-0.24096385542168675,-8.566265060240964,-0.19374616799509503,-4.773145309625996,-8.242795830778663,3.0,0.20801420801420803,4807.363927427961,0.5186177961657238,0.11409591515645932,0.22737602703805151,1498.9010989010987,-1.0,59.34081854400579,0.2079919667311038,
2023-08-16 12:07:22.841000,-5.0843373493975905,-0.27710843373493976,-8.542168674698795,-0.17903126916002451,-4.748620478234212,-8.228080931943593,3.0,0.20801420801420803,4807.363927427961,0.6230406153487563,0.034380280869412715,0.08868947031058795,1614.6520146520145,-1.0,59.34081854400579,0.20799172269401742,
2023-08-16 12:07:22.848000,-5.096385542168675,-0.26506024096385544,-8.55421686746988,-0.17412630288166767,-4.748620478234212,-8.240343347639485,3.0,0.20801420801420803,4807.363927427961,0.6927335236874301,-0.3037119049006465,0.0860089738360235,1739.9267399267399,-1.0,59.34081854400579,0.20799145459459042,
2023-08-16 12:07:22.856000,-5.0843373493975905,-0.27710843373493976,-8.506024096385543,-0.15695892090741875,-4.6922133660331085,-8.242795830778663,3.0,0.20801420801420803,4807.363927427961,0.6895868539129424,-0.3009148651011012,0.08659169046092899,1866.6666666666665,-1.0,59.34081854400579,0.2079911620512744,
2023-08-16 12:07:22.864000,-5.096385542168675,-0.27710843373493976,-8.506024096385543,-0.17412630288166767,-4.6922133660331085,-8.242795830778663,3.0,0.20801420801420803,4807.363927427961,0.6716391818658588,-0.053959559466231426,0.1144455451314027,1989.7435897435896,-1.0,59.34081854400579,0.207990844700319,
2023-08-16 12:07:22.871000,-5.096385542168675,-0.2530120481927711,-8.518072289156628,-0.19619865113427343,-4.702023298589822,-8.206008583690986,3.0,0.20801420801420803,4807.363927427961,0.6087057863760856,0.36198356739117754,0.006526426198939426,2101.8315018315016,-1.0,59.34081854400579,0.20799050219743404,
2023-08-16 12:07:22.879000,-5.072289156626506,-0.26506024096385544,-8.542168674698795,-0.19865113427345185,-4.743715511955855,-8.23298589822195,3.0,0.20801420801420803,4807.363927427961,0.638540877571237,0.04382029019287956,-0.3920517452362915,2194.871794871795,-1.0,59.34081854400579,0.20799013421964016,
2023-08-16 12:07:22.887000,-5.0843373493975905,-0.26506024096385544,-8.518072289156628,-0.19619865113427343,-4.75107296137339,-8.198651134273451,3.0,0.20801420801420803,4807.363927427961,0.5173358195909328,0.349863061593148,-0.14369791970164908,2271.7948717948716,-1.0,59.34081854400579,0.2079897404673015,
2023-08-16 12:07:22.894000,-5.072289156626506,-0.2530120481927711,-8.542168674698795,-0.19619865113427343,-4.770692826486818,-8.235438381361128,3.0,0.20801420801420803,4807.363927427961,0.7317755375560867,0.4260823961307608,-0.521647922615232,2330.4029304029305,-1.0,59.34081854400579,0.20798932066633105,
2023-08-16 12:07:22.902000,-5.132530120481928,-0.26506024096385544,-8.566265060240964,-0.20600858369098712,-4.770692826486818,-8.331085223789087,3.0,0.20801420801420803,4807.363927427961,0.6228075286987929,0.8219800710914277,-0.7137113221840219,2372.161172161172,-1.0,59.34081854400579,0.2079888745705587,
2023-08-16 12:07:22.910000,-5.0843373493975905,-0.2530120481927711,-8.518072289156628,-0.22808093194359289,-4.768240343347639,-8.210913549969343,3.0,0.20801420801420803,4807.363927427961,0.8363149000640984,0.19206339956878993,-0.5846978614299865,2393.4065934065934,-1.0,59.34081854400579,0.20798840196424814,
2023-08-16 12:07:22.917000,-5.144578313253012,-0.27710843373493976,-8.614457831325302,-0.1765787860208461,-4.760882893930104,-8.318822808093193,3.0,0.20801420801420803,4807.363927427961,0.8347998368393458,0.3301672396713484,-0.701008099761086,2393.4065934065934,-1.0,59.34081854400579,0.20798790266475084,
2023-08-16 12:07:22.925000,-5.144578313253012,-0.30120481927710846,-8.493975903614459,-0.2452483139178418,-4.78295524218271,-8.272225628448805,3.0,0.20801420801420803,4807.363927427961,0.388788532136822,-0.327486743196784,-0.7410990035545715,2374.358974358974,-1.0,59.34081854400579,0.20798737652527793,
2023-08-16 12:07:22.933000,-5.144578313253012,-0.22891566265060243,-8.506024096385543,-0.18884120171673818,-4.795217657878601,-8.269773145309626,3.0,0.20801420801420803,4807.363927427961,1.5341763300506956,0.33308082279587453,-0.7035720529106696,2340.6593406593406,-1.0,59.34081854400579,0.20798682357652565,
2023-08-16 12:07:22.940000,-5.144578313253012,-0.27710843373493976,-8.530120481927712,-0.23053341508277128,-4.800122624156959,-8.299202942979766,3.0,0.20801420801420803,4807.363927427961,0.5605733931589064,-0.5703630324573158,-0.35790455101684043,2294.5054945054944,-1.0,59.34081854400579,0.20798624387050435,
2023-08-16 12:07:22.948000,-5.120481927710844,-0.27710843373493976,-8.542168674698795,-0.2329858982219497,-4.854077253218884,-8.24770079705702,3.0,0.20801420801420803,4807.363927427961,0.6169803624497406,-0.20068760561738744,-0.411747567158091,2238.095238095238,-1.0,59.34081854400579,0.20798563735594855,
2023-08-16 12:07:22.956000,-5.1084337349397595,-0.30120481927710846,-8.530120481927712,-0.18884120171673818,-4.7363580625383195,-8.245248313917841,3.0,0.20801420801420803,4807.363927427961,0.6589359594429234,-0.5043995105180357,-0.268632364081347,2177.289377289377,-1.0,59.34081854400579,0.20798500403047648,
2023-08-16 12:07:22.963000,-5.096385542168675,-0.30120481927710846,-8.481927710843374,-0.2035561005518087,-4.760882893930104,-8.215818516247701,3.0,0.20801420801420803,4807.363927427961,0.8095099353184539,0.06503117533943172,-0.34193811549443504,2116.4835164835163,-1.0,59.34081854400579,0.20798434394347795,
2023-08-16 12:07:22.971000,-5.144578313253012,-0.30120481927710846,-8.457831325301205,-0.21827099938687922,-4.802575107296137,-8.215818516247701,3.0,0.20801420801420803,4807.363927427961,0.13192704387856202,0.368160363615174,-0.2914748557776352,2054.212454212454,-1.0,59.34081854400579,0.20798365719900044,
2023-08-16 12:07:22.979000,-5.1084337349397595,-0.3132530120481928,-8.542168674698795,-0.2673206621704476,-4.800122624156959,-8.257510729613733,3.0,0.20801420801420803,4807.363927427961,-0.023075578346250746,0.42526659285589496,0.15570188217469866,1991.9413919413919,-1.0,59.34081854400579,0.2079829440973619,
2023-08-16 12:07:22.986000,-5.144578313253012,-0.3132530120481928,-8.506024096385543,-0.2722256284488044,-4.780502759043531,-8.267320662170446,3.0,0.20801420801420803,4807.363927427961,0.17842783054600603,0.1906648796690164,0.17190140434706616,1929.6703296703295,-1.0,59.34081854400579,0.2079822051175885,
2023-08-16 12:07:22.994000,-5.1084337349397595,-0.3132530120481928,-8.506024096385543,-0.21091354996934394,-4.741263028816677,-8.235438381361128,3.0,0.20801420801420803,4807.363927427961,0.6669774488666167,-0.3636151739409127,-0.1185245615057398,1864.4688644688642,-1.0,59.34081854400579,0.20798144063342155,
2023-08-16 12:07:23.002000,-5.120481927710844,-0.3132530120481928,-8.493975903614459,-0.25260576333537704,-4.792765174739423,-8.183936235438381,3.0,0.20801420801420803,4807.363927427961,0.4502068644018408,0.17376609754676214,0.3391410756948893,1799.9999999999998,-1.0,59.34081854400579,0.20798065093745752,
2023-08-16 12:07:23.009000,-5.1084337349397595,-0.3132530120481928,-8.481927710843374,-0.24034334763948498,-4.792765174739423,-8.174126302881668,3.0,0.20801420801420803,4807.363927427961,0.7075345259600259,-0.2561622283083732,-0.18367228017015322,1736.263736263736,-1.0,59.34081854400579,0.20797983639258802,
