Shimmer_F5D4_Timestamp_FormattedUnix_CAL,Shimmer_F5D4_Accel_LN_X_CAL,Shimmer_F5D4_Accel_LN_Y_CAL,Shimmer_F5D4_Accel_LN_Z_CAL,Shimmer_F5D4_Accel_WR_X_CAL,Shimmer_F5D4_Accel_WR_Y_CAL,Shimmer_F5D4_Accel_WR_Z_CAL,Shimmer_F5D4_GSR_Range_CAL,Shimmer_F5D4_GSR_Skin_Conductance_CAL,Shimmer_F5D4_GSR_Skin_Resistance_CAL,Shimmer_F5D4_Gyro_X_CAL,Shimmer_F5D4_Gyro_Y_CAL,Shimmer_F5D4_Gyro_Z_CAL,Shimmer_F5D4_PPG_A13_CAL,Shimmer_F5D4_PPG_IBI_CAL,Shimmer_F5D4_PPGtoHR_CAL,Shimmer_F5D4_GSR_Skin_Conductance_LPF_CAL,
yyyy/mm/dd hh:mm:ss.000,m/(s^2),m/(s^2),m/(s^2),m/(s^2),m/(s^2),m/(s^2),no_units,uS,kOhms,deg/s,deg/s,deg/s,mV,ms,BPM,uS,
2023-08-21 17:41:53.195000,-5.19277108433735,-1.963855421686747,-8.289156626506024,-1.9570815450643775,-4.854077253218884,-7.8920907418761495,3.0,0.21245421245421242,4706.896551724139,0.3708408600897385,-0.2645533477070108,-0.14078433657712253,1507.6923076923076,-1.0,56.76078295513598,0.2123877698645291,
2023-08-21 17:41:53.203000,-5.216867469879518,-1.9879518072289157,-8.27710843373494,-1.9914163090128754,-4.836909871244635,-7.933782955242182,3.0,0.21245421245421242,4706.896551724139,0.23017306683759636,-0.3223588368976168,0.07528698793776573,1493.7728937728937,-1.0,56.76078295513598,0.21238775761670328,
2023-08-21 17:41:53.210000,-5.216867469879518,-1.963855421686747,-8.265060240963855,-2.0331085223789085,-4.881054567749846,-7.958307786633966,3.0,0.21245421245421242,4706.896551724139,-0.07656896451255708,-0.45533477070100803,-0.2626886545073131,1476.923076923077,-1.0,56.76078295513598,0.21238776180701943,
2023-08-21 17:41:53.218000,-5.216867469879518,-1.9879518072289157,-8.265060240963855,-1.9619865113427344,-4.84426732066217,-7.960760269773145,3.0,0.21245421245421242,4706.896551724139,0.029835091195151413,-0.025522988170851784,-0.19987180234252072,1460.8058608058607,-1.0,56.76078295513598,0.2123877824414577,
2023-08-21 17:41:53.226000,-5.204819277108434,-2.0120481927710845,-8.25301204819277,-1.988963825873697,-4.738810545677498,-7.938687921520539,3.0,0.21245421245421242,4706.896551724139,0.0924188567099821,0.4309772157799664,-0.15185595245032324,1445.4212454212454,-1.0,56.76078295513598,0.21238781961645906,
2023-08-21 17:41:53.233000,-5.204819277108434,-2.0120481927710845,-8.25301204819277,-1.993868792152054,-4.805027590435316,-7.923973022685469,3.0,0.21245421245421242,4706.896551724139,0.22993998018763467,0.5658178427830545,-0.17947672047083485,1445.4212454212454,-1.0,56.76078295513598,0.2123878733615481,
2023-08-21 17:41:53.241000,-5.1807228915662655,-1.9759036144578315,-8.27710843373494,-1.9767014101778049,-4.790312691600245,-7.901900674432863,3.0,0.21245421245421242,4706.896551724139,-0.10582133908280432,0.7605617388264089,0.02249286172134483,1419.047619047619,-1.0,56.76078295513598,0.21238794351375764,
2023-08-21 17:41:53.249000,-5.204819277108434,-2.0,-8.25301204819277,-1.9693439607602696,-4.84426732066217,-7.938687921520539,3.0,0.212010212010212,4716.753926701571,0.1242351844298112,0.7236175048074126,-0.28331682302896105,1409.5238095238094,-1.0,56.76078295513598,0.2123880298690297,
2023-08-21 17:41:53.256000,-5.168674698795181,-1.9518072289156627,-8.25301204819277,-1.9448191293684856,-4.792765174739423,-7.973022685469037,3.0,0.212010212010212,4716.753926701571,0.12353592447992617,0.7161587320086235,-0.28110249985432084,1400.0,-1.0,56.76078295513598,0.21238813203527826,
2023-08-21 17:41:53.264000,-5.1807228915662655,-1.963855421686747,-8.240963855421688,-1.947271612507664,-4.802575107296137,-7.9362354383813605,3.0,0.212010212010212,4716.753926701571,0.167356214672804,0.38855544548686033,-0.24800419555969946,1394.139194139194,-1.0,56.76078295513598,0.21238824955185046,
2023-08-21 17:41:53.272000,-5.168674698795181,-1.9759036144578315,-8.240963855421688,-2.0134886572654813,-4.778050275904353,-7.909258123850398,3.0,0.21245421245421242,4706.896551724139,0.36338208729095106,-0.3934502651360641,-0.07808402773731143,1389.0109890109889,-1.0,56.76078295513598,0.2123883820090058,
2023-08-21 17:41:53.279000,-5.156626506024097,-1.9759036144578315,-8.265060240963855,-1.9521765787860208,-4.822194972409564,-7.9288779889638255,3.0,0.21245421245421242,4706.896551724139,0.19159722626886486,-0.3771341996387158,-0.015966435522405405,1386.080586080586,-1.0,56.76078295513598,0.21238852905033326,
2023-08-21 17:41:53.287000,-5.156626506024097,-1.9879518072289157,-8.240963855421688,-1.9374616799509503,-4.832004904966278,-7.8994481912936845,3.0,0.21245421245421242,4706.896551724139,0.008740749373580091,-0.7870170735971092,-0.10675368568265231,1383.8827838827838,-1.0,56.76078295513598,0.21238869025808874,
2023-08-21 17:41:53.294000,-5.1807228915662655,-1.963855421686747,-8.25301204819277,-1.9497240956468422,-4.84426732066217,-7.987737584304107,3.0,0.21245421245421242,4706.896551724139,-0.12936309072897842,-0.6732707884155941,0.27574150690519195,1380.952380952381,-1.0,56.76078295513598,0.21238886503850551,
2023-08-21 17:41:53.302000,-5.204819277108434,-1.963855421686747,-8.25301204819277,-1.9717964438994482,-4.809932556713672,-7.987737584304107,3.0,0.21245421245421242,4706.896551724139,-0.09929491288386533,0.049647456441931796,0.4101159606083563,1379.4871794871794,-1.0,56.76078295513598,0.21238905277342796,
2023-08-21 17:41:53.310000,-5.168674698795181,-1.9518072289156627,-8.265060240963855,-1.9521765787860208,-4.809932556713672,-7.96811771919068,3.0,0.21245421245421242,4706.896551724139,0.03810966726880642,0.41722510343220165,0.42491696288095115,1378.021978021978,-1.0,56.76078295513598,0.21238925282279303,
2023-08-21 17:41:53.317000,-5.1807228915662655,-1.9518072289156627,-8.265060240963855,-1.9521765787860208,-4.822194972409564,-7.926425505824647,3.0,0.21245421245421242,4706.896551724139,-0.053493386166308075,0.7945923897208791,0.19486043936833522,1375.8241758241757,-1.0,56.76078295513598,0.21238946452724325,
2023-08-21 17:41:53.325000,-5.204819277108434,-1.9759036144578315,-8.289156626506024,-1.9497240956468422,-4.805027590435316,-7.95340282035561,3.0,0.212010212010212,4716.753926701571,0.25313210185886625,0.5306217586387743,0.2842491696288095,1377.2893772893772,-1.0,56.76078295513598,0.21238968721085666,
2023-08-21 17:41:53.333000,-5.204819277108434,-1.9759036144578315,-8.289156626506024,-1.9399141630901287,-4.8295524218271,-8.007357449417535,3.0,0.212010212010212,4716.753926701571,-0.0374104073189214,0.3579045510168413,-0.3586038109667268,1377.2893772893772,-1.0,56.76078295513598,0.2123899200346859,
2023-08-21 17:41:53.340000,-5.168674698795181,-1.9759036144578315,-8.27710843373494,-2.008583690987124,-4.787860208461066,-7.916615573267934,3.0,0.21245421245421242,4706.896551724139,-0.024823728220966765,-0.02738768137054864,-0.43482314550434137,1379.4871794871794,-1.0,56.76078295513598,0.2123901619778057,
2023-08-21 17:41:53.348000,-5.1807228915662655,-1.963855421686747,-8.265060240963855,-1.9644389944819127,-4.834457388105457,-7.955855303494788,3.0,0.21245421245421242,4706.896551724139,-0.025639531495834356,-0.5766563720062932,-0.583765514830138,1378.7545787545787,-1.0,56.76078295513598,0.2123904121266642,
2023-08-21 17:41:53.356000,-5.168674698795181,-1.9879518072289157,-8.27710843373494,-2.035561005518087,-4.797670141017781,-7.980380134886572,3.0,0.21245421245421242,4706.896551724139,0.44647747800244714,-0.29532078550201063,-0.21175922149058904,1377.2893772893772,-1.0,56.76078295513598,0.21239066969814188,
2023-08-21 17:41:53.363000,-5.156626506024097,-1.9759036144578315,-8.265060240963855,-1.9546290619251991,-4.795217657878601,-8.0,3.0,0.21245421245421242,4706.896551724139,-0.2612901346075404,-0.2781889167297947,-0.14987471592564555,1375.8241758241757,-1.0,56.76078295513598,0.21239093390353916,
2023-08-21 17:41:53.371000,-5.204819277108434,-1.9759036144578315,-8.25301204819277,-1.9767014101778049,-4.836909871244635,-7.975475168608216,3.0,0.212010212010212,4716.753926701571,0.16723967134782317,-0.17003671114736846,-0.194394266068411,1371.4285714285713,-1.0,56.76078295513598,0.21239120395135994,
2023-08-21 17:41:53.379000,-5.1807228915662655,-1.9759036144578315,-8.27710843373494,-1.9521765787860208,-4.856529736358063,-7.916615573267934,3.0,0.21245421245421242,4706.896551724139,-0.15581842549968036,0.11899073480566313,0.11223122195676248,1367.032967032967,-1.0,56.76078295513598,0.21239147890083493,
2023-08-21 17:41:53.386000,-5.204819277108434,-1.963855421686747,-8.27710843373494,-2.018393623543838,-4.807480073574494,-7.980380134886572,3.0,0.21245421245421242,4706.896551724139,-0.18169104364547464,0.010955072548219456,0.18763475321950945,1361.1721611721612,-1.0,56.76078295513598,0.21239175779218084,
2023-08-21 17:41:53.394000,-5.204819277108434,-1.963855421686747,-8.25301204819277,-1.9521765787860208,-4.812385039852851,-7.919068056407112,3.0,0.21245421245421242,4706.896551724139,-0.05687314259075754,0.1491754559757588,0.20255229881708517,1353.8461538461538,-1.0,56.76078295513598,0.21239203980838672,
2023-08-21 17:41:53.402000,-5.19277108433735,-1.9879518072289157,-8.265060240963855,-1.9717964438994482,-4.839362354383813,-7.919068056407112,3.0,0.21245421245421242,4706.896551724139,0.2330866499621242,0.42386807295612144,0.15511916554979316,1345.054945054945,-1.0,56.76078295513598,0.21239232427787813,
2023-08-21 17:41:53.409000,-5.204819277108434,-1.963855421686747,-8.25301204819277,-1.9717964438994482,-4.792765174739423,-7.889638258736971,3.0,0.212010212010212,4716.753926701571,0.0010488899248292638,-0.06876056173882716,0.049181283142008016,1334.7985347985348,-1.0,56.76078295513598,0.2123926105180435,
2023-08-21 17:41:53.417000,-5.204819277108434,-1.963855421686747,-8.265060240963855,-1.9448191293684856,-4.809932556713672,-7.987737584304107,3.0,0.212010212010212,4716.753926701571,-0.136705320202785,-0.11444554513140184,-0.14905891265077795,1326.007326007326,-1.0,56.76078295513598,0.21239289769971664,
2023-08-21 17:41:53.425000,-5.1807228915662655,-1.963855421686747,-8.265060240963855,-1.9251992642550582,-4.780502759043531,-7.916615573267934,3.0,0.212010212010212,4716.753926701571,-0.07703513781248217,-0.008624206048599255,-0.03939164384359866,1317.216117216117,-1.0,56.76078295513598,0.21239318495662995,
2023-08-21 17:41:53.432000,-5.1807228915662655,-1.963855421686747,-8.265060240963855,-1.993868792152054,-4.763335377069282,-7.960760269773145,3.0,0.212010212010212,4716.753926701571,0.3655964104655904,-0.11631023833110044,0.1443971796515354,1317.216117216117,-1.0,56.76078295513598,0.21239347123811292,
2023-08-21 17:41:53.448000,-5.204819277108434,-1.963855421686747,-8.265060240963855,-1.9497240956468422,-4.888412017167382,-7.933782955242182,3.0,0.21245421245421242,4706.896551724139,-0.20278538546704772,-0.055241536041024095,0.2657187809568209,1309.89010989011,-1.0,56.76078295513598,0.21239375533103733,
2023-08-21 17:41:53.455000,-5.1807228915662655,-1.9518072289156627,-8.301204819277109,-2.008583690987124,-4.778050275904353,-7.926425505824647,3.0,0.21245421245421242,4706.896551724139,0.011537789173125373,-0.17889400384592938,-0.056523512615815036,1307.6923076923076,-1.0,56.76078295513598,0.21239403615824493,
2023-08-21 17:41:53.463000,-5.19277108433735,-1.963855421686747,-8.289156626506024,-1.9153893316983446,-4.819742489270386,-7.950950337216431,3.0,0.21245421245421242,4706.896551724139,0.057572402540644295,0.12773148417924324,0.2959035021269157,1306.9597069597069,-1.0,56.76078295513598,0.21239431280004245,
2023-08-21 17:41:53.471000,-5.204819277108434,-1.963855421686747,-8.25301204819277,-1.9497240956468422,-4.849172286940527,-7.92152053954629,3.0,0.21245421245421242,4706.896551724139,-0.11071615873200813,-0.20849600839111912,-0.07272303478818254,1308.4249084249084,-1.0,56.76078295513598,0.21239458435654818,
2023-08-21 17:41:53.478000,-5.19277108433735,-1.9759036144578315,-8.27710843373494,-1.9399141630901287,-4.8295524218271,-7.992642550582464,3.0,0.21245421245421242,4706.896551724139,-0.1409008799021038,-0.12971272070392093,-0.025173358195909275,1311.3553113553112,-1.0,56.76078295513598,0.212394849948775,
2023-08-21 17:41:53.486000,-5.19277108433735,-1.9759036144578315,-8.25301204819277,-1.8908645003065603,-4.822194972409564,-8.0,3.0,0.21245421245421242,4706.896551724139,0.027853854670473722,-0.19043179301905475,-0.23949653283608194,1316.4835164835165,-1.0,56.76078295513598,0.21239510871970693,
2023-08-21 17:41:53.494000,-5.19277108433735,-1.9518072289156627,-8.240963855421688,-1.947271612507664,-4.873697118332311,-7.923973022685469,3.0,0.21245421245421242,4706.896551724139,-0.07948254763708494,-0.14311520307674316,-0.40533768428413247,1320.8791208791208,-1.0,56.76078295513598,0.2123953598353743,
2023-08-21 17:41:53.501000,-5.1807228915662655,-1.9759036144578315,-8.289156626506024,-1.9570815450643775,-4.800122624156959,-7.943592887798896,3.0,0.21245421245421242,4706.896551724139,0.1199230814055133,0.05698968591573838,0.10057688945865627,1323.8095238095236,-1.0,56.76078295513598,0.21239560248593325,
2023-08-21 17:41:53.509000,-5.1807228915662655,-1.9759036144578315,-8.27710843373494,-2.028203556100552,-4.780502759043531,-7.975475168608216,3.0,0.212010212010212,4716.753926701571,0.1497581726006647,0.11712604160596629,0.009323465998485141,1326.007326007326,-1.0,56.76078295513598,0.21239583588675479,
2023-08-21 17:41:53.517000,-5.19277108433735,-1.963855421686747,-8.25301204819277,-1.9816063764561618,-4.834457388105457,-7.933782955242182,3.0,0.21245421245421242,4706.896551724139,0.16246139502360019,0.16455917487325872,-0.24963580210943423,1328.2051282051282,-1.0,56.76078295513598,0.2123960591302343,
2023-08-21 17:41:53.524000,-5.1807228915662655,-1.9759036144578315,-8.25301204819277,-1.9693439607602696,-4.822194972409564,-7.948497854077253,3.0,0.212010212010212,4716.753926701571,-0.11549443505623284,0.20861255171609994,-0.03636151739409127,1326.7399267399267,-1.0,56.76078295513598,0.212396271314331,
2023-08-21 17:41:53.532000,-5.19277108433735,-1.9759036144578315,-8.25301204819277,-1.930104230533415,-4.861434702636419,-7.970570202329858,3.0,0.21245421245421242,4706.896551724139,-0.11526134840626943,0.2063982285414606,-0.0372938639939397,1325.2747252747251,-1.0,56.76078295513598,0.2123964715533553,
2023-08-21 17:41:53.540000,-5.19277108433735,-1.9759036144578315,-8.25301204819277,-1.959534028203556,-4.809932556713672,-7.943592887798896,3.0,0.21245421245421242,4706.896551724139,-0.08123069751179923,0.34298700541926475,-0.02191014509643978,1325.2747252747251,-1.0,56.76078295513598,0.2123966589676223,
2023-08-21 17:41:53.547000,-5.216867469879518,-1.9759036144578315,-8.265060240963855,-1.9963212752912323,-4.819742489270386,-7.982832618025751,3.0,0.21245421245421242,4706.896551724139,-0.11153196200687572,0.003962473049355383,-0.34170502884447296,1320.14652014652,-1.0,56.76078295513598,0.21239683284340935,
2023-08-21 17:41:53.555000,-5.19277108433735,-1.9759036144578315,-8.265060240963855,-1.9521765787860208,-4.856529736358063,-8.007357449417535,3.0,0.21245421245421242,4706.896551724139,-0.30790746459996526,0.050579803041780225,-0.3243400734222949,1318.6813186813185,-1.0,56.76078295513598,0.2123969924950841,
2023-08-21 17:41:53.563000,-5.19277108433735,-1.9759036144578315,-8.25301204819277,-1.9546290619251991,-4.832004904966278,-7.950950337216431,3.0,0.212010212010212,4716.753926701571,-0.06001981236524707,-0.11899073480566313,-0.30779092127498403,1315.018315018315,-1.0,56.76078295513598,0.21239713726603252,
2023-08-21 17:41:53.570000,-5.168674698795181,-1.9759036144578315,-8.216867469879519,-1.942366646229307,-4.839362354383813,-7.9656652360515015,3.0,0.212010212010212,4716.753926701571,0.11094924538197154,-0.3652467804906479,-0.1527882990501721,1312.087912087912,-1.0,56.76078295513598,0.21239726638035178,
2023-08-21 17:41:53.578000,-5.19277108433735,-1.9759036144578315,-8.25301204819277,-1.930104230533415,-4.817290006131207,-7.96811771919068,3.0,0.212010212010212,4716.753926701571,0.10966726880717886,0.14008507662723618,0.07715168113746301,1309.1575091575091,-1.0,56.76078295513598,0.21239737906077003,
2023-08-21 17:41:53.586000,-5.204819277108434,-1.9759036144578315,-8.289156626506024,-1.9767014101778049,-4.817290006131207,-7.926425505824647,3.0,0.21245421245421242,4706.896551724139,-0.19416117941844846,0.1086183788823496,-0.06165141891498182,1305.4945054945053,-1.0,56.76078295513598,0.21239747464643843,
2023-08-21 17:41:53.593000,-5.1807228915662655,-1.9759036144578315,-8.27710843373494,-2.035561005518087,-4.849172286940527,-7.92152053954629,3.0,0.21245421245421242,4706.896551724139,-0.22434590058854412,-0.029485461220208904,0.16817201794767203,1301.098901098901,-1.0,56.76078295513598,0.21239755245478512,
2023-08-21 17:41:53.601000,-5.19277108433735,-1.963855421686747,-8.240963855421688,-2.0159411404046597,-4.8295524218271,-7.980380134886572,3.0,0.21245421245421242,4706.896551724139,0.14404754967659159,0.16968708117242592,-0.03461336751937525,1293.7728937728937,-1.0,56.76078295513598,0.21239761182406486,
2023-08-21 17:41:53.609000,-5.1807228915662655,-1.963855421686747,-8.289156626506024,-2.0159411404046597,-4.856529736358063,-7.933782955242182,3.0,0.21245421245421242,4706.896551724139,-0.19264611619369584,0.21409008799020968,0.16502534817318337,1288.6446886446886,-1.0,56.76078295513598,0.21239765212428807,
2023-08-21 17:41:53.616000,-5.1807228915662655,-1.9759036144578315,-8.265060240963855,-1.9717964438994482,-4.814837522992029,-7.92152053954629,3.0,0.21245421245421242,4706.896551724139,-0.08659169046092811,0.013752112347764738,0.08589243051104267,1284.9816849816848,-1.0,56.76078295513598,0.21239767275770355,
2023-08-21 17:41:53.624000,-5.1807228915662655,-1.963855421686747,-8.27710843373494,-2.0331085223789085,-4.78295524218271,-7.941140404659717,3.0,0.21245421245421242,4706.896551724139,-0.010022725948371029,-0.049647456441931796,0.1474273061010432,1284.9816849816848,-1.0,56.76078295513598,0.2123976731593874,
2023-08-21 17:41:53.632000,-5.19277108433735,-1.963855421686747,-8.27710843373494,-1.959534028203556,-4.832004904966278,-7.96811771919068,3.0,0.21245421245421242,4706.896551724139,0.0045451896742613,-0.004312103024299628,-0.22108268748907417,1286.4468864468863,-1.0,56.76078295513598,0.21239765279794565,
2023-08-21 17:41:53.639000,-5.19277108433735,-1.963855421686747,-8.27710843373494,-2.0036787247087675,-4.775597792765175,-7.987737584304107,3.0,0.21245421245421242,4706.896551724139,-0.13577297360293658,-0.23192121671231236,-0.0971971330342055,1286.4468864468863,-1.0,56.76078295513598,0.21239761117633535,
2023-08-21 17:41:53.647000,-5.19277108433735,-1.9518072289156627,-8.25301204819277,-1.930104230533415,-4.805027590435316,-7.931330472103004,3.0,0.21245421245421242,4706.896551724139,-0.04347066021793532,0.19474389604335438,0.008041489423693338,1290.10989010989,-1.0,56.76078295513598,0.2123975478328065,
2023-08-21 17:41:53.655000,-5.168674698795181,-1.963855421686747,-8.27710843373494,-1.9767014101778049,-4.790312691600245,-7.987737584304107,3.0,0.212010212010212,4716.753926701571,-0.17970980712079695,-0.09509935318454654,0.1900821630441118,1291.5750915750914,-1.0,56.76078295513598,0.2123974623419682,
2023-08-21 17:41:53.662000,-5.204819277108434,-1.9759036144578315,-8.27710843373494,-1.9668914776210913,-4.809932556713672,-7.933782955242182,3.0,0.21245421245421242,4706.896551724139,-0.10139269273352386,-0.18565351669483177,-0.1611794184488084,1294.5054945054944,-1.0,56.76078295513598,0.21239735416668307,
2023-08-21 17:41:53.670000,-5.168674698795181,-1.963855421686747,-8.301204819277109,-1.9497240956468422,-4.778050275904353,-8.058859595340282,3.0,0.21245421245421242,4706.896551724139,0.008973836023541765,0.07563661791270866,-0.45207155760153855,1294.5054945054944,-1.0,56.76078295513598,0.2123972227867976,
2023-08-21 17:41:53.677000,-5.19277108433735,-1.9759036144578315,-8.27710843373494,-1.9374616799509503,-4.802575107296137,-7.933782955242182,3.0,0.212010212010212,4716.753926701571,0.08647514713594728,-0.0927684866849246,-0.18961598974418759,1293.040293040293,-1.0,56.76078295513598,0.21239706785950843,
2023-08-21 17:41:53.685000,-5.168674698795181,-1.963855421686747,-8.265060240963855,-1.9668914776210913,-4.856529736358063,-7.92152053954629,3.0,0.21245421245421242,4706.896551724139,-0.03682769069401549,-0.30650894470019174,0.3448516986189616,1292.3076923076922,-1.0,56.76078295513598,0.21239688893267913,
2023-08-21 17:41:53.693000,-5.204819277108434,-1.9759036144578315,-8.27710843373494,-1.9644389944819127,-4.785407725321888,-7.9288779889638255,3.0,0.21245421245421242,4706.896551724139,-0.3404230522696811,-0.45673329060078155,-0.4354058621292464,1293.040293040293,-1.0,56.76078295513598,0.2123966855737327,
2023-08-21 17:41:53.700000,-5.204819277108434,-1.9759036144578315,-8.265060240963855,-1.9202942979767013,-4.827099938687922,-7.92152053954629,3.0,0.21245421245421242,4706.896551724139,-0.15360410232503927,-0.16385991492337196,0.19521006934327814,1293.7728937728937,-1.0,56.76078295513598,0.21239645753017455,
2023-08-21 17:41:53.708000,-5.19277108433735,-1.9518072289156627,-8.265060240963855,-1.9717964438994482,-4.807480073574494,-8.039239730226853,3.0,0.212010212010212,4716.753926701571,-0.09136996678515283,-0.08635860381096644,0.23926344618611983,1294.5054945054944,-1.0,56.76078295513598,0.21239620459234537,
2023-08-21 17:41:53.716000,-5.204819277108434,-1.9879518072289157,-8.27710843373494,-1.959534028203556,-4.841814837522992,-7.9656652360515015,3.0,0.21245421245421242,4706.896551724139,0.12237049123011434,0.17504807412155482,0.05349338616630721,1294.5054945054944,-1.0,56.76078295513598,0.21239592644573319,
2023-08-21 17:41:53.723000,-5.19277108433735,-1.963855421686747,-8.27710843373494,-1.9325567136725934,-4.760882893930104,-8.004904966278357,3.0,0.212010212010212,4716.753926701571,-0.03193287104481168,0.3886719888118412,-0.08507662723617508,1293.7728937728937,-1.0,56.76078295513598,0.21239562280008836,
2023-08-21 17:41:53.731000,-5.168674698795181,-1.963855421686747,-8.265060240963855,-1.9693439607602696,-4.819742489270386,-7.973022685469037,3.0,0.212010212010212,4716.753926701571,-0.07761785443738635,0.12516753102965963,-0.06852747508886418,1293.7728937728937,-1.0,56.76078295513598,0.21239529353959918,
2023-08-21 17:41:53.739000,-5.168674698795181,-1.963855421686747,-8.265060240963855,-1.9914163090128754,-4.822194972409564,-7.985285101164929,3.0,0.212010212010212,4716.753926701571,0.167356214672804,0.505448400442865,0.16048015849892205,1293.7728937728937,-1.0,56.76078295513598,0.2123949384048056,
2023-08-21 17:41:53.746000,-5.1807228915662655,-1.963855421686747,-8.301204819277109,-1.908031882280809,-4.858982219497241,-7.997547516860821,3.0,0.21245421245421242,4706.896551724139,0.17889400384592938,-0.09474972320960402,-0.26676767088165015,1288.6446886446886,-1.0,56.76078295513598,0.2123945570037838,
2023-08-21 17:41:53.754000,-5.1807228915662655,-1.9759036144578315,-8.265060240963855,-1.9619865113427344,-4.805027590435316,-7.926425505824647,3.0,0.21245421245421242,4706.896551724139,0.007342229473806583,0.22690985373812772,-0.1730668375968767,1285.7142857142856,-1.0,56.76078295513598,0.21239414911045576,
2023-08-21 17:41:53.762000,-5.1807228915662655,-1.9759036144578315,-8.265060240963855,-1.9767014101778049,-4.819742489270386,-7.896995708154506,3.0,0.21245421245421242,4706.896551724139,0.15721694539945213,-0.019812365246780383,-0.1722510343220091,1284.2490842490843,-1.0,56.76078295513598,0.2123937146860541,
2023-08-21 17:41:53.769000,-5.1807228915662655,-1.9879518072289157,-8.25301204819277,-1.9325567136725934,-4.792765174739423,-7.96811771919068,3.0,0.21245421245421242,4706.896551724139,-0.056523512615815036,0.1333255637783338,-0.21758638773964215,1284.9816849816848,-1.0,56.76078295513598,0.21239325374151374,
2023-08-21 17:41:53.777000,-5.168674698795181,-1.9879518072289157,-8.240963855421688,-1.988963825873697,-4.780502759043531,-7.963212752912323,3.0,0.21245421245421242,4706.896551724139,-0.11747567158091053,-0.06642969523920522,0.37993123943826107,1287.179487179487,-1.0,56.76078295513598,0.21239276633866452,
2023-08-21 17:41:53.785000,-5.156626506024097,-1.9759036144578315,-8.27710843373494,-1.9521765787860208,-4.773145309625996,-7.896995708154506,3.0,0.21245421245421242,4706.896551724139,0.1414835965270097,0.19287920284365753,-0.12656605092943313,1288.6446886446886,-1.0,56.76078295513598,0.21239225259146438,
2023-08-21 17:41:53.792000,-5.156626506024097,-1.9879518072289157,-8.25301204819277,-1.9570815450643775,-4.817290006131207,-7.987737584304107,3.0,0.21245421245421242,4706.896551724139,0.27842200337975637,0.19252957286871328,-0.10873492220733044,1291.5750915750914,-1.0,56.76078295513598,0.21239171266726675,
2023-08-21 17:41:53.800000,-5.168674698795181,-1.9879518072289157,-8.25301204819277,-1.9963212752912323,-4.775597792765175,-7.980380134886572,3.0,0.21245421245421242,4706.896551724139,-0.10384010255812663,-0.19078142299399725,-0.183206106870229,1293.7728937728937,-1.0,56.76078295513598,0.21239114678811066,
2023-08-21 17:41:53.808000,-5.156626506024097,-2.0,-8.25301204819277,-1.9963212752912323,-4.797670141017781,-7.941140404659717,3.0,0.212010212010212,4716.753926701571,-0.10477244915797505,-0.18845055649437706,-0.17982635044577824,1296.7032967032967,-1.0,56.76078295513598,0.21239055523202233,
2023-08-21 17:41:53.815000,-5.1807228915662655,-1.9879518072289157,-8.265060240963855,-1.9914163090128754,-4.797670141017781,-7.950950337216431,3.0,0.21245421245421242,4706.896551724139,0.23285356331216078,0.040440533768428356,0.02074471184662881,1295.970695970696,-1.0,56.76078295513598,0.21238993818502303,
2023-08-21 17:41:53.823000,-5.204819277108434,-1.9759036144578315,-8.27710843373494,-1.9816063764561618,-4.817290006131207,-7.9656652360515015,3.0,0.21245421245421242,4706.896551724139,0.03169978439484827,-0.29765165200163085,-0.010022725948371463,1295.2380952380952,1011.1083984375,59.34081854400579,0.2123892958698348,
2023-08-21 17:41:53.831000,-5.204819277108434,-1.9879518072289157,-8.265060240963855,-2.0159411404046597,-4.795217657878601,-7.985285101164929,3.0,0.21245421245421242,4706.896551724139,0.2905425091777877,-0.1287803741040725,0.17539770409649777,1293.040293040293,-1.0,59.34081854400579,0.21238862870608033,
2023-08-21 17:41:53.838000,-5.204819277108434,-1.9879518072289157,-8.265060240963855,-1.9374616799509503,-4.858982219497241,-7.919068056407112,3.0,0.21245421245421242,4706.896551724139,-0.13822038342753934,-0.11491171843132691,0.01969582192179955,1293.040293040293,-1.0,59.34081854400579,0.2123879371725687,
2023-08-21 17:41:53.846000,-5.1807228915662655,-2.0,-8.27710843373494,-1.930104230533415,-4.824647455548742,-7.948497854077253,3.0,0.21245421245421242,4706.896551724139,-0.24380863586038026,-0.407085834158848,-0.31618204067362027,1295.970695970696,-1.0,59.34081854400579,0.2123872218082853,
2023-08-21 17:41:53.854000,-5.168674698795181,-1.9879518072289157,-8.25301204819277,-1.9914163090128754,-4.824647455548742,-7.970570202329858,3.0,0.21245421245421242,4706.896551724139,-0.07202377483829579,-0.5299224986888874,-0.05291066954140216,1298.9010989010987,-1.0,59.34081854400579,0.21238648321331915,
2023-08-21 17:41:53.861000,-5.204819277108434,-1.9879518072289157,-8.240963855421688,-1.9276517473942365,-4.836909871244635,-7.9656652360515015,3.0,0.21245421245421242,4706.896551724139,-0.6508944700192301,-0.4977565409941141,-0.2179360177145855,1301.8315018315018,-1.0,59.34081854400579,0.21238572204972053,
2023-08-21 17:41:53.869000,-5.19277108433735,-1.9759036144578315,-8.289156626506024,-1.942366646229307,-4.807480073574494,-7.963212752912323,3.0,0.21245421245421242,4706.896551724139,-0.03484645416933779,-0.404638424334247,-0.21688712778975583,1303.2967032967033,-1.0,59.34081854400579,0.21238493904226802,
2023-08-21 17:41:53.877000,-5.168674698795181,-1.9879518072289157,-8.289156626506024,-2.035561005518087,-4.775597792765175,-7.943592887798896,3.0,0.212010212010212,4716.753926701571,-0.1574500320494138,-0.4160596701823898,-0.21292465474039957,1300.3663003663003,-1.0,59.34081854400579,0.2123841351178872,
2023-08-21 17:41:53.884000,-5.1807228915662655,-1.9759036144578315,-8.27710843373494,-1.9570815450643775,-4.8295524218271,-7.975475168608216,3.0,0.21245421245421242,4706.896551724139,-0.15523570887477445,0.016898782122254267,-0.38156284598799584,1296.7032967032967,-1.0,59.34081854400579,0.21238331123653034,
2023-08-21 17:41:53.892000,-5.168674698795181,-1.9759036144578315,-8.27710843373494,-2.0036787247087675,-4.802575107296137,-8.009809932556713,3.0,0.21245421245421242,4706.896551724139,0.060602528990151255,-0.4716508361983564,-0.04207214031816311,1292.3076923076922,-1.0,59.34081854400579,0.21238246837102565,
2023-08-21 17:41:53.900000,-5.168674698795181,-1.9759036144578315,-8.265060240963855,-2.006131207847946,-4.760882893930104,-8.007357449417535,3.0,0.21245421245421242,4706.896551724139,0.3643144338907995,-0.30044869180117784,-0.17924363382087274,1287.179487179487,-1.0,59.34081854400579,0.21238160752865176,
2023-08-21 17:41:53.907000,-5.1807228915662655,-1.963855421686747,-8.313253012048193,-1.9448191293684856,-4.832004904966278,-7.995095033721642,3.0,0.212010212010212,4716.753926701571,0.10127614940854301,0.052327952916496244,-0.09941145620884573,1282.7838827838827,-1.0,59.34081854400579,0.2123807296336168,
2023-08-21 17:41:53.915000,-5.1807228915662655,-1.9759036144578315,-8.289156626506024,-1.988963825873697,-4.809932556713672,-7.95340282035561,3.0,0.21245421245421242,4706.896551724139,-0.09847910960899774,-0.07307266476312506,-0.08379465066138327,1279.120879120879,-1.0,59.34081854400579,0.21237983552625045,
2023-08-21 17:41:53.923000,-5.19277108433735,-1.9518072289156627,-8.289156626506024,-1.930104230533415,-4.787860208461066,-7.9362354383813605,3.0,0.21245421245421242,4706.896551724139,0.05547462269098577,-0.13833692675252018,-0.06596352193928101,1275.4578754578754,-1.0,59.34081854400579,0.21237892622820242,
2023-08-21 17:41:53.930000,-5.156626506024097,-1.9518072289156627,-8.25301204819277,-1.9276517473942365,-4.790312691600245,-7.923973022685469,3.0,0.21245421245421242,4706.896551724139,0.05547462269098577,-0.09230231338500125,0.07400501136297435,1273.260073260073,-1.0,59.34081854400579,0.21237800294111525,
2023-08-21 17:41:53.938000,-5.156626506024097,-1.9518072289156627,-8.25301204819277,-1.9325567136725934,-4.809932556713672,-7.9288779889638255,3.0,0.21245421245421242,4706.896551724139,0.13192704387856202,-0.7012411864110486,0.045568440067595146,1273.260073260073,-1.0,59.34081854400579,0.21237706691752323,
2023-08-21 17:41:53.946000,-5.1807228915662655,-1.963855421686747,-8.27710843373494,-1.9570815450643775,-4.787860208461066,-7.931330472103004,3.0,0.21245421245421242,4706.896551724139,0.13111124060369442,-0.2999825185012528,-0.13705495017772837,1272.5274725274724,-1.0,59.34081854400579,0.21237611944916854,
2023-08-21 17:41:53.953000,-5.204819277108434,-1.963855421686747,-8.265060240963855,-1.9644389944819127,-4.900674432863274,-7.946045370938075,3.0,0.21245421245421242,4706.896551724139,0.1165433249810621,-0.2365829497115545,0.1390361867024065,1274.7252747252746,-1.0,59.34081854400579,0.21237516173737878,
2023-08-21 17:41:53.961000,-5.216867469879518,-1.9879518072289157,-8.240963855421688,-1.993868792152054,-4.807480073574494,-8.01471489883507,3.0,0.21245421245421242,4706.896551724139,-0.020278538546705464,-0.3689761668900416,-0.30406153487558985,1276.923076923077,-1.0,59.34081854400579,0.21237419503999716,
2023-08-21 17:41:53.969000,-5.216867469879518,-1.9879518072289157,-8.25301204819277,-1.9791538933169834,-4.883507050889025,-7.977927651747394,3.0,0.21245421245421242,4706.896551724139,0.10314084260823987,0.0640988287395833,0.3991608880601364,1280.5860805860805,-1.0,59.34081854400579,0.21237322066886336,
2023-08-21 17:41:53.976000,-5.228915662650603,-1.9759036144578315,-8.27710843373494,-1.9767014101778049,-4.84426732066217,-7.963212752912323,3.0,0.21245421245421242,4706.896551724139,-0.03507954081929947,0.12481790105471711,-0.07785094108734933,1284.2490842490843,-1.0,59.34081854400579,0.21237224012589717,
2023-08-21 17:41:53.984000,-5.19277108433735,-1.9759036144578315,-8.25301204819277,-2.011036174126303,-4.802575107296137,-7.963212752912323,3.0,0.21245421245421242,4706.896551724139,-0.09591515645941413,-0.2292407202377479,0.013519025697803066,1290.10989010989,-1.0,59.34081854400579,0.2123712550799118,
2023-08-21 17:41:53.992000,-5.204819277108434,-1.9879518072289157,-8.289156626506024,-1.9227467811158798,-4.780502759043531,-7.96811771919068,3.0,0.21245421245421242,4706.896551724139,0.2835499096789236,-0.059320552415360314,-0.21478934794009685,1297.4358974358975,-1.0,59.34081854400579,0.21237026707692988,
2023-08-21 17:41:53.999000,-5.144578313253012,-1.9879518072289157,-8.27710843373494,-1.9693439607602696,-4.78295524218271,-7.955855303494788,3.0,0.21245421245421242,4706.896551724139,-0.05745585921566346,-0.27236175048074074,0.12353592447992531,1309.89010989011,-1.0,59.34081854400579,0.2123692775585986,
2023-08-21 17:41:54.007000,-5.168674698795181,-1.9879518072289157,-8.27710843373494,-1.988963825873697,-4.773145309625996,-7.970570202329858,3.0,0.212010212010212,4716.753926701571,0.1250509877046788,-0.23949653283608235,0.10768603228250118,1323.076923076923,-1.0,59.34081854400579,0.2123682880079023,
2023-08-21 17:41:54.015000,-5.19277108433735,-1.9518072289156627,-8.27710843373494,-1.9031269160024524,-4.770692826486818,-7.9362354383813605,3.0,0.21245421245421242,4706.896551724139,0.36711147369034475,-0.25383136180875304,0.551366470485403,1338.4615384615383,-1.0,59.34081854400579,0.21236729979617874,
2023-08-21 17:41:54.022000,-5.216867469879518,-1.963855421686747,-8.25301204819277,-1.9448191293684856,-4.822194972409564,-7.931330472103004,3.0,0.21245421245421242,4706.896551724139,-0.04918128314200845,0.14532952625138426,0.33657712254530614,1356.7765567765566,-1.0,59.34081854400579,0.21236631430675298,
2023-08-21 17:41:54.030000,-5.228915662650603,-1.9518072289156627,-8.240963855421688,-1.8982219497240955,-4.893316983445739,-7.9288779889638255,3.0,0.212010212010212,4716.753926701571,-0.18670240661966103,0.1596643552240549,0.30511042480041956,1380.952380952381,-1.0,59.34081854400579,0.21236533309000744,
2023-08-21 17:41:54.037000,-5.228915662650603,-1.9518072289156627,-8.240963855421688,-1.9546290619251991,-4.868792152053954,-7.92152053954629,3.0,0.212010212010212,4716.753926701571,0.14929199930073964,-0.007225686148825746,-0.10675368568265231,1380.952380952381,-1.0,59.34081854400579,0.21236435770996803,
2023-08-21 17:41:54.045000,-5.228915662650603,-1.9397590361445785,-8.240963855421688,-2.001226241569589,-4.861434702636419,-7.9141630901287545,3.0,0.21245421245421242,4706.896551724139,-0.0961482431093758,-0.12773148417924324,0.015733348872443296,1444.6886446886447,-1.0,59.34081854400579,0.21236338955913087,
2023-08-21 17:41:54.053000,-5.228915662650603,-1.9759036144578315,-8.25301204819277,-1.993868792152054,-4.893316983445739,-7.92152053954629,3.0,0.21245421245421242,4706.896551724139,-0.004312103024299628,-0.1713186877221611,-0.04731658994231116,1482.051282051282,-1.0,59.34081854400579,0.21236243001300442,
2023-08-21 17:41:54.060000,-5.216867469879518,-1.9759036144578315,-8.228915662650603,-1.908031882280809,-4.885959534028204,-7.938687921520539,3.0,0.21245421245421242,4706.896551724139,0.25791037818308926,-0.44134957170327993,-0.11013344210710352,1520.8791208791208,-1.0,59.34081854400579,0.21236148059499324,
2023-08-21 17:41:54.068000,-5.204819277108434,-1.963855421686747,-8.27710843373494,-1.988963825873697,-4.787860208461066,-7.96811771919068,3.0,0.21245421245421242,4706.896551724139,-0.15441990559990684,-0.20744711846628985,-0.16782238797272864,1559.7069597069597,-1.0,59.34081854400579,0.21236054283287217,
2023-08-21 17:41:54.076000,-5.19277108433735,-1.963855421686747,-8.25301204819277,-2.0159411404046597,-4.849172286940527,-7.933782955242182,3.0,0.21245421245421242,4706.896551724139,0.2271429403880894,-0.3097721577996621,-0.21409008799021054,1597.8021978021977,-1.0,59.34081854400579,0.21235961825404565,
2023-08-21 17:41:54.083000,-5.204819277108434,-1.9759036144578315,-8.25301204819277,-1.9619865113427344,-4.819742489270386,-7.992642550582464,3.0,0.21245421245421242,4706.896551724139,-0.15407027562496434,-0.7802575607482084,0.13787075345259597,1633.6996336996335,-1.0,59.34081854400579,0.21235870838086246,
2023-08-21 17:41:54.091000,-5.204819277108434,-1.9518072289156627,-8.25301204819277,-1.9521765787860208,-4.778050275904353,-7.977927651747394,3.0,0.21245421245421242,4706.896551724139,-0.15197249577530408,-0.7747800244740987,0.13822038342753934,1665.9340659340658,-1.0,59.34081854400579,0.21235781472600795,
2023-08-21 17:41:54.099000,-5.168674698795181,-1.9397590361445785,-8.265060240963855,-1.9742489270386265,-4.827099938687922,-7.980380134886572,3.0,0.21245421245421242,4706.896551724139,-0.10442281918303081,-0.6472816269448172,0.15313792902511505,1695.970695970696,-1.0,59.34081854400579,0.21235693878799103,
2023-08-21 17:41:54.106000,-5.1807228915662655,-1.963855421686747,-8.25301204819277,-1.9570815450643775,-4.822194972409564,-7.958307786633966,3.0,0.21245421245421242,4706.896551724139,-0.16455917487325872,-0.44309772157799593,0.10850183555736834,1718.6813186813185,-1.0,59.34081854400579,0.2123560820467471,
2023-08-21 17:41:54.114000,-5.216867469879518,-1.9759036144578315,-8.265060240963855,-1.942366646229307,-4.807480073574494,-7.931330472103004,3.0,0.21245421245421242,4706.896551724139,0.02167705844647724,-0.5893595944292286,0.4294621525552125,1736.9963369963368,-1.0,59.34081854400579,0.21235524595937258,
2023-08-21 17:41:54.122000,-5.204819277108434,-1.963855421686747,-8.27710843373494,-1.9840588595953401,-4.785407725321888,-7.9656652360515015,3.0,0.21245421245421242,4706.896551724139,0.1434648330516874,-0.7527533360526772,0.06036944234019001,1744.3223443223442,-1.0,59.34081854400579,0.21235443195600964,
2023-08-21 17:41:54.129000,-5.204819277108434,-1.9879518072289157,-8.240963855421688,-1.993868792152054,-4.827099938687922,-7.8847332924586135,3.0,0.21245421245421242,4706.896551724139,0.25021851873434015,-0.5618553697336991,0.2426432026105706,1745.7875457875457,-1.0,59.34081854400579,0.21235364143589594,
2023-08-21 17:41:54.137000,-5.204819277108434,-1.9879518072289157,-8.240963855421688,-1.9104843654199877,-4.89086450030656,-7.86020846106683,3.0,0.21245421245421242,4706.896551724139,-0.009440009323466846,-0.6012470135772965,0.10617096905774727,1745.7875457875457,-1.0,59.34081854400579,0.21235287576359407,
2023-08-21 17:41:54.145000,-5.228915662650603,-1.9879518072289157,-8.25301204819277,-2.006131207847946,-4.854077253218884,-7.916615573267934,3.0,0.21245421245421242,4706.896551724139,-0.04195559699318271,-0.4591807004253826,-0.09230231338500082,1739.9267399267399,-1.0,59.34081854400579,0.21235213626541527,
2023-08-21 17:41:54.152000,-5.19277108433735,-1.9759036144578315,-8.265060240963855,-1.9350091968117717,-4.851624770079705,-7.977927651747394,3.0,0.21245421245421242,4706.896551724139,0.11188159198181996,-0.38039741273818617,-0.16770584464774782,1731.135531135531,-1.0,59.34081854400579,0.2123514242260482,
2023-08-21 17:41:54.160000,-5.1807228915662655,-1.9759036144578315,-8.265060240963855,-1.908031882280809,-4.822194972409564,-7.901900674432863,3.0,0.21245421245421242,4706.896551724139,0.03531262746926114,-0.4821397354466525,-0.1661907814229939,1720.8791208791208,-1.0,59.34081854400579,0.21235074088540434,
2023-08-21 17:41:54.168000,-5.204819277108434,-1.9759036144578315,-8.228915662650603,-1.9791538933169834,-4.863887185775598,-7.990190067443286,3.0,0.21245421245421242,4706.896551724139,-0.13449099702814563,-0.2473049356098123,-0.34718256511858264,1708.4249084249084,-1.0,59.34081854400579,0.21235008743569092,
2023-08-21 17:41:54.175000,-5.204819277108434,-1.9879518072289157,-8.265060240963855,-2.0159411404046597,-4.792765174739423,-7.977927651747394,3.0,0.21245421245421242,4706.896551724139,-0.011421245848144537,-0.07470427131286024,-0.0849600839111938,1693.7728937728937,-1.0,59.34081854400579,0.21234946501871596,
2023-08-21 17:41:54.183000,-5.19277108433735,-1.9879518072289157,-8.289156626506024,-2.018393623543838,-4.797670141017781,-7.916615573267934,3.0,0.212010212010212,4716.753926701571,0.03239904434473502,-0.0737719247130118,-0.22248120738884683,1677.6556776556774,-1.0,59.34081854400579,0.21234887472343622,
2023-08-21 17:41:54.191000,-5.216867469879518,-1.9879518072289157,-8.265060240963855,-1.9546290619251991,-4.839362354383813,-7.970570202329858,3.0,0.21245421245421242,4706.896551724139,0.10512207913291756,-0.3482314550434128,-0.03764349396888308,1663.003663003663,-1.0,59.34081854400579,0.2123483175732072,
2023-08-21 17:41:54.198000,-5.1807228915662655,-1.9879518072289157,-8.25301204819277,-1.9448191293684856,-4.797670141017781,-7.9656652360515015,3.0,0.21245421245421242,4706.896551724139,0.04102325039333428,-0.1786609171959677,0.03927510051861782,1649.084249084249,-1.0,59.34081854400579,0.2123477946308645,
2023-08-21 17:41:54.206000,-5.19277108433735,-1.9759036144578315,-8.240963855421688,-1.9276517473942365,-4.861434702636419,-7.933782955242182,3.0,0.21245421245421242,4706.896551724139,-0.08099761086183756,-0.43622166540411444,0.20802983509119533,1637.3626373626373,-1.0,59.34081854400579,0.21234730686921613,
2023-08-21 17:41:54.214000,-5.168674698795181,-1.9879518072289157,-8.216867469879519,-2.060085836909871,-4.885959534028204,-7.96811771919068,3.0,0.21245421245421242,4706.896551724139,0.04440300681778374,-0.23576714643668864,-0.19101450964396022,1625.6410256410256,-1.0,59.34081854400579,0.21234685505214126,
2023-08-21 17:41:54.221000,-5.19277108433735,-1.9759036144578315,-8.228915662650603,-1.9717964438994482,-4.827099938687922,-7.990190067443286,3.0,0.21245421245421242,4706.896551724139,0.16782238797272908,-0.41897325330691765,0.28483188625371497,1616.8498168498168,-1.0,59.34081854400579,0.21234643988211604,
2023-08-21 17:41:54.229000,-5.216867469879518,-1.963855421686747,-8.228915662650603,-2.006131207847946,-4.873697118332311,-7.958307786633966,3.0,0.21245421245421242,4706.896551724139,-0.18530388671988754,-0.29648621875182074,-0.100460346133675,1610.2564102564102,-1.0,59.34081854400579,0.21234606199871212,
2023-08-21 17:41:54.237000,-5.216867469879518,-1.963855421686747,-8.228915662650603,-1.9742489270386265,-4.802575107296137,-7.958307786633966,3.0,0.21245421245421242,4706.896551724139,-0.15325447235009676,-0.3701416001398517,0.20465007866674456,1610.2564102564102,-1.0,59.34081854400579,0.21234572197736043,
2023-08-21 17:41:54.244000,-5.204819277108434,-1.963855421686747,-8.265060240963855,-1.9619865113427344,-4.800122624156959,-7.950950337216431,3.0,0.21245421245421242,4706.896551724139,-0.014101742322708983,-0.6381912475962945,0.06503117533943259,1600.0,-1.0,59.34081854400579,0.2123454203283891,
2023-08-21 17:41:54.252000,-5.204819277108434,-1.9759036144578315,-8.25301204819277,-1.9816063764561618,-4.878602084610668,-7.919068056407112,3.0,0.21245421245421242,4706.896551724139,0.033447934269564286,-0.4756133092477135,-0.10430627585805041,1592.6739926739926,-1.0,59.34081854400579,0.21234515749632843,
2023-08-21 17:41:54.260000,-5.204819277108434,-1.9759036144578315,-8.216867469879519,-1.9816063764561618,-4.861434702636419,-7.96811771919068,3.0,0.21245421245421242,4706.896551724139,-0.22725948371307023,-0.06841093176388291,-0.07237340481323917,1585.3479853479853,-1.0,59.34081854400579,0.21234493385948813,
2023-08-21 17:41:54.267000,-5.19277108433735,-1.9879518072289157,-8.240963855421688,-1.9816063764561618,-4.876149601471489,-7.911710606989576,3.0,0.21245421245421242,4706.896551724139,0.2180525610395668,-3.496299749425094E-4,0.04859856651710253,1578.7545787545787,-1.0,59.34081854400579,0.2123447497298002,
2023-08-21 17:41:54.275000,-5.204819277108434,-1.9759036144578315,-8.25301204819277,-1.9619865113427344,-4.854077253218884,-7.975475168608216,3.0,0.21245421245421242,4706.896551724139,0.11036652875706562,-0.1922964862187516,-0.3351786026455335,1572.161172161172,-1.0,59.34081854400579,0.21234460535292507,
2023-08-21 17:41:54.283000,-5.216867469879518,-1.9879518072289157,-8.265060240963855,-1.9742489270386265,-4.827099938687922,-7.985285101164929,3.0,0.21245421245421242,4706.896551724139,0.11071615873200813,-0.11036652875706562,-0.31886253714818474,1561.9047619047617,-1.0,59.34081854400579,0.21234450090861626,
2023-08-21 17:41:54.290000,-5.19277108433735,-1.9879518072289157,-8.265060240963855,-2.0208461066830163,-4.819742489270386,-7.980380134886572,3.0,0.212010212010212,4716.753926701571,-0.13169395722860036,-0.12656605092943313,0.00396247304935625,1548.7179487179485,-1.0,59.34081854400579,0.212344436511335,
2023-08-21 17:41:54.298000,-5.216867469879518,-2.0,-8.289156626506024,-2.07725321888412,-4.770692826486818,-7.990190067443286,3.0,0.21245421245421242,4706.896551724139,-0.0071091428238449095,-0.1883340131693962,-0.43855253190373505,1533.3333333333333,-1.0,59.34081854400579,0.21234441206181537,
2023-08-21 17:41:54.306000,-5.216867469879518,-2.0,-8.289156626506024,-1.9497240956468422,-4.822194972409564,-7.982832618025751,3.0,0.21245421245421242,4706.896551724139,0.23728220966144126,-0.23751529631140295,0.1139793718314785,1515.7509157509157,-1.0,59.34081854400579,0.21234442751432364,
2023-08-21 17:41:54.313000,-5.19277108433735,-2.0,-8.289156626506024,-2.0551808706315144,-4.834457388105457,-7.9656652360515015,3.0,0.21245421245421242,4706.896551724139,-0.19299574616863835,0.0045451896742613,-0.006526426198939426,1498.9010989010987,-1.0,59.34081854400579,0.21234448287778288,
2023-08-21 17:41:54.321000,-5.19277108433735,-1.9879518072289157,-8.289156626506024,-2.0159411404046597,-4.863887185775598,-7.960760269773145,3.0,0.21245421245421242,4706.896551724139,-0.14649495950119434,-0.19252957286871328,0.21082687489074062,1478.3882783882782,-1.0,59.34081854400579,0.21234457795075282,
2023-08-21 17:41:54.329000,-5.204819277108434,-1.9879518072289157,-8.25301204819277,-2.001226241569589,-4.824647455548742,-7.938687921520539,3.0,0.21245421245421242,4706.896551724139,0.03810966726880642,0.16432608822329706,0.014451372297651493,1459.3406593406592,-1.0,59.34081854400579,0.21234471261082724,
2023-08-21 17:41:54.336000,-5.204819277108434,-1.9879518072289157,-8.25301204819277,-1.9448191293684856,-4.866339668914776,-7.8994481912936845,3.0,0.21245421245421242,4706.896551724139,0.15954781189907408,0.2771400268049654,0.24532369908513504,1459.3406593406592,-1.0,59.34081854400579,0.21234488665705567,
2023-08-21 17:41:54.344000,-5.228915662650603,-1.9879518072289157,-8.228915662650603,-1.9619865113427344,-4.856529736358063,-7.946045370938075,3.0,0.212010212010212,4716.753926701571,0.19078142299399725,0.06654623856418607,0.0476662199172541,1424.1758241758241,-1.0,59.34081854400579,0.2123450998228175,
2023-08-21 17:41:54.352000,-5.216867469879518,-1.9879518072289157,-8.228915662650603,-1.9791538933169834,-4.863887185775598,-7.923973022685469,3.0,0.21245421245421242,4706.896551724139,0.005827166249052237,0.39065322533651886,-0.15337101567507716,1413.1868131868132,-1.0,59.34081854400579,0.2123453516184106,
2023-08-21 17:41:54.359000,-5.216867469879518,-1.9879518072289157,-8.25301204819277,-2.0159411404046597,-4.866339668914776,-7.948497854077253,3.0,0.212010212010212,4716.753926701571,-0.00967309597342852,0.20558242526659298,-0.0023308664996210685,1407.3260073260071,-1.0,59.34081854400579,0.2123456413327377,
2023-08-21 17:41:54.367000,-5.216867469879518,-1.963855421686747,-8.240963855421688,-1.942366646229307,-4.84426732066217,-7.946045370938075,3.0,0.21245421245421242,4706.896551724139,-0.009789639298409356,0.20092069226735085,-0.006293339548977319,1405.8608058608058,-1.0,59.34081854400579,0.2123459681940852,
2023-08-21 17:41:54.375000,-5.228915662650603,-1.963855421686747,-8.265060240963855,-1.9791538933169834,-4.805027590435316,-7.9288779889638255,3.0,0.21245421245421242,4706.896551724139,-0.05209486626653457,0.28995979255288173,-0.1448633529514596,1405.128205128205,-1.0,59.34081854400579,0.21234633136059192,
2023-08-21 17:41:54.382000,-5.240963855421687,-1.9759036144578315,-8.265060240963855,-1.9251992642550582,-4.832004904966278,-7.958307786633966,3.0,0.21245421245421242,4706.896551724139,-0.38948779208670875,0.14940854262572048,-0.0071091428238449095,1405.128205128205,-1.0,59.34081854400579,0.21234673008113256,
2023-08-21 17:41:54.390000,-5.240963855421687,-1.9759036144578315,-8.289156626506024,-1.9914163090128754,-4.866339668914776,-7.96811771919068,3.0,0.21245421245421242,4706.896551724139,-0.049297826466989284,-0.23355282326204754,-0.13029543732882684,1405.128205128205,-1.0,59.34081854400579,0.2123471635584669,
2023-08-21 17:41:54.398000,-5.228915662650603,-1.9759036144578315,-8.25301204819277,-1.9619865113427344,-4.912936848559166,-7.926425505824647,3.0,0.21245421245421242,4706.896551724139,0.3469494784686201,-0.1381038401025585,0.10092651943359965,1404.3956043956043,-1.0,59.34081854400579,0.21234763095127637,
2023-08-21 17:41:54.405000,-5.228915662650603,-1.9879518072289157,-8.240963855421688,-2.035561005518087,-4.805027590435316,-7.970570202329858,3.0,0.21245421245421242,4706.896551724139,0.05291066954140216,-0.08997144688537932,0.16304411164850524,1404.3956043956043,-1.0,59.34081854400579,0.2123481313763328,
2023-08-21 17:41:54.413000,-5.228915662650603,-1.9879518072289157,-8.265060240963855,-1.9570815450643775,-4.873697118332311,-7.992642550582464,3.0,0.21245421245421242,4706.896551724139,-0.008973836023541765,-0.2396130761610632,0.3164151273235824,1402.9304029304028,-1.0,59.34081854400579,0.2123486639107934,
2023-08-21 17:41:54.420000,-5.240963855421687,-1.9759036144578315,-8.25301204819277,-2.028203556100552,-4.841814837522992,-7.95340282035561,3.0,0.21245421245421242,4706.896551724139,-0.14451372297651666,-0.03484645416933779,-0.0050113629741855145,1402.9304029304028,-1.0,59.34081854400579,0.212349227594612,
2023-08-21 17:41:54.428000,-5.253012048192772,-2.0120481927710845,-8.240963855421688,-1.9987737584304106,-4.84426732066217,-7.9656652360515015,3.0,0.21245421245421242,4706.896551724139,-0.23495134316182106,0.07307266476312506,0.2095448983159488,1399.2673992673992,-1.0,59.34081854400579,0.21234982143306128,
2023-08-21 17:41:54.436000,-5.253012048192772,-2.0120481927710845,-8.240963855421688,-2.008583690987124,-4.876149601471489,-7.8773758430410785,3.0,0.21245421245421242,4706.896551724139,-0.3868072956121443,0.05768894586562513,0.31408426082396135,1399.2673992673992,-1.0,59.34081854400579,0.21235044439935566,
2023-08-21 17:41:54.443000,-5.240963855421687,-2.0120481927710845,-8.228915662650603,-2.0502759043531573,-4.854077253218884,-7.987737584304107,3.0,0.21245421245421242,4706.896551724139,-0.36909271021502243,0.22644368043820265,0.3575549210418975,1391.2087912087911,-1.0,59.34081854400579,0.21235109543736616,
2023-08-21 17:41:54.451000,-5.216867469879518,-2.0,-8.216867469879519,-2.0748007357449416,-4.846719803801348,-7.9656652360515015,3.0,0.21245421245421242,4706.896551724139,-0.2870462094283556,-0.446594021327428,0.8600897383602355,1386.080586080586,-1.0,59.34081854400579,0.21235177346441922,
2023-08-21 17:41:54.459000,-5.265060240963856,-2.0120481927710845,-8.265060240963855,-2.0159411404046597,-4.917841814837523,-7.92152053954629,3.0,0.21245421245421242,4706.896551724139,-0.2098945282908926,-0.35067886486801386,0.6268865450731308,1380.952380952381,-1.0,59.34081854400579,0.2123524773741677,
2023-08-21 17:41:54.466000,-5.27710843373494,-2.0,-8.25301204819277,-2.047823421213979,-4.888412017167382,-7.896995708154506,3.0,0.21245421245421242,4706.896551724139,-0.3301672396713484,-0.806013635569022,1.0036711147369033,1375.8241758241757,-1.0,59.34081854400579,0.21235320603952496,
2023-08-21 17:41:54.474000,-5.27710843373494,-1.963855421686747,-8.25301204819277,-1.9767014101778049,-4.895769466584917,-7.923973022685469,3.0,0.21245421245421242,4706.896551724139,-0.29648621875182074,-0.766971621700367,0.9527416817201797,1367.032967032967,-1.0,59.34081854400579,0.21235395831565232,
2023-08-21 17:41:54.482000,-5.265060240963856,-1.9759036144578315,-8.265060240963855,-1.9104843654199877,-4.885959534028204,-7.95340282035561,3.0,0.21245421245421242,4706.896551724139,-0.1574500320494138,-1.0208029835091201,1.0062350678864869,1359.7069597069597,-1.0,59.34081854400579,0.212354733042988,
2023-08-21 17:41:54.489000,-5.240963855421687,-1.9518072289156627,-8.240963855421688,-1.9619865113427344,-4.917841814837523,-7.96811771919068,3.0,0.212010212010212,4716.753926701571,0.16351028494842945,-1.501078025756074,0.6168638191247598,1353.113553113553,-1.0,59.34081854400579,0.21235552905030772,
2023-08-21 17:41:54.497000,-5.204819277108434,-1.9759036144578315,-8.25301204819277,-1.883507050889025,-4.814837522992029,-7.909258123850398,3.0,0.212010212010212,4716.753926701571,0.45277081755142445,-1.7490822213157748,0.1829730202202669,1347.985347985348,-1.0,59.34081854400579,0.21235634514726084,
2023-08-21 17:41:54.505000,-5.144578313253012,-1.963855421686747,-8.240963855421688,-1.947271612507664,-4.800122624156959,-7.904353157572041,3.0,0.212010212010212,4716.753926701571,0.7848027504224697,-2.391702115261348,0.05640696929083376,1342.1245421245421,-1.0,59.34081854400579,0.21235717994645545,
2023-08-21 17:41:54.512000,-5.1084337349397595,-1.9879518072289157,-8.204819277108435,-1.908031882280809,-4.731453096259963,-7.867565910484365,3.0,0.21245421245421242,4706.896551724139,1.131052968941203,-3.134665812015616,0.2857642328535634,1333.3333333333333,-1.0,59.34081854400579,0.21235803201474504,
2023-08-21 17:41:54.520000,-5.048192771084338,-1.9759036144578315,-8.156626506024097,-1.9153893316983446,-4.7363580625383195,-7.825873697118332,3.0,0.21245421245421242,4706.896551724139,1.4901229532078546,-2.924771283724725,0.4058038575840567,1327.4725274725274,-1.0,59.34081854400579,0.21235890001369162,
2023-08-21 17:41:54.528000,-5.0843373493975905,-1.9518072289156627,-8.19277108433735,-1.9693439607602696,-4.726548129981606,-7.919068056407112,3.0,0.21245421245421242,4706.896551724139,1.1442223646640637,-2.257910378183089,0.5992657770526196,1322.3443223443223,-1.0,59.34081854400579,0.21235978259463575,
2023-08-21 17:41:54.535000,-5.0843373493975905,-1.9518072289156627,-8.19277108433735,-2.040465971796444,-4.785407725321888,-7.958307786633966,3.0,0.21245421245421242,4706.896551724139,0.9209253540003488,-1.1375793951401438,0.7012411864110482,1322.3443223443223,-1.0,59.34081854400579,0.21236067841133976,
2023-08-21 17:41:54.543000,-5.132530120481928,-1.9879518072289157,-8.216867469879519,-1.9668914776210913,-4.809932556713672,-7.901900674432863,3.0,0.212010212010212,4716.753926701571,0.3175805605733938,-0.6821280811141549,0.7718664413495717,1309.1575091575091,-1.0,59.34081854400579,0.21236158612207975,
2023-08-21 17:41:54.551000,-5.19277108433735,-2.0,-8.265060240963855,-1.988963825873697,-4.876149601471489,-7.955855303494788,3.0,0.21245421245421242,4706.896551724139,-0.05197832294155373,0.015267175572519083,1.1321018588660337,1304.7619047619046,-1.0,59.34081854400579,0.21236250424243677,
2023-08-21 17:41:54.558000,-5.240963855421687,-2.0120481927710845,-8.265060240963855,-2.0968730839975476,-4.908031882280809,-7.96811771919068,3.0,0.21245421245421242,4706.896551724139,-0.7243167647572993,0.39951051803507975,1.3344210710331568,1303.2967032967033,-1.0,59.34081854400579,0.21236343127479337,
2023-08-21 17:41:54.566000,-5.301204819277109,-2.036144578313253,-8.265060240963855,-2.0036787247087675,-5.0110361741263025,-7.980380134886572,3.0,0.21245421245421242,4706.896551724139,-0.9350270963230578,0.8422586096381331,1.5962939222656023,1301.098901098901,-1.0,59.34081854400579,0.21236436586934287,
2023-08-21 17:41:54.574000,-5.36144578313253,-2.0120481927710845,-8.25301204819277,-2.001226241569589,-5.0478234212139785,-7.995095033721642,3.0,0.21245421245421242,4706.896551724139,-0.7300273876813708,0.9597342812190437,1.4592389720878733,1298.9010989010987,-1.0,59.34081854400579,0.21236530668722067,
2023-08-21 17:41:54.581000,-5.409638554216868,-1.9759036144578315,-8.216867469879519,-1.9963212752912323,-5.008583690987124,-7.955855303494788,3.0,0.21245421245421242,4706.896551724139,-1.1206806130178895,1.379756424450789,1.3853505040498804,1298.168498168498,-1.0,59.34081854400579,0.212366252402386,
2023-08-21 17:41:54.589000,-5.433734939759036,-1.9759036144578315,-8.228915662650603,-2.0036787247087675,-5.096873083997547,-7.943592887798896,3.0,0.21245421245421242,4706.896551724139,-1.5846395897674952,1.3576131927043884,1.3747450614766035,1295.970695970696,-1.0,59.34081854400579,0.21236720184225805,
2023-08-21 17:41:54.597000,-5.409638554216868,-1.9397590361445785,-8.289156626506024,-1.9570815450643775,-5.023298589822195,-7.987737584304107,3.0,0.21245421245421242,4706.896551724139,-1.9099120097896398,1.2284831886253715,1.0272128663830773,1293.7728937728937,-1.0,59.34081854400579,0.21236815383047647,
2023-08-21 17:41:54.604000,-5.397590361445784,-1.963855421686747,-8.373493975903616,-1.9325567136725934,-4.993868792152053,-7.997547516860821,3.0,0.21245421245421242,4706.896551724139,-1.8206398228541454,1.3893129770992365,0.6687255987413319,1292.3076923076922,-1.0,59.34081854400579,0.21236910706118542,
2023-08-21 17:41:54.612000,-5.337349397590362,-1.8915662650602412,-8.337349397590362,-1.8908645003065603,-4.920294297976701,-8.01471489883507,3.0,0.21245421245421242,4706.896551724139,-0.9505273585455386,1.7183147835207733,0.21980071091428238,1290.10989010989,-1.0,59.34081854400579,0.2123700602500328,
2023-08-21 17:41:54.620000,-5.253012048192772,-1.8795180722891567,-8.289156626506024,-1.8957694665849172,-4.898221949724095,-7.941140404659717,3.0,0.21245421245421242,4706.896551724139,-0.9139327545014865,0.686323640813472,-0.11735912825592883,1292.3076923076922,-1.0,59.34081854400579,0.21237101213588255,
2023-08-21 17:41:54.627000,-5.240963855421687,-1.8674698795180724,-8.27710843373494,-1.8442673206621703,-4.871244635193133,-7.896995708154506,3.0,0.21245421245421242,4706.896551724139,-0.0981294796340535,-0.5225802692150808,0.38715692558708725,1292.3076923076922,-1.0,59.34081854400579,0.21237196148253631,
2023-08-21 17:41:54.635000,-5.240963855421687,-1.8674698795180724,-8.27710843373494,-1.9153893316983446,-4.881054567749846,-7.933782955242182,3.0,0.21245421245421242,4706.896551724139,-0.05127906299166698,-1.3715983917021148,0.323407726822446,1292.3076923076922,-1.0,59.34081854400579,0.21237290708046566,
2023-08-21 17:41:54.643000,-5.228915662650603,-1.9036144578313254,-8.216867469879519,-1.9055793991416308,-4.851624770079705,-7.911710606989576,3.0,0.212010212010212,4716.753926701571,-0.05046325971679939,-1.3587786259541985,0.318396363848261,1298.168498168498,-1.0,59.34081854400579,0.2123738477485547,
2023-08-21 17:41:54.650000,-5.204819277108434,-1.8915662650602412,-8.25301204819277,-1.8467198038013488,-4.824647455548742,-7.973022685469037,3.0,0.21245421245421242,4706.896551724139,-0.2797039799545473,-0.8133558650428302,0.1769127673212517,1300.3663003663003,-1.0,59.34081854400579,0.21237478232531065,
2023-08-21 17:41:54.658000,-5.132530120481928,-1.8915662650602412,-8.19277108433735,-1.8859595340282034,-4.721643163703249,-7.941140404659717,3.0,0.21245421245421242,4706.896551724139,-0.643901870520366,-0.2534817318338088,0.174698444146611,1302.5641025641025,-1.0,59.34081854400579,0.21237570963891858,
2023-08-21 17:41:54.666000,-5.120481927710844,-1.9156626506024097,-8.216867469879519,-1.9153893316983446,-4.758430410790925,-7.887185775597793,3.0,0.21245421245421242,4706.896551724139,-0.5941378707534534,0.2847153429287337,0.3876230988870106,1304.0293040293038,-1.0,59.34081854400579,0.21237662854034192,
2023-08-21 17:41:54.673000,-5.1084337349397595,-1.9036144578313254,-8.228915662650603,-1.9006744328632739,-4.814837522992029,-7.95340282035561,3.0,0.21245421245421242,4706.896551724139,-0.3609346774663483,0.3448516986189616,0.3519608414428065,1301.8315018315018,-1.0,59.34081854400579,0.21237753791526914,
2023-08-21 17:41:54.681000,-5.144578313253012,-1.9156626506024097,-8.25301204819277,-1.9399141630901287,-4.802575107296137,-7.943592887798896,3.0,0.21245421245421242,4706.896551724139,-0.1744653574966489,0.3301672396713484,0.7417982635044575,1298.168498168498,-1.0,59.34081854400579,0.21237843668553164,
2023-08-21 17:41:54.689000,-5.204819277108434,-1.9156626506024097,-8.240963855421688,-1.917841814837523,-4.760882893930104,-7.950950337216431,3.0,0.21245421245421242,4706.896551724139,-0.20255229881708603,-0.2200337975642445,0.6878387040382259,1292.3076923076922,-1.0,59.34081854400579,0.21237932381053767,
2023-08-21 17:41:54.696000,-5.216867469879518,-1.9397590361445785,-8.265060240963855,-1.908031882280809,-4.854077253218884,-7.9068056407112195,3.0,0.21245421245421242,4706.896551724139,-0.4756133092477135,-0.5997319503525439,0.6383077909212748,1288.6446886446886,-1.0,59.34081854400579,0.2123801982887242,
2023-08-21 17:41:54.704000,-5.216867469879518,-1.9518072289156627,-8.25301204819277,-1.9619865113427344,-4.8295524218271,-7.96811771919068,3.0,0.21245421245421242,4706.896551724139,-0.6420371773206691,-0.565468212808112,0.41524386690752285,1287.179487179487,-1.0,59.34081854400579,0.21238105915902478,
2023-08-21 17:41:54.712000,-5.19277108433735,-1.963855421686747,-8.25301204819277,-1.9693439607602696,-4.849172286940527,-7.941140404659717,3.0,0.21245421245421242,4706.896551724139,-0.5615057397587548,-1.124643086067245,0.2901928792028434,1287.179487179487,-1.0,59.34081854400579,0.21238190550235442,
2023-08-21 17:41:54.719000,-5.19277108433735,-1.963855421686747,-8.265060240963855,-1.9816063764561618,-4.814837522992029,-7.943592887798896,3.0,0.21245421245421242,4706.896551724139,-0.6642969523920522,-1.2056406969290825,-0.07785094108734933,1287.179487179487,-1.0,59.34081854400579,0.21238273644310735,
2023-08-21 17:41:54.727000,-5.216867469879518,-1.963855421686747,-8.25301204819277,-1.9693439607602696,-4.873697118332311,-7.948497854077253,3.0,0.212010212010212,4716.753926701571,-0.3982285414602871,-1.222889109026281,0.5478701707359708,1286.4468864468863,-1.0,59.34081854400579,0.212383551150666,
2023-08-21 17:41:54.735000,-5.216867469879518,-1.963855421686747,-8.25301204819277,-1.988963825873697,-4.849172286940527,-7.901900674432863,3.0,0.212010212010212,4716.753926701571,-0.3337800827457613,-1.6962880950993535,0.7097488491346661,1286.4468864468863,-1.0,59.34081854400579,0.21238434869162517,
2023-08-21 17:41:54.742000,-5.27710843373494,-1.9759036144578315,-8.204819277108435,-1.9791538933169834,-4.854077253218884,-7.8405885959534025,3.0,0.21245421245421242,4706.896551724139,-0.2548802517335823,-1.5267175572519083,0.3971796515354587,1290.10989010989,-1.0,59.34081854400579,0.21238512800943493,
2023-08-21 17:41:54.750000,-5.289156626506024,-2.0,-8.216867469879519,-1.9767014101778049,-4.947271612507664,-7.8700183936235435,3.0,0.21245421245421242,4706.896551724139,-0.0983625662840169,-1.324864518384709,0.6383077909212745,1291.5750915750914,-1.0,59.34081854400579,0.21238588821227486,
2023-08-21 17:41:54.758000,-5.301204819277109,-2.0,-8.180722891566266,-1.9717964438994482,-4.878602084610668,-7.867565910484365,3.0,0.21245421245421242,4706.896551724139,-0.5383136180875233,-0.9610162577938347,0.44682710797739006,1290.10989010989,-1.0,59.34081854400579,0.21238662859456778,
2023-08-21 17:41:54.765000,-5.301204819277109,-2.0120481927710845,-8.132530120481928,-1.9840588595953401,-4.898221949724095,-7.8700183936235435,3.0,0.21245421245421242,4706.896551724139,-0.5639531495833576,-0.49053085484528836,-0.03263213099469756,1289.3772893772893,-1.0,59.34081854400579,0.21238734849936575,
2023-08-21 17:41:54.773000,-5.27710843373494,-2.0,-8.156626506024097,-2.0036787247087675,-4.834457388105457,-7.823421213979153,3.0,0.21245421245421242,4706.896551724139,-0.5423926344618613,0.06619660858924355,0.056406969290833976,1288.6446886446886,-1.0,59.34081854400579,0.21238804731948135,
2023-08-21 17:41:54.781000,-5.240963855421687,-2.0120481927710845,-8.180722891566266,-2.07725321888412,-4.868792152053954,-7.92152053954629,3.0,0.21245421245421242,4706.896551724139,-0.4767787424975236,0.055008449391060685,-0.4204883165316709,1287.9120879120878,-1.0,59.34081854400579,0.212388724498616,
2023-08-21 17:41:54.788000,-5.216867469879518,-2.0120481927710845,-8.19277108433735,-1.9840588595953401,-4.876149601471489,-7.916615573267934,3.0,0.21245421245421242,4706.896551724139,-0.4884330749956298,-0.0033797564244512,-0.18693549326962314,1288.6446886446886,-1.0,59.34081854400579,0.2123893795324748,
2023-08-21 17:41:54.796000,-5.19277108433735,-2.0,-8.204819277108435,-2.082158185162477,-4.863887185775598,-7.948497854077253,3.0,0.212010212010212,4716.753926701571,-0.7575316123769019,0.184954256744945,-0.3253889633471246,1286.4468864468863,-1.0,59.34081854400579,0.21239001210861758,
2023-08-21 17:41:54.803000,-5.228915662650603,-2.0120481927710845,-8.228915662650603,-1.9693439607602696,-4.893316983445739,-7.95340282035561,3.0,0.212010212010212,4716.753926701571,-0.13798729677757768,0.3260882232970105,0.1327428471534294,1283.5164835164835,-1.0,59.34081854400579,0.21239062193786393,
2023-08-21 17:41:54.811000,-5.216867469879518,-1.9879518072289157,-8.25301204819277,-2.028203556100552,-4.885959534028204,-7.889638258736971,3.0,0.212010212010212,4716.753926701571,-0.319911427073014,-0.14742730610104277,0.3577880076918596,1282.051282051282,-1.0,59.34081854400579,0.21239120858547503,
2023-08-21 17:41:54.819000,-5.240963855421687,-2.0120481927710845,-8.228915662650603,-1.9963212752912323,-4.868792152053954,-7.95340282035561,3.0,0.21245421245421242,4706.896551724139,-0.2561622283083732,0.06969290833867559,0.5658178427830549,1279.120879120879,-1.0,59.34081854400579,0.2123917714715847,
2023-08-21 17:41:54.826000,-5.253012048192772,-2.0,-8.216867469879519,-2.0257510729613735,-4.881054567749846,-7.950950337216431,3.0,0.21245421245421242,4706.896551724139,-0.03764349396888308,-0.2932230056523521,-0.15756657537439508,1275.4578754578754,-1.0,59.34081854400579,0.21239231004087963,
2023-08-21 17:41:54.834000,-5.253012048192772,-2.0,-8.216867469879519,-2.0159411404046597,-4.851624770079705,-7.977927651747394,3.0,0.21245421245421242,4706.896551724139,-0.15814929199930056,0.2906590525027685,0.19299574616863835,1275.4578754578754,-1.0,59.34081854400579,0.21239282393205297,
2023-08-21 17:41:54.842000,-5.228915662650603,-2.0,-8.240963855421688,-1.9963212752912323,-4.871244635193133,-7.8749233599019,3.0,0.21245421245421242,4706.896551724139,-0.12306975118000109,0.13857001340248185,-0.20581551191655467,1272.5274725274724,-1.0,59.34081854400579,0.21239331283881022,
2023-08-21 17:41:54.849000,-5.19277108433735,-1.9759036144578315,-8.204819277108435,-1.988963825873697,-4.883507050889025,-7.896995708154506,3.0,0.212010212010212,4716.753926701571,-0.13728803682769092,-0.08857292698560755,-0.20581551191655467,1269.5970695970695,-1.0,59.34081854400579,0.21239377650960364,
2023-08-21 17:41:54.857000,-5.216867469879518,-1.963855421686747,-8.204819277108435,-1.9914163090128754,-4.854077253218884,-7.909258123850398,3.0,0.21245421245421242,4706.896551724139,-0.198007109142823,0.12656605092943313,0.1580327486743197,1267.3992673992673,-1.0,59.34081854400579,0.21239421459805563,
2023-08-21 17:41:54.865000,-5.204819277108434,-1.9518072289156627,-8.19277108433735,-1.9693439607602696,-4.885959534028204,-7.8626609442060085,3.0,0.21245421245421242,4706.896551724139,-0.012703222422935475,0.23227084668725662,-0.10488899248295568,1266.6666666666665,-1.0,59.34081854400579,0.21239462679008075,
2023-08-21 17:41:54.872000,-5.216867469879518,-1.9518072289156627,-8.216867469879519,-1.9227467811158798,-4.885959534028204,-7.86020846106683,3.0,0.212010212010212,4716.753926701571,-0.06223413553988644,0.4137288036827696,-0.07703513781248196,1267.3992673992673,-1.0,59.34081854400579,0.21239501310126477,
2023-08-21 17:41:54.880000,-5.228915662650603,-1.9518072289156627,-8.216867469879519,-1.959534028203556,-4.851624770079705,-7.889638258736971,3.0,0.21245421245421242,4706.896551724139,-0.045684983392576414,0.823495134316182,-0.06468154536448899,1268.8644688644688,-1.0,59.34081854400579,0.21239537356794128,
2023-08-21 17:41:54.888000,-5.216867469879518,-1.9518072289156627,-8.216867469879519,-1.942366646229307,-4.917841814837523,-7.86020846106683,3.0,0.21245421245421242,4706.896551724139,3.496299749425094E-4,0.5735097022318053,0.23763183963638465,1271.062271062271,-1.0,59.34081854400579,0.2123957080873657,
2023-08-21 17:41:54.895000,-5.253012048192772,-1.9518072289156627,-8.228915662650603,-1.9153893316983446,-4.868792152053954,-7.9141630901287545,3.0,0.21245421245421242,4706.896551724139,-0.15243866907522916,0.7255987413320902,-0.21175922149058904,1276.1904761904761,-1.0,59.34081854400579,0.21239601659763813,
2023-08-21 17:41:54.903000,-5.265060240963856,-1.9518072289156627,-8.204819277108435,-1.858982219497241,-4.893316983445739,-7.896995708154506,3.0,0.21245421245421242,4706.896551724139,-0.3024299283258555,0.613250976050347,-0.15138977915039903,1279.8534798534797,-1.0,59.34081854400579,0.21239629908717617,
2023-08-21 17:41:54.911000,-5.240963855421687,-1.9518072289156627,-8.228915662650603,-1.9227467811158798,-4.912936848559166,-7.923973022685469,3.0,0.21245421245421242,4706.896551724139,-0.12831420080414915,0.3655964104655904,-0.24520715576015398,1282.7838827838827,-1.0,59.34081854400579,0.21239655559366086,
2023-08-21 17:41:54.918000,-5.289156626506024,-1.9397590361445785,-8.240963855421688,-1.8933169834457386,-4.881054567749846,-7.923973022685469,3.0,0.21245421245421242,4706.896551724139,-0.12540061767962304,0.3667618437154005,-0.2461395023600024,1285.7142857142856,1087.70751953125,55.161887660625105,0.21239678634175674,
2023-08-21 17:41:54.926000,-5.27710843373494,-1.927710843373494,-8.265060240963855,-1.9570815450643775,-4.939914163090129,-7.916615573267934,3.0,0.21245421245421242,4706.896551724139,-0.10873492220733044,0.26012470135773036,-0.09428354990967895,1287.9120879120878,-1.0,55.161887660625105,0.21239699158298508,
2023-08-21 17:41:54.934000,-5.27710843373494,-1.927710843373494,-8.265060240963855,-1.9374616799509503,-4.90557939914163,-7.926425505824647,3.0,0.21245421245421242,4706.896551724139,-0.06048598566517042,0.42864634928034445,-0.019812365246780383,1287.9120879120878,-1.0,55.161887660625105,0.21239717146714923,
2023-08-21 17:41:54.941000,-5.27710843373494,-1.9156626506024097,-8.240963855421688,-1.8687921520539545,-4.915389331698345,-7.946045370938075,3.0,0.21245421245421242,4706.896551724139,-0.16525843482314548,0.260357788007692,-0.18914981644426293,1290.10989010989,-1.0,55.161887660625105,0.2123973261905092,
2023-08-21 17:41:54.949000,-5.27710843373494,-1.9156626506024097,-8.240963855421688,-1.8786020846106681,-4.895769466584917,-7.889638258736971,3.0,0.212010212010212,4716.753926701571,-0.16176213507371343,0.027620768020512047,-0.09789639298409204,1287.179487179487,-1.0,55.161887660625105,0.21239745599470755,
2023-08-21 17:41:54.957000,-5.240963855421687,-1.9156626506024097,-8.204819277108435,-1.8565297363580624,-4.900674432863274,-7.960760269773145,3.0,0.212010212010212,4716.753926701571,0.17761202727113842,0.18134141367053214,-0.10034380280869394,1284.9816849816848,-1.0,55.161887660625105,0.21239756115519956,
2023-08-21 17:41:54.964000,-5.289156626506024,-1.8915662650602412,-8.19277108433735,-1.888412017167382,-4.878602084610668,-7.916615573267934,3.0,0.21245421245421242,4706.896551724139,0.11735912825592969,-0.19998834566750243,-0.009090379348523034,1282.7838827838827,-1.0,55.161887660625105,0.21239764193802416,
2023-08-21 17:41:54.972000,-5.265060240963856,-1.8915662650602412,-8.228915662650603,-1.8221949724095645,-4.898221949724095,-7.8920907418761495,3.0,0.21245421245421242,4706.896551724139,0.23972961948604404,0.01596643552240584,-0.0745877279878794,1280.5860805860805,-1.0,55.161887660625105,0.2123976987372459,
2023-08-21 17:41:54.980000,-5.289156626506024,-1.8795180722891567,-8.25301204819277,-1.8565297363580624,-4.927651747394236,-7.9362354383813605,3.0,0.21245421245421242,4706.896551724139,0.2552298817085248,0.3556902278422002,-0.34799836839345005,1280.5860805860805,-1.0,55.161887660625105,0.21239773209519922,
2023-08-21 17:41:54.987000,-5.289156626506024,-1.8915662650602412,-8.228915662650603,-1.8736971183323115,-4.910484365419988,-7.9141630901287545,3.0,0.21245421245421242,4706.896551724139,0.3917021152613481,0.23530097313676357,0.003030126449507606,1281.3186813186812,-1.0,55.161887660625105,0.2123977424247267,
2023-08-21 17:41:54.995000,-5.289156626506024,-1.8674698795180724,-8.25301204819277,-1.8786020846106681,-4.947271612507664,-7.960760269773145,3.0,0.21245421245421242,4706.896551724139,0.7251325680321652,0.2505681487092827,-0.16700658469786128,1282.7838827838827,-1.0,55.161887660625105,0.21239773002917547,
2023-08-21 17:41:55.003000,-5.265060240963856,-1.9036144578313254,-8.228915662650603,-1.9055793991416308,-4.898221949724095,-7.904353157572041,3.0,0.212010212010212,4716.753926701571,0.3260882232970105,0.32806945982168817,-0.33750946914515456,1284.2490842490843,-1.0,55.161887660625105,0.21239769524989494,
2023-08-21 17:41:55.010000,-5.228915662650603,-1.9036144578313254,-8.228915662650603,-1.8761496014714898,-4.817290006131207,-7.926425505824647,3.0,0.21245421245421242,4706.896551724139,0.38552531903735165,0.22015034088922533,-0.2751587902802869,1282.051282051282,-1.0,55.161887660625105,0.21239763831523892,
2023-08-21 17:41:55.018000,-5.253012048192772,-1.9156626506024097,-8.240963855421688,-1.8982219497240955,-4.89086450030656,-7.95340282035561,3.0,0.21245421245421242,4706.896551724139,0.4916962880951002,0.17434881417166806,-0.5645358662082627,1281.3186813186812,-1.0,55.161887660625105,0.21239755946638236,
2023-08-21 17:41:55.026000,-5.19277108433735,-1.927710843373494,-8.240963855421688,-1.9276517473942365,-4.856529736358063,-7.904353157572041,3.0,0.21245421245421242,4706.896551724139,0.4767787424975236,0.3119864809743015,-0.039158557193636555,1284.9816849816848,-1.0,55.161887660625105,0.2123974591147662,
2023-08-21 17:41:55.033000,-5.19277108433735,-1.927710843373494,-8.240963855421688,-1.8982219497240955,-4.858982219497241,-7.958307786633966,3.0,0.21245421245421242,4706.896551724139,0.7489074063283027,0.207330575141309,-0.19113105296894106,1284.9816849816848,-1.0,55.161887660625105,0.21239733770178557,
2023-08-21 17:41:55.041000,-5.240963855421687,-1.8915662650602412,-8.216867469879519,-1.8908645003065603,-4.885959534028204,-7.919068056407112,3.0,0.212010212010212,4716.753926701571,0.16292756832352354,-0.23227084668725662,-0.15896509527416816,1302.5641025641025,-1.0,55.161887660625105,0.21239719569735668,
2023-08-21 17:41:55.049000,-5.27710843373494,-1.8915662650602412,-8.204819277108435,-1.8320049049662783,-4.822194972409564,-7.938687921520539,3.0,0.21245421245421242,4706.896551724139,0.46943651302371703,-0.2880950993531849,0.02249286172134483,1320.14652014652,-1.0,55.161887660625105,0.2123970335880723,
2023-08-21 17:41:55.056000,-5.27710843373494,-1.927710843373494,-8.180722891566266,-1.9031269160024524,-4.883507050889025,-7.882280809319435,3.0,0.212010212010212,4716.753926701571,0.77174989802459,-0.1611794184488075,0.279820523279529,1342.1245421245421,-1.0,55.161887660625105,0.21239685184432944,
2023-08-21 17:41:55.064000,-5.265060240963856,-1.9036144578313254,-8.19277108433735,-1.888412017167382,-4.92274678111588,-7.911710606989576,3.0,0.21245421245421242,4706.896551724139,0.3854087757123708,-0.5240953324398352,-0.09125342346017112,1372.161172161172,-1.0,55.161887660625105,0.21239665094008636,
2023-08-21 17:41:55.072000,-5.289156626506024,-1.9156626506024097,-8.204819277108435,-1.9276517473942365,-4.925199264255058,-7.8700183936235435,3.0,0.21245421245421242,4706.896551724139,0.5077792669424851,-0.19928908571761567,-0.2767903968300216,1410.989010989011,-1.0,55.161887660625105,0.21239643133043196,
2023-08-21 17:41:55.079000,-5.289156626506024,-1.927710843373494,-8.216867469879519,-1.9104843654199877,-4.881054567749846,-7.835683629675046,3.0,0.212010212010212,4716.753926701571,0.06118524561505717,-0.21105996154070272,-0.30872326787483223,1456.4102564102564,-1.0,55.161887660625105,0.2123961934817946,
2023-08-21 17:41:55.087000,-5.313253012048193,-1.927710843373494,-8.19277108433735,-1.9619865113427344,-4.947271612507664,-7.896995708154506,3.0,0.21245421245421242,4706.896551724139,0.15523570887477445,-0.04032399044344752,-0.035429170794242626,1504.7619047619046,-1.0,55.161887660625105,0.21239593773184517,
2023-08-21 17:41:55.095000,-5.289156626506024,-1.9156626506024097,-8.19277108433735,-1.8393623543838136,-4.912936848559166,-7.8700183936235435,3.0,0.21245421245421242,4706.896551724139,0.3983450847852697,-0.0882232970106633,-0.3875065555620304,1558.974358974359,-1.0,55.161887660625105,0.21239566441572746,
2023-08-21 17:41:55.102000,-5.27710843373494,-1.927710843373494,-8.168674698795181,-1.9276517473942365,-4.900674432863274,-7.901900674432863,3.0,0.212010212010212,4716.753926701571,0.08997144688537932,0.06270030883981152,-0.3399568789697567,1611.7216117216117,-1.0,55.161887660625105,0.21239537416272078,
2023-08-21 17:41:55.110000,-5.253012048192772,-1.927710843373494,-8.228915662650603,-1.9055793991416308,-4.849172286940527,-7.9362354383813605,3.0,0.21245421245421242,4706.896551724139,-0.06304993881475403,-0.12248703455509517,-0.5369150981877511,1664.4688644688645,-1.0,55.161887660625105,0.2123950675867729,
2023-08-21 17:41:55.118000,-5.240963855421687,-1.927710843373494,-8.25301204819277,-1.9202942979767013,-4.856529736358063,-7.958307786633966,3.0,0.21245421245421242,4706.896551724139,0.24264320261057015,0.3211934036478067,0.015383718897500353,1712.087912087912,-1.0,55.161887660625105,0.21239474526505342,
2023-08-21 17:41:55.125000,-5.253012048192772,-1.927710843373494,-8.240963855421688,-1.9448191293684856,-4.900674432863274,-7.960760269773145,3.0,0.21245421245421242,4706.896551724139,-0.048015849892196615,-0.3389079890449268,-0.2737602703805138,1754.5787545787546,-1.0,55.161887660625105,0.2123944077585479,
2023-08-21 17:41:55.133000,-5.253012048192772,-1.927710843373494,-8.240963855421688,-1.9006744328632739,-4.873697118332311,-7.8749233599019,3.0,0.21245421245421242,4706.896551724139,0.30569314142532417,-0.2624555678573505,-0.059670182390303694,1754.5787545787546,-1.0,55.161887660625105,0.21239405549388446,
2023-08-21 17:41:55.141000,-5.27710843373494,-1.9397590361445785,-8.228915662650603,-1.930104230533415,-4.856529736358063,-7.946045370938075,3.0,0.21245421245421242,4706.896551724139,0.19952217236757736,-0.23098887011246394,-0.38016432608822337,1811.7216117216117,-1.0,55.161887660625105,0.2123936889115062,
2023-08-21 17:41:55.148000,-5.289156626506024,-1.9397590361445785,-8.216867469879519,-1.9497240956468422,-4.917841814837523,-7.901900674432863,3.0,0.21245421245421242,4706.896551724139,0.24485752578521125,-0.41384534700775044,-0.1801759804207214,1828.5714285714284,-1.0,55.161887660625105,0.21239330846473445,
2023-08-21 17:41:55.156000,-5.301204819277109,-1.9397590361445785,-8.216867469879519,-1.9055793991416308,-4.930104230533415,-7.909258123850398,3.0,0.21245421245421242,4706.896551724139,0.04533535341763217,-0.28891090262805247,-0.48703455509585697,1836.6300366300366,-1.0,55.161887660625105,0.21239291461901683,
2023-08-21 17:41:55.164000,-5.301204819277109,-1.9397590361445785,-8.240963855421688,-1.9202942979767013,-4.964438994481912,-7.845493562231759,3.0,0.21245421245421242,4706.896551724139,0.24544024241011544,0.003612843074412873,-0.6394732241710854,1834.4322344322343,-1.0,55.161887660625105,0.21239250785136313,
2023-08-21 17:41:55.171000,-5.289156626506024,-1.9397590361445785,-8.216867469879519,-1.8957694665849172,-4.915389331698345,-7.916615573267934,3.0,0.21245421245421242,4706.896551724139,0.4892488782704974,-0.2870462094283556,-0.45486859740108365,1821.9780219780218,-1.0,55.161887660625105,0.2123920886499667,
2023-08-21 17:41:55.179000,-5.27710843373494,-1.9397590361445785,-8.19277108433735,-1.9153893316983446,-4.935009196811771,-7.919068056407112,3.0,0.21245421245421242,4706.896551724139,0.47036885962356545,0.29648621875182074,-0.6700075753161236,1803.6630036630036,-1.0,55.161887660625105,0.21239165751400998,
2023-08-21 17:41:55.186000,-5.265060240963856,-1.9518072289156627,-8.204819277108435,-1.9644389944819127,-4.93746167995095,-7.867565910484365,3.0,0.21245421245421242,4706.896551724139,0.19299574616863835,-0.10022725948371375,-0.3013810384010254,1783.8827838827838,-1.0,55.161887660625105,0.21239121495364832,
2023-08-21 17:41:55.194000,-5.27710843373494,-1.963855421686747,-8.180722891566266,-2.008583690987124,-4.920294297976701,-7.879828326180257,3.0,0.21245421245421242,4706.896551724139,0.19287920284365753,-0.09696404638424339,-0.30301264495076036,1761.9047619047617,-1.0,55.161887660625105,0.21239076162891593,
2023-08-21 17:41:55.202000,-5.265060240963856,-1.9759036144578315,-8.19277108433735,-1.9668914776210913,-4.856529736358063,-7.8749233599019,3.0,0.21245421245421242,4706.896551724139,0.1628110249985427,0.11794184488083388,-0.5475205407610279,1739.9267399267399,-1.0,55.161887660625105,0.21239029819091892,
2023-08-21 17:41:55.209000,-5.253012048192772,-1.9879518072289157,-8.168674698795181,-1.9546290619251991,-4.876149601471489,-7.911710606989576,3.0,0.21245421245421242,4706.896551724139,0.2546471650836206,0.04242177029310605,-0.1941611794184491,1717.216117216117,-1.0,55.161887660625105,0.2123898251546989,
2023-08-21 17:41:55.217000,-5.289156626506024,-2.0120481927710845,-8.180722891566266,-1.9840588595953401,-4.873697118332311,-7.850398528510116,3.0,0.21245421245421242,4706.896551724139,0.23798146961132802,0.22504516053843088,-0.26968125400617715,1695.2380952380952,-1.0,55.161887660625105,0.2123893431877004,
2023-08-21 17:41:55.225000,-5.253012048192772,-1.9879518072289157,-8.156626506024097,-2.001226241569589,-4.895769466584917,-7.882280809319435,3.0,0.21245421245421242,4706.896551724139,0.25289901520890457,0.10244158265835313,-0.16444263154827832,1677.6556776556774,-1.0,55.161887660625105,0.21238885295119822,
2023-08-21 17:41:55.232000,-5.253012048192772,-1.9879518072289157,-8.156626506024097,-2.0134886572654813,-4.89086450030656,-7.830778663396689,3.0,0.21245421245421242,4706.896551724139,-0.11304702523163007,-0.06642969523920522,-0.1785443738709862,1677.6556776556774,-1.0,55.161887660625105,0.21238835497336161,
2023-08-21 17:41:55.248000,-5.265060240963856,-2.0,-8.168674698795181,-2.011036174126303,-4.920294297976701,-7.855303494788473,3.0,0.21245421245421242,4706.896551724139,0.024940271545947603,-0.2330866499621242,-0.3786492628634695,1641.0256410256409,-1.0,55.161887660625105,0.2123878497991358,
2023-08-21 17:41:55.255000,-5.27710843373494,-1.9879518072289157,-8.168674698795181,-1.9840588595953401,-4.883507050889025,-7.808706315144083,3.0,0.21245421245421242,4706.896551724139,0.11631023833110044,0.21164267816560864,-0.28483188625371497,1630.03663003663,-1.0,55.161887660625105,0.21238733812967386,
2023-08-21 17:41:55.263000,-5.265060240963856,-1.9879518072289157,-8.168674698795181,-1.9251992642550582,-4.954629061925199,-7.867565910484365,3.0,0.212010212010212,4716.753926701571,0.22329701066371485,0.5440242410115964,-0.26909853738127143,1615.3846153846152,-1.0,55.161887660625105,0.21238682066397108,
2023-08-21 17:41:55.271000,-5.265060240963856,-1.9759036144578315,-8.19277108433735,-1.9644389944819127,-4.932556713672593,-7.845493562231759,3.0,0.21245421245421242,4706.896551724139,0.32981760969640417,0.3559233144921619,-0.23949653283608172,1599.2673992673992,-1.0,55.161887660625105,0.21238629796153966,
2023-08-21 17:41:55.278000,-5.27710843373494,-1.963855421686747,-8.156626506024097,-1.9546290619251991,-4.903126916002452,-7.850398528510116,3.0,0.21245421245421242,4706.896551724139,0.3572052910669546,0.4012586679097958,-0.13355865042829634,1583.150183150183,-1.0,55.161887660625105,0.2123857706994266,
2023-08-21 17:41:55.286000,-5.253012048192772,-1.9397590361445785,-8.216867469879519,-1.9202942979767013,-4.873697118332311,-7.8749233599019,3.0,0.212010212010212,4716.753926701571,0.43354116892954997,0.5535807936600424,0.15570188217469866,1569.9633699633698,-1.0,55.161887660625105,0.21238523968388423,
2023-08-21 17:41:55.294000,-5.265060240963856,-1.9518072289156627,-8.240963855421688,-1.9816063764561618,-4.912936848559166,-7.923973022685469,3.0,0.21245421245421242,4706.896551724139,0.15733348872443298,0.4589476137754209,0.3329642794708931,1555.311355311355,-1.0,55.161887660625105,0.2123847054252443,
2023-08-21 17:41:55.301000,-5.27710843373494,-1.927710843373494,-8.240963855421688,-1.9644389944819127,-4.930104230533415,-7.95340282035561,3.0,0.21245421245421242,4706.896551724139,0.1580327486743197,-0.061884505564943924,0.2646698910319908,1539.9267399267399,-1.0,55.161887660625105,0.21238416828720366,
2023-08-21 17:41:55.309000,-5.27710843373494,-1.927710843373494,-8.240963855421688,-1.9816063764561618,-4.839362354383813,-7.9068056407112195,3.0,0.21245421245421242,4706.896551724139,0.20266884214206687,0.23028961016257718,0.3824951925878445,1523.8095238095236,-1.0,55.161887660625105,0.21238362879505399,
2023-08-21 17:41:55.317000,-5.265060240963856,-1.927710843373494,-8.240963855421688,-1.9693439607602696,-4.942366646229307,-7.938687921520539,3.0,0.21245421245421242,4706.896551724139,0.3547578812423518,6.992599498867545E-4,-0.06887710506380713,1506.227106227106,-1.0,55.161887660625105,0.2123830874967457,
2023-08-21 17:41:55.324000,-5.289156626506024,-1.9397590361445785,-8.265060240963855,-1.9717964438994482,-4.898221949724095,-7.941140404659717,3.0,0.21245421245421242,4706.896551724139,0.49227900472000435,-0.04428646349280291,0.2964862187518212,1486.4468864468863,-1.0,55.161887660625105,0.21238254496270323,
2023-08-21 17:41:55.332000,-5.325301204819278,-1.963855421686747,-8.265060240963855,-1.9104843654199877,-4.881054567749846,-7.960760269773145,3.0,0.21245421245421242,4706.896551724139,0.3659460404405329,0.23355282326204754,-0.27317755375560876,1466.6666666666665,-1.0,55.161887660625105,0.21238200178563682,
2023-08-21 17:41:55.340000,-5.325301204819278,-1.963855421686747,-8.265060240963855,-1.9276517473942365,-4.925199264255058,-7.943592887798896,3.0,0.21245421245421242,4706.896551724139,0.6836431443389076,0.06503117533943172,-0.05827166249053062,1466.6666666666665,-1.0,55.161887660625105,0.21238145858034657,
2023-08-21 17:41:55.347000,-5.253012048192772,-1.9518072289156627,-8.25301204819277,-1.9325567136725934,-4.903126916002452,-7.904353157572041,3.0,0.21245421245421242,4706.896551724139,0.465940213274285,0.09894528290892109,-0.24345900588543795,1432.2344322344322,-1.0,55.161887660625105,0.21238091598351172,
2023-08-21 17:41:55.355000,-5.240963855421687,-1.9397590361445785,-8.228915662650603,-1.9742489270386265,-4.885959534028204,-7.8920907418761495,3.0,0.21245421245421242,4706.896551724139,0.2508012353592443,0.5609230231338507,-0.41023250393333693,1422.7106227106226,-1.0,55.161887660625105,0.21238037479220914,
2023-08-21 17:41:55.363000,-5.240963855421687,-1.963855421686747,-8.228915662650603,-1.908031882280809,-4.89086450030656,-7.894543225015328,3.0,0.21245421245421242,4706.896551724139,0.09859565293397857,0.19334537614358085,-0.19555969931822131,1413.9194139194137,-1.0,55.161887660625105,0.21237983580452768,
2023-08-21 17:41:55.370000,-5.265060240963856,-1.9397590361445785,-8.240963855421688,-2.0232985898221947,-4.861434702636419,-7.879828326180257,3.0,0.212010212010212,4716.753926701571,0.2209661441640929,0.3958976749606669,-0.41151448050812917,1410.989010989011,-1.0,55.161887660625105,0.21237929969166353,
2023-08-21 17:41:55.378000,-5.265060240963856,-1.963855421686747,-8.240963855421688,-1.9325567136725934,-4.885959534028204,-7.926425505824647,3.0,0.21245421245421242,4706.896551724139,0.15908163859914898,0.19858982576772893,-0.1666569547229179,1410.989010989011,-1.0,55.161887660625105,0.21237876699739439,
2023-08-21 17:41:55.386000,-5.27710843373494,-1.963855421686747,-8.180722891566266,-1.942366646229307,-4.868792152053954,-7.931330472103004,3.0,0.21245421245421242,4706.896551724139,0.46407552007458813,0.46081230697511777,-0.32061068702290074,1412.4542124542124,-1.0,55.161887660625105,0.2123782382649237,
2023-08-21 17:41:55.393000,-5.253012048192772,-1.9518072289156627,-8.216867469879519,-1.9693439607602696,-4.885959534028204,-7.923973022685469,3.0,0.21245421245421242,4706.896551724139,0.07936600431210238,0.5080123535924486,-0.21490589126507814,1416.8498168498168,-1.0,55.161887660625105,0.21237771419519638,
2023-08-21 17:41:55.401000,-5.265060240963856,-1.9397590361445785,-8.240963855421688,-1.9251992642550582,-5.0257510729613735,-7.901900674432863,3.0,0.21245421245421242,4706.896551724139,0.15302138570013335,0.2637375444321432,-0.0020977798496593955,1419.7802197802198,-1.0,55.161887660625105,0.21237719550728704,
2023-08-21 17:41:55.409000,-5.289156626506024,-1.9518072289156627,-8.228915662650603,-1.883507050889025,-4.9448191293684856,-7.926425505824647,3.0,0.212010212010212,4716.753926701571,0.2591923547578819,0.6901695705378483,-0.12773148417924388,1425.6410256410256,-1.0,55.161887660625105,0.21237668293749049,
2023-08-21 17:41:55.416000,-5.253012048192772,-1.927710843373494,-8.216867469879519,-1.883507050889025,-4.935009196811771,-7.872470876762722,3.0,0.212010212010212,4716.753926701571,0.2759745935551536,0.3964803915855711,0.03939164384359866,1426.3736263736262,-1.0,55.161887660625105,0.21237617708906484,
2023-08-21 17:41:55.424000,-5.27710843373494,-1.927710843373494,-8.216867469879519,-1.9104843654199877,-4.954629061925199,-7.919068056407112,3.0,0.212010212010212,4716.753926701571,0.6568381795932631,0.6549734863935662,-0.14544606957636508,1427.8388278388277,-1.0,55.161887660625105,0.21237567854809125,
2023-08-21 17:41:55.432000,-5.289156626506024,-1.9156626506024097,-8.204819277108435,-1.9276517473942365,-4.910484365419988,-7.9068056407112195,3.0,0.212010212010212,4716.753926701571,0.27096323058096894,0.5897092244041728,-0.08344502068644011,1430.03663003663,-1.0,55.161887660625105,0.21237518786033785,
2023-08-21 17:41:55.439000,-5.289156626506024,-1.9156626506024097,-8.204819277108435,-1.8957694665849172,-4.917841814837523,-7.911710606989576,3.0,0.212010212010212,4716.753926701571,0.1922964862187516,0.31268574092418827,-0.28389953965386655,1430.03663003663,-1.0,55.161887660625105,0.21237470540065154,
2023-08-21 17:41:55.447000,-5.313253012048193,-1.8915662650602412,-8.204819277108435,-1.9521765787860208,-4.868792152053954,-7.909258123850398,3.0,0.21245421245421242,4706.896551724139,0.4188567099819351,0.3286521764465941,-0.32853563312161305,1423.4432234432234,-1.0,55.161887660625105,0.21237423151882703,
2023-08-21 17:41:55.455000,-5.27710843373494,-1.9156626506024097,-8.216867469879519,-1.908031882280809,-4.910484365419988,-7.8994481912936845,3.0,0.21245421245421242,4706.896551724139,0.4134957170328062,0.3596527008915556,-0.09719713303420571,1413.9194139194137,-1.0,55.161887660625105,0.2123737668240042,
2023-08-21 17:41:55.462000,-5.27710843373494,-1.9036144578313254,-8.228915662650603,-1.9104843654199877,-4.935009196811771,-7.975475168608216,3.0,0.21245421245421242,4706.896551724139,0.36244974069110264,-0.5853971213798732,-0.21840219101450975,1402.197802197802,-1.0,55.161887660625105,0.21237331204356377,
2023-08-21 17:41:55.470000,-5.301204819277109,-1.9036144578313254,-8.25301204819277,-1.908031882280809,-4.930104230533415,-7.941140404659717,3.0,0.21245421245421242,4706.896551724139,0.358137637666803,-0.5817842783054603,-0.21269156809043746,1391.2087912087911,-1.0,55.161887660625105,0.21237286775441278,
2023-08-21 17:41:55.478000,-5.27710843373494,-1.9156626506024097,-8.289156626506024,-1.9742489270386265,-4.917841814837523,-7.926425505824647,3.0,0.21245421245421242,4706.896551724139,0.2628051978322948,-0.3942660684109317,0.12714876755433818,1381.6849816849815,-1.0,55.161887660625105,0.2123724345297448,
2023-08-21 17:41:55.485000,-5.313253012048193,-1.9397590361445785,-8.27710843373494,-1.9374616799509503,-4.979153893316983,-7.985285101164929,3.0,0.21245421245421242,4706.896551724139,0.5336518850882812,-0.455917487325914,0.6047433133267296,1372.8937728937728,-1.0,55.161887660625105,0.21237201293653624,
2023-08-21 17:41:55.493000,-5.36144578313253,-1.963855421686747,-8.27710843373494,-1.9816063764561618,-5.0257510729613735,-7.9288779889638255,3.0,0.21245421245421242,4706.896551724139,0.31408426082396174,-0.25732766155818504,1.0478410349047256,1364.8351648351647,-1.0,55.161887660625105,0.2123716035330872,
2023-08-21 17:41:55.501000,-5.373493975903615,-1.963855421686747,-8.25301204819277,-1.9521765787860208,-5.03065603923973,-7.943592887798896,3.0,0.212010212010212,4716.753926701571,0.3414719421945104,0.22784220033797614,0.6483305168696462,1356.7765567765566,-1.0,55.161887660625105,0.2123712068666222,
2023-08-21 17:41:55.508000,-5.36144578313253,-1.963855421686747,-8.204819277108435,-1.9521765787860208,-5.0110361741263025,-7.8994481912936845,3.0,0.21245421245421242,4706.896551724139,0.38634112231221923,0.01853038867198945,0.6611502826175634,1350.9157509157508,-1.0,55.161887660625105,0.21237082332167107,
2023-08-21 17:41:55.516000,-5.36144578313253,-1.9759036144578315,-8.216867469879519,-2.0036787247087675,-4.932556713672593,-7.911710606989576,3.0,0.21245421245421242,4706.896551724139,0.5399452246372585,0.17516461744653566,0.4721170094982806,1345.7875457875457,-1.0,55.161887660625105,0.21237045324524925,
2023-08-21 17:41:55.524000,-5.337349397590362,-2.0,-8.168674698795181,-2.035561005518087,-4.954629061925199,-7.916615573267934,3.0,0.21245421245421242,4706.896551724139,0.6186119689994758,0.14229939980187556,0.00874074937357944,1341.3919413919414,-1.0,55.161887660625105,0.21237009710366112,
2023-08-21 17:41:55.531000,-5.301204819277109,-2.024096385542169,-8.19277108433735,-2.0232985898221947,-4.885959534028204,-7.835683629675046,3.0,0.21245421245421242,4706.896551724139,0.5772390886311991,-0.5527649903851766,-0.3577880076918596,1334.7985347985348,-1.0,55.161887660625105,0.21236975534154412,
2023-08-21 17:41:55.539000,-5.301204819277109,-2.024096385542169,-8.19277108433735,-2.064990803188228,-4.888412017167382,-7.852851011649294,3.0,0.21245421245421242,4706.896551724139,0.5237457024648909,-0.5542800536099292,-0.7205873783579048,1334.7985347985348,-1.0,55.161887660625105,0.21236942837980022,
2023-08-21 17:41:55.547000,-5.204819277108434,-2.0120481927710845,-8.19277108433735,-2.064990803188228,-4.841814837522992,-7.894543225015328,3.0,0.212010212010212,4716.753926701571,0.3002156051512144,-0.36781073364023154,-0.9874715925645362,1324.5421245421244,-1.0,55.161887660625105,0.21236911661367486,
2023-08-21 17:41:55.554000,-5.168674698795181,-2.0,-8.19277108433735,-2.028203556100552,-4.763335377069282,-7.896995708154506,3.0,0.21245421245421242,4706.896551724139,-0.1064040557077085,0.024007924946099175,-1.0987704679214494,1321.6117216117216,-1.0,55.161887660625105,0.21236882040045504,
2023-08-21 17:41:55.562000,-5.120481927710844,-1.9879518072289157,-8.228915662650603,-1.9767014101778049,-4.775597792765175,-7.879828326180257,3.0,0.21245421245421242,4706.896551724139,0.05046325971680112,0.4314433890798897,-0.9795466464658235,1321.6117216117216,-1.0,55.161887660625105,0.21236854002617309,
2023-08-21 17:41:55.569000,-5.156626506024097,-1.9759036144578315,-8.25301204819277,-1.9399141630901287,-4.836909871244635,-7.943592887798896,3.0,0.21245421245421242,4706.896551724139,0.035429170794241974,0.10815220558242453,-1.194219451080939,1321.6117216117216,-1.0,55.161887660625105,0.21236827573553144,
2023-08-21 17:41:55.577000,-5.19277108433735,-2.024096385542169,-8.25301204819277,-2.0674432863274066,-4.851624770079705,-7.948497854077253,3.0,0.21245421245421242,4706.896551724139,0.35126158149291975,0.2787716333546989,-1.1459705145387797,1319.4139194139193,-1.0,55.161887660625105,0.21236802787960699,
2023-08-21 17:41:55.585000,-5.240963855421687,-1.9759036144578315,-8.313253012048193,-1.9791538933169834,-4.836909871244635,-7.9656652360515015,3.0,0.21245421245421242,4706.896551724139,0.5408775712371069,0.2988170852514427,-1.0958568847969234,1315.7509157509157,-1.0,55.161887660625105,0.2123677968940938,
2023-08-21 17:41:55.592000,-5.265060240963856,-1.9397590361445785,-8.228915662650603,-1.9325567136725934,-4.854077253218884,-7.96811771919068,3.0,0.21245421245421242,4706.896551724139,0.6999592098362576,1.0372355923314494,-0.878969757007167,1308.4249084249084,-1.0,55.161887660625105,0.2123675830114037,
2023-08-21 17:41:55.600000,-5.301204819277109,-1.963855421686747,-8.240963855421688,-1.9399141630901287,-4.883507050889025,-7.950950337216431,3.0,0.21245421245421242,4706.896551724139,0.6562554629683589,1.6206514771866447,-1.442689819940563,1300.3663003663003,-1.0,55.161887660625105,0.21236738628122456,
2023-08-21 17:41:55.608000,-5.301204819277109,-1.927710843373494,-8.216867469879519,-1.8933169834457386,-4.9448191293684856,-7.946045370938075,3.0,0.21245421245421242,4706.896551724139,0.8839811199813542,0.35219392809276817,-1.055416351028495,1292.3076923076922,-1.0,55.161887660625105,0.21236720671873432,
2023-08-21 17:41:55.615000,-5.349397590361446,-1.963855421686747,-8.216867469879519,-2.011036174126303,-4.998773758430411,-7.865113427345187,3.0,0.21245421245421242,4706.896551724139,0.4202552298817086,-0.6785152380397421,-1.3910611269739526,1286.4468864468863,-1.0,55.161887660625105,0.2123670443037707,
2023-08-21 17:41:55.623000,-5.385542168674699,-2.0,-8.180722891566266,-2.001226241569589,-4.971796443899448,-7.909258123850398,3.0,0.21245421245421242,4706.896551724139,0.4032399044344735,-0.32597167997202964,-1.9862478876522343,1282.7838827838827,-1.0,55.161887660625105,0.21236689898025982,
2023-08-21 17:41:55.631000,-5.36144578313253,-2.036144578313253,-8.168674698795181,-2.069895769466585,-4.991416309012875,-7.916615573267934,3.0,0.21245421245421242,4706.896551724139,-0.1874016665695478,0.22504516053843088,-2.763358778625954,1279.120879120879,-1.0,55.161887660625105,0.21236677065591017,
2023-08-21 17:41:55.638000,-5.36144578313253,-2.036144578313253,-8.168674698795181,-2.07725321888412,-4.920294297976701,-7.843041079092581,3.0,0.21245421245421242,4706.896551724139,0.03577880076918622,1.2374570246489134,-3.857584056873142,1279.120879120879,-1.0,55.161887660625105,0.2123666592021802,
2023-08-21 17:41:55.646000,-5.216867469879518,-2.072289156626506,-8.120481927710843,-2.0797057020232983,-4.822194972409564,-7.852851011649294,3.0,0.21245421245421242,4706.896551724139,-0.17936017714585445,2.355107511217294,-4.099761086183788,1266.6666666666665,-1.0,55.161887660625105,0.21236656445452096,
2023-08-21 17:41:55.654000,-5.156626506024097,-2.060240963855422,-8.108433734939759,-2.089515634580012,-4.760882893930104,-7.744941753525444,3.0,0.21245421245421242,4706.896551724139,0.27923780665462394,2.5263096556144746,-3.958627119631723,1257.142857142857,-1.0,55.161887660625105,0.21236648621289717,
2023-08-21 17:41:55.661000,-5.144578313253012,-2.0843373493975905,-8.120481927710843,-2.060085836909871,-4.711833231146535,-7.72041692213366,3.0,0.21245421245421242,4706.896551724139,0.38319445253773143,2.1005768894586563,-3.512965444904143,1251.2820512820513,-1.0,55.161887660625105,0.21236642424258587,
2023-08-21 17:41:55.669000,-5.168674698795181,-2.0843373493975905,-8.108433734939759,-2.0968730839975476,-4.910484365419988,-7.791538933169834,3.0,0.21245421245421242,4706.896551724139,0.42351844298117897,2.06363265543966,-2.811957345143056,1245.4212454212454,-1.0,55.161887660625105,0.21236637827525215,
2023-08-21 17:41:55.677000,-5.216867469879518,-2.024096385542169,-8.084337349397591,-2.057633353770693,-4.827099938687922,-7.789086450030656,3.0,0.21245421245421242,4706.896551724139,0.5064972903676942,2.7027562496358026,-2.421420663131518,1239.5604395604396,-1.0,55.161887660625105,0.2123663480102942,
2023-08-21 17:41:55.684000,-5.253012048192772,-2.024096385542169,-8.084337349397591,-2.082158185162477,-4.915389331698345,-7.76701410177805,3.0,0.21245421245421242,4706.896551724139,0.7570654390769769,3.203542917079424,-2.306858574675136,1234.4322344322343,-1.0,55.161887660625105,0.21236633311645622,
2023-08-21 17:41:55.692000,-5.253012048192772,-2.0,-8.120481927710843,-2.0257510729613735,-4.930104230533415,-7.887185775597793,3.0,0.21245421245421242,4706.896551724139,0.33564477594545816,3.899306567216363,-2.1626944816735616,1228.5714285714284,-1.0,55.161887660625105,0.21236633323369786,
2023-08-21 17:41:55.700000,-5.325301204819278,-1.9879518072289157,-8.168674698795181,-1.930104230533415,-4.947271612507664,-7.86020846106683,3.0,0.21245421245421242,4706.896551724139,0.4989219742439259,3.261231862945049,-2.062234135539886,1222.7106227106226,-1.0,55.161887660625105,0.2123663479753112,
2023-08-21 17:41:55.707000,-5.36144578313253,-1.9759036144578315,-8.228915662650603,-2.008583690987124,-4.988963825873697,-7.9288779889638255,3.0,0.21245421245421242,4706.896551724139,-0.24007924946098655,2.6541576831187004,-1.7947672047083507,1218.3150183150183,-1.0,55.161887660625105,0.21236637693027352,
2023-08-21 17:41:55.715000,-5.349397590361446,-1.9759036144578315,-8.25301204819277,-1.9693439607602696,-5.0404659717964435,-7.923973022685469,3.0,0.21245421245421242,4706.896551724139,-0.47176737952333725,2.2012703222422934,-2.0027970397995443,1215.3846153846152,-1.0,55.161887660625105,0.21236641966582218,
2023-08-21 17:41:55.723000,-5.373493975903615,-1.9397590361445785,-8.27710843373494,-1.9350091968117717,-4.9816063764561616,-7.970570202329858,3.0,0.212010212010212,4716.753926701571,-0.596119107278131,1.9350853679855473,-1.4778859040848438,1213.1868131868132,-1.0,55.161887660625105,0.21236647573023498,
2023-08-21 17:41:55.730000,-5.337349397590362,-1.927710843373494,-8.289156626506024,-1.930104230533415,-5.0404659717964435,-8.019619865113427,3.0,0.212010212010212,4716.753926701571,-0.825826000815804,1.7427888817667958,-1.858516403472992,1210.2564102564102,-1.0,55.161887660625105,0.2123665446452582,
2023-08-21 17:41:55.738000,-5.337349397590362,-1.927710843373494,-8.289156626506024,-1.9104843654199877,-4.9448191293684856,-7.985285101164929,3.0,0.212010212010212,4716.753926701571,-0.535516578287978,2.2533651885088277,-1.7961657246081228,1210.2564102564102,-1.0,55.161887660625105,0.212366625728242,
2023-08-21 17:41:55.746000,-5.349397590361446,-1.9518072289156627,-8.301204819277109,-1.9399141630901287,-5.0257510729613735,-7.977927651747394,3.0,0.21245421245421242,4706.896551724139,-0.535516578287978,2.2252782471883923,-1.7751879261115324,1213.9194139194137,-1.0,55.161887660625105,0.21236671810488328,
2023-08-21 17:41:55.753000,-5.337349397590362,-1.963855421686747,-8.289156626506024,-1.9497240956468422,-4.939914163090129,-7.987737584304107,3.0,0.21245421245421242,4706.896551724139,-0.9930656721636272,2.407202377483829,-2.2262105937882417,1214.6520146520145,-1.0,55.161887660625105,0.2123668210091665,
2023-08-21 17:41:55.761000,-5.289156626506024,-1.9879518072289157,-8.228915662650603,-1.9742489270386265,-4.935009196811771,-7.919068056407112,3.0,0.21245421245421242,4706.896551724139,-0.9579861313443278,2.7260649146320137,-2.080531437561914,1215.3846153846152,-1.0,55.161887660625105,0.21236693380652646,
2023-08-21 17:41:55.769000,-5.265060240963856,-2.0120481927710845,-8.144578313253012,-2.060085836909871,-4.908031882280809,-7.8700183936235435,3.0,0.21245421245421242,4706.896551724139,-0.40289027445953096,2.9673095973428136,-2.3919352019113096,1219.047619047619,-1.0,55.161887660625105,0.21236705585799512,
2023-08-21 17:41:55.776000,-5.240963855421687,-2.024096385542169,-8.096385542168676,-1.993868792152054,-4.893316983445739,-7.764561618638871,3.0,0.21245421245421242,4706.896551724139,-0.5729269856068995,3.0717324165258444,-2.5037002505681483,1223.4432234432234,-1.0,55.161887660625105,0.21236718652319644,
2023-08-21 17:41:55.784000,-5.240963855421687,-2.036144578313253,-8.084337349397591,-2.038013488657265,-4.881054567749846,-7.722869405272839,3.0,0.21245421245421242,4706.896551724139,-1.016723967134782,2.5831827982052338,-2.4348231455043403,1224.1758241758241,-1.0,55.161887660625105,0.21236732516342455,
2023-08-21 17:41:55.792000,-5.168674698795181,-2.036144578313253,-8.096385542168676,-1.9865113427345187,-4.795217657878601,-7.7743715511955855,3.0,0.21245421245421242,4706.896551724139,-1.1669483130353702,1.720645650020395,-2.8846803799312393,1223.4432234432234,-1.0,55.161887660625105,0.21236747114478727,
2023-08-21 17:41:55.799000,-5.132530120481928,-2.024096385542169,-8.060240963855422,-2.0208461066830163,-4.802575107296137,-7.747394236664623,3.0,0.212010212010212,4716.753926701571,-1.6361517394091256,1.169745352834917,-3.1207971563428716,1221.9780219780218,-1.0,55.161887660625105,0.21236762384139724,
2023-08-21 17:41:55.807000,-5.132530120481928,-2.036144578313253,-8.084337349397591,-2.0551808706315144,-4.790312691600245,-7.8405885959534025,3.0,0.21245421245421242,4706.896551724139,-1.918652759163218,0.7140609521589631,-2.33028378299633,1222.7106227106226,-1.0,55.161887660625105,0.21236778248929997,
2023-08-21 17:41:55.815000,-5.168674698795181,-2.024096385542169,-8.19277108433735,-2.018393623543838,-4.802575107296137,-7.946045370938075,3.0,0.21245421245421242,4706.896551724139,-2.8727929607831713,0.034147194219449305,-2.1267991375793955,1225.6410256410256,-1.0,55.161887660625105,0.21236794631712444,
2023-08-21 17:41:55.822000,-5.19277108433735,-2.0120481927710845,-8.204819277108435,-2.0429184549356223,-4.846719803801348,-7.919068056407112,3.0,0.212010212010212,4716.753926701571,-1.967600955655265,0.9634636676184374,-1.6616747275799781,1227.106227106227,-1.0,55.161887660625105,0.2123681147082456,
2023-08-21 17:41:55.830000,-5.253012048192772,-2.0481927710843375,-8.168674698795181,-2.106683016554261,-4.932556713672593,-7.9141630901287545,3.0,0.21245421245421242,4706.896551724139,-1.9255288153371013,1.500378765806189,-1.5187926111531953,1229.3040293040292,-1.0,55.161887660625105,0.21236828691575485,
2023-08-21 17:41:55.838000,-5.253012048192772,-2.0481927710843375,-8.168674698795181,-2.060085836909871,-5.008583690987124,-7.867565910484365,3.0,0.21245421245421242,4706.896551724139,-1.8221548860788999,1.2866383077909218,-1.6042188683643135,1229.3040293040292,-1.0,55.161887660625105,0.2123684623316023,
2023-08-21 17:41:55.845000,-5.36144578313253,-2.0481927710843375,-8.168674698795181,-2.038013488657265,-5.015941140404659,-7.916615573267934,3.0,0.21245421245421242,4706.896551724139,-1.8552531903735217,1.8807761785443733,-2.427131286055592,1230.03663003663,-1.0,55.161887660625105,0.212368640489328,
2023-08-21 17:41:55.853000,-5.325301204819278,-2.072289156626506,-8.240963855421688,-1.993868792152054,-4.947271612507664,-7.943592887798896,3.0,0.21245421245421242,4706.896551724139,-2.0874074937357956,2.4899481382203823,-3.485228133558651,1230.03663003663,-1.0,55.161887660625105,0.2123688208003627,
2023-08-21 17:41:55.861000,-5.265060240963856,-2.108433734939759,-8.27710843373494,-2.0870631514408338,-4.868792152053954,-7.958307786633966,3.0,0.21245421245421242,4706.896551724139,-2.4090670706835273,1.4901229532078564,-4.660217936017714,1232.967032967033,-1.0,55.161887660625105,0.21236900270571038,
2023-08-21 17:41:55.868000,-5.204819277108434,-2.132530120481928,-8.289156626506024,-2.165542611894543,-4.738810545677498,-8.024524831391783,3.0,0.21245421245421242,4706.896551724139,-2.5450731309364256,-0.03834275391876983,-5.490122953207854,1241.0256410256409,-1.0,55.161887660625105,0.21236918567824176,
2023-08-21 17:41:55.876000,-5.0843373493975905,-2.204819277108434,-8.27710843373494,-2.2317596566523603,-4.68976088289393,-8.004904966278357,3.0,0.212010212010212,4716.753926701571,-2.756715809102034,-1.0803566225744439,-6.3105879610745275,1248.3516483516482,-1.0,55.161887660625105,0.21236936922488295,
2023-08-21 17:41:55.884000,-5.0,-2.240963855421687,-8.228915662650603,-2.275904353157572,-4.601471489883507,-7.9288779889638255,3.0,0.21245421245421242,4706.896551724139,-2.710914282384477,-0.8818833401316957,-6.5243284190897946,1255.6776556776556,-1.0,55.161887660625105,0.21236955273939362,
2023-08-21 17:41:55.891000,-4.963855421686747,-2.240963855421687,-8.204819277108435,-2.2734518700183934,-4.535254445125689,-7.923973022685469,3.0,0.21245421245421242,4706.896551724139,-3.1536623739875305,-0.7444787599790239,-6.447992541227199,1263.003663003663,-1.0,55.161887660625105,0.21236973577047874,
2023-08-21 17:41:55.899000,-4.963855421686747,-2.253012048192771,-8.156626506024097,-2.239117106069896,-4.616186388718577,-7.786633966891477,3.0,0.21245421245421242,4706.896551724139,-3.0315249694073776,-0.7902802866965812,-6.463259716799719,1271.062271062271,-1.0,55.161887660625105,0.21236991802340272,
2023-08-21 17:41:55.907000,-5.0361445783132535,-2.240963855421687,-8.108433734939759,-2.241569589209074,-4.679950950337216,-7.798896382587369,3.0,0.21245421245421242,4706.896551724139,-3.0315249694073776,-1.294097080589711,-5.715168113746284,1280.5860805860805,-1.0,55.161887660625105,0.21237009923384959,
2023-08-21 17:41:55.914000,-5.120481927710844,-2.216867469879518,-8.108433734939759,-2.1925199264255055,-4.824647455548742,-7.789086450030656,3.0,0.21245421245421242,4706.896551724139,-3.245265427422645,-1.1872268515820774,-5.730435289318803,1289.3772893772893,-1.0,55.161887660625105,0.21237027915921522,
2023-08-21 17:41:55.922000,-5.228915662650603,-2.204819277108434,-8.132530120481928,-2.1949724095646843,-4.900674432863274,-7.789086450030656,3.0,0.21245421245421242,4706.896551724139,-2.9551890915447823,-0.8360818134141385,-5.791503991608879,1297.4358974358975,-1.0,55.161887660625105,0.21237045745196698,
2023-08-21 17:41:55.929000,-5.301204819277109,-2.180722891566265,-8.168674698795181,-2.2366646229307174,-4.90557939914163,-7.850398528510116,3.0,0.21245421245421242,4706.896551724139,-3.3521356564302787,-0.6834100576889476,-6.4174581900821615,1301.098901098901,-1.0,55.161887660625105,0.2123706338095548,
2023-08-21 17:41:55.937000,-5.301204819277109,-2.180722891566265,-8.168674698795181,-2.158185162477008,-4.9668914776210915,-7.901900674432863,3.0,0.21245421245421242,4706.896551724139,-3.5811432900180646,-0.5002039508187186,-7.028145212982925,1301.098901098901,-1.0,55.161887660625105,0.2123708079748695,
2023-08-21 17:41:55.945000,-5.349397590361446,-2.168674698795181,-8.180722891566266,-2.1679950950337217,-4.98405885959534,-7.901900674432863,3.0,0.21245421245421242,4706.896551724139,-3.626944816735622,-0.16432608822329878,-7.730435289318803,1298.168498168498,-1.0,55.161887660625105,0.21237097973653965,
2023-08-21 17:41:55.952000,-5.337349397590362,-2.168674698795181,-8.180722891566266,-2.1851624770079705,-4.957081545064377,-7.882280809319435,3.0,0.21245421245421242,4706.896551724139,-3.7948837480333317,-0.6681428821164286,-8.005244449624145,1292.3076923076922,1095.367431640625,54.77614019446689,0.2123711489290701,
2023-08-21 17:41:55.960000,-5.36144578313253,-2.168674698795181,-8.228915662650603,-2.1459227467811157,-5.015941140404659,-7.909258123850398,3.0,0.21245421245421242,4706.896551724139,-3.764349396888294,-1.0345550958568865,-8.432725365654681,1286.4468864468863,-1.0,54.77614019446689,0.2123713154328232,
2023-08-21 17:41:55.968000,-5.349397590361446,-2.144578313253012,-8.216867469879519,-2.1557326793378295,-4.971796443899448,-7.889638258736971,3.0,0.21245421245421242,4706.896551724139,-3.611677641163103,-1.2177612027271156,-8.707534525960023,1279.8534798534797,-1.0,54.77614019446689,0.21237147917384405,
2023-08-21 17:41:55.975000,-5.349397590361446,-2.1566265060240966,-8.216867469879519,-2.1017780502759043,-4.9963212752912325,-7.882280809319435,3.0,0.21245421245421242,4706.896551724139,-3.8406852747508893,-1.6299749431851307,-9.043412388555444,1272.5274725274724,-1.0,54.77614019446689,0.21237164012353357,
2023-08-21 17:41:55.983000,-5.337349397590362,-2.1566265060240966,-8.204819277108435,-2.128755364806867,-4.979153893316983,-7.8626609442060085,3.0,0.21245421245421242,4706.896551724139,-3.9628226793310417,-1.4467688363149018,-9.791503991608879,1265.2014652014652,-1.0,54.77614019446689,0.21237179829817146,
2023-08-21 17:41:55.991000,-5.325301204819278,-2.1566265060240966,-8.180722891566266,-2.2047823421213977,-4.9742489270386265,-7.8700183936235435,3.0,0.21245421245421242,4706.896551724139,-3.7185478701707364,-1.7368451721927645,-10.218984907639413,1256.4102564102564,-1.0,54.77614019446689,0.21237195375829482,
2023-08-21 17:41:55.998000,-5.301204819277109,-2.180722891566265,-8.144578313253012,-2.182709993868792,-4.881054567749846,-7.81361128142244,3.0,0.21245421245421242,4706.896551724139,-4.054425732766156,-2.408600897383604,-10.661732999242467,1248.3516483516482,-1.0,54.77614019446689,0.21237210660793482,
2023-08-21 17:41:56.006000,-5.265060240963856,-2.168674698795181,-8.120481927710843,-2.118945432250153,-4.876149601471489,-7.855303494788473,3.0,0.21245421245421242,4706.896551724139,-4.146028786201271,-2.759745935551543,-10.814404754967658,1245.4212454212454,-1.0,54.77614019446689,0.21237225699371698,
2023-08-21 17:41:56.014000,-5.253012048192772,-2.0843373493975905,-8.132530120481928,-2.0453709380748006,-4.903126916002452,-7.879828326180257,3.0,0.21245421245421242,4706.896551724139,-4.695647106811958,-3.1719596760095583,-11.486160480158498,1245.4212454212454,-1.0,54.77614019446689,0.21237240510383096,
2023-08-21 17:41:56.021000,-5.228915662650603,-2.1566265060240966,-8.132530120481928,-2.1459227467811157,-4.903126916002452,-7.784181483752299,3.0,0.2128982128982129,4697.080291970803,-4.695647106811958,-3.1719596760095583,-11.486160480158498,1250.5494505494505,-1.0,54.77614019446689,0.21237255116687512,
2023-08-21 17:41:56.029000,-5.228915662650603,-2.180722891566265,-8.132530120481928,-2.1385652973635807,-4.885959534028204,-7.845493562231759,3.0,0.21245421245421242,4706.896551724139,-5.260532602995164,-3.2940970805897107,-11.165549793135597,1262.2710622710622,-1.0,54.77614019446689,0.21237269559987465,
2023-08-21 17:41:56.037000,-5.228915662650603,-2.180722891566265,-8.132530120481928,-2.1729000613120784,-4.888412017167382,-7.889638258736971,3.0,0.21245421245421242,4706.896551724139,-5.978089854903561,-3.3704329584523065,-11.302954373288268,1262.2710622710622,-1.0,54.77614019446689,0.21237283901822554,
2023-08-21 17:41:56.044000,-5.216867469879518,-2.132530120481928,-8.216867469879519,-2.136112814224402,-4.84426732066217,-7.8626609442060085,3.0,0.2128982128982129,4697.080291970803,-6.420837946506614,-3.110890973719482,-11.028145212982924,1301.8315018315018,-1.0,54.77614019446689,0.21237298205488223,
2023-08-21 17:41:56.052000,-5.253012048192772,-2.1204819277108435,-8.19277108433735,-2.106683016554261,-4.841814837522992,-7.845493562231759,3.0,0.2128982128982129,4697.080291970803,-6.2681661907814235,-3.0040207447118483,-11.028145212982924,1331.8681318681317,-1.0,54.77614019446689,0.2123731254989977,
2023-08-21 17:41:56.060000,-5.27710843373494,-2.108433734939759,-8.180722891566266,-2.0846106683016554,-4.866339668914776,-7.8847332924586135,3.0,0.2128982128982129,4697.080291970803,-6.222364664063866,-2.6834100576889477,-10.585397121379872,1371.4285714285713,-1.0,54.77614019446689,0.21237327017864155,
2023-08-21 17:41:56.067000,-5.301204819277109,-2.108433734939759,-8.180722891566266,-2.0870631514408338,-4.991416309012875,-7.872470876762722,3.0,0.2128982128982129,4697.080291970803,-6.604044053376843,-3.187226851582077,-11.089213915273001,1419.7802197802198,-1.0,54.77614019446689,0.21237341684341413,
2023-08-21 17:41:56.075000,-5.325301204819278,-2.0843373493975905,-8.156626506024097,-2.0551808706315144,-4.9742489270386265,-7.889638258736971,3.0,0.21334221334221332,4687.304890738814,-6.634578404521881,-2.9124176912767337,-11.577763533593611,1471.7948717948716,-1.0,54.77614019446689,0.21237356631332238,
2023-08-21 17:41:56.083000,-5.36144578313253,-2.036144578313253,-8.156626506024097,-2.111587982832618,-4.915389331698345,-7.882280809319435,3.0,0.21378621378621376,4677.5700934579445,-7.0467921449798965,-2.942952042421772,-11.959442922906588,1528.2051282051282,-1.0,54.77614019446689,0.21237371962774945,
2023-08-21 17:41:56.090000,-5.397590361445784,-2.108433734939759,-8.204819277108435,-2.060085836909871,-5.052728387492336,-7.8405885959534025,3.0,0.21467421467421466,4658.221302998966,-7.504807412155469,-3.7673795233378025,-12.783870403822618,1586.080586080586,-1.0,54.77614019446689,0.2123738783551474,
2023-08-21 17:41:56.098000,-5.445783132530121,-1.7710843373493976,-8.228915662650603,-1.719190680564071,-5.0036787247087675,-8.056407112201104,3.0,0.21600621600621597,4629.4964028776985,-6.3292348930715,-5.278829905017192,-13.531962006876054,1641.7582417582416,-1.0,54.77614019446689,0.21237404461717496,
2023-08-21 17:41:56.106000,-5.445783132530121,-1.8072289156626506,-8.46987951807229,-1.841814837522992,-5.050275904353157,-8.225628448804414,3.0,0.21600621600621597,4629.4964028776985,-7.810150923605851,-7.156692500437039,-14.402191014509642,1695.2380952380952,-1.0,54.77614019446689,0.2123742213174828,
2023-08-21 17:41:56.113000,-5.289156626506024,-2.096385542168675,-8.313253012048193,-2.128755364806867,-4.952176578786021,-7.950950337216431,3.0,0.2164502164502164,4620.000000000001,-7.688013519025699,-6.164326088223299,-15.4098246022959,1745.7875457875457,-1.0,54.77614019446689,0.21237441208626784,
2023-08-21 17:41:56.121000,-5.19277108433735,-2.240963855421687,-8.024096385542169,-2.2685469037400368,-4.760882893930104,-7.700797057020233,3.0,0.2164502164502164,4620.000000000001,-5.397937183147835,-2.927684866849253,-14.570129945807352,1784.6153846153845,-1.0,54.77614019446689,0.2123746210262934,
2023-08-21 17:41:56.129000,-5.216867469879518,-2.1566265060240966,-7.987951807228916,-2.153280196198651,-4.873697118332311,-7.754751686082158,3.0,0.21600621600621597,4629.4964028776985,-6.802517335819592,-3.110890973719482,-14.783870403822618,1813.186813186813,-1.0,54.77614019446689,0.2123748527490195,
2023-08-21 17:41:56.136000,-5.216867469879518,-2.1566265060240966,-7.987951807228916,-2.160637645616186,-4.802575107296137,-7.8773758430410785,3.0,0.21600621600621597,4629.4964028776985,-8.787250160247073,-5.691043645475207,-15.150282617563077,1813.186813186813,-1.0,54.77614019446689,0.2123751121036913,
2023-08-21 17:41:56.144000,-5.156626506024097,-2.2289156626506026,-8.204819277108435,-2.2317596566523603,-4.775597792765175,-7.8847332924586135,3.0,0.21600621600621597,4629.4964028776985,-9.245265427422645,-7.065089447001925,-14.860206281685214,1839.5604395604394,-1.0,54.77614019446689,0.21237540417385958,
2023-08-21 17:41:56.152000,-5.132530120481928,-2.27710843373494,-8.156626506024097,-2.2857142857142856,-4.755977927651747,-7.820968730839975,3.0,0.21556221556221555,4639.03192584964,-8.741448633529515,-7.4315016607423825,-15.028145212982924,1839.5604395604394,-1.0,54.77614019446689,0.2123757344339675,
2023-08-21 17:41:56.159000,-5.120481927710844,-2.2650602409638556,-8.048192771084338,-2.2660944206008584,-4.763335377069282,-7.727774371551195,3.0,0.21511821511821508,4648.6068111455115,-7.962822679331041,-7.14142532486452,-14.814404754967658,1828.5714285714284,-1.0,54.77614019446689,0.2123761086186882,
2023-08-21 17:41:56.167000,-5.120481927710844,-2.2650602409638556,-8.060240963855422,-2.2636419374616796,-4.805027590435316,-7.76701410177805,3.0,0.21423021423021424,4667.875647668394,-8.375036419789057,-5.706310821047726,-14.371656663364604,1810.2564102564102,-1.0,54.77614019446689,0.21237653257101502,
2023-08-21 17:41:56.175000,-5.132530120481928,-2.2289156626506026,-8.096385542168676,-2.229307173513182,-4.753525444512569,-7.762109135499693,3.0,0.21378621378621376,4677.5700934579445,-9.123128022842492,-4.46966959967368,-14.26478643435697,1787.5457875457873,-1.0,54.77614019446689,0.21237701207857354,
2023-08-21 17:41:56.182000,-5.1807228915662655,-2.2289156626506026,-8.096385542168676,-2.2611894543225013,-4.873697118332311,-7.771919068056406,3.0,0.2128982128982129,4697.080291970803,-9.16892954956005,-4.2101276149408555,-13.883107045043992,1764.8351648351647,-1.0,54.77614019446689,0.21237755283574497,
2023-08-21 17:41:56.190000,-5.216867469879518,-2.180722891566265,-8.120481927710843,-2.2342121397915387,-4.846719803801348,-7.757204169221336,3.0,0.21245421245421242,4706.896551724139,-8.955189091544781,-4.362799370666047,-13.822038342753917,1745.054945054945,-1.0,54.77614019446689,0.2123781605521992,
