Shimmer_F5D4_Timestamp_FormattedUnix_CAL,Shimmer_F5D4_Accel_LN_X_CAL,Shimmer_F5D4_Accel_LN_Y_CAL,Shimmer_F5D4_Accel_LN_Z_CAL,Shimmer_F5D4_Accel_WR_X_CAL,Shimmer_F5D4_Accel_WR_Y_CAL,Shimmer_F5D4_Accel_WR_Z_CAL,Shimmer_F5D4_GSR_Range_CAL,Shimmer_F5D4_GSR_Skin_Conductance_CAL,Shimmer_F5D4_GSR_Skin_Resistance_CAL,Shimmer_F5D4_Gyro_X_CAL,Shimmer_F5D4_Gyro_Y_CAL,Shimmer_F5D4_Gyro_Z_CAL,Shimmer_F5D4_PPG_A13_CAL,Shimmer_F5D4_PPG_IBI_CAL,Shimmer_F5D4_PPGtoHR_CAL,Shimmer_F5D4_GSR_Skin_Conductance_LPF_CAL,
yyyy/mm/dd hh:mm:ss.000,m/(s^2),m/(s^2),m/(s^2),m/(s^2),m/(s^2),m/(s^2),no_units,uS,kOhms,deg/s,deg/s,deg/s,mV,ms,BPM,uS,
2023-08-09 16:11:04.517000,-3.891566265060241,0.07228915662650603,-9.156626506024097,0.164316370324954,-3.5248313917841814,-8.880441446965051,2.0,4.2,238.09523809523807,-0.13216013052852368,0.13064506730376935,-0.20698094516636564,1168.4981684981685,-1.0,78.32988047808765,4.197557741309579,
2023-08-09 16:11:04.524000,-3.9036144578313254,0.08433734939759037,-9.168674698795181,0.13979153893316984,-3.517473942366646,-8.895156345800123,2.0,4.2,238.09523809523807,0.14614532952625184,-0.06701241186411114,-0.12831420080414915,1177.2893772893772,-1.0,78.32988047808765,4.197791976634694,
2023-08-09 16:11:04.532000,-3.879518072289157,0.07228915662650603,-9.156626506024097,0.15695892090741875,-3.4733292458614344,-8.870631514408338,2.0,4.2,238.09523809523807,0.11188159198181996,0.08379465066138284,-0.12854728745411126,1183.150183150183,-1.0,78.32988047808765,4.198021592631246,
2023-08-09 16:11:04.540000,-3.891566265060241,0.060240963855421686,-9.144578313253012,0.14224402207234824,-3.446351931330472,-8.897608828939301,2.0,4.2,238.09523809523807,0.03484645416933779,0.0045451896742613,-0.06759512848901576,1186.8131868131868,-1.0,78.32988047808765,4.198246588115023,
2023-08-09 16:11:04.547000,-3.891566265060241,0.04819277108433735,-9.156626506024097,0.11771919068056406,-3.500306560392397,-8.86817903126916,2.0,4.2,238.09523809523807,-0.01281976574791631,0.06771167181399616,-0.1278480275042245,1186.8131868131868,-1.0,78.32988047808765,4.198466961442495,
2023-08-09 16:11:04.555000,-3.9036144578313254,0.03614457831325302,-9.144578313253012,0.16922133660331085,-3.4684242795830778,-8.855916615573268,2.0,4.201465201465202,238.01220575414123,-0.012237049123012128,0.06829438843890208,-0.12551716100460344,1187.5457875457876,-1.0,78.32988047808765,4.1986827105972555,
2023-08-09 16:11:04.563000,-3.879518072289157,0.03614457831325302,-9.132530120481928,0.10300429184549356,-3.4904966278356833,-8.851011649294911,2.0,4.198534798534799,238.17832838946083,-0.026921508070625294,-0.008857292698560929,-0.2625721111823318,1187.5457875457876,-1.0,78.32988047808765,4.198893833279908,
2023-08-09 16:11:04.570000,-3.879518072289157,0.024096385542168676,-9.144578313253012,0.10300429184549356,-3.451256897608829,-8.870631514408338,2.0,4.198534798534799,238.17832838946083,-0.05745585921566346,0.19101450964396066,-0.09055416351028481,1189.0109890109889,-1.0,78.32988047808765,4.199100327070904,
2023-08-09 16:11:04.578000,-3.9036144578313254,0.03614457831325302,-9.144578313253012,0.10545677498467197,-3.441446965052115,-8.85346413243409,2.0,4.198534798534799,238.17832838946083,-0.17889400384592938,-0.16152904842375176,-0.1062875123827281,1192.6739926739926,-1.0,78.32988047808765,4.199302189248961,
2023-08-09 16:11:04.586000,-3.879518072289157,0.04819277108433735,-9.156626506024097,0.12998160637645614,-3.470876762722256,-8.831391784181482,2.0,4.2,238.09523809523807,0.21898490763941522,-0.2841326263038278,-0.24101159606083541,1196.3369963369962,-1.0,78.32988047808765,4.199499416362264,
2023-08-09 16:11:04.593000,-3.879518072289157,0.04819277108433735,-9.144578313253012,0.15695892090741875,-3.4659717964438994,-8.86817903126916,2.0,4.2,238.09523809523807,-0.05815511916555022,-0.29695239205174584,0.05197832294155373,1200.7326007326008,-1.0,78.32988047808765,4.199692004853529,
2023-08-09 16:11:04.601000,-3.879518072289157,0.03614457831325302,-9.168674698795181,0.134886572654813,-3.5076640098099325,-8.877988963825873,2.0,4.198534798534799,238.17832838946083,0.24800419555969905,-0.43284190897966324,0.2213157741390363,1203.6630036630036,-1.0,78.32988047808765,4.199879951721432,
2023-08-09 16:11:04.609000,-3.891566265060241,0.060240963855421686,-9.180722891566266,0.1496014714898835,-3.4537093807480073,-8.851011649294911,2.0,4.198534798534799,238.17832838946083,-0.06083561564011466,-0.10990035545714054,-0.08262921741157274,1206.5934065934066,-1.0,78.32988047808765,4.200063253638918,
2023-08-09 16:11:04.616000,-3.891566265060241,0.04819277108433735,-9.168674698795181,0.13979153893316984,-3.48068669527897,-8.860821581851624,2.0,4.198534798534799,238.17832838946083,-0.16887127789755835,0.1984732824427481,0.2531321018588658,1209.5238095238094,-1.0,78.32988047808765,4.200241906528569,
2023-08-09 16:11:04.624000,-3.855421686746988,0.03614457831325302,-9.132530120481928,0.10055180870631514,-3.4782342121397916,-8.904966278356836,2.0,4.198534798534799,238.17832838946083,0.01503408892255741,0.3062758580502301,0.024357554921041684,1212.4542124542124,-1.0,78.32988047808765,4.200415906612342,
2023-08-09 16:11:04.632000,-3.879518072289157,0.060240963855421686,-9.10843373493976,0.14714898835070508,-3.4757817290006128,-8.843654199877376,2.0,4.198534798534799,238.17832838946083,0.07540353126274699,0.07738476778742467,0.1935784627935434,1210.989010989011,-1.0,78.32988047808765,4.200585250477095,
2023-08-09 16:11:04.639000,-3.879518072289157,0.08433734939759037,-9.156626506024097,0.12998160637645614,-3.4978540772532187,-8.863274064990803,2.0,4.198534798534799,238.17832838946083,0.07528698793776616,-0.28751238272827895,0.02575607482081476,1207.3260073260074,-1.0,78.32988047808765,4.200749935175833,
2023-08-09 16:11:04.647000,-3.8674698795180724,0.07228915662650603,-9.144578313253012,0.04904966278356836,-3.510116492949111,-8.860821581851624,2.0,4.198534798534799,238.17832838946083,-0.12365246780490702,0.25173358195909273,0.026571878095681917,1202.9304029304028,-1.0,78.32988047808765,4.200909958294863,
2023-08-09 16:11:04.655000,-3.879518072289157,0.060240963855421686,-9.144578313253012,0.12017167381974249,-3.4855916615573266,-8.831391784181482,2.0,4.198534798534799,238.17832838946083,-0.06270030883981152,0.16141250509877092,0.07377192471301224,1199.2673992673992,-1.0,78.32988047808765,4.201065318056299,
2023-08-09 16:11:04.662000,-3.891566265060241,0.060240963855421686,-9.144578313253012,0.164316370324954,-3.4782342121397916,-8.83874923359902,2.0,4.198534798534799,238.17832838946083,-0.09311811665986884,-0.06619660858924355,-0.15814929199930056,1191.9413919413919,-1.0,78.32988047808765,4.2012160138439505,
2023-08-09 16:11:04.670000,-3.891566265060241,0.07228915662650603,-9.144578313253012,0.1520539546290619,-3.488044144696505,-8.90006131207848,2.0,4.198534798534799,238.17832838946083,-0.3224753802225976,-0.1100168987821231,-0.27877163335469973,1183.150183150183,-1.0,78.32988047808765,4.2013620453232985,
2023-08-09 16:11:04.677000,-3.879518072289157,0.060240963855421686,-9.180722891566266,0.09319435928877988,-3.512568976088289,-8.907418761496015,2.0,4.197069597069597,238.26147669750392,-0.09078725016024691,-0.03135015441990576,-9.323465998484274E-4,1174.3589743589744,-1.0,78.32988047808765,4.201503413071515,
2023-08-09 16:11:04.685000,-3.9036144578313254,0.07228915662650603,-9.180722891566266,0.1226241569589209,-3.4659717964438994,-8.90006131207848,2.0,4.197069597069597,238.26147669750392,0.07773439776236893,-0.15150632247538073,0.21478934794009685,1166.3003663003662,-1.0,78.32988047808765,4.201640118575464,
2023-08-09 16:11:04.693000,-3.891566265060241,0.07228915662650603,-9.180722891566266,0.1618638871857756,-3.4954015941140404,-8.865726548129981,2.0,4.197069597069597,238.26147669750392,0.28995979255288173,0.04871510984208337,-0.15104014917545608,1160.4395604395604,-1.0,78.32988047808765,4.201772163771104,
2023-08-09 16:11:04.700000,-3.8674698795180724,0.07228915662650603,-9.180722891566266,0.15941140404659718,-3.4610668301655423,-8.85346413243409,2.0,4.197069597069597,238.26147669750392,0.3643144338907995,0.14066779325214213,-0.23996270613600615,1156.0439560439559,-1.0,78.32988047808765,4.201899551564324,
2023-08-09 16:11:04.708000,-3.8674698795180724,0.08433734939759037,-9.168674698795181,0.12752912323727775,-3.4978540772532187,-8.863274064990803,2.0,4.197069597069597,238.26147669750392,0.010721985898257782,-0.029135831245264657,-0.19148068294388446,1155.3113553113553,-1.0,78.32988047808765,4.20202228592699,
2023-08-09 16:11:04.716000,-3.891566265060241,0.07228915662650603,-9.180722891566266,0.09319435928877988,-3.4855916615573266,-8.828939301042304,2.0,4.194139194139194,238.42794759825327,0.3759687663889057,-0.0904376201853044,0.05500844939106112,1160.4395604395604,811.95068359375,73.89611365857326,4.202140371956326,
2023-08-09 16:11:04.723000,-3.8674698795180724,0.08433734939759037,-9.168674698795181,0.15450643776824033,-3.470876762722256,-8.858369098712446,2.0,4.195604395604396,238.34468308014667,0.033564477594545124,-0.34951343161820375,0.023075578346250313,1175.0915750915751,-1.0,73.89611365857326,4.202253815897531,
2023-08-09 16:11:04.731000,-3.8674698795180724,0.060240963855421686,-9.156626506024097,0.13243408951563457,-3.4365419987737584,-8.86817903126916,2.0,4.195604395604396,238.34468308014667,0.1828564768952865,-0.023774838296135765,-0.050113629741856444,1207.3260073260074,-1.0,73.89611365857326,4.202362625412828,
2023-08-09 16:11:04.739000,-3.9036144578313254,0.07228915662650603,-9.156626506024097,0.18884120171673818,-3.4733292458614344,-8.863274064990803,2.0,4.195604395604396,238.34468308014667,0.22411281393858243,-0.2348347998368385,0.12155468795524718,1260.8058608058607,-1.0,73.89611365857326,4.202466809211513,
2023-08-09 16:11:04.746000,-3.9036144578313254,0.08433734939759037,-9.180722891566266,0.10055180870631514,-3.4733292458614344,-8.855916615573268,2.0,4.194139194139194,238.42794759825327,0.03834275391876983,-0.09381737660975387,0.1504574325505506,1340.6593406593406,-1.0,73.89611365857326,4.202566376710555,
2023-08-09 16:11:04.754000,-3.9036144578313254,0.08433734939759037,-9.156626506024097,0.12998160637645614,-3.534641324340895,-8.86817903126916,2.0,4.195604395604396,238.34468308014667,-0.0848435405862121,-0.2765573101800595,0.16560806479808884,1447.6190476190475,-1.0,73.89611365857326,4.2026613376541935,
2023-08-09 16:11:04.762000,-3.9036144578313254,0.08433734939759037,-9.168674698795181,0.11771919068056406,-3.48068669527897,-8.890251379521766,2.0,4.195604395604396,238.34468308014667,0.29648621875182074,-0.1523221257502483,0.08938873026047427,1584.6153846153845,-1.0,73.89611365857326,4.202751703098631,
2023-08-09 16:11:04.769000,-3.891566265060241,0.0963855421686747,-9.144578313253012,0.1226241569589209,-3.5199264255058242,-8.909871244635193,2.0,4.195604395604396,238.34468308014667,0.30674203135015515,0.15395373229998177,0.2732940970805896,1747.2527472527472,-1.0,73.89611365857326,4.202837486427882,
2023-08-09 16:11:04.777000,-3.9036144578313254,0.0963855421686747,-9.168674698795181,0.17903126916002451,-3.5370938074800735,-8.870631514408338,2.0,4.195604395604396,238.34468308014667,0.2259775071382793,1.1654332498083647E-4,-0.07983217761202745,1928.2051282051282,-1.0,73.89611365857326,4.202918702435165,
2023-08-09 16:11:04.785000,-3.9036144578313254,0.07228915662650603,-9.180722891566266,0.20110361741263028,-3.539546290619252,-8.85346413243409,2.0,4.194139194139194,238.42794759825327,0.10197540935842977,-0.027620768020512047,-0.15395373229998263,2117.2161172161173,-1.0,73.89611365857326,4.202995367386148,
2023-08-09 16:11:04.792000,-3.9036144578313254,0.10843373493975904,-9.156626506024097,0.19374616799509503,-3.5150214592274676,-8.843654199877376,2.0,4.194139194139194,238.42794759825327,-0.06817784511392125,0.06351611211467911,0.16945399452246382,2301.8315018315016,-1.0,73.89611365857326,4.203067498551317,
2023-08-09 16:11:04.800000,-3.879518072289157,0.07228915662650603,-9.180722891566266,0.1226241569589209,-3.4733292458614344,-8.890251379521766,2.0,4.194139194139194,238.42794759825327,0.05372647281626975,0.09521589650952737,-0.002447409824602339,2473.260073260073,-1.0,73.89611365857326,4.203135114190339,
2023-08-09 16:11:04.808000,-3.9036144578313254,0.07228915662650603,-9.168674698795181,0.12017167381974249,-3.5076640098099325,-8.885346413243408,2.0,4.194139194139194,238.42794759825327,-0.17551424742147817,0.09346774663481136,0.055707709340947445,2622.7106227106224,-1.0,73.89611365857326,4.2031982344807455,
2023-08-09 16:11:04.815000,-3.879518072289157,0.0963855421686747,-9.156626506024097,0.12507664009809932,-3.48068669527897,-8.875536480686694,2.0,4.194139194139194,238.42794759825327,-0.46407552007458813,-0.32002797039799485,0.19159722626886527,2741.391941391941,-1.0,73.89611365857326,4.20325688103692,
2023-08-09 16:11:04.823000,-3.879518072289157,0.07228915662650603,-9.156626506024097,0.1079092581238504,-3.4733292458614344,-8.875536480686694,2.0,4.194139194139194,238.42794759825327,-0.3998601480100223,-0.10360701590816322,-0.07190723151331495,2805.8608058608056,-1.0,73.89611365857326,4.203311076952628,
2023-08-09 16:11:04.831000,-3.8674698795180724,0.07228915662650603,-9.180722891566266,0.13979153893316984,-3.4733292458614344,-8.90006131207848,2.0,4.194139194139194,238.42794759825327,-0.39554804498572266,-0.10442281918303081,-0.07237340481323917,2805.8608058608056,-1.0,73.89611365857326,4.203360846805137,
2023-08-09 16:11:04.838000,-3.879518072289157,0.08433734939759037,-9.168674698795181,0.11771919068056406,-3.500306560392397,-8.902513795217658,2.0,4.194139194139194,238.42794759825327,-0.4950760445195497,-0.10244158265835313,-0.2856476895285821,2805.128205128205,-1.0,73.89611365857326,4.203406216690656,
2023-08-09 16:11:04.846000,-3.9036144578313254,0.060240963855421686,-9.144578313253012,0.14714898835070508,-3.54199877375843,-8.828939301042304,2.0,4.194139194139194,238.42794759825327,-0.17096905774721688,0.04953091311695096,0.26560223763183965,2805.8608058608056,-1.0,73.89611365857326,4.203447214221764,
2023-08-09 16:11:04.854000,-3.879518072289157,0.08433734939759037,-9.156626506024097,0.13243408951563457,-3.5370938074800735,-8.924586143470263,2.0,4.192673992673993,238.511270312773,-0.398811258085193,-0.0870578637608532,-0.04102325039333384,2757.5091575091574,-1.0,73.89611365857326,4.203483868556619,
2023-08-09 16:11:04.861000,-3.891566265060241,0.07228915662650603,-9.132530120481928,0.134886572654813,-3.470876762722256,-8.801961986511342,2.0,4.194139194139194,238.42794759825327,0.0791329176621407,0.09719713303420506,0.20674785851640354,2668.8644688644686,-1.0,73.89611365857326,4.203516210355811,
2023-08-09 16:11:04.869000,-3.9036144578313254,0.08433734939759037,-9.156626506024097,0.1618638871857756,-3.5321888412017164,-8.814224402207234,2.0,4.191208791208791,238.59465128474042,0.016432608822329185,0.05127906299166698,0.0375269506439018,2550.915750915751,-1.0,73.89611365857326,4.203544271701671,
2023-08-09 16:11:04.877000,-3.891566265060241,0.0963855421686747,-9.168674698795181,0.1226241569589209,-3.4316370324954013,-8.870631514408338,2.0,4.191208791208791,238.59465128474042,-0.16572460812307055,0.5367985548627707,0.16048015849892205,2415.3846153846152,-1.0,73.89611365857326,4.203568086118921,
2023-08-09 16:11:04.884000,-3.9036144578313254,0.08433734939759037,-9.168674698795181,0.16676885346413242,-3.4855916615573266,-8.90006131207848,2.0,4.191208791208791,238.59465128474042,0.12621642095449062,-0.0759862478876529,-0.2385641862362335,2268.131868131868,-1.0,73.89611365857326,4.203587687891161,
2023-08-09 16:11:04.892000,-3.879518072289157,0.07228915662650603,-9.144578313253012,0.14224402207234824,-3.4684242795830778,-8.833844267320663,2.0,4.191208791208791,238.59465128474042,-0.10255812598333396,-0.013868655672745575,0.14626187285123224,2116.4835164835163,-1.0,73.89611365857326,4.203603112495807,
2023-08-09 16:11:04.900000,-3.891566265060241,0.07228915662650603,-9.144578313253012,0.1079092581238504,-3.4438994481912935,-8.816676885346412,2.0,4.191208791208791,238.59465128474042,0.21898490763941522,-0.04486918011770882,0.0984791096089973,1964.102564102564,-1.0,73.89611365857326,4.203614396577575,
2023-08-09 16:11:04.907000,-3.8674698795180724,0.08433734939759037,-9.156626506024097,0.12507664009809932,-3.512568976088289,-8.848559166155733,2.0,4.191208791208791,238.59465128474042,0.2320377600372932,0.0018646931996968547,0.2207330575141308,1818.3150183150183,-1.0,73.89611365857326,4.203621577953447,
2023-08-09 16:11:04.915000,-3.8674698795180724,0.060240963855421686,-9.156626506024097,0.11771919068056406,-3.5052115266707538,-8.863274064990803,2.0,4.18974358974359,238.67809057527538,0.19928908571761567,-0.15220558242526575,0.03554571411922368,1684.249084249084,-1.0,73.89611365857326,4.203624696037798,
2023-08-09 16:11:04.923000,-3.9036144578313254,0.060240963855421686,-9.156626506024097,0.15695892090741875,-3.4561618638871856,-8.865726548129981,2.0,4.191208791208791,238.59465128474042,0.2731775537556083,0.0,0.06503117533943259,1563.3699633699632,-1.0,73.89611365857326,4.203623790824078,
2023-08-09 16:11:04.930000,-3.8674698795180724,0.07228915662650603,-9.168674698795181,0.12017167381974249,-3.4365419987737584,-8.892703862660944,2.0,4.18974358974359,238.67809057527538,0.408833984033564,-0.0018646931996968547,-0.2877454693782415,1458.6080586080584,-1.0,73.89611365857326,4.203618903304536,
2023-08-09 16:11:04.938000,-3.9036144578313254,0.07228915662650603,-9.168674698795181,0.11526670754138564,-3.529736358062538,-8.924586143470263,2.0,4.18974358974359,238.67809057527538,0.2523162985839987,-0.0949828098595657,0.07901637433715986,1367.7655677655678,-1.0,73.89611365857326,4.203610075464423,
2023-08-09 16:11:04.946000,-3.879518072289157,0.060240963855421686,-9.180722891566266,0.0809319435928878,-3.488044144696505,-8.83629675045984,2.0,4.18974358974359,238.67809057527538,0.35580677116718107,0.07260649146320171,0.1983567391177668,1286.4468864468863,-1.0,73.89611365857326,4.203597349746703,
2023-08-09 16:11:04.953000,-3.879518072289157,0.07228915662650603,-9.180722891566266,0.164316370324954,-3.4954015941140404,-8.892703862660944,2.0,4.18974358974359,238.67809057527538,0.13740458015267176,0.19439426606841012,-0.18367228017015322,1215.3846153846152,-1.0,73.89611365857326,4.203580769920969,
2023-08-09 16:11:04.961000,-3.879518072289157,0.060240963855421686,-9.180722891566266,0.15450643776824033,-3.4954015941140404,-8.895156345800123,2.0,4.18974358974359,238.67809057527538,0.12073888468037916,-0.0666627818891669,-0.05897092244041737,1155.3113553113553,-1.0,73.89611365857326,4.203560381002602,
2023-08-09 16:11:04.969000,-3.879518072289157,0.04819277108433735,-9.156626506024097,0.1618638871857756,-3.4144696505211525,-8.873083997547516,2.0,4.1882783882783885,238.76158824558334,-0.0045451896742613,0.16187867839869427,-0.0885729269856071,1105.4945054945053,-1.0,73.89611365857326,4.2035362287149916,
2023-08-09 16:11:04.976000,-3.891566265060241,0.07228915662650603,-9.156626506024097,0.16676885346413242,-3.4831391784181482,-8.887798896382586,2.0,4.1882783882783885,238.76158824558334,-0.06817784511392125,-0.09708058970922423,-0.11899073480566401,1065.9340659340658,-1.0,73.89611365857326,4.203508358985255,
2023-08-09 16:11:04.984000,-3.879518072289157,0.060240963855421686,-9.19277108433735,0.15450643776824033,-3.5076640098099325,-8.885346413243408,2.0,4.1882783882783885,238.76158824558334,-0.1446302663014975,-0.10663714235767191,0.21910145096439607,1036.6300366300366,-1.0,73.89611365857326,4.203476818282711,
2023-08-09 16:11:04.992000,-3.8674698795180724,0.07228915662650603,-9.156626506024097,0.12998160637645614,-3.429184549356223,-8.860821581851624,2.0,4.1882783882783885,238.76158824558334,-0.09882873958394024,0.06316648213973486,-0.22516170386341128,1019.7802197802197,-1.0,73.89611365857326,4.203441653991106,
2023-08-09 16:11:04.999000,-3.855421686746988,0.04819277108433735,-9.144578313253012,0.12017167381974249,-3.4635193133047206,-8.855916615573268,2.0,4.186813186813188,238.84514435695536,-0.005360992949128891,0.17178486102208446,-0.05349338616630721,1013.9194139194138,-1.0,73.89611365857326,4.203402914324399,
2023-08-09 16:11:05.007000,-3.8674698795180724,0.07228915662650603,-9.168674698795181,0.11281422440220723,-3.4340895156345796,-8.851011649294911,2.0,4.186813186813188,238.84514435695536,-0.050812889691743635,0.09463317988462146,-0.006176796223996482,1019.0476190476189,-1.0,73.89611365857326,4.203360647751475,
2023-08-09 16:11:05.015000,-3.8674698795180724,0.08433734939759037,-9.180722891566266,0.18638871857755976,-3.4610668301655423,-8.855916615573268,2.0,4.1882783882783885,238.76158824558334,0.010955072548219456,0.1554687955247361,-0.03554571411922368,1035.8974358974358,-1.0,73.89611365857326,4.203314902385154,
2023-08-09 16:11:05.022000,-3.879518072289157,0.07228915662650603,-9.156626506024097,0.14714898835070508,-3.458614347026364,-8.86817903126916,2.0,4.185347985347986,238.9287589707684,0.1188741914806823,-0.012703222422935475,0.08845638366062585,1062.2710622710622,-1.0,73.89611365857326,4.2032657264575075,
2023-08-09 16:11:05.030000,-3.855421686746988,0.08433734939759037,-9.144578313253012,0.15695892090741875,-3.5027590435315754,-8.833844267320663,2.0,4.185347985347986,238.9287589707684,-0.01876347532195112,-0.07167414486335329,-0.2316881300623507,1100.3663003663003,-1.0,73.89611365857326,4.203213168794883,
2023-08-09 16:11:05.037000,-3.8192771084337354,0.0963855421686747,-9.180722891566266,0.16676885346413242,-3.4782342121397916,-8.880441446965051,2.0,4.186813186813188,238.84514435695536,-0.12575024765456555,0.051395606316647816,-0.15465299224986895,1146.5201465201465,-1.0,73.89611365857326,4.203157278031922,
2023-08-09 16:11:05.045000,-3.855421686746988,0.060240963855421686,-9.180722891566266,0.14224402207234824,-3.4635193133047206,-8.860821581851624,2.0,4.185347985347986,238.9287589707684,0.08985490356039848,0.020161995221722892,-0.06270030883981108,1194.1391941391942,-1.0,73.89611365857326,4.203098103019052,
2023-08-09 16:11:05.053000,-3.879518072289157,0.08433734939759037,-9.180722891566266,0.14714898835070508,-3.492949110974862,-8.860821581851624,2.0,4.185347985347986,238.9287589707684,0.13460754035312647,-0.08542625721111802,0.059320552415360314,1241.7582417582416,-1.0,73.89611365857326,4.203035692350916,
2023-08-09 16:11:05.060000,-3.843373493975904,0.08433734939759037,-9.144578313253012,0.17412630288166767,-3.4954015941140404,-8.828939301042304,2.0,4.185347985347986,238.9287589707684,0.34671639181865843,-0.26525260765689584,0.028320027970397933,1285.7142857142856,-1.0,73.89611365857326,4.202970093825456,
2023-08-09 16:11:05.068000,-3.855421686746988,0.08433734939759037,-9.144578313253012,0.14469650521152666,-3.4659717964438994,-8.841201716738198,2.0,4.185347985347986,238.9287589707684,0.11386282850649766,-0.0953324398345082,-0.015150632247537814,1326.007326007326,-1.0,73.89611365857326,4.202901354851574,
2023-08-09 16:11:05.076000,-3.8674698795180724,0.0963855421686747,-9.19277108433735,0.17412630288166767,-3.4757817290006128,-8.828939301042304,2.0,4.185347985347986,238.9287589707684,-0.03927510051861826,0.18250684692034225,0.09218577006001999,1367.032967032967,-1.0,73.89611365857326,4.202829522434565,
2023-08-09 16:11:05.083000,-3.879518072289157,0.07228915662650603,-9.180722891566266,0.2035561005518087,-3.510116492949111,-8.902513795217658,2.0,4.183882783882784,239.01243214848537,-0.23856418623623393,0.017831128722102692,-0.241827399335703,1405.8608058608058,-1.0,73.89611365857326,4.202754643586166,
2023-08-09 16:11:05.091000,-3.8674698795180724,0.07228915662650603,-9.216867469879519,0.16676885346413242,-3.416922133660331,-8.877988963825873,2.0,4.183882783882784,239.01243214848537,0.3859914923372767,-0.10150923605850469,-0.11631023833109956,1436.6300366300366,-1.0,73.89611365857326,4.202676764753477,
2023-08-09 16:11:05.099000,-3.8674698795180724,0.07228915662650603,-9.168674698795181,0.12017167381974249,-3.4904966278356833,-8.877988963825873,2.0,4.183882783882784,239.01243214848537,0.12050579803041749,-0.2814521298292633,-0.23798146961132802,1459.3406593406592,-1.0,73.89611365857326,4.202595931215059,
2023-08-09 16:11:05.106000,-3.8674698795180724,0.07228915662650603,-9.180722891566266,0.10055180870631514,-3.5199264255058242,-8.848559166155733,2.0,4.183882783882784,239.01243214848537,0.11782530155585304,-0.2780723734048139,-0.2366994930365362,1473.9926739926739,-1.0,73.89611365857326,4.202512187531325,
2023-08-09 16:11:05.114000,-3.879518072289157,0.0963855421686747,-9.168674698795181,0.17167381974248927,-3.4438994481912935,-8.892703862660944,2.0,4.183882783882784,239.01243214848537,0.2075636617912707,0.04580152671755725,-0.01946273527183744,1482.051282051282,-1.0,73.89611365857326,4.202425577962427,
2023-08-09 16:11:05.122000,-3.891566265060241,0.07228915662650603,-9.168674698795181,0.09319435928877988,-3.4733292458614344,-8.88289393010423,2.0,4.182417582417583,239.09616395165526,0.024007924946099175,-0.1665404113979364,-0.1555853388497174,1483.5164835164835,-1.0,73.89611365857326,4.202336146398652,
2023-08-09 16:11:05.129000,-3.8674698795180724,0.07228915662650603,-9.168674698795181,0.12752912323727775,-3.5052115266707538,-8.895156345800123,2.0,4.182417582417583,239.09616395165526,0.3774838296136583,0.04953091311695096,0.08997144688537975,1478.3882783882782,-1.0,73.89611365857326,4.202243935345538,
2023-08-09 16:11:05.137000,-3.9036144578313254,0.060240963855421686,-9.168674698795181,0.11526670754138564,-3.4267320662170446,-8.887798896382586,2.0,4.182417582417583,239.09616395165526,0.02447409824602252,-0.07015908163859894,-0.10838529223238749,1466.6666666666665,-1.0,73.89611365857326,4.2021489858601235,
2023-08-09 16:11:05.145000,-3.879518072289157,0.04819277108433735,-9.168674698795181,0.11281422440220723,-3.4831391784181482,-8.863274064990803,2.0,4.182417582417583,239.09616395165526,0.37853271953848755,-0.08437736728628875,-0.030767437795000272,1448.3516483516482,-1.0,73.89611365857326,4.2020513384384435,
2023-08-09 16:11:05.152000,-3.879518072289157,0.07228915662650603,-9.144578313253012,0.17903126916002451,-3.4561618638871856,-8.833844267320663,2.0,4.182417582417583,239.09616395165526,-0.09789639298409182,-0.31210302429928405,-0.18355573684517237,1424.1758241758241,-1.0,73.89611365857326,4.2019510329583225,
2023-08-09 16:11:05.160000,-3.891566265060241,0.060240963855421686,-9.180722891566266,0.08583690987124463,-3.4389944819129368,-8.858369098712446,2.0,4.182417582417583,239.09616395165526,-0.22015034088922533,-0.2490530854845283,0.27469261698036224,1394.8717948717947,-1.0,73.89611365857326,4.201848108628193,
2023-08-09 16:11:05.168000,-3.9036144578313254,0.04819277108433735,-9.144578313253012,0.17167381974248927,-3.510116492949111,-8.860821581851624,2.0,4.182417582417583,239.09616395165526,-0.12644950760445228,-0.30767437795000363,0.166423868072956,1362.6373626373625,-1.0,73.89611365857326,4.201742603484136,
2023-08-09 16:11:05.175000,-3.879518072289157,0.04819277108433735,-9.144578313253012,0.14469650521152666,-3.5027590435315754,-8.777437155119559,2.0,4.178021978021978,239.34771173066807,0.08659169046092811,-0.3967134782355345,-0.14020161995221703,1326.007326007326,-1.0,73.89611365857326,4.201634553960418,
2023-08-09 16:11:05.183000,-3.891566265060241,0.04819277108433735,-9.168674698795181,0.14469650521152666,-3.4316370324954013,-8.912323727774371,2.0,4.179487179487181,239.26380368098157,-0.03577880076918622,-0.27236175048074074,0.03100052444496238,1288.6446886446886,-1.0,73.89611365857326,4.201523994850416,
2023-08-09 16:11:05.191000,-3.91566265060241,0.060240963855421686,-9.168674698795181,0.16922133660331085,-3.5052115266707538,-8.858369098712446,2.0,4.179487179487181,239.26380368098157,-0.021443971796515564,-0.17586387739642242,-0.029135831245265524,1254.9450549450548,-1.0,73.89611365857326,4.201410959449017,
2023-08-09 16:11:05.198000,-3.891566265060241,0.07228915662650603,-9.156626506024097,0.1496014714898835,-3.446351931330472,-8.863274064990803,2.0,4.179487179487181,239.26380368098157,0.009206922673503438,-0.18868364314433872,-0.21199230814055114,1224.1758241758241,-1.0,73.89611365857326,4.201295480046025,
2023-08-09 16:11:05.206000,-3.9036144578313254,0.07228915662650603,-9.132530120481928,0.1103617412630288,-3.4733292458614344,-8.843654199877376,2.0,4.179487179487181,239.26380368098157,0.16071324514888416,0.13309247712837213,-0.08903910028553133,1194.1391941391942,-1.0,73.89611365857326,4.201177587932634,
2023-08-09 16:11:05.214000,-3.9036144578313254,0.07228915662650603,-9.156626506024097,0.1520539546290619,-3.5272838749233597,-8.855916615573268,2.0,4.178021978021978,239.34771173066807,-0.1604801584989225,0.16351028494842945,0.17003671114736887,1170.6959706959706,-1.0,73.89611365857326,4.2010573129212565,
2023-08-09 16:11:05.221000,-3.8674698795180724,0.060240963855421686,-9.144578313253012,0.12507664009809932,-3.4610668301655423,-8.870631514408338,2.0,4.179487179487181,239.26380368098157,-0.20604859856651633,0.009906182623390191,-0.107802575607482,1150.9157509157508,-1.0,73.89611365857326,4.20093468290391,
2023-08-09 16:11:05.229000,-3.891566265060241,0.07228915662650603,-9.19277108433735,0.17167381974248927,-3.441446965052115,-8.828939301042304,2.0,4.178021978021978,239.34771173066807,-0.13029543732882684,-0.2483538255346433,0.15010780257560766,1136.9963369963368,-1.0,73.89611365857326,4.2008097247509975,
2023-08-09 16:11:05.237000,-3.9036144578313254,0.08433734939759037,-9.168674698795181,0.13733905579399142,-3.522378908645003,-8.779889638258737,2.0,4.178021978021978,239.34771173066807,0.1287803741040725,-0.32130994697278753,0.2235300973136765,1126.7399267399267,-1.0,73.89611365857326,4.20068246387776,
2023-08-09 16:11:05.244000,-3.891566265060241,0.07228915662650603,-9.156626506024097,0.09074187614960147,-3.4659717964438994,-8.85346413243409,2.0,4.178021978021978,239.34771173066807,0.3111706776994339,-0.0745877279878794,-0.28156867315424505,1119.4139194139193,-1.0,73.89611365857326,4.200552923780126,
2023-08-09 16:11:05.252000,-3.8674698795180724,0.07228915662650603,-9.156626506024097,0.1520539546290619,-3.529736358062538,-8.83874923359902,2.0,4.178021978021978,239.34771173066807,0.3538255346425034,-0.012703222422935475,0.20861255171610038,1114.2857142857142,-1.0,73.89611365857326,4.200421126980979,
2023-08-09 16:11:05.260000,-3.91566265060241,0.07228915662650603,-9.168674698795181,0.0956468424279583,-3.5150214592274676,-8.833844267320663,2.0,4.176556776556777,239.4316786528679,0.10826874890740709,-0.05967018239030283,-0.09649787308431917,1109.1575091575091,-1.0,73.89611365857326,4.200287095032706,
2023-08-09 16:11:05.267000,-3.9036144578313254,0.07228915662650603,-9.168674698795181,0.17167381974248927,-3.5272838749233597,-8.890251379521766,2.0,4.176556776556777,239.4316786528679,0.24613950236000218,-0.12213740458015267,0.34729910844356393,1100.3663003663003,-1.0,73.89611365857326,4.200150848033964,
2023-08-09 16:11:05.275000,-3.9036144578313254,0.07228915662650603,-9.156626506024097,0.18148375229920294,-3.5199264255058242,-8.877988963825873,2.0,4.176556776556777,239.4316786528679,0.2143231746401731,-0.04685041664238651,0.1459122428762893,1093.040293040293,-1.0,73.89611365857326,4.200012404573753,
2023-08-09 16:11:05.283000,-3.8674698795180724,0.08433734939759037,-9.156626506024097,0.10545677498467197,-3.4757817290006128,-8.895156345800123,2.0,4.1750915750915745,239.51570450956308,-0.10850183555736877,0.24101159606083497,-0.02389138162111747,1086.4468864468863,-1.0,73.89611365857326,4.199871782206711,
2023-08-09 16:11:05.290000,-3.891566265060241,0.07228915662650603,-9.180722891566266,0.11526670754138564,-3.4978540772532187,-8.85346413243409,2.0,4.1750915750915745,239.51570450956308,0.1665404113979364,0.3587203542917072,-0.23821455626129012,1081.3186813186812,-1.0,73.89611365857326,4.199728996526107,
2023-08-09 16:11:05.298000,-3.891566265060241,0.07228915662650603,-9.180722891566266,0.11771919068056406,-3.551808706315144,-8.80441446965052,2.0,4.1750915750915745,239.51570450956308,0.2884447293281274,0.21770293106462255,0.11502826175630776,1082.051282051282,-1.0,73.89611365857326,4.1995840611883875,
2023-08-09 16:11:05.306000,-3.891566265060241,0.04819277108433735,-9.168674698795181,0.12752912323727775,-3.4904966278356833,-8.85346413243409,2.0,4.1750915750915745,239.51570450956308,-0.002214323174639364,0.12446827107977461,0.05372647281626932,1081.3186813186812,-1.0,73.89611365857326,4.199436988889249,
2023-08-09 16:11:05.313000,-3.891566265060241,0.07228915662650603,-9.168674698795181,0.16676885346413242,-3.4635193133047206,-8.828939301042304,2.0,4.1750915750915745,239.51570450956308,0.028553114620360476,0.12330283782996276,0.2377483829613659,1080.5860805860805,-1.0,73.89611365857326,4.199287791395035,
2023-08-09 16:11:05.321000,-3.879518072289157,0.060240963855421686,-9.168674698795181,0.12507664009809932,-3.4438994481912935,-8.858369098712446,2.0,4.1750915750915745,239.51570450956308,0.1358895169279174,-0.044752636792727986,0.12878037410407336,1082.7838827838827,-1.0,73.89611365857326,4.199136479121936,
2023-08-09 16:11:05.329000,-3.9036144578313254,0.060240963855421686,-9.156626506024097,0.06376456161863887,-3.488044144696505,-8.895156345800123,2.0,4.172161172161172,239.68393327480246,-0.13822038342753934,-0.05792203251558681,0.12656605092943313,1083.5164835164835,-1.0,73.89611365857326,4.198983061246021,
2023-08-09 16:11:05.336000,-3.8674698795180724,0.07228915662650603,-9.144578313253012,0.16676885346413242,-3.4782342121397916,-8.877988963825873,2.0,4.172161172161172,239.68393327480246,0.18040906707068372,-0.01281976574791631,0.06351611211467867,1092.3076923076922,-1.0,73.89611365857326,4.19882754571238,
2023-08-09 16:11:05.344000,-3.879518072289157,0.060240963855421686,-9.156626506024097,0.14224402207234824,-3.4659717964438994,-8.885346413243408,2.0,4.173626373626375,239.59978936282252,0.16246139502360019,0.4447293281277311,0.1687547345725775,1104.029304029304,-1.0,73.89611365857326,4.198669939073501,
2023-08-09 16:11:05.352000,-3.9036144578313254,0.07228915662650603,-9.19277108433735,0.17903126916002451,-3.5076640098099325,-8.90006131207848,2.0,4.173626373626375,239.59978936282252,-0.08391119398636367,0.028320027970398804,-0.030417807820056895,1116.4835164835165,-1.0,73.89611365857326,4.198510247454059,
2023-08-09 16:11:05.359000,-3.9036144578313254,0.07228915662650603,-9.156626506024097,0.164316370324954,-3.48068669527897,-8.875536480686694,2.0,4.172161172161172,239.68393327480246,-0.4202552298817086,0.09078725016024691,0.12237049123011477,1126.007326007326,-1.0,73.89611365857326,4.198348476675931,
2023-08-09 16:11:05.367000,-3.9036144578313254,0.07228915662650603,-9.180722891566266,0.1226241569589209,-3.470876762722256,-8.860821581851624,2.0,4.172161172161172,239.68393327480246,-0.26501952100693416,0.31909562379814643,0.1692209078725017,1135.5311355311355,-1.0,73.89611365857326,4.198184630911979,
2023-08-09 16:11:05.375000,-3.891566265060241,0.08433734939759037,-9.168674698795181,0.14469650521152666,-3.5199264255058242,-8.895156345800123,2.0,4.172161172161172,239.68393327480246,0.04113979371831512,0.5461220208612549,0.16770584464774782,1142.1245421245421,-1.0,73.89611365857326,4.198018712289517,
2023-08-09 16:11:05.382000,-3.879518072289157,0.07228915662650603,-9.168674698795181,0.18393623543838136,-3.4635193133047206,-8.890251379521766,2.0,4.172161172161172,239.68393327480246,0.03985781714352244,0.5404113979371835,0.1666569547229181,1148.7179487179487,-1.0,73.89611365857326,4.197850722426494,
2023-08-09 16:11:05.390000,-3.9036144578313254,0.07228915662650603,-9.168674698795181,0.0809319435928878,-3.4340895156345796,-8.880441446965051,2.0,4.172161172161172,239.68393327480246,0.05279412621642132,0.5209486626653457,0.011887419148068318,1154.5787545787546,-1.0,73.89611365857326,4.197680662917007,
2023-08-09 16:11:05.398000,-3.891566265060241,0.060240963855421686,-9.204819277108435,0.12507664009809932,-3.4855916615573266,-8.877988963825873,2.0,4.170695970695971,239.76813630774635,-0.16187867839869427,0.2583765514830143,0.013285939047840959,1158.974358974359,-1.0,73.89611365857326,4.197508534449568,
2023-08-09 16:11:05.405000,-3.8674698795180724,0.04819277108433735,-9.19277108433735,0.1103617412630288,-3.4022072348252603,-8.85346413243409,2.0,4.170695970695971,239.76813630774635,-0.34345317871918807,0.48307208204650093,0.10465590583299335,1161.904761904762,-1.0,73.89611365857326,4.197334336911988,
2023-08-09 16:11:05.413000,-3.879518072289157,0.04819277108433735,-9.204819277108435,0.10545677498467197,-3.5199264255058242,-8.927038626609441,2.0,4.170695970695971,239.76813630774635,-0.2013868655672742,0.22224812073888384,0.17807820057106222,1164.102564102564,-1.0,73.89611365857326,4.197158069358321,
2023-08-09 16:11:05.420000,-3.891566265060241,0.060240963855421686,-9.168674698795181,0.13979153893316984,-3.500306560392397,-8.846106683016554,2.0,4.170695970695971,239.76813630774635,-0.24707184895985063,0.23495134316182106,0.06945982168871262,1165.5677655677655,-1.0,73.89611365857326,4.196979730115568,
2023-08-09 16:11:05.428000,-3.879518072289157,0.04819277108433735,-9.156626506024097,0.13243408951563457,-3.4684242795830778,-8.833844267320663,2.0,4.170695970695971,239.76813630774635,0.06036944234018958,-0.011304702523163701,-0.054425732766155636,1169.9633699633698,-1.0,73.89611365857326,4.196799317348845,
2023-08-09 16:11:05.436000,-3.843373493975904,0.03614457831325302,-9.168674698795181,0.12998160637645614,-3.4561618638871856,-8.877988963825873,2.0,4.170695970695971,239.76813630774635,-0.2605908746576537,0.04953091311695096,-0.06887710506380756,1177.2893772893772,-1.0,73.89611365857326,4.196616828678987,
2023-08-09 16:11:05.443000,-3.879518072289157,0.03614457831325302,-9.180722891566266,0.09074187614960147,-3.4316370324954013,-8.904966278356836,2.0,4.1692307692307695,239.85239852398522,0.11094924538197154,-0.25709457490822163,0.023425208321193255,1185.3479853479853,-1.0,73.89611365857326,4.196432261328144,
2023-08-09 16:11:05.451000,-3.8674698795180724,0.024096385542168676,-9.144578313253012,0.13733905579399142,-3.4782342121397916,-8.865726548129981,2.0,4.1692307692307695,239.85239852398522,-0.19404463609346762,-0.6824777110890975,0.17551424742147903,1189.0109890109889,-1.0,73.89611365857326,4.196245612196543,
2023-08-09 16:11:05.459000,-3.8674698795180724,0.03614457831325302,-9.180722891566266,0.0956468424279583,-3.409564684242796,-8.833844267320663,2.0,4.1692307692307695,239.85239852398522,0.052211409591515406,-0.28238447642911174,0.03682769069401549,1189.0109890109889,-1.0,73.89611365857326,4.196056877870239,
2023-08-09 16:11:05.466000,-3.8674698795180724,0.03614457831325302,-9.144578313253012,0.10300429184549356,-3.458614347026364,-8.821581851624769,2.0,4.1692307692307695,239.85239852398522,-0.1741157275217064,-0.08344502068644033,0.17399918419672514,1189.7435897435896,-1.0,73.89611365857326,4.195866055156378,
2023-08-09 16:11:05.474000,-3.8313253012048194,0.07228915662650603,-9.132530120481928,0.1079092581238504,-3.4831391784181482,-8.851011649294911,2.0,4.1692307692307695,239.85239852398522,-0.29333954897733294,0.06899364838878884,0.4937940679447583,1191.2087912087911,-1.0,73.89611365857326,4.195673141162812,
2023-08-09 16:11:05.482000,-3.855421686746988,0.060240963855421686,-9.132530120481928,0.08338442673206621,-3.44880441446965,-8.811771919068056,2.0,4.1663003663003675,240.0211007561104,-0.07750131111240552,0.3730551832643778,0.002214323174640232,1191.2087912087911,-1.0,73.89611365857326,4.195478132921897,
2023-08-09 16:11:05.489000,-3.843373493975904,0.08433734939759037,-9.132530120481928,0.16922133660331085,-3.429184549356223,-8.770079705702022,2.0,4.1663003663003675,240.0211007561104,-0.21455626129013475,-0.010605442573276946,0.4589476137754209,1194.1391941391942,-1.0,73.89611365857326,4.195281027471712,
2023-08-09 16:11:05.497000,-3.843373493975904,0.08433734939759037,-9.132530120481928,0.1520539546290619,-3.488044144696505,-8.809319435928877,2.0,4.1663003663003675,240.0211007561104,-0.10593788240778515,0.1719014043470653,0.5167531029660277,1197.069597069597,-1.0,73.89611365857326,4.195081821692931,
2023-08-09 16:11:05.505000,-3.879518072289157,0.0963855421686747,-9.156626506024097,0.27467811158798283,-3.429184549356223,-8.824034334763947,2.0,4.167765567765567,239.93671998593777,-0.41314608705786365,0.03239904434473502,0.17819474389604348,1200.0,-1.0,73.89611365857326,4.194880512387058,
2023-08-09 16:11:05.512000,-3.891566265060241,0.12048192771084337,-9.180722891566266,0.1618638871857756,-3.4831391784181482,-8.846106683016554,2.0,4.167765567765567,239.93671998593777,-0.2593088980828627,-0.16514189149816463,0.23634986306159328,1200.7326007326008,-1.0,73.89611365857326,4.1946770973375385,
2023-08-09 16:11:05.520000,-3.891566265060241,0.0963855421686747,-9.144578313253012,0.20110361741263028,-3.5199264255058242,-8.90006131207848,2.0,4.1663003663003675,240.0211007561104,-0.2266767670881643,-0.0904376201853044,0.3562729444671057,1200.7326007326008,-1.0,73.89611365857326,4.194471574999744,
2023-08-09 16:11:05.528000,-3.891566265060241,0.0963855421686747,-9.180722891566266,0.18638871857755976,-3.510116492949111,-8.887798896382586,2.0,4.1663003663003675,240.0211007561104,0.03321484761960261,-0.10360701590816322,-0.1364722335528233,1200.0,-1.0,73.89611365857326,4.194263944156716,
2023-08-09 16:11:05.535000,-3.9036144578313254,0.12048192771084337,-9.204819277108435,0.2329858982219497,-3.458614347026364,-8.851011649294911,2.0,4.164835164835165,240.1055408970976,0.14055124992716128,-0.1792436338208736,-0.044752636792727556,1195.6043956043954,-1.0,73.89611365857326,4.194054203891613,
2023-08-09 16:11:05.543000,-3.9036144578313254,0.10843373493975904,-9.180722891566266,0.18148375229920294,-3.5052115266707538,-8.85346413243409,2.0,4.1663003663003675,240.0211007561104,0.2926402890274462,-0.19206339956878993,-0.16747275799778572,1187.5457875457876,-1.0,73.89611365857326,4.193842353662118,
2023-08-09 16:11:05.551000,-3.891566265060241,0.10843373493975904,-9.180722891566266,0.23543838136112813,-3.4144696505211525,-8.892703862660944,2.0,4.164835164835165,240.1055408970976,0.07656896451255708,-0.3122195676242649,-0.04451955014276544,1180.2197802197802,-1.0,73.89611365857326,4.19362839376026,
2023-08-09 16:11:05.558000,-3.9036144578313254,0.13253012048192772,-9.180722891566266,0.22562844880441446,-3.492949110974862,-8.887798896382586,2.0,4.164835164835165,240.1055408970976,0.5030009906182622,-0.3851756890624091,-0.09090379348522817,1173.6263736263736,-1.0,73.89611365857326,4.193412325452817,
2023-08-09 16:11:05.566000,-3.879518072289157,0.12048192771084337,-9.216867469879519,0.2035561005518087,-3.534641324340895,-8.843654199877376,2.0,4.164835164835165,240.1055408970976,0.8040323990443442,-0.564419322883281,-0.3506788648680147,1166.3003663003662,-1.0,73.89611365857326,4.193194150489195,
2023-08-09 16:11:05.574000,-3.9036144578313254,0.13253012048192772,-9.19277108433735,0.1496014714898835,-3.4757817290006128,-8.880441446965051,2.0,4.163369963369964,240.19004047158188,0.5224637258901,-0.20849600839111912,-0.21257502476545664,1161.1721611721612,-1.0,73.89611365857326,4.192973871202778,
2023-08-09 16:11:05.581000,-3.8674698795180724,0.12048192771084337,-9.204819277108435,0.14714898835070508,-3.4659717964438994,-8.917228694052728,2.0,4.163369963369964,240.19004047158188,0.8229124176912762,-0.052211409591515406,-0.5475205407610281,1158.2417582417581,-1.0,73.89611365857326,4.1927514905739365,
2023-08-09 16:11:05.589000,-3.855421686746988,0.10843373493975904,-9.204819277108435,0.23543838136112813,-3.4757817290006128,-8.858369098712446,2.0,4.163369963369964,240.19004047158188,0.6620826292174111,-0.14404754967659159,-0.34566750189382917,1155.3113553113553,-1.0,73.89611365857326,4.19252701221988,
2023-08-09 16:11:05.597000,-3.855421686746988,0.10843373493975904,-9.19277108433735,0.1496014714898835,-3.4904966278356833,-8.907418761496015,2.0,4.163369963369964,240.19004047158188,0.7802575607482084,-0.3124526542742266,-0.13111124060369442,1151.6483516483515,-1.0,73.89611365857326,4.192300440907908,
2023-08-09 16:11:05.604000,-3.8674698795180724,0.10843373493975904,-9.180722891566266,0.15450643776824033,-3.421827099938688,-8.85346413243409,2.0,4.161904761904762,240.27459954233407,0.8648680146844588,-0.09801293630907265,-0.709865392459647,1144.3223443223442,-1.0,73.89611365857326,4.192071783066959,
2023-08-09 16:11:05.612000,-3.879518072289157,0.0963855421686747,-9.19277108433735,0.10055180870631514,-3.421827099938688,-8.826486817903126,2.0,4.161904761904762,240.27459954233407,0.85950702173533,-0.17633005069634577,-0.15313792902511505,1134.065934065934,850.250244140625,70.56745989016905,4.191841045821774,
2023-08-09 16:11:05.620000,-3.855421686746988,0.0963855421686747,-9.156626506024097,0.17167381974248927,-3.488044144696505,-8.846106683016554,2.0,4.161904761904762,240.27459954233407,0.8823495134316173,-0.5569605500844936,0.12225394790513394,1127.4725274725274,-1.0,70.56745989016905,4.191608236549746,
2023-08-09 16:11:05.627000,-3.855421686746988,0.08433734939759037,-9.168674698795181,0.13979153893316984,-3.4561618638871856,-8.885346413243408,2.0,4.161904761904762,240.27459954233407,0.9804789930656725,-0.5354000349629972,0.19963871569255862,1134.065934065934,-1.0,70.56745989016905,4.191373364331608,
2023-08-09 16:11:05.635000,-3.8674698795180724,0.0963855421686747,-9.132530120481928,0.13733905579399142,-3.4635193133047206,-8.828939301042304,2.0,4.15897435897436,240.44389642416766,0.6364430977215785,-0.8490181224870339,-0.2291241769127675,1158.2417582417581,-1.0,70.56745989016905,4.191136439466181,
2023-08-09 16:11:05.643000,-3.879518072289157,0.0963855421686747,-9.132530120481928,0.18148375229920294,-3.5027590435315754,-8.83629675045984,2.0,4.160439560439562,240.3592181722134,0.6160480158498922,-1.238272827923781,0.29322300565235127,1205.8608058608058,-1.0,70.56745989016905,4.190897472559413,
2023-08-09 16:11:05.650000,-3.891566265060241,0.08433734939759037,-9.168674698795181,0.17903126916002451,-3.4684242795830778,-8.80441446965052,2.0,4.160439560439562,240.3592181722134,0.7331740574558585,-1.1082104772449157,0.26070741798263497,1279.8534798534797,-1.0,70.56745989016905,4.190656475332824,
2023-08-09 16:11:05.658000,-3.891566265060241,0.0963855421686747,-9.144578313253012,0.15941140404659718,-3.4855916615573266,-8.877988963825873,2.0,4.160439560439562,240.3592181722134,0.7257152846570711,-1.0971388613717155,0.2589592681079189,1383.150183150183,-1.0,70.56745989016905,4.190413461144542,
2023-08-09 16:11:05.666000,-3.91566265060241,0.07228915662650603,-9.156626506024097,0.10545677498467197,-3.522378908645003,-8.826486817903126,2.0,4.160439560439562,240.3592181722134,0.7797913874482834,-1.1478352077384766,0.22702639706310812,1515.7509157509157,-1.0,70.56745989016905,4.190168444558867,
2023-08-09 16:11:05.673000,-3.891566265060241,0.060240963855421686,-9.168674698795181,0.12507664009809932,-3.4855916615573266,-8.848559166155733,2.0,4.160439560439562,240.3592181722134,0.43622166540411444,-0.787599790222015,0.300448691801177,1672.5274725274724,-1.0,70.56745989016905,4.189921440912707,
2023-08-09 16:11:05.681000,-3.9036144578313254,0.060240963855421686,-9.144578313253012,0.13243408951563457,-3.500306560392397,-8.858369098712446,2.0,4.160439560439562,240.3592181722134,0.35300973136763575,-0.6899364838878849,0.26548569430685837,1846.153846153846,-1.0,70.56745989016905,4.189672466404172,
2023-08-09 16:11:05.689000,-3.91566265060241,0.060240963855421686,-9.144578313253012,0.11771919068056406,-3.5787860208461066,-8.892703862660944,2.0,4.160439560439562,240.3592181722134,0.5011362974185654,-0.5923897208787373,0.3244566167472757,2032.234432234432,-1.0,70.56745989016905,4.189421538599517,
2023-08-09 16:11:05.696000,-3.9036144578313254,0.060240963855421686,-9.132530120481928,0.1226241569589209,-3.5248313917841814,-8.863274064990803,2.0,4.160439560439562,240.3592181722134,0.2829671930540177,-0.8476196025872621,0.20138686556727464,2219.78021978022,-1.0,70.56745989016905,4.189168676445516,
2023-08-09 16:11:05.704000,-3.9036144578313254,0.03614457831325302,-9.168674698795181,0.15941140404659718,-3.4855916615573266,-8.81912936848559,2.0,4.160439560439562,240.3592181722134,0.19019870636909308,-0.5039333372181106,0.10698677233261486,2399.267399267399,-1.0,70.56745989016905,4.18891390028012,
2023-08-09 16:11:05.712000,-3.927710843373494,0.012048192771084338,-9.168674698795181,0.09319435928877988,-3.4561618638871856,-8.86817903126916,2.0,4.15897435897436,240.44389642416766,0.08344502068644033,-0.6659285589417875,-0.01794767204708353,2559.7069597069594,-1.0,70.56745989016905,4.188657231841662,
2023-08-09 16:11:05.719000,-3.91566265060241,0.012048192771084338,-9.132530120481928,0.06621704475781728,-3.5199264255058242,-8.806866952789699,2.0,4.15897435897436,240.44389642416766,0.21910145096439607,-0.33937416234485185,-0.004195559699318357,2691.5750915750914,-1.0,70.56745989016905,4.188398693784133,
2023-08-09 16:11:05.727000,-3.91566265060241,0.012048192771084338,-9.156626506024097,0.04659717964438994,-3.510116492949111,-8.80441446965052,2.0,4.15897435897436,240.44389642416766,0.06642969523920522,-0.41267991375794033,0.011304702523162832,2785.3479853479853,-1.0,70.56745989016905,4.188138309611921,
2023-08-09 16:11:05.735000,-3.91566265060241,0.0,-9.156626506024097,0.08828939301042305,-3.5248313917841814,-8.880441446965051,2.0,4.15897435897436,240.44389642416766,-0.07237340481324003,-0.4568498339257624,-0.2941553522521997,2805.8608058608056,-1.0,70.56745989016905,4.187876104596163,
2023-08-09 16:11:05.742000,-3.927710843373494,0.012048192771084338,-9.144578313253012,0.05885959534028203,-3.48068669527897,-8.806866952789699,2.0,4.15897435897436,240.44389642416766,0.08111415418681839,-0.36081813414136743,-0.06351611211467867,2805.8608058608056,-1.0,70.56745989016905,4.187612105706868,
2023-08-09 16:11:05.750000,-3.91566265060241,0.0,-9.156626506024097,0.08338442673206621,-3.5199264255058242,-8.814224402207234,2.0,4.157509157509158,240.52863436123346,-0.14789347940096786,-0.49612493444437894,-0.15395373229998263,2798.5347985347985,-1.0,70.56745989016905,4.187346340665166,
2023-08-09 16:11:05.758000,-3.91566265060241,0.012048192771084338,-9.144578313253012,0.12752912323727775,-3.559166155732679,-8.855916615573268,2.0,4.157509157509158,240.52863436123346,-0.08647514713594728,-0.06444845871452753,-0.41139793718314766,2740.6593406593406,-1.0,70.56745989016905,4.187078837519304,
2023-08-09 16:11:05.765000,-3.879518072289157,0.024096385542168676,-9.156626506024097,0.06621704475781728,-3.4978540772532187,-8.841201716738198,2.0,4.157509157509158,240.52863436123346,0.18728512324456695,-0.01911310529689363,-0.14766039275100531,2649.0842490842488,-1.0,70.56745989016905,4.186809625061188,
2023-08-09 16:11:05.773000,-3.891566265060241,0.0,-9.168674698795181,0.03678724708767627,-3.451256897608829,-8.801961986511342,2.0,4.157509157509158,240.52863436123346,0.2175863877396417,0.2710797739059498,-0.35976924421653733,2531.135531135531,-1.0,70.56745989016905,4.186538733274518,
2023-08-09 16:11:05.781000,-3.9036144578313254,0.0,-9.144578313253012,0.056407112201103615,-3.5370938074800735,-8.81912936848559,2.0,4.157509157509158,240.52863436123346,0.33937416234485185,0.6377250742963695,-0.35510751121729517,2392.6739926739924,-1.0,70.56745989016905,4.186266193324504,
2023-08-09 16:11:05.788000,-3.879518072289157,0.012048192771084338,-9.144578313253012,0.06131207847946045,-3.4684242795830778,-8.85346413243409,2.0,4.154578754578755,240.6982895432904,-0.04416992016782207,0.2523162985839987,-0.13938581667734987,2241.0256410256407,-1.0,70.56745989016905,4.185992037547263,
2023-08-09 16:11:05.796000,-3.891566265060241,0.0,-9.168674698795181,0.004904966278356836,-3.5321888412017164,-8.875536480686694,2.0,4.154578754578755,240.6982895432904,0.20022143231746412,0.358137637666803,-0.2312219567624265,2082.7838827838827,-1.0,70.56745989016905,4.185716299369562,
2023-08-09 16:11:05.803000,-3.9036144578313254,0.012048192771084338,-9.204819277108435,0.08828939301042305,-3.4904966278356833,-8.875536480686694,2.0,4.154578754578755,240.6982895432904,0.47200046617330066,0.1279645708292049,-0.09090379348522817,1924.5421245421244,-1.0,70.56745989016905,4.185439013019471,
2023-08-09 16:11:05.811000,-3.891566265060241,0.024096385542168676,-9.180722891566266,0.07602697731453095,-3.4954015941140404,-8.86817903126916,2.0,4.154578754578755,240.6982895432904,0.20826292174115743,0.06771167181399616,0.12341938115494447,1774.3589743589741,-1.0,70.56745989016905,4.185160212986306,
2023-08-09 16:11:05.819000,-3.879518072289157,0.03614457831325302,-9.168674698795181,0.056407112201103615,-3.492949110974862,-8.814224402207234,2.0,4.156043956043956,240.61343204653622,0.0363615173940904,0.06899364838878884,-0.1825068469203427,1633.6996336996335,-1.0,70.56745989016905,4.184879934531281,
2023-08-09 16:11:05.826000,-3.9036144578313254,0.024096385542168676,-9.180722891566266,0.13733905579399142,-3.48068669527897,-8.860821581851624,2.0,4.154578754578755,240.6982895432904,0.13833692675252018,-0.055008449391060685,-0.08810675368568247,1506.227106227106,-1.0,70.56745989016905,4.184598214127364,
2023-08-09 16:11:05.834000,-3.9036144578313254,0.03614457831325302,-9.156626506024097,0.13733905579399142,-3.5052115266707538,-8.875536480686694,2.0,4.154578754578755,240.6982895432904,0.11782530155585304,0.4037060777343986,-0.13379173707825887,1394.139194139194,-1.0,70.56745989016905,4.184315088596621,
2023-08-09 16:11:05.842000,-3.9036144578313254,0.04819277108433735,-9.156626506024097,0.15450643776824033,-3.500306560392397,-8.855916615573268,2.0,4.154578754578755,240.6982895432904,0.02109434182157132,-0.026571878095682785,-0.11805838820581559,1295.2380952380952,-1.0,70.56745989016905,4.184030595056351,
2023-08-09 16:11:05.849000,-3.891566265060241,0.04819277108433735,-9.120481927710843,0.1618638871857756,-3.4389944819129368,-8.846106683016554,2.0,4.154578754578755,240.6982895432904,-0.029951634520132248,0.01969582192179955,0.03333139094458345,1213.1868131868132,-1.0,70.56745989016905,4.1837447713553875,
2023-08-09 16:11:05.857000,-3.9036144578313254,0.060240963855421686,-9.144578313253012,0.13979153893316984,-3.4978540772532187,-8.85346413243409,2.0,4.1531135531135535,240.78320691479976,-0.09346774663481136,0.15838237864926225,-0.13285939047841044,1142.857142857143,-1.0,70.56745989016905,4.183457656052737,
2023-08-09 16:11:05.865000,-3.855421686746988,0.060240963855421686,-9.168674698795181,0.2207234825260576,-3.470876762722256,-8.851011649294911,2.0,4.1531135531135535,240.78320691479976,-0.28040323990443405,-0.010372355923315273,-0.0710914282384478,1085.7142857142856,-1.0,70.56745989016905,4.183169287904022,
2023-08-09 16:11:05.872000,-3.8674698795180724,0.08433734939759037,-9.168674698795181,0.13733905579399142,-3.522378908645003,-8.848559166155733,2.0,4.1531135531135535,240.78320691479976,-0.004312103024299628,-0.10011071615873118,0.03787658061884518,1038.8278388278388,-1.0,70.56745989016905,4.182879706226989,
2023-08-09 16:11:05.880000,-3.8674698795180724,0.08433734939759037,-9.168674698795181,0.16922133660331085,-3.5150214592274676,-8.892703862660944,2.0,4.1531135531135535,240.78320691479976,-0.49414369791970125,0.11584406503117535,-0.03845929724375023,1005.1282051282051,-1.0,70.56745989016905,4.182588950809568,
2023-08-09 16:11:05.888000,-3.8674698795180724,0.08433734939759037,-9.168674698795181,0.17412630288166767,-3.4733292458614344,-8.843654199877376,2.0,4.1531135531135535,240.78320691479976,-0.17248412097197122,-0.4447293281277311,0.02412446827107958,982.4175824175824,-1.0,70.56745989016905,4.182297061464702,
2023-08-09 16:11:05.895000,-3.9036144578313254,0.08433734939759037,-9.168674698795181,0.1765787860208461,-3.4954015941140404,-8.843654199877376,2.0,4.1531135531135535,240.78320691479976,0.3474156517685452,-0.07435464133791772,0.14428063632655455,971.4285714285713,-1.0,70.56745989016905,4.182004078499254,
2023-08-09 16:11:05.903000,-3.879518072289157,0.08433734939759037,-9.156626506024097,0.24279583077866337,-3.5248313917841814,-8.912323727774371,2.0,4.151648351648352,240.86818422445737,-0.2376318396363855,-0.27119631723093063,-0.05419264611619353,971.4285714285713,-1.0,70.56745989016905,4.181710042691482,
2023-08-09 16:11:05.911000,-3.855421686746988,0.0963855421686747,-9.168674698795181,0.11526670754138564,-3.4684242795830778,-8.892703862660944,2.0,4.151648351648352,240.86818422445737,-0.2051162519666679,-0.7568323524270152,-0.02249286172134483,982.4175824175824,-1.0,70.56745989016905,4.181414995235153,
2023-08-09 16:11:05.918000,-3.9036144578313254,0.08433734939759037,-9.168674698795181,0.17167381974248927,-3.4757817290006128,-8.843654199877376,2.0,4.151648351648352,240.86818422445737,0.1020919526834106,0.18145795699551298,0.055707709340947445,1004.3956043956043,-1.0,70.56745989016905,4.1811189775807485,
2023-08-09 16:11:05.926000,-3.891566265060241,0.07228915662650603,-9.144578313253012,0.12017167381974249,-3.4733292458614344,-8.851011649294911,2.0,4.151648351648352,240.86818422445737,-0.05127906299166698,0.0427714002680503,0.10139269273352386,1031.5018315018315,-1.0,70.56745989016905,4.180822031382011,
2023-08-09 16:11:05.934000,-3.91566265060241,0.060240963855421686,-9.132530120481928,0.07847946045370938,-3.4978540772532187,-8.880441446965051,2.0,4.151648351648352,240.86818422445737,-0.05023017306683771,0.04370374686789872,0.10115960608356175,1065.2014652014652,-1.0,70.56745989016905,4.180524198478151,
2023-08-09 16:11:05.941000,-3.927710843373494,0.07228915662650603,-9.132530120481928,0.23789086450030655,-3.500306560392397,-8.907418761496015,2.0,4.148717948717949,241.03831891223732,-0.17026979779733184,-0.4439135248528635,0.006642969523920696,1101.8315018315018,-1.0,70.56745989016905,4.180225520419401,
2023-08-09 16:11:05.949000,-3.91566265060241,0.07228915662650603,-9.156626506024097,0.14469650521152666,-3.559166155732679,-8.814224402207234,2.0,4.148717948717949,241.03831891223732,-0.04626770001748233,-0.5773556319561799,0.053027212866383,1145.7875457875457,-1.0,70.56745989016905,4.179926038907256,
2023-08-09 16:11:05.957000,-3.91566265060241,0.04819277108433735,-9.120481927710843,0.08338442673206621,-3.5076640098099325,-8.892703862660944,2.0,4.1501831501831505,240.9532215357458,-0.349863061593148,-0.20465007866674456,0.1610628751238271,1194.8717948717947,-1.0,70.56745989016905,4.179625795465201,
2023-08-09 16:11:05.964000,-3.9036144578313254,0.060240963855421686,-9.10843373493976,0.1103617412630288,-3.564071122011036,-8.831391784181482,2.0,4.1501831501831505,240.9532215357458,-0.14894236932579713,-0.42922906590525034,-0.3605850474914049,1246.8864468864467,-1.0,70.56745989016905,4.179324831422571,
2023-08-09 16:11:05.972000,-3.91566265060241,0.024096385542168676,-9.144578313253012,0.12998160637645614,-3.522378908645003,-8.865726548129981,2.0,4.1501831501831505,240.9532215357458,-0.04125633704329595,-0.15022434590058806,-0.3124526542742266,1297.4358974358975,-1.0,70.56745989016905,4.1790231884608104,
2023-08-09 16:11:05.980000,-3.927710843373494,0.060240963855421686,-9.156626506024097,0.07357449417535254,-3.5027590435315754,-8.833844267320663,2.0,4.1501831501831505,240.9532215357458,0.2478876522347182,-0.19217994289377077,0.040440533768428356,1343.5897435897434,-1.0,70.56745989016905,4.178720908142902,
2023-08-09 16:11:05.987000,-3.91566265060241,0.03614457831325302,-9.132530120481928,0.06621704475781728,-3.5052115266707538,-8.799509503372164,2.0,4.1501831501831505,240.9532215357458,0.2748091603053435,-0.5105763067420321,-0.021793601771458507,1386.080586080586,-1.0,70.56745989016905,4.178418031901853,
2023-08-09 16:11:05.995000,-3.9036144578313254,0.03614457831325302,-9.10843373493976,0.09809932556713671,-3.488044144696505,-8.779889638258737,2.0,4.1501831501831505,240.9532215357458,0.1329759338033913,-0.4602295903502119,-0.14206631315191431,1423.4432234432234,-1.0,70.56745989016905,4.178114601030644,
2023-08-09 16:11:06.003000,-3.9036144578313254,0.03614457831325302,-9.10843373493976,0.08583690987124463,-3.5027590435315754,-8.86817903126916,2.0,4.1501831501831505,240.9532215357458,0.023075578346250746,-0.424217702931064,-0.15791620534933845,1453.4798534798533,-1.0,70.56745989016905,4.1778106566737865,
2023-08-09 16:11:06.010000,-3.8674698795180724,0.060240963855421686,-9.144578313253012,0.15941140404659718,-3.4954015941140404,-8.858369098712446,2.0,4.148717948717949,241.03831891223732,-0.7265310879319387,-1.0746459996503706,0.1177087582308722,1476.923076923077,-1.0,70.56745989016905,4.17750623982076,
2023-08-09 16:11:06.018000,-3.891566265060241,0.060240963855421686,-9.144578313253012,0.1103617412630288,-3.4782342121397916,-8.846106683016554,2.0,4.148717948717949,241.03831891223732,-0.3715401200396252,-1.6137754210127615,0.34578404521881,1495.970695970696,-1.0,70.56745989016905,4.1772013908088175,
2023-08-09 16:11:06.026000,-3.9036144578313254,0.060240963855421686,-9.120481927710843,0.12507664009809932,-3.4659717964438994,-8.78969957081545,2.0,4.148717948717949,241.03831891223732,-0.2783054600547755,-1.2016782238797272,0.15966435522405448,1507.6923076923076,-1.0,70.56745989016905,4.1768961492485355,
2023-08-09 16:11:06.033000,-3.855421686746988,0.060240963855421686,-9.048192771084338,0.16922133660331085,-3.4438994481912935,-8.755364806866952,2.0,4.148717948717949,241.03831891223732,0.4562671173008565,-1.5114503816793892,-0.3905366820115376,1511.3553113553112,-1.0,70.56745989016905,4.176590554476264,
2023-08-09 16:11:06.041000,-3.8674698795180724,0.04819277108433735,-9.036144578313253,0.20846106683016552,-3.488044144696505,-8.733292458614347,2.0,4.147252747252748,241.12347641759405,0.680379931239439,-1.8803100052444501,-0.4046384243342461,1503.2967032967033,-1.0,70.56745989016905,4.176284645550725,
2023-08-09 16:11:06.049000,-3.927710843373494,0.04819277108433735,-9.120481927710843,0.11281422440220723,-3.5027590435315754,-8.877988963825873,2.0,4.147252747252748,241.12347641759405,0.8103257385933215,-3.1918885845813176,0.10104306275858048,1488.6446886446886,-1.0,70.56745989016905,4.175978461216938,
2023-08-09 16:11:06.056000,-3.951807228915663,0.07228915662650603,-9.156626506024097,0.07602697731453095,-3.618025751072961,-8.863274064990803,2.0,4.147252747252748,241.12347641759405,0.009556552648447682,-3.226385408775713,-0.08344502068644033,1467.3992673992673,-1.0,70.56745989016905,4.1756720397678535,
2023-08-09 16:11:06.064000,-3.9759036144578315,0.060240963855421686,-9.096385542168676,0.12752912323727775,-3.5493562231759657,-8.797057020232986,2.0,4.147252747252748,241.12347641759405,-0.4794592389720881,-2.0856593438610798,0.3603519608414428,1438.8278388278388,-1.0,70.56745989016905,4.175365419011836,
2023-08-09 16:11:06.072000,-3.891566265060241,0.060240963855421686,-9.156626506024097,0.0956468424279583,-3.5199264255058242,-8.934396076026976,2.0,4.147252747252748,241.12347641759405,-1.5432667093992183,-1.657129537905716,0.44939106112697413,1403.6630036630036,-1.0,70.56745989016905,4.175058636276286,
2023-08-09 16:11:06.079000,-3.9759036144578315,0.03614457831325302,-9.253012048192772,0.14224402207234824,-3.5444512568976085,-8.968730839975475,2.0,4.147252747252748,241.12347641759405,-2.5243284190897968,-2.467105646524095,1.025930889808286,1363.3699633699632,-1.0,70.56745989016905,4.17475172841282,
2023-08-09 16:11:06.087000,-3.9759036144578315,0.07228915662650603,-9.27710843373494,0.2158185162477008,-3.600858369098712,-8.998160637645615,2.0,4.147252747252748,241.12347641759405,-2.4913466581201558,-1.6656372006293327,1.0187052036594602,1321.6117216117216,-1.0,70.56745989016905,4.174444731804085,
2023-08-09 16:11:06.095000,-3.963855421686747,0.07228915662650603,-9.228915662650603,0.14469650521152666,-3.5542611894543223,-8.809319435928877,2.0,4.142857142857143,241.37931034482756,-2.7958743662956698,-0.9935318454635506,1.3447934269564712,1276.923076923077,-1.0,70.56745989016905,4.174137681914537,
2023-08-09 16:11:06.102000,-3.9397590361445785,0.08433734939759037,-9.180722891566266,0.1103617412630288,-3.4757817290006128,-8.909871244635193,2.0,4.141391941391941,241.46470900406862,-3.0931763883223584,-0.7853854670473757,1.2570363032457317,1232.967032967033,-1.0,70.56745989016905,4.17383061280604,
2023-08-09 16:11:06.110000,-3.951807228915663,0.08433734939759037,-9.168674698795181,0.1618638871857756,-3.5321888412017164,-8.897608828939301,2.0,4.142857142857143,241.37931034482756,-3.2831420080414895,-0.732824427480916,1.199463900705087,1193.4065934065934,-1.0,70.56745989016905,4.173523556795204,
2023-08-09 16:11:06.118000,-3.9759036144578315,0.07228915662650603,-9.168674698795181,0.15450643776824033,-3.564071122011036,-8.855916615573268,2.0,4.142857142857143,241.37931034482756,-2.891323349455159,0.40335644775945434,0.8979663189790806,1158.2417582417581,-1.0,70.56745989016905,4.1732165452653165,
2023-08-09 16:11:06.125000,-3.9397590361445785,0.060240963855421686,-9.19277108433735,0.16922133660331085,-3.5199264255058242,-8.83874923359902,2.0,4.142857142857143,241.37931034482756,-2.547403997436046,0.43412388555445414,0.432375735679739,1132.6007326007325,-1.0,70.56745989016905,4.172909608735987,
2023-08-09 16:11:06.133000,-3.9397590361445785,0.0963855421686747,-9.132530120481928,0.164316370324954,-3.5027590435315754,-8.814224402207234,2.0,4.142857142857143,241.37931034482756,-1.703513781248179,0.5546296835848734,0.2898432492279005,1115.7509157509157,-1.0,70.56745989016905,4.17260277647501,
2023-08-09 16:11:06.141000,-3.891566265060241,0.12048192771084337,-9.096385542168676,0.23789086450030655,-3.4855916615573266,-8.797057020232986,2.0,4.141391941391941,241.46470900406862,-1.3823203776003725,-0.36233319736612,0.04335411689295491,1106.227106227106,-1.0,70.56745989016905,4.1722960774473385,
2023-08-09 16:11:06.148000,-3.891566265060241,0.060240963855421686,-9.084337349397591,0.14224402207234824,-3.5321888412017164,-8.784794604537094,2.0,4.141391941391941,241.46470900406862,-1.3409474972320958,-1.120564069692907,-0.004312103024299194,1103.2967032967033,-1.0,70.56745989016905,4.171989539754771,
2023-08-09 16:11:06.156000,-3.91566265060241,0.07228915662650603,-9.096385542168676,0.14224402207234824,-3.5836909871244633,-8.80441446965052,2.0,4.141391941391941,241.46470900406862,-0.8238447642911246,-1.3998018763475326,0.0710914282384478,1106.9597069597069,-1.0,70.56745989016905,4.171683190076371,
2023-08-09 16:11:06.164000,-3.951807228915663,0.04819277108433735,-9.096385542168676,0.09809932556713671,-3.470876762722256,-8.774984671980379,2.0,4.13992673992674,241.5501681118386,-0.756948895751996,-0.8694132043587202,0.17528116077151693,1113.5531135531135,-1.0,70.56745989016905,4.171377054127022,
2023-08-09 16:11:06.171000,-3.9759036144578315,0.07228915662650603,-9.132530120481928,0.18393623543838136,-3.5616186388718574,-8.752912323727774,2.0,4.13992673992674,241.5501681118386,0.1177087582308722,-0.35778800769185876,-0.05372647281626932,1127.4725274725274,-1.0,70.56745989016905,4.171071156166023,
2023-08-09 16:11:06.179000,-3.9397590361445785,0.0963855421686747,-9.144578313253012,0.15941140404659718,-3.5150214592274676,-8.848559166155733,2.0,4.13992673992674,241.5501681118386,0.5742089621816904,0.05792203251558854,-0.4039391643843598,1142.1245421245421,-1.0,70.56745989016905,4.170765518927043,
2023-08-09 16:11:06.186000,-3.927710843373494,0.0963855421686747,-9.156626506024097,0.1765787860208461,-3.5150214592274676,-8.885346413243408,2.0,4.138461538461539,241.63568773234198,0.1128139385816684,0.21024415826583512,-0.21945108093933943,1155.3113553113553,-1.0,70.56745989016905,4.17046016407372,
2023-08-09 16:11:06.194000,-3.9759036144578315,0.0963855421686747,-9.168674698795181,0.2550582464745555,-3.5665236051502145,-8.806866952789699,2.0,4.138461538461539,241.63568773234198,0.5394790513373351,0.34706602179360097,-0.5541635102849483,1165.5677655677655,-1.0,70.56745989016905,4.17015511170553,
2023-08-09 16:11:06.202000,-3.963855421686747,0.10843373493975904,-9.180722891566266,0.1618638871857756,-3.5027590435315754,-8.809319435928877,2.0,4.138461538461539,241.63568773234198,0.5660509294330162,0.620942835499096,-0.5356331216129597,1174.3589743589744,-1.0,70.56745989016905,4.16985038028528,
2023-08-09 16:11:06.209000,-3.951807228915663,0.12048192771084337,-9.204819277108435,0.23789086450030655,-3.522378908645003,-8.863274064990803,2.0,4.138461538461539,241.63568773234198,0.5620884563836608,0.6177961657246099,-0.5338849717382437,1178.7545787545787,-1.0,70.56745989016905,4.169545987092607,
2023-08-09 16:11:06.217000,-3.951807228915663,0.10843373493975904,-9.19277108433735,0.22808093194359289,-3.5567136725935007,-8.90006131207848,2.0,4.138461538461539,241.63568773234198,0.6203601188741918,0.7697686614999123,-0.7296777577064273,1181.6849816849815,-1.0,70.56745989016905,4.169241948678631,
2023-08-09 16:11:06.225000,-3.951807228915663,0.12048192771084337,-9.19277108433735,0.2158185162477008,-3.5836909871244633,-8.912323727774371,2.0,4.138461538461539,241.63568773234198,0.5077792669424851,0.6154652992249863,-0.6471650836198355,1183.150183150183,-1.0,70.56745989016905,4.168938280797092,
2023-08-09 16:11:06.232000,-3.951807228915663,0.10843373493975904,-9.144578313253012,0.18638871857755976,-3.559166155732679,-8.841201716738198,2.0,4.136996336996337,241.72126792987424,1.1590233669366594,0.6291008682477702,-0.857409241885671,1181.6849816849815,-1.0,70.56745989016905,4.168634997916327,
2023-08-09 16:11:06.240000,-3.9397590361445785,0.12048192771084337,-9.10843373493976,0.164316370324954,-3.500306560392397,-8.811771919068056,2.0,4.138461538461539,241.63568773234198,1.6378998892838414,0.7475088864285292,-0.7281626944816735,1180.2197802197802,-1.0,70.56745989016905,4.168332112732882,
2023-08-09 16:11:06.248000,-3.927710843373494,0.13253012048192772,-9.072289156626507,0.2550582464745555,-3.539546290619252,-8.735744941753525,2.0,4.135531135531135,241.80690876882196,1.794417574733407,0.5132568032165966,-0.8435405862129246,1175.8241758241757,-1.0,70.56745989016905,4.168029636600371,
2023-08-09 16:11:06.255000,-3.927710843373494,0.13253012048192772,-9.060240963855422,0.1912936848559166,-3.539546290619252,-8.718577559779275,2.0,4.135531135531135,241.80690876882196,2.2411281393858173,-0.5112755666919172,-1.0687022900763359,1170.6959706959706,-1.0,70.56745989016905,4.167727579995198,
2023-08-09 16:11:06.263000,-3.9397590361445785,0.13253012048192772,-9.060240963855422,0.21827099938687922,-3.54199877375843,-8.750459840588595,2.0,4.136996336996337,241.72126792987424,2.4098828739583933,-0.9626478643435699,-0.7845696637725071,1165.5677655677655,-1.0,70.56745989016905,4.16742595133495,
2023-08-09 16:11:06.271000,-3.963855421686747,0.12048192771084337,-9.10843373493976,0.18638871857755976,-3.598405885959534,-8.794604537093807,2.0,4.136996336996337,241.72126792987424,1.9494201969582197,-2.571178835732183,-0.8407435464133792,1157.5091575091574,-1.0,70.56745989016905,4.16712475748247,
2023-08-09 16:11:06.278000,-3.987951807228916,0.10843373493975904,-9.132530120481928,0.1765787860208461,-3.591048436541999,-8.83874923359902,2.0,4.136996336996337,241.72126792987424,1.1575083037119052,-2.9006468154536433,-0.05337684284132637,1149.4505494505493,-1.0,70.56745989016905,4.166824004321246,
2023-08-09 16:11:06.286000,-4.0,0.07228915662650603,-9.144578313253012,0.17412630288166767,-3.5787860208461066,-8.90006131207848,2.0,4.136996336996337,241.72126792987424,0.4018413845347,-2.69250043703747,-0.08262921741157274,1142.857142857143,-1.0,70.56745989016905,4.16652369677373,
2023-08-09 16:11:06.294000,-3.9759036144578315,0.08433734939759037,-9.120481927710843,0.2158185162477008,-3.568976088289393,-8.846106683016554,2.0,4.135531135531135,241.80690876882196,-0.24369209253539942,-1.9339199347357372,0.25348173183380923,1133.3333333333333,-1.0,70.56745989016905,4.166223838297741,
2023-08-09 16:11:06.301000,-3.951807228915663,0.0963855421686747,-9.144578313253012,0.18148375229920294,-3.5567136725935007,-8.902513795217658,2.0,4.136996336996337,241.72126792987424,-0.607423809801293,-1.668550783753859,0.15791620534933845,1126.007326007326,-1.0,70.56745989016905,4.1659244299978955,
2023-08-09 16:11:06.309000,-3.9759036144578315,0.060240963855421686,-9.156626506024097,0.13243408951563457,-3.546903740036787,-8.870631514408338,2.0,4.136996336996337,241.72126792987424,-0.631548278072373,-2.398461628110249,0.21840219101450975,1120.8791208791208,-1.0,70.56745989016905,4.165625471567388,
2023-08-09 16:11:06.317000,-4.0,0.060240963855421686,-9.168674698795181,0.15450643776824033,-3.6033108522378905,-8.92949110974862,2.0,4.135531135531135,241.80690876882196,-1.283608181341413,-2.4668725598741332,0.47642911252258024,1115.018315018315,-1.0,70.56745989016905,4.165326961845621,
2023-08-09 16:11:06.324000,-3.987951807228916,0.04819277108433735,-9.19277108433735,0.1618638871857756,-3.5959534028203555,-8.873083997547516,2.0,4.135531135531135,241.80690876882196,-1.8235534059786733,-2.1376376668026333,0.5812015616805548,1109.89010989011,-1.0,70.56745989016905,4.165028898362884,
2023-08-09 16:11:06.332000,-3.987951807228916,0.024096385542168676,-9.204819277108435,0.14469650521152666,-3.598405885959534,-8.885346413243408,2.0,4.135531135531135,241.80690876882196,-1.9004720004661728,-1.0333896626070747,0.3331973661208554,1102.5641025641025,-1.0,70.56745989016905,4.1647312772435745,
2023-08-09 16:11:06.340000,-3.9759036144578315,0.04819277108433735,-9.168674698795181,0.12752912323727775,-3.559166155732679,-8.85346413243409,2.0,4.135531135531135,241.80690876882196,-1.1238272827923774,0.2609405046325962,0.19392809276848677,1095.2380952380952,-1.0,70.56745989016905,4.164434093218373,
2023-08-09 16:11:06.347000,-3.963855421686747,0.03614457831325302,-9.120481927710843,0.10300429184549356,-3.5861434702636417,-8.809319435928877,2.0,4.134065934065935,241.8926103136629,-1.0986539245964682,1.225219975525903,-0.03636151739409127,1087.179487179487,-1.0,70.56745989016905,4.1641373396759,
2023-08-09 16:11:06.355000,-3.927710843373494,0.060240963855421686,-9.132530120481928,0.12017167381974249,-3.4855916615573266,-8.799509503372164,2.0,4.134065934065935,241.8926103136629,-0.8905075461802933,0.781073364023076,0.025989161470776866,1079.8534798534797,-1.0,70.56745989016905,4.163841008226687,
2023-08-09 16:11:06.363000,-3.963855421686747,0.024096385542168676,-9.132530120481928,0.09319435928877988,-3.517473942366646,-8.890251379521766,2.0,4.134065934065935,241.8926103136629,-1.281160771516812,0.3218926635976917,0.11689295495600505,1071.062271062271,-1.0,70.56745989016905,4.163545088692934,
2023-08-09 16:11:06.370000,-3.963855421686747,0.03614457831325302,-9.168674698795181,0.07112201103617412,-3.5444512568976085,-8.904966278356836,2.0,4.132600732600733,241.97837262896647,-1.5034088922556959,0.35522405454227685,0.07085834158848568,1063.003663003663,-1.0,70.56745989016905,4.1632495696283085,
2023-08-09 16:11:06.378000,-3.9397590361445785,0.04819277108433735,-9.228915662650603,0.08828939301042305,-3.571428571428571,-8.941753525444511,2.0,4.132600732600733,241.97837262896647,-2.4097663306334125,0.49694073771924824,0.28506497290367705,1054.9450549450548,-1.0,70.56745989016905,4.1629544378923855,
2023-08-09 16:11:06.386000,-3.9397590361445785,0.03614457831325302,-9.253012048192772,0.13979153893316984,-3.618025751072961,-8.941753525444511,2.0,4.131135531135532,242.0641957793935,-3.001456791562263,0.5477536274109901,0.7113804556844004,1046.1538461538462,-1.0,70.56745989016905,4.1626596786510035,
2023-08-09 16:11:06.393000,-3.951807228915663,0.10843373493975904,-9.289156626506024,0.25015328019619865,-3.6082158185162476,-9.032495401594113,2.0,4.131135531135532,242.0641957793935,-5.191538954606373,0.24707184895985063,0.8748907406328303,1035.8974358974358,-1.0,70.56745989016905,4.1623652758719585,
2023-08-09 16:11:06.401000,-4.0120481927710845,0.13253012048192772,-9.325301204819278,0.299202942979767,-3.669527896995708,-9.057020232985897,2.0,4.128205128205128,242.23602484472048,-7.440941670065846,-0.8452887360876401,1.66190781422994,1020.5128205128204,-1.0,70.56745989016905,4.162071211805512,
2023-08-09 16:11:06.409000,-4.0120481927710845,0.18072289156626506,-9.361445783132531,0.27713059472716123,-3.593500919681177,-9.206621704475781,2.0,4.128205128205128,242.23602484472048,-9.39514014334829,-2.7994872093700827,2.806945982168871,1000.7326007326006,-1.0,70.56745989016905,4.161777467029169,
2023-08-09 16:11:06.416000,-4.19277108433735,0.3253012048192771,-9.337349397590362,0.44880441446965047,-3.858369098712446,-9.147762109135499,2.0,4.128205128205128,242.23602484472048,-11.257735563195617,-4.295670415476953,3.0664879669016956,978.0219780219779,-1.0,70.56745989016905,4.161484020743355,
2023-08-09 16:11:06.424000,-4.204819277108434,0.21686746987951808,-9.506024096385543,0.27467811158798283,-3.7602697731453096,-9.358675659104843,2.0,4.126739926739928,242.3220308894017,-14.219567624264318,-6.295670415476953,2.1809917836955885,954.5787545787546,-1.0,70.56745989016905,4.161190850786206,
2023-08-09 16:11:06.432000,-4.337349397590362,0.4096385542168675,-9.855421686746988,0.6597179644389944,-3.875536480686695,-9.836909871244634,2.0,4.126739926739928,242.3220308894017,-16.814987471592563,-5.34910552998077,1.173358195909329,932.6007326007325,-1.0,70.56745989016905,4.16089793322795,
2023-08-09 16:11:06.439000,-3.6746987951807233,1.8192771084337351,-10.168674698795181,3.303494788473329,-2.0190067443286326,-11.12936848559166,2.0,4.125274725274725,242.40809802876933,-21.120330983042944,1.6127265310879322,-2.353359361342579,911.3553113553113,-1.0,70.56745989016905,4.160605242388542,
2023-08-09 16:11:06.447000,-3.8192771084337354,0.3373493975903615,-10.771084337349398,-0.5027590435315757,-2.896995708154506,-11.573267933782954,2.0,4.122344322344321,242.5804158521415,-28.937124876172714,22.80356622574442,-14.277023483479985,889.3772893772893,-1.0,70.56745989016905,4.1603127508900855,
2023-08-09 16:11:06.455000,-3.2650602409638556,1.5180722891566265,-11.144578313253012,1.78295524218271,-2.9313304721030042,-11.350091968117718,2.0,4.120879120879121,242.66666666666669,-37.15086533418798,30.589825767729153,-19.49839752928151,868.131868131868,-1.0,70.56745989016905,4.160020429146863,
2023-08-09 16:11:06.462000,-2.674698795180723,0.24096385542168675,-11.807228915662652,-0.02207234825260576,-2.607602697731453,-11.946045370938075,2.0,4.120879120879121,242.66666666666669,-45.12033098304294,37.12417691276732,-3.3609929491288386,852.0146520146519,-1.0,70.56745989016905,4.159728244747799,
2023-08-09 16:11:06.470000,-2.6867469879518073,0.21686746987951808,-12.337349397590362,0.5738810545677498,-2.435928877988964,-12.3408951563458,2.0,4.122344322344321,242.5804158521415,-34.35697220441699,34.513489889866555,15.936716974535281,843.9560439560439,-1.0,70.56745989016905,4.159436163414564,
2023-08-09 16:11:06.478000,-2.91566265060241,1.4698795180722892,-12.228915662650603,2.0036787247087675,-2.413856529736358,-12.139791538933169,2.0,4.120879120879121,242.66666666666669,-45.47147602121088,36.40661966085892,24.089388730260474,848.3516483516484,-1.0,70.56745989016905,4.1591441504503015,
2023-08-09 16:11:06.485000,-3.5421686746987953,2.3493975903614457,-12.216867469879519,2.447578172900061,-3.409564684242796,-12.198651134273451,2.0,4.119413919413919,242.75297883691982,-45.47147602121088,36.40661966085892,24.089388730260474,862.2710622710622,-1.0,70.56745989016905,4.158852169904289,
2023-08-09 16:11:06.493000,-4.734939759036145,1.6626506024096386,-12.855421686746988,1.3709380748007356,-5.126302881667688,-13.466584917228694,2.0,4.119413919413919,242.75297883691982,-49.2424683876231,39.12417691276732,19.81457956995513,884.9816849816849,-1.0,70.56745989016905,4.158560183633024,
2023-08-09 16:11:06.501000,-5.867469879518072,1.0120481927710845,-13.903614457831326,1.0226854690374003,-5.4328632740649905,-14.126302881667687,2.0,4.1179487179487175,242.83935242839354,-62.11269739525668,44.452421187576476,25.234426898199402,921.6117216117216,-1.0,70.56745989016905,4.158268151765479,
2023-08-09 16:11:06.508000,-5.819277108433735,1.0,-14.096385542168676,1.0570202329858982,-5.148375229920294,-14.035561005518087,2.0,4.1179487179487175,242.83935242839354,-78.1279645708292,55.49058912650777,37.15809102033681,978.0219780219779,-1.0,70.56745989016905,4.157976033201209,
2023-08-09 16:11:06.516000,-5.650602409638554,1.313253012048193,-14.10843373493976,1.537706928264868,-4.9742489270386265,-14.1704475781729,2.0,4.119413919413919,242.75297883691982,-81.30353708991318,51.505856302080296,29.11228949361925,1059.3406593406592,896.209716796875,66.94861579323731,4.157683785546655,
2023-08-09 16:11:06.524000,-5.27710843373494,1.963855421686747,-14.421686746987952,2.248927038626609,-4.579399141630901,-14.435315757204169,2.0,4.119413919413919,242.75297883691982,-85.59361342579103,40.92570363032457,25.188625371481848,1163.3699633699632,-1.0,66.94861579323731,4.157391365648586,
2023-08-09 16:11:06.531000,-4.903614457831326,2.7228915662650603,-14.686746987951809,3.104843654199877,-4.199264255058246,-14.793378295524217,2.0,4.119413919413919,242.75297883691982,-87.79208670823378,30.28448225627877,22.562671173008564,1284.9816849816848,-1.0,66.94861579323731,4.157098729742067,
2023-08-09 16:11:06.539000,-4.55421686746988,3.4096385542168677,-14.843373493975905,3.5708154506437766,-3.8681790312691597,-15.173513182096872,2.0,4.120879120879121,242.66666666666669,-96.75391876930249,24.086008973836023,19.081755142474215,1411.7216117216117,-1.0,66.94861579323731,4.156805833532465,
2023-08-09 16:11:06.547000,-4.1807228915662655,3.91566265060241,-14.879518072289157,4.071122011036174,-3.522378908645003,-15.244635193133046,2.0,4.120879120879121,242.66666666666669,-110.54017831128722,15.215779966202435,15.845113921100168,1531.135531135531,-1.0,66.94861579323731,4.156512632704516,
2023-08-09 16:11:06.554000,-3.9759036144578315,3.8674698795180724,-14.843373493975905,3.8577559779276513,-3.488044144696505,-15.264255058246473,2.0,4.1179487179487175,242.83935242839354,-130.58597983800476,6.055474622690985,12.043587203542916,1632.2344322344322,-1.0,66.94861579323731,4.15621908213403,
2023-08-09 16:11:06.562000,-3.987951807228916,3.385542168674699,-14.783132530120483,3.2127529123237277,-3.6327406499080315,-14.979767014101776,2.0,4.119413919413919,242.75297883691982,-150.02109434182157,-0.09719713303420506,13.570304760794825,1717.9487179487178,-1.0,66.94861579323731,4.155925135525183,
2023-08-09 16:11:06.569000,-4.072289156626506,2.674698795180723,-14.421686746987952,2.5383200490496627,-3.703862660944206,-14.344573881054567,2.0,4.119413919413919,242.75297883691982,-164.43330808227958,1.5363906532253369,18.074121554687952,1802.197802197802,-1.0,66.94861579323731,4.155630746213081,
2023-08-09 16:11:06.577000,-4.1807228915662655,2.1204819277108435,-14.048192771084338,1.9767014101778049,-3.833844267320662,-13.743715511955855,2.0,4.120879120879121,242.66666666666669,-172.5401783112872,5.933337218110833,22.013052852397877,1901.098901098901,-1.0,66.94861579323731,4.155335866805981,
2023-08-09 16:11:06.585000,-4.216867469879518,1.9879518072289157,-13.807228915662652,2.0453709380748006,-3.909871244635193,-13.52053954629062,2.0,4.120879120879121,242.66666666666669,-172.02109434182157,8.299749431851291,26.11992308140551,2027.8388278388277,-1.0,66.94861579323731,4.15504044985011,
2023-08-09 16:11:06.592000,-4.0843373493975905,2.3373493975903616,-13.674698795180724,2.5481299816063765,-3.7087676272225627,-13.444512568976087,2.0,4.122344322344321,242.5804158521415,-168.92185770060019,15.215779966202435,30.883281860031463,2169.96336996337,-1.0,66.94861579323731,4.1547444484306615,
2023-08-09 16:11:06.600000,-3.6144578313253013,3.024096385542169,-13.530120481927712,3.291232372777437,-2.987737584304108,-13.442060085836909,2.0,4.120879120879121,242.66666666666669,-166.02109434182157,27.994405920400908,35.24969407377193,2303.296703296703,-1.0,66.94861579323731,4.154447815831085,
2023-08-09 16:11:06.608000,-2.783132530120482,3.951807228915663,-13.795180722891567,4.193746167995095,-2.264255058246474,-13.986511342734518,2.0,4.122344322344321,242.5804158521415,-167.05926228075288,50.69669599673678,37.78404521881009,2400.7326007326005,-1.0,66.94861579323731,4.154150505233896,
2023-08-09 16:11:06.615000,-2.8674698795180724,4.433734939759036,-14.3855421686747,4.517473942366646,-2.717964438994482,-14.707541385652974,2.0,4.120879120879121,242.66666666666669,-173.8073538838063,75.30738301963754,42.715342928733754,2454.212454212454,-1.0,66.94861579323731,4.153852469814682,
2023-08-09 16:11:06.623000,-3.807228915662651,4.373493975903615,-14.63855421686747,4.338442673206622,-3.9760882893930103,-14.714898835070509,2.0,4.120879120879121,242.66666666666669,-185.34933861663072,79.29211584406502,50.7458772798788,2460.8058608058604,-1.0,66.94861579323731,4.153553663368561,
2023-08-09 16:11:06.631000,-4.9156626506024095,4.0361445783132535,-14.349397590361447,3.8528510116492947,-4.952176578786021,-14.320049049662783,2.0,4.122344322344321,242.5804158521415,-197.18139968533302,64.00967309597343,58.9138162111765,2421.978021978022,-1.0,66.94861579323731,4.15325403985465,
2023-08-09 16:11:06.638000,-5.987951807228916,3.734939759036145,-13.963855421686748,3.5193133047210297,-5.947884733292458,-13.908031882280808,2.0,4.120879120879121,242.66666666666669,-205.6394149525086,46.62036011887419,65.3870986539246,2327.4725274725274,-1.0,66.94861579323731,4.152953554000225,
2023-08-09 16:11:06.646000,-6.795180722891566,3.662650602409639,-13.650602409638555,3.578172900061312,-6.742489270386265,-13.508277130594726,2.0,4.120879120879121,242.66666666666669,-210.99819357846278,33.93333721811083,69.53977040964979,2172.8937728937726,-1.0,66.94861579323731,4.152652161031211,
2023-08-09 16:11:06.654000,-7.120481927710844,3.855421686746988,-13.204819277108435,3.9705702023298586,-6.926425505824647,-12.85346413243409,2.0,4.120879120879121,242.66666666666669,-213.66994930365362,24.376085309713886,72.42526659285589,1980.21978021978,-1.0,66.94861579323731,4.152349816303443,
2023-08-09 16:11:06.661000,-6.83132530120482,4.19277108433735,-12.686746987951809,4.242795830778663,-6.61250766400981,-12.257510729613733,2.0,4.120879120879121,242.66666666666669,-211.2577355631956,10.940970805897091,77.17335819590933,1794.8717948717947,-1.0,66.94861579323731,4.152046476379566,
2023-08-09 16:11:06.669000,-6.445783132530121,4.445783132530121,-12.253012048192772,4.5370938074800735,-6.13182096873084,-12.0,2.0,4.120879120879121,242.66666666666669,-207.05926228075285,-6.814754384942602,82.54740399743605,1638.095238095238,-1.0,66.94861579323731,4.151742099127772,
2023-08-09 16:11:06.677000,-6.265060240963856,4.63855421686747,-11.91566265060241,4.716125076640098,-5.977314530962599,-11.690987124463518,2.0,4.119413919413919,242.75297883691982,-205.0745294563254,-26.509410873492218,87.55503758522231,1516.4835164835163,-1.0,66.94861579323731,4.151436643404178,
2023-08-09 16:11:06.684000,-6.337349397590362,4.819277108433735,-11.409638554216867,4.9000613120784795,-6.082771305947271,-11.080318822808092,2.0,4.119413919413919,242.75297883691982,-206.8607889983101,-42.478876522347186,92.82221315774139,1424.1758241758241,-1.0,66.94861579323731,4.1511300687391754,
2023-08-09 16:11:06.692000,-6.493975903614458,5.0120481927710845,-10.843373493975903,5.11587982832618,-6.354996934396076,-10.501532801961986,2.0,4.119413919413919,242.75297883691982,-207.27300273876813,-56.08192995746169,96.97488491346658,1349.4505494505493,-1.0,66.94861579323731,4.15082233544815,
2023-08-09 16:11:06.700000,-6.55421686746988,5.204819277108434,-10.457831325301205,5.287553648068669,-6.4702636419374615,-10.1704475781729,2.0,4.120879120879121,242.66666666666669,-206.60124701357728,-67.7002505681487,104.86801468445894,1286.4468864468863,-1.0,66.94861579323731,4.1505134052703125,
2023-08-09 16:11:06.707000,-6.614457831325302,5.240963855421687,-10.096385542168676,5.2630288166768855,-6.561005518087063,-9.90803188228081,2.0,4.1179487179487175,242.83935242839354,-208.02109434182157,-77.19643377425558,115.02068644018414,1227.106227106227,-1.0,66.94861579323731,4.150203242045142,
2023-08-09 16:11:06.715000,-6.626506024096386,5.240963855421687,-9.831325301204819,5.2409564684242795,-6.475168608215818,-9.616186388718576,2.0,4.1179487179487175,242.83935242839354,-211.21193403647806,-83.15063224753803,124.94435056232155,1171.4285714285713,-1.0,66.94861579323731,4.1498918123591215,
2023-08-09 16:11:06.723000,-6.421686746987952,5.132530120481928,-9.55421686746988,5.08399754751686,-6.171060698957694,-9.245861434702636,2.0,4.119413919413919,242.75297883691982,-211.8684225860964,-86.78422003379757,133.28022842491697,1115.018315018315,-1.0,66.94861579323731,4.149579084477857,
2023-08-09 16:11:06.730000,-6.024096385542169,5.0602409638554215,-9.240963855421688,5.096259963212753,-5.619251992642551,-8.738197424892704,2.0,4.119413919413919,242.75297883691982,-207.8684225860964,-88.87582308723267,138.47106811957346,1053.4798534798533,-1.0,66.94861579323731,4.149265028541958,
2023-08-09 16:11:06.738000,-5.614457831325302,5.096385542168675,-8.795180722891567,5.103617412630288,-5.239117106069895,-8.161863887185776,2.0,4.1179487179487175,242.83935242839354,-200.81498747159256,-90.87582308723267,143.49396888293222,983.1501831501831,-1.0,66.94861579323731,4.148949617324577,
2023-08-09 16:11:06.746000,-5.156626506024097,5.253012048192772,-8.204819277108435,5.304721030042918,-4.834457388105457,-7.62722256284488,2.0,4.1179487179487175,242.83935242839354,-194.03636151739408,-95.532311636851,149.60083911193985,898.9010989010989,-1.0,66.94861579323731,4.148632825478194,
2023-08-09 16:11:06.753000,-4.795180722891566,5.409638554216868,-7.91566265060241,5.461679950950337,-4.510729613733905,-7.561005518087063,2.0,4.1179487179487175,242.83935242839354,-189.10506380747043,-105.56284598799604,157.03595361575665,793.4065934065934,-1.0,66.94861579323731,4.148314630116789,
2023-08-09 16:11:06.761000,-4.530120481927711,5.481927710843374,-7.843373493975904,5.505824647455548,-4.30226854690374,-7.502145922746781,2.0,4.116483516483516,242.9257875066738,-187.45620884563837,-113.48651011013344,166.3489307149933,649.8168498168498,-1.0,66.94861579323731,4.1479950109381925,
2023-08-09 16:11:06.769000,-4.228915662650603,5.518072289156627,-7.590361445783133,5.569589209074187,-4.025137952176578,-7.090128755364806,2.0,4.115018315018315,243.01228413743993,-187.45620884563837,-113.48651011013344,166.3489307149933,413.18681318681314,-1.0,66.94861579323731,4.147673949955325,
2023-08-09 16:11:06.776000,-3.963855421686747,5.518072289156627,-6.903614457831326,5.576946658491723,-3.640098099325567,-6.300429184549356,2.0,4.113553113553113,243.09884238646484,-185.85315541052387,-116.2498688887594,175.67717498980247,36.63003663003663,-1.0,66.94861579323731,4.14735143154028,
2023-08-09 16:11:06.784000,-3.6506024096385543,5.493975903614458,-6.096385542168675,5.537706928264868,-3.1643163703249537,-5.31698344573881,2.0,4.11062271062271,243.27214400285158,-183.05926228075288,-111.3643727055533,182.79167880659634,0.0,-1.0,66.94861579323731,4.147027442003389,
2023-08-09 16:11:06.792000,-3.0481927710843375,5.566265060240964,-5.144578313253012,5.638258736971183,-2.688534641324341,-4.250153280196199,2.0,4.104761904761904,243.61948955916475,-176.98292640289026,-102.92162461395023,185.82984674552765,0.0,-1.0,66.94861579323731,4.146701969161361,
2023-08-09 16:11:06.799000,-2.397590361445783,5.674698795180723,-4.1807228915662655,5.741263028816676,-1.9822194972409564,-3.2397302268546904,2.0,4.0989010989010985,243.9678284182306,-167.0134607540353,-101.83765514830138,188.47106811957346,0.0,-1.0,66.94861579323731,4.146375001293746,
2023-08-09 16:11:06.807000,-2.0120481927710845,5.843373493975904,-3.289156626506024,5.98405885959534,-1.680564071122011,-2.459840588595953,2.0,4.09010989010989,244.4922084900591,-157.36460579220324,-107.77658644601131,192.33366353942077,0.0,-1.0,66.94861579323731,4.14604652586899,
2023-08-09 16:11:06.815000,-1.8192771084337351,5.963855421686747,-2.7590361445783134,6.104230533415082,-1.5334150827713058,-1.9742489270386265,2.0,4.07985347985348,245.10684144370626,-149.975292815104,-112.12773148417924,194.898549035604,0.0,-1.0,66.94861579323731,4.145716527748253,
2023-08-09 16:11:06.822000,-1.7590361445783134,5.951807228915663,-2.5542168674698797,6.0257510729613735,-1.405885959534028,-1.8565297363580624,2.0,4.065201465201465,245.9902685168499,-142.6775828914399,-114.53994522463725,197.76877804323757,0.0,-1.0,66.94861579323731,4.145384987667671,
2023-08-09 16:11:06.830000,-1.7590361445783134,5.843373493975904,-2.4096385542168677,5.900674432863274,-1.5064377682403434,-1.660331085223789,2.0,4.037362637362637,247.6864452912357,-134.63178136472234,-120.69261698036244,199.60083911193985,0.0,-1.0,66.94861579323731,4.145051879512266,
2023-08-09 16:11:06.838000,-1.9156626506024097,5.421686746987952,-1.963855421686747,5.390557939914163,-1.7075413856529735,-1.0104230533415082,2.0,4.010989010989011,249.31506849315068,-126.96765922731775,-129.31857117883573,200.53213682186353,77.65567765567765,-1.0,66.94861579323731,4.144717162917963,
2023-08-09 16:11:06.845000,-2.216867469879518,5.349397590361446,-1.3614457831325302,5.412630288166769,-1.7099938687921519,-0.463519313304721,2.0,3.989010989010989,250.68870523415978,-116.14323174640172,-138.87582308723267,202.48633529514598,361.90476190476187,-1.0,66.94861579323731,4.144380777503494,
2023-08-09 16:11:06.853000,-2.144578313253012,5.120481927710844,-0.6506024096385542,5.130594727161251,-1.8105456774984672,0.134886572654813,2.0,3.965567765567766,252.17070016626639,-103.39514014334829,-147.36437270555328,194.4405337684284,751.6483516483516,-1.0,66.94861579323731,4.144042642638413,
2023-08-09 16:11:06.861000,-1.8072289156626506,4.83132530120482,0.04819277108433735,4.9589209074187615,-1.3887185775597792,1.155119558553035,2.0,3.9377289377289375,253.953488372093,-92.26536915098187,-154.5857467513548,195.18862537148183,1189.0109890109889,-1.0,66.94861579323731,4.143702656337438,
2023-08-09 16:11:06.868000,-0.9397590361445783,4.662650602409639,0.6265060240963856,4.777437155119558,-0.047210300429184546,1.6676885346413242,2.0,3.9142857142857146,255.47445255474452,-78.40277373113454,-152.93689178952275,192.94435056232155,1634.4322344322343,-1.0,66.94861579323731,4.143360692014698,
2023-08-09 16:11:06.876000,0.7951807228915663,4.590361445783133,0.9156626506024097,4.806866952789699,1.7774371551195585,1.706928264868179,2.0,3.8864468864468873,257.3044297832233,-62.41804090670706,-142.55521240020977,187.86038109667268,2057.142857142857,-1.0,66.94861579323731,4.143016595763401,
2023-08-09 16:11:06.884000,2.7951807228915664,4.409638554216868,1.036144578313253,4.475781729000613,3.771305947271612,2.187614960147149,2.0,3.861538461538461,258.96414342629487,-54.00582716624905,-124.53994522463725,182.54740399743605,2434.432234432234,-1.0,66.94861579323731,4.142670182281385,
2023-08-09 16:11:06.891000,4.421686746987952,4.385542168674699,1.1325301204819278,4.627835683629675,5.851011649294911,2.2023298589822193,2.0,3.8439560439560436,260.1486563750715,-40.43330808227959,-103.74605209486627,175.90618262339024,2756.043956043956,-1.0,66.94861579323731,4.142321231545082,
2023-08-09 16:11:06.899000,5.662650602409639,4.626506024096386,0.9879518072289157,4.934396076026977,6.449417535254445,1.7044757817290006,2.0,3.8322344322344324,260.94437010131907,-26.17376609754676,-92.2498688887594,171.76877804323757,2805.8608058608056,-1.0,66.94861579323731,4.141969490166566,
2023-08-09 16:11:06.907000,5.759036144578314,5.024096385542169,0.5662650602409639,5.3733905579399135,6.267933782955242,1.0962599632127528,2.0,3.82051282051282,261.74496644295306,-17.39514014334829,-75.99032690402657,168.104655905833,2805.128205128205,-1.0,66.94861579323731,4.141614672979386,
2023-08-09 16:11:06.914000,5.46987951807229,5.385542168674699,0.3132530120481928,5.694665849172287,5.917228694052728,0.8608215818516247,2.0,3.811721611721612,262.3486450124928,-16.341705028844473,-60.38727346891207,165.02068644018414,2805.8608058608056,-1.0,66.94861579323731,4.141256462060129,
2023-08-09 16:11:06.922000,5.0120481927710845,5.493975903614458,0.30120481927710846,5.665236051502146,5.564071122011036,1.0300429184549356,2.0,3.8029304029304027,262.9551146214602,-15.288269914340654,-43.89872385059146,161.0817551424742,2805.8608058608056,-1.0,66.94861579323731,4.140894505278966,
2023-08-09 16:11:06.929000,4.55421686746988,5.289156626506024,0.3373493975903615,5.515634580012262,5.179031269160024,1.3047210300429184,2.0,3.794139194139194,263.5643946707859,-9.792086708233784,-25.562845987996035,152.77641163102382,2805.128205128205,-1.0,66.94861579323731,4.14052841488446,
2023-08-09 16:11:06.937000,4.349397590361446,5.072289156626506,0.5301204819277109,5.233599019006744,5.01471489883507,1.361128142244022,2.0,3.7824175824175823,264.3811737361999,-2.6470485402948536,-15.089563545247945,142.30312918827573,2805.128205128205,-1.0,66.94861579323731,4.1401577655401445,
2023-08-09 16:11:06.945000,4.19277108433735,4.9156626506024095,0.6626506024096386,5.044757817290006,4.791538933169834,1.4445125689760883,2.0,3.7692307692307696,265.3061224489796,0.772798787949421,-13.975059728454053,133.86038109667268,2805.128205128205,-1.0,66.94861579323731,4.139782090771538,
2023-08-09 16:11:06.952000,4.0361445783132535,4.807228915662651,0.6626506024096386,5.059472716125076,4.747394236664623,1.4150827713059473,2.0,3.7531135531135527,266.44544212375564,4.299516345201329,-14.707884155934968,126.15045743255055,2805.8608058608056,-1.0,66.94861579323731,4.139400878288372,
2023-08-09 16:11:06.960000,4.024096385542169,5.132530120481928,0.2530120481927711,5.461679950950337,4.828326180257511,0.6670754138565297,2.0,3.731135531135531,268.0149224425682,6.986539245964688,-13.120097896392982,114.60847269972612,2805.128205128205,-1.0,66.94861579323731,4.139013565592914,
2023-08-09 16:11:06.968000,4.168674698795181,5.409638554216868,-0.6265060240963856,5.702023298589822,4.9656652360515015,-0.20110361741263028,2.0,3.706227106227107,269.81616920339985,6.574325505506673,-13.578113163568556,101.57030476079483,2805.128205128205,-1.0,66.94861579323731,4.138619533874363,
2023-08-09 16:11:06.975000,4.216867469879518,5.578313253012048,-1.493975903614458,5.839362354383813,4.992642550582464,-0.8730839975475169,2.0,3.6871794871794874,271.21001390820584,7.8567682535982755,-17.425441407843365,89.98251850125284,2805.128205128205,-1.0,66.94861579323731,4.138218101491054,
2023-08-09 16:11:06.983000,4.048192771084338,5.481927710843374,-1.8795180722891567,5.68976088289393,4.62722256284488,-1.1404046597179645,2.0,3.672527472527473,272.29204069419507,12.879669016957054,-25.48651011013344,80.56267117300857,2805.128205128205,-1.0,66.94861579323731,4.137808521506155,
2023-08-09 16:11:06.991000,3.7951807228915664,5.481927710843374,-1.927710843373494,5.849172286940527,4.489883507050889,-1.1526670754138564,2.0,3.6622710622710626,273.0546109221844,19.41402016199522,-31.623914690286117,72.51686964629101,2805.8608058608056,-1.0,66.94861579323731,4.1373899813200286,
2023-08-09 16:11:06.998000,3.698795180722892,5.734939759036145,-1.927710843373494,6.133660331085223,4.3746167995095036,-1.2630288166768853,2.0,3.6549450549450557,273.60192423331324,23.94837130703339,-33.41017423227085,63.98251850125284,2805.8608058608056,-1.0,66.94861579323731,4.136961601718562,
2023-08-09 16:11:07.006000,3.7469879518072293,6.0,-2.024096385542169,6.430410790925812,4.364806866952789,-1.39546290619252,2.0,3.647619047619048,274.15143603133157,25.185012528407434,-34.78422003379757,58.089388730260474,2806.5934065934066,-1.0,66.94861579323731,4.136522436248599,
2023-08-09 16:11:07.014000,3.855421686746988,6.1807228915662655,-2.240963855421687,6.484365419987737,4.39423666462293,-1.6456161863887184,2.0,3.6388278388278392,274.81377088785985,25.88730260474331,-36.58574675135482,54.04358720354292,2773.6263736263736,-1.0,66.94861579323731,4.136071469405845,
2023-08-09 16:11:07.021000,3.879518072289157,6.265060240963856,-2.3855421686746987,6.540772532188841,4.455548743102391,-1.8712446351931329,2.0,3.632967032967033,275.2571082879613,26.80333313909446,-41.532311636851,50.53213682186353,2662.271062271062,-1.0,66.94861579323731,4.135607614404507,
2023-08-09 16:11:07.029000,3.8313253012048194,6.313253012048193,-2.397590361445783,6.638871857755977,4.261802575107296,-1.8148375229920293,2.0,3.63003663003663,275.47931382441976,26.864401841384534,-45.04376201853039,48.80694598216887,2515.0183150183148,-1.0,66.94861579323731,4.13512971090758,
2023-08-09 16:11:07.037000,3.698795180722892,6.373493975903615,-2.397590361445783,6.690374003678724,4.237277743715512,-1.812385039852851,2.0,3.6256410256410256,275.8132956152758,26.62012703222423,-41.71551774372123,47.84511392110017,2353.113553113553,-1.0,66.94861579323731,4.134636523618592,
2023-08-09 16:11:07.044000,3.662650602409639,6.493975903614458,-2.4096385542168677,6.876762722256284,4.048436541998774,-1.7952176578786019,2.0,3.6241758241758237,275.9248029108551,26.62012703222423,-41.71551774372123,47.84511392110017,2187.5457875457873,-1.0,66.94861579323731,4.134126740286144,
2023-08-09 16:11:07.052000,3.421686746987952,6.542168674698796,-2.4578313253012047,6.884120171673819,3.827713059472716,-1.9570815450643775,2.0,3.6227106227106227,276.03640040444895,26.62012703222423,-33.990326904026574,47.585571936367344,2027.106227106227,-1.0,66.94861579323731,4.133598970416481,
2023-08-09 16:11:07.060000,3.0843373493975905,6.987951807228916,-2.4698795180722892,7.418761496014715,3.1851624770079705,-2.212139791538933,2.0,3.621245421245421,276.1480882055432,26.971272070392168,-32.44834217120215,49.60083911193986,1879.120879120879,-1.0,66.94861579323731,4.1330517456732485,
2023-08-09 16:11:07.067000,2.6506024096385543,7.144578313253012,-2.771084337349398,7.526670754138565,3.0919681177191904,-2.241569589209074,2.0,3.621245421245421,276.1480882055432,24.467455276499038,-34.26513606433192,50.257327661558186,1748.7179487179485,-1.0,66.94861579323731,4.132483518586664,
2023-08-09 16:11:07.075000,2.325301204819277,7.240963855421687,-3.036144578313253,7.629675045984058,2.849172286940527,-2.7492335990190067,2.0,3.6227106227106227,276.03640040444895,20.528523978789114,-40.494143697919704,45.50923605850475,1634.4322344322343,-1.0,66.94861579323731,4.13189266206102,
2023-08-09 16:11:07.083000,2.204819277108434,7.493975903614459,-3.5180722891566267,7.879828326180257,2.4812998160637645,-3.0533415082771302,2.0,3.6637362637362645,272.9454109178164,17.45982168871278,-39.15063224753803,41.127556669191776,1538.4615384615383,-1.0,66.94861579323731,4.131277469250233,
2023-08-09 16:11:07.090000,2.313253012048193,7.530120481927711,-3.5903614457831328,7.865113427345187,2.93746167995095,-3.009196811771919,2.0,3.7633699633699638,265.71929141522287,11.001806421537207,-34.26513606433192,42.7458772798788,1463.003663003663,-1.0,66.94861579323731,4.130636167235181,
2023-08-09 16:11:07.098000,2.289156626506024,7.46987951807229,-4.1084337349397595,7.789086450030656,3.148375229920294,-4.090741876149601,2.0,3.8102564102564105,262.4495289367429,13.566691917720412,-30.295670415476952,41.43290018064216,1408.7912087912086,-1.0,66.94861579323731,4.129966952639965,
2023-08-09 16:11:07.106000,2.096385542168675,7.771084337349398,-5.843373493975904,8.183936235438381,2.7290006131207845,-6.27835683629675,2.0,3.8263736263736257,261.34405514072375,7.9636384826059095,-46.40254064448459,26.62373987529864,1376.5567765567764,-1.0,66.94861579323731,4.129267999649804,
2023-08-09 16:11:07.113000,2.2650602409638556,7.927710843373494,-7.590361445783133,8.191293684855916,2.9693439607602694,-7.585530349478847,2.0,3.8293040293040286,261.14405969007083,-7.914224112813938,-71.22696812540062,14.257327661558183,1353.113553113553,-1.0,66.94861579323731,4.128537438506172,
2023-08-09 16:11:07.121000,3.397590361445783,7.240963855421687,-7.048192771084338,7.1440833844267315,3.982219497240956,-6.217044757817289,2.0,3.8263736263736257,261.34405514072375,-16.463842433424624,-79.2117009498281,10.80694598216887,1334.065934065934,-1.0,66.94861579323731,4.127773344656218,
2023-08-09 16:11:07.129000,4.807228915662651,5.855421686746988,-5.349397590361446,5.800122624156959,6.03740036787247,-3.955855303494788,2.0,3.819047619047619,261.8453865336659,-20.082163044111645,-68.98269331624032,19.020686440184136,1316.4835164835165,-1.0,66.94861579323731,4.126973735038921,
2023-08-09 16:11:07.136000,6.1325301204819285,5.530120481927711,-3.9036144578313254,5.900674432863274,6.858982219497241,-2.8767627222562844,2.0,3.8087912087912086,262.5504904789383,-7.807353883806304,-45.94452537730901,8.608472699726121,1306.9597069597069,-1.0,66.94861579323731,4.126136567747476,
2023-08-09 16:11:07.144000,6.55421686746988,6.0,-3.421686746987952,6.501532801961986,6.935009196811771,-3.2004904966278356,2.0,3.7985347985347984,263.25940212150437,4.360585047491406,-11.898723850591457,10.058854379115434,1304.7619047619046,-1.0,66.94861579323731,4.125259743294723,
2023-08-09 16:11:07.152000,6.144578313253012,6.650602409638554,-3.8313253012048194,7.134273451870018,6.625996321275291,-3.4923359901900675,2.0,3.794139194139194,263.5643946707859,-6.448575257852106,10.681428821164268,14.761144455451312,1310.6227106227104,-1.0,66.94861579323731,4.12434110708416,
2023-08-09 16:11:07.159000,5.1084337349397595,7.144578313253012,-4.240963855421687,7.585530349478847,5.007357449417535,-3.7621091354996934,2.0,3.791208791208791,263.768115942029,-15.02872792960783,8.1470776761261,14.257327661558183,1323.8095238095236,-1.0,66.94861579323731,4.12337845483385,
2023-08-09 16:11:07.167000,3.734939759036145,7.1084337349397595,-4.265060240963856,7.389331698344574,3.6830165542611892,-3.6002452483139176,2.0,3.773626373626373,264.99708794408855,-18.952392051745235,1.6890624089505277,22.715342928733754,1343.5897435897434,-1.0,66.94861579323731,4.1223695397542075,
2023-08-09 16:11:07.175000,2.7590361445783134,6.91566265060241,-3.8674698795180724,7.274064990803188,2.908031882280809,-2.8963825873697115,2.0,3.7575091575091575,266.1337492688633,-16.616514189149814,2.1623448516986192,28.944350562321542,1369.230769230769,-1.0,66.94861579323731,4.121312074446947,
2023-08-09 16:11:07.182000,2.060240963855422,7.0,-3.0843373493975905,7.350091968117718,2.3096259963212753,-2.060085836909871,2.0,3.7472527472527473,266.86217008797655,-7.700483654798671,4.162344851698619,30.593205524153603,1397.069597069597,-1.0,66.94861579323731,4.1202037310943656,
2023-08-09 16:11:07.190000,1.6867469879518073,7.325301204819278,-2.240963855421687,7.86020846106683,2.1649294911097483,-1.4126302881667687,2.0,3.7413919413919414,267.2802036420599,0.95600489481965,3.200512790629917,30.074121554687952,1422.7106227106226,-1.0,66.94861579323731,4.119042148368775,
2023-08-09 16:11:07.198000,1.6144578313253013,7.951807228915663,-1.963855421686747,8.468424279583077,2.1943592887798897,-1.361128142244022,2.0,3.736996336996337,267.59458929621644,2.833867490239497,-2.3567391177670296,25.43290018064215,1444.6886446886447,-1.0,66.94861579323731,4.1178249414535095,
2023-08-09 16:11:07.205000,1.8554216867469882,8.240963855421688,-2.3493975903614457,8.664622930717352,2.4518700183936235,-2.128755364806867,2.0,3.7355311355311356,267.69954893116295,0.5743255055066729,-5.4254414078433655,19.524503234077265,1458.6080586080584,-1.0,66.94861579323731,4.116549710842038,
2023-08-09 16:11:07.213000,2.325301204819277,8.156626506024097,-3.2289156626506026,8.556713672593501,3.0846106683016554,-2.923359901900674,2.0,3.7340659340659346,267.8045909358446,-3.089796631897907,-12.112464308606723,18.33366353942078,1464.4688644688645,-1.0,66.94861579323731,4.1152140512040996,
2023-08-09 16:11:07.221000,3.2289156626506026,8.048192771084338,-3.807228915662651,8.328632740649908,4.028816676885346,-3.114653586756591,2.0,3.7296703296703297,268.12021213906894,-0.11269739525668582,-13.440708583415883,13.997785676825359,1468.131868131868,-1.0,66.94861579323731,4.113815560299299,
2023-08-09 16:11:07.228000,3.771084337349398,8.120481927710843,-3.7228915662650603,8.49785407725322,4.381974248927039,-3.0386266094420598,2.0,3.725274725274726,268.4365781710914,7.704096497873085,-6.906357438377716,11.967251325680321,1471.7948717948716,-1.0,66.94861579323731,4.112351846331823,
2023-08-09 16:11:07.236000,3.7831325301204823,8.602409638554217,-3.5421686746987953,9.260576333537706,4.256897608828939,-3.0239117106069893,2.0,3.723809523809524,268.54219948849106,8.528523978789115,-1.6849833925761897,11.997785676825359,1479.120879120879,-1.0,66.94861579323731,4.110820535471502,
2023-08-09 16:11:07.244000,3.662650602409639,9.144578313253012,-3.5783132530120483,9.650521152667075,4.109748620478234,-3.22501532801962,2.0,3.720879120879121,268.7536916715889,4.421653749781482,4.101276149408543,13.890915447817724,1490.10989010989,-1.0,66.94861579323731,4.109219281541481,
2023-08-09 16:11:07.251000,3.4819277108433737,9.27710843373494,-4.0120481927710845,9.645616186388718,3.9478847332924585,-3.7522992029429796,2.0,3.717948717948718,268.9655172413793,-1.944758463958976,11.047841034904726,14.776411631023832,1498.9010989010987,-1.0,66.94861579323731,4.10754577604319,
2023-08-09 16:11:07.259000,3.108433734939759,8.843373493975903,-4.650602409638554,8.94420600858369,3.5971796443899446,-4.502759043531576,2.0,3.7194139194139195,268.859562733898,-9.150865334187984,14.345550958568849,11.585571936367343,1502.5641025641025,-1.0,66.94861579323731,4.1057977568670845,
2023-08-09 16:11:07.267000,2.7590361445783134,7.91566265060241,-5.265060240963856,7.9288779889638255,3.190067443286327,-4.8706315144083385,2.0,3.7296703296703297,268.12021213906894,-12.03636151739409,11.215779966202435,8.226793310413145,1497.4358974358972,-1.0,66.94861579323731,4.103973018670529,
2023-08-09 16:11:07.274000,2.734939759036145,7.2771084337349405,-5.46987951807229,7.4408338442673205,3.3323114653586754,-4.811771919068057,2.0,3.738461538461538,267.4897119341564,-9.074529456325388,5.841734164675718,8.196258959268107,1479.8534798534797,-1.0,66.94861579323731,4.102069427029245,
2023-08-09 16:11:07.282000,3.325301204819277,6.951807228915663,-4.9156626506024095,7.249540159411404,4.229920294297976,-4.105456774984671,2.0,3.73992673992674,267.384916748286,-6.2043004486918,0.8646349280344972,4.211526134840627,1456.4102564102564,-1.0,66.94861579323731,4.100084931235708,
2023-08-09 16:11:07.290000,4.216867469879518,7.240963855421687,-4.265060240963856,7.695892090741876,4.9288779889638255,-3.497240956468424,2.0,3.738461538461538,267.4897119341564,-5.593613425791037,2.086008973836024,0.9901520890391002,1430.7692307692307,-1.0,66.94861579323731,4.098017572341476,
2023-08-09 16:11:07.297000,4.614457831325302,7.602409638554217,-3.457831325301205,8.110361741263029,5.188841201716738,-2.575107296137339,2.0,3.726739926739927,268.33103990564183,-6.433308082279586,-0.3567391177670295,0.5626711730085658,1405.8608058608058,-1.0,66.94861579323731,4.095865489807153,
2023-08-09 16:11:07.305000,4.566265060240964,7.771084337349398,-2.7590361445783134,8.149601471489882,4.95340282035561,-2.011036174126303,2.0,3.7164835164835166,269.0715552927262,-5.456208845638365,-0.8452887360876401,0.8222131577413903,1383.8827838827838,-1.0,66.94861579323731,4.093626926376891,
2023-08-09 16:11:07.312000,3.8192771084337354,7.72289156626506,-2.771084337349398,8.10790925812385,3.89883507050889,-2.219497240956468,2.0,3.709157509157509,269.60300217262494,-4.448575257852106,2.0707417982635046,6.089388730260474,1369.230769230769,-1.0,66.94861579323731,4.091300234238366,
2023-08-09 16:11:07.320000,2.674698795180723,7.819277108433735,-3.397590361445783,8.269773145309626,2.8908645003065603,-2.9184549356223175,2.0,3.7032967032967035,270.02967359050444,-4.448575257852106,2.0707417982635046,6.089388730260474,1364.8351648351647,-1.0,66.94861579323731,4.088883885246433,
2023-08-09 16:11:07.328000,2.0120481927710845,8.0,-3.6144578313253013,8.38749233599019,2.525444512568976,-3.0410790925812385,2.0,3.6989010989010986,270.35056446821153,-1.425674494493327,8.879902103607016,6.15045743255055,1371.4285714285713,-1.0,66.94861579323731,4.086376481994175,
2023-08-09 16:11:07.335000,2.060240963855422,8.036144578313253,-3.216867469879518,8.360515021459227,2.574494175352544,-2.528510116492949,2.0,3.6945054945054947,270.6722189173111,0.08577588718606226,18.879902103607016,0.5626711730085658,1383.150183150183,-1.0,66.94861579323731,4.0837767671931005,
2023-08-09 16:11:07.343000,2.5180722891566267,7.879518072289157,-2.602409638554217,8.179031269160024,3.1017780502759043,-1.9840588595953401,2.0,3.6945054945054947,270.6722189173111,-0.02109434182157132,22.055474622690983,-3.4525960025639533,1399.2673992673992,-1.0,66.94861579323731,4.081083631489783,
2023-08-09 16:11:07.351000,2.91566265060241,7.590361445783133,-2.4216867469879517,7.887185775597793,3.2219497240956465,-1.7903126916002452,2.0,3.6959706959706957,270.5649157581764,-2.2653691509818765,17.32265019521007,-4.536565468212808,1415.3846153846152,-1.0,66.94861579323731,4.078296122906615,
2023-08-09 16:11:07.358000,2.807228915662651,7.156626506024097,-2.5783132530120483,7.337829552421827,3.207234825260576,-2.03065603923973,2.0,3.6989010989010986,270.35056446821153,-5.425674494493327,12.986772332614649,-1.620534933861663,1431.5018315018315,-1.0,66.94861579323731,4.075413456104208,
2023-08-09 16:11:07.366000,2.5180722891566267,6.759036144578314,-2.7228915662650603,7.021459227467811,2.854077253218884,-2.057633353770693,2.0,3.701831501831502,270.1365525430437,-5.410407318920808,12.208146378416176,-0.8266418040906708,1446.8864468864467,-1.0,66.94861579323731,4.072435021358229,
2023-08-09 16:11:07.374000,2.397590361445783,6.879518072289157,-2.63855421686747,7.328019619865113,2.846719803801349,-1.9914163090128754,2.0,3.7032967032967035,270.02967359050444,-2.9371248761727164,11.093642561622284,-1.8648097430219683,1464.4688644688645,-1.0,66.94861579323731,4.06936039254895,
2023-08-09 16:11:07.381000,2.4939759036144578,7.1084337349397595,-2.771084337349398,7.5144083384426725,3.03065603923973,-2.2685469037400368,2.0,3.704761904761905,269.92287917737787,-0.9829264028902736,13.841734164675717,-1.1777868422586097,1479.120879120879,-1.0,66.94861579323731,4.066189332754297,
2023-08-09 16:11:07.389000,2.566265060240964,7.144578313253012,-2.963855421686747,7.58062538320049,2.778050275904353,-2.4377682403433476,2.0,3.710622710622711,269.4965449160908,-1.3951401433482888,12.81883340131694,-3.6663364605792204,1489.3772893772893,-1.0,66.94861579323731,4.062921799692499,
2023-08-09 16:11:07.397000,2.2650602409638556,7.578313253012048,-3.1927710843373496,8.083384426732065,2.6284488044144694,-2.6192519926425506,2.0,3.7150183150183147,269.1776769867876,-1.1050638074704262,11.918070042538314,0.5321368218635277,1500.3663003663003,-1.0,66.94861579323731,4.059557952946342,
2023-08-09 16:11:07.404000,2.144578313253012,7.987951807228916,-3.1566265060240966,8.429184549356222,2.6333537706928265,-2.6069895769466584,2.0,3.720879120879121,268.7536916715889,0.9407377192471309,12.040207447118465,2.577938348581085,1509.89010989011,903.86962890625,66.38125464244716,4.056098159740236,
2023-08-09 16:11:07.412000,2.4216867469879517,8.265060240963855,-3.325301204819277,8.733292458614347,2.9325567136725934,-2.9699570815450644,2.0,3.7326007326007327,267.909715407262,0.8644018413845355,17.337917370782588,2.5474039974360467,1512.087912087912,-1.0,66.38125464244716,4.052542998682798,
2023-08-09 16:11:07.420000,3.1204819277108435,8.397590361445783,-3.734939759036145,8.760269773145309,3.89883507050889,-3.3599019006744326,2.0,3.7487179487179487,266.7578659370725,-2.2195676242643194,26.467688363149,3.478701707359711,1504.7619047619046,-1.0,66.38125464244716,4.048893265810214,
2023-08-09 16:11:07.427000,3.6385542168674703,8.361445783132531,-4.204819277108434,8.701410177805027,4.291232372777437,-3.656652360515021,2.0,3.7604395604395604,265.92635885447106,-5.898956937241419,31.322650195210066,0.577938348581085,1486.4468864468863,-1.0,66.38125464244716,4.045149981227737,
2023-08-09 16:11:07.435000,3.855421686746988,8.180722891566266,-4.0602409638554215,8.458614347026364,4.546290619251993,-3.421213979153893,2.0,3.7677655677655673,265.40929418627263,-6.341705028844472,19.857001340248235,-1.9258784453120448,1459.3406593406592,-1.0,66.38125464244716,4.041314391949867,
2023-08-09 16:11:07.443000,3.951807228915663,8.012048192771084,-4.144578313253012,8.37032495401594,4.423666462293071,-3.6615573267933783,2.0,3.775091575091575,264.89423636716475,-6.692850067012411,18.773031874599383,-3.299924246838762,1423.4432234432234,-1.0,66.38125464244716,4.037387971424513,
2023-08-09 16:11:07.450000,3.7228915662650603,7.987951807228916,-4.313253012048193,8.358062538320048,4.1735131820968725,-3.81361128142244,2.0,3.7809523809523804,264.48362720403026,-7.792086708233785,11.261581492919992,-2.964046384243342,1379.4871794871794,-1.0,66.38125464244716,4.033372418957746,
2023-08-09 16:11:07.458000,3.8674698795180724,8.036144578313253,-3.5903614457831328,8.475781729000612,4.389331698344574,-2.9724095646842428,2.0,3.7838827838827838,264.2787996127783,-11.39514014334829,11.047841034904726,-3.6968708117242586,1330.4029304029302,-1.0,66.38125464244716,4.029269658842899,
2023-08-09 16:11:07.466000,3.987951807228916,8.132530120481928,-3.855421686746988,8.529736358062538,4.458001226241569,-3.42611894543225,2.0,3.7897435897435896,263.87009472259814,-17.486743196783404,11.933337218110832,-2.0785502010372356,1283.5164835164835,-1.0,66.38125464244716,4.025081838162891,
2023-08-09 16:11:07.473000,3.698795180722892,7.927710843373494,-4.168674698795181,8.179031269160024,4.256897608828939,-3.4898835070508887,2.0,3.7926739926739925,263.66621595518643,-15.074529456325388,18.650894470019228,-1.605267758289144,1235.164835164835,-1.0,66.38125464244716,4.0208113251215325,
2023-08-09 16:11:07.481000,3.987951807228916,7.855421686746988,-3.6746987951807233,8.208461066830164,4.607602697731453,-2.984671980380135,2.0,3.7999999999999994,263.15789473684214,-12.066895868539127,35.07837538604976,-2.7808402773731133,1186.8131868131868,-1.0,66.38125464244716,4.016460707585009,
2023-08-09 16:11:07.489000,4.1807228915662655,8.060240963855422,-3.5542168674698797,8.564071122011036,4.651747394236664,-2.7075413856529735,2.0,3.8087912087912086,262.5504904789383,-10.70811724258493,20.60509294330167,-3.4525960025639533,1137.7289377289376,-1.0,66.38125464244716,4.012032790224751,
2023-08-09 16:11:07.496000,3.7228915662650603,8.289156626506024,-3.349397590361446,8.738197424892704,4.082771305947271,-2.599632127529123,2.0,3.816117216117216,262.0464580533692,-4.021094341821571,15.750131111240604,-3.2388555445486857,1088.6446886446886,-1.0,66.38125464244716,4.007530591215618,
2023-08-09 16:11:07.504000,3.5060240963855422,8.457831325301205,-2.7590361445783134,8.907418761496015,3.982219497240956,-2.060085836909871,2.0,3.821978021978022,261.644623346751,-3.089796631897907,24.498222714294037,-3.5136647048540293,1043.956043956044,-1.0,66.38125464244716,4.002957337906437,
2023-08-09 16:11:07.512000,3.6144578313253013,8.44578313253012,-2.602409638554217,8.858369098712446,3.99202942979767,-2.0036787247087675,2.0,3.8249084249084246,261.44416778394947,-6.295903502126914,29.79593263795816,-1.238855544548686,1003.6630036630036,-1.0,66.38125464244716,3.998316461166037,
2023-08-09 16:11:07.519000,3.6506024096385543,8.27710843373494,-2.5903614457831328,8.564071122011036,4.1587982832618025,-1.9570815450643775,2.0,3.8278388278388276,261.244019138756,-6.295903502126914,25.551657828797854,-0.38389371248761733,968.4981684981684,-1.0,66.38125464244716,3.993611587928729,
2023-08-09 16:11:07.527000,3.493975903614458,8.096385542168676,-2.674698795180723,8.372777437155118,3.793378295524218,-2.03065603923973,2.0,3.8307692307692305,261.04417670682733,-5.135598158615465,26.269215080706253,-1.1777868422586097,938.4615384615385,-1.0,66.38125464244716,3.9888465333617695,
2023-08-09 16:11:07.535000,3.0843373493975905,7.963855421686747,-3.072289156626506,8.348252605763335,3.427958307786634,-2.4426732066217043,2.0,3.8336996336996334,260.84463978597364,1.0781422993998027,20.94097080589709,0.31839636384826053,915.018315018315,-1.0,66.38125464244716,3.9840252932707445,
