Shimmer_F5D4_Timestamp_FormattedUnix_CAL,Shimmer_F5D4_Accel_LN_X_CAL,Shimmer_F5D4_Accel_LN_Y_CAL,Shimmer_F5D4_Accel_LN_Z_CAL,Shimmer_F5D4_Accel_WR_X_CAL,Shimmer_F5D4_Accel_WR_Y_CAL,Shimmer_F5D4_Accel_WR_Z_CAL,Shimmer_F5D4_GSR_Range_CAL,Shimmer_F5D4_GSR_Skin_Conductance_CAL,Shimmer_F5D4_GSR_Skin_Resistance_CAL,Shimmer_F5D4_Gyro_X_CAL,Shimmer_F5D4_Gyro_Y_CAL,Shimmer_F5D4_Gyro_Z_CAL,Shimmer_F5D4_PPG_A13_CAL,Shimmer_F5D4_PPG_IBI_CAL,Shimmer_F5D4_PPGtoHR_CAL,Shimmer_F5D4_GSR_Skin_Conductance_LPF_CAL,
yyyy/mm/dd hh:mm:ss.000,m/(s^2),m/(s^2),m/(s^2),m/(s^2),m/(s^2),m/(s^2),no_units,uS,kOhms,deg/s,deg/s,deg/s,mV,ms,BPM,uS,
2023-08-08 18:29:00.143000,-8.012048192771084,-1.3734939759036144,-5.590361445783133,-1.3709380748007356,-7.870631514408338,-5.282648681790312,3.0,0.6178266178266179,1618.5770750988142,0.24392517918536283,1.4481673562146735,2.025406444845872,1481.3186813186812,-1.0,95.52424448547275,0.6181040933499734,
2023-08-08 18:29:00.150000,-7.987951807228916,-1.349397590361446,-5.55421686746988,-1.280196198651134,-7.868179031269159,-5.250766400980993,3.0,0.6178266178266179,1618.5770750988142,0.6714060952158971,1.7687780432375744,1.72006293339549,1473.260073260073,-1.0,95.52424448547275,0.6181007404830512,
2023-08-08 18:29:00.158000,-7.975903614457832,-1.3012048192771084,-5.578313253012048,-1.2581238503985284,-7.797057020232986,-5.282648681790312,3.0,0.6178266178266179,1618.5770750988142,0.9920167822387979,1.3870986539245973,1.8422003379756426,1464.4688644688645,-1.0,95.52424448547275,0.6180973552890053,
2023-08-08 18:29:00.166000,-7.903614457831326,-1.2891566265060241,-5.590361445783133,-1.2507664009809931,-7.76026977314531,-5.290006131207847,3.0,0.6178266178266179,1618.5770750988142,0.5340015150632255,1.4939688829322308,1.8116659868306046,1454.9450549450548,-1.0,95.52424448547275,0.6180939380863492,
2023-08-08 18:29:00.173000,-7.903614457831326,-1.349397590361446,-5.614457831325302,-1.2654812998160636,-7.694052728387492,-5.31698344573881,3.0,0.6178266178266179,1618.5770750988142,0.5340015150632255,2.0130528523978795,1.9643377425557953,1445.4212454212454,-1.0,95.52424448547275,0.6180904893818424,
2023-08-08 18:29:00.181000,-7.9397590361445785,-1.349397590361446,-5.614457831325302,-1.2949110974862048,-7.723482526057633,-5.31698344573881,3.0,0.6178266178266179,1618.5770750988142,0.6866732707884162,2.4710681195734523,2.025406444845872,1437.3626373626373,-1.0,95.52424448547275,0.6180870097228802,
2023-08-08 18:29:00.189000,-7.963855421686747,-1.2771084337349399,-5.614457831325302,-1.1894543225015328,-7.846106683016554,-5.400367872470876,3.0,0.6178266178266179,1618.5770750988142,0.640871744070859,3.0817551424742153,1.8269331624031238,1428.5714285714284,-1.0,95.52424448547275,0.618083499699136,
2023-08-08 18:29:00.196000,-7.963855421686747,-1.2891566265060241,-5.662650602409639,-1.2630288166768853,-7.806866952789699,-5.432250153280196,3.0,0.6178266178266179,1618.5770750988142,0.640871744070859,3.0817551424742153,1.8269331624031238,1420.5128205128203,-1.0,95.52424448547275,0.6180799599441469,
2023-08-08 18:29:00.204000,-7.9397590361445785,-1.313253012048193,-5.662650602409639,-1.260576333537707,-7.826486817903127,-5.368485591661557,3.0,0.6178266178266179,1618.5770750988142,0.5340015150632255,3.1122894936192536,1.72006293339549,1413.9194139194137,-1.0,95.52424448547275,0.6180763911368468,
2023-08-08 18:29:00.212000,-7.91566265060241,-1.3012048192771084,-5.72289156626506,-1.213979153893317,-7.74310239117106,-5.375843041079093,3.0,0.6178266178266179,1618.5770750988142,0.7935434997960499,2.5016024707184905,1.7505972845405282,1408.7912087912086,-1.0,95.52424448547275,0.6180727940030142,
2023-08-08 18:29:00.219000,-7.951807228915663,-1.2409638554216869,-5.734939759036145,-1.2188841201716738,-7.716125076640098,-5.44206008583691,3.0,0.6178266178266179,1618.5770750988142,0.5798030417807827,1.5855719363673453,1.3841850708000702,1404.3956043956043,-1.0,95.52424448547275,0.6180691693166495,
2023-08-08 18:29:00.227000,-7.927710843373494,-1.2289156626506024,-5.734939759036145,-1.2115266707541386,-7.713672593500919,-5.466584917228694,3.0,0.6178266178266179,1618.5770750988142,0.7019404463609353,1.50923605850475,1.307849192937475,1400.7326007326005,-1.0,95.52424448547275,0.6180655179012489,
2023-08-08 18:29:00.235000,-7.951807228915663,-1.2289156626506024,-5.746987951807229,-1.1771919068056407,-7.755364806866952,-5.469037400367872,3.0,0.6178266178266179,1618.5770750988142,0.2897267059029201,1.3718314783520782,1.2009789639298412,1396.3369963369962,-1.0,95.52424448547275,0.6180618406309795,
2023-08-08 18:29:00.242000,-7.9397590361445785,-1.2530120481927711,-5.759036144578314,-1.2164316370324952,-7.728387492335989,-5.437155119558553,3.0,0.6169386169386168,1620.9068010075569,0.32026105704795826,1.3718314783520782,0.9567041547695359,1391.2087912087911,-1.0,95.52424448547275,0.618058138431741,
2023-08-08 18:29:00.250000,-7.91566265060241,-1.2650602409638554,-5.72289156626506,-1.1870018393623543,-7.740649908031882,-5.498467198038013,3.0,0.6173826173826173,1619.7411003236248,0.09125342346017198,0.974884913466582,0.45288736087640613,1388.278388278388,-1.0,95.52424448547275,0.6180544121222633,
2023-08-08 18:29:00.258000,-7.91566265060241,-1.2289156626506024,-5.746987951807229,-1.2164316370324952,-7.748007357449417,-5.486204782342121,3.0,0.6178266178266179,1618.5770750988142,-0.275158790280286,0.5168696462910095,0.16281102499854358,1386.080586080586,-1.0,95.52424448547275,0.618050662361325,
2023-08-08 18:29:00.265000,-7.91566265060241,-1.2289156626506024,-5.759036144578314,-1.150214592274678,-7.711220110361741,-5.527896995708154,3.0,0.6178266178266179,1618.5770750988142,-0.33622749257036233,-0.2464891323349447,-0.5089447001922961,1384.6153846153845,-1.0,95.52424448547275,0.618046889966095,
2023-08-08 18:29:00.273000,-7.91566265060241,-1.1927710843373494,-5.783132530120482,-1.1722869405272838,-7.6817903126916,-5.510729613733905,3.0,0.6178266178266179,1618.5770750988142,-0.5652351261581486,-0.09381737660975387,-0.8906240895052732,1383.8827838827838,-1.0,95.52424448547275,0.6180430959428145,
2023-08-08 18:29:00.281000,-7.891566265060241,-1.216867469879518,-5.771084337349398,-1.2188841201716738,-7.642550582464745,-5.486204782342121,3.0,0.6173826173826173,1619.7411003236248,-0.9927160421886829,-0.4602295903502119,-1.409708058970922,1382.4175824175823,-1.0,95.52424448547275,0.6180392813476678,
2023-08-08 18:29:00.288000,-7.867469879518072,-1.2650602409638554,-5.759036144578314,-1.2483139178418148,-7.671980380134886,-5.415082771305947,3.0,0.6178266178266179,1618.5770750988142,-0.9774488666161638,-0.8877105063807462,-2.3715401200396244,1378.7545787545787,-1.0,95.52424448547275,0.6180354471369796,
2023-08-08 18:29:00.296000,-7.867469879518072,-1.313253012048193,-5.72289156626506,-1.2728387492335989,-7.6989576946658485,-5.454322501532801,3.0,0.6178266178266179,1618.5770750988142,-1.37439543150166,-1.2083211934036469,-2.356272944467105,1373.6263736263736,-1.0,95.52424448547275,0.6180315942939945,
2023-08-08 18:29:00.304000,-7.855421686746988,-1.349397590361446,-5.746987951807229,-1.3341508277130594,-7.659717964438994,-5.459227467811158,3.0,0.6178266178266179,1618.5770750988142,-1.4049297826466982,-0.8266418040906699,-2.2188683643144334,1372.8937728937728,-1.0,95.52424448547275,0.6180277239870481,
2023-08-08 18:29:00.311000,-7.891566265060241,-1.385542168674699,-5.734939759036145,-1.385652973635806,-7.725935009196811,-5.405272838749234,3.0,0.6178266178266179,1618.5770750988142,-1.9850824544024233,-1.223588368976166,-2.27993706660451,1371.4285714285713,-1.0,95.52424448547275,0.6180238372909943,
2023-08-08 18:29:00.319000,-7.903614457831326,-1.3975903614457832,-5.698795180722892,-1.3635806253832004,-7.74310239117106,-5.405272838749234,3.0,0.6178266178266179,1618.5770750988142,-1.7255404696695988,-1.3609929491288377,-2.4326088223297004,1372.161172161172,-1.0,95.52424448547275,0.6180199353451481,
2023-08-08 18:29:00.327000,-7.91566265060241,-1.3975903614457832,-5.686746987951808,-1.30226854690374,-7.772532188841201,-5.397915389331698,3.0,0.6178266178266179,1618.5770750988142,-1.8171435231047135,-1.1777868422586089,-2.692150807062525,1375.8241758241757,551.513671875,108.79150066401063,0.6180160194796045,
2023-08-08 18:29:00.334000,-7.903614457831326,-1.4096385542168675,-5.710843373493976,-1.3684855916615573,-7.770079705702023,-5.370938074800735,3.0,0.6178266178266179,1618.5770750988142,-1.4659984849367744,-1.391527300273876,-2.539479051337334,1381.6849816849815,-1.0,108.79150066401063,0.6180120910647499,
2023-08-08 18:29:00.342000,-7.91566265060241,-1.421686746987952,-5.686746987951808,-1.4273451870018392,-7.730839975475168,-5.3292458614347025,3.0,0.6178266178266179,1618.5770750988142,-1.6797389429520417,-1.3457257735563186,-2.524211875764815,1387.5457875457876,-1.0,108.79150066401063,0.6180081515099733,
2023-08-08 18:29:00.350000,-7.91566265060241,-1.3975903614457832,-5.662650602409639,-1.3243408951563458,-7.752912323727774,-5.385652973635806,3.0,0.6178266178266179,1618.5770750988142,-1.4049297826466982,-1.5136647048540286,-1.9898607307266472,1394.139194139194,-1.0,108.79150066401063,0.6180042022622834,
2023-08-08 18:29:00.357000,-7.927710843373494,-1.3975903614457832,-5.650602409638554,-1.390557939914163,-7.762722256284488,-5.356223175965665,3.0,0.6178266178266179,1618.5770750988142,-1.20645650020395,-1.5136647048540286,-1.60818134141367,1400.7326007326005,-1.0,108.79150066401063,0.6180002448048413,
2023-08-08 18:29:00.365000,-7.91566265060241,-1.385542168674699,-5.650602409638554,-1.3733905579399142,-7.716125076640098,-5.3366033108522375,3.0,0.6178266178266179,1618.5770750988142,-0.9774488666161638,-1.3457257735563186,-1.394440883398403,1408.7912087912086,-1.0,108.79150066401063,0.6179962806554176,
2023-08-08 18:29:00.373000,-7.903614457831326,-1.3734939759036144,-5.63855421686747,-1.3439607602697732,-7.779889638258736,-5.297363580625383,3.0,0.6178266178266179,1618.5770750988142,-0.8858458131810494,-1.193054017831128,-1.3181050055358075,1412.4542124542124,-1.0,108.79150066401063,0.6179923113647615,
2023-08-08 18:29:00.380000,-7.927710843373494,-1.3614457831325302,-5.626506024096386,-1.3341508277130594,-7.716125076640098,-5.34886572654813,3.0,0.6173826173826173,1619.7411003236248,-0.8095099353184539,-1.1319853155410515,-1.1501660742380977,1414.6520146520145,-1.0,108.79150066401063,0.6179883385149065,
2023-08-08 18:29:00.388000,-7.927710843373494,-1.385542168674699,-5.63855421686747,-1.356223175965665,-7.779889638258736,-5.334150827713059,3.0,0.6178266178266179,1618.5770750988142,-0.9621816910436448,-1.0098479109608989,-1.043295845230464,1414.6520146520145,-1.0,108.79150066401063,0.6179843635681116,
2023-08-08 18:29:00.396000,-7.9397590361445785,-1.3734939759036144,-5.614457831325302,-1.3537706928264868,-7.762722256284488,-5.31698344573881,3.0,0.6169386169386168,1620.9068010075569,-0.7484412330283776,-0.9793135598158607,-0.9516927917953495,1413.9194139194137,-1.0,108.79150066401063,0.6179803879924513,
2023-08-08 18:29:00.403000,-7.91566265060241,-1.349397590361446,-5.63855421686747,-1.3537706928264868,-7.711220110361741,-5.3218884120171674,3.0,0.6173826173826173,1619.7411003236248,-0.626303828448225,-0.6434356972204409,-1.1043645475205404,1413.1868131868132,-1.0,108.79150066401063,0.6179764133977796,
2023-08-08 18:29:00.411000,-7.927710843373494,-1.349397590361446,-5.63855421686747,-1.3464132434089515,-7.826486817903127,-5.312078479460453,3.0,0.6178266178266179,1618.5770750988142,-0.9011129887535684,-0.9335120330983034,-0.875356913932754,1410.989010989011,-1.0,108.79150066401063,0.617972441182142,
2023-08-08 18:29:00.419000,-7.91566265060241,-1.3614457831325302,-5.650602409638554,-1.3071735131820967,-7.787247087676271,-5.287553648068669,3.0,0.6178266178266179,1618.5770750988142,-0.45836489715051504,-0.7045043995105172,-0.6463492803449679,1405.128205128205,-1.0,108.79150066401063,0.6179684727196798,
2023-08-08 18:29:00.426000,-7.927710843373494,-1.349397590361446,-5.614457831325302,-1.3218884120171672,-7.69650521152667,-5.312078479460453,3.0,0.6178266178266179,1618.5770750988142,-0.641571004020744,-0.5670998193578455,-0.5089447001922961,1394.8717948717947,-1.0,108.79150066401063,0.6179645095377005,
2023-08-08 18:29:00.434000,-7.9397590361445785,-1.3614457831325302,-5.650602409638554,-1.366033108522379,-7.755364806866952,-5.3292458614347025,3.0,0.6178266178266179,1618.5770750988142,-0.4888992482955532,-0.5670998193578455,-0.7074179826350442,1383.8827838827838,-1.0,108.79150066401063,0.6179605530360288,
2023-08-08 18:29:00.441000,-7.9397590361445785,-1.349397590361446,-5.626506024096386,-1.3684855916615573,-7.721030042918454,-5.346413243408951,3.0,0.6178266178266179,1618.5770750988142,-0.45836489715051504,-0.307557834625021,-0.5394790513373343,1375.091575091575,-1.0,108.79150066401063,0.6179566046430045,
2023-08-08 18:29:00.449000,-7.91566265060241,-1.3373493975903614,-5.626506024096386,-1.3267933782955241,-7.750459840588595,-5.375843041079093,3.0,0.6178266178266179,1618.5770750988142,-0.4736320727230341,-0.20068760561738744,-0.9211584406503114,1369.9633699633698,-1.0,108.79150066401063,0.6179526659400039,
2023-08-08 18:29:00.457000,-7.927710843373494,-1.349397590361446,-5.626506024096386,-1.3047210300429184,-7.745554874310239,-5.400367872470876,3.0,0.6178266178266179,1618.5770750988142,-0.9774488666161638,-0.3228250101975401,-0.5089447001922961,1366.3003663003662,-1.0,108.79150066401063,0.6179487385092988,
2023-08-08 18:29:00.464000,-7.951807228915663,-1.3734939759036144,-5.626506024096386,-1.2703862660944205,-7.824034334763948,-5.356223175965665,3.0,0.6173826173826173,1619.7411003236248,-0.626303828448225,-0.07855020103723478,-0.7990210360701587,1364.102564102564,-1.0,108.79150066401063,0.6179448239312837,
2023-08-08 18:29:00.472000,-7.9397590361445785,-1.3734939759036144,-5.650602409638554,-1.3586756591048437,-7.738197424892704,-5.326793378295524,3.0,0.6178266178266179,1618.5770750988142,-0.626303828448225,-0.07855020103723478,-0.7990210360701587,1362.6373626373625,-1.0,108.79150066401063,0.6179409234937402,
2023-08-08 18:29:00.480000,-7.963855421686747,-1.3614457831325302,-5.63855421686747,-1.2752912323727774,-7.806866952789699,-5.331698344573881,3.0,0.6173826173826173,1619.7411003236248,-0.3209603169978433,0.07412155468795606,-0.1577996620243572,1361.1721611721612,-1.0,108.79150066401063,0.6179370384757867,
2023-08-08 18:29:00.487000,-7.963855421686747,-1.3975903614457832,-5.63855421686747,-1.39546290619252,-7.799509503372164,-5.319435928877989,3.0,0.6178266178266179,1618.5770750988142,-0.45836489715051504,0.013052852397879719,-0.6310821047724487,1356.7765567765566,-1.0,108.79150066401063,0.6179331702826512,
2023-08-08 18:29:00.495000,-7.951807228915663,-1.3975903614457832,-5.63855421686747,-1.4101778050275904,-7.77498467198038,-5.368485591661557,3.0,0.6173826173826173,1619.7411003236248,-0.5499679505856295,-0.12435172775479203,-0.4631431734747389,1355.3113553113553,-1.0,108.79150066401063,0.6179293202826842,
2023-08-08 18:29:00.503000,-7.91566265060241,-1.3975903614457832,-5.650602409638554,-1.331698344573881,-7.784794604537093,-5.309625996321275,3.0,0.6173826173826173,1619.7411003236248,-0.35149466814288144,-0.1548860788998302,-0.5089447001922961,1354.5787545787546,-1.0,108.79150066401063,0.617925489814788,
2023-08-08 18:29:00.510000,-7.951807228915663,-1.3734939759036144,-5.63855421686747,-1.3120784794604536,-7.797057020232986,-5.353770692826487,3.0,0.6178266178266179,1618.5770750988142,-0.5194335994405913,0.1199230814055133,-0.4631431734747389,1353.113553113553,-1.0,108.79150066401063,0.6179216800255308,
2023-08-08 18:29:00.518000,-7.9397590361445785,-1.3975903614457832,-5.650602409638554,-1.3292458614347025,-7.752912323727774,-5.297363580625383,3.0,0.6173826173826173,1619.7411003236248,-0.5347007750131104,0.34893071499329953,-0.4020744711846625,1348.7179487179487,-1.0,108.79150066401063,0.6179178921534088,
2023-08-08 18:29:00.526000,-7.9397590361445785,-1.385542168674699,-5.626506024096386,-1.3390557939914163,-7.770079705702023,-5.324340895156346,3.0,0.6178266178266179,1618.5770750988142,-0.44309772157799593,0.27259483713070415,-0.38680729561214344,1345.054945054945,-1.0,108.79150066401063,0.6179141273976343,
2023-08-08 18:29:00.533000,-7.927710843373494,-1.3734939759036144,-5.626506024096386,-1.3120784794604536,-7.745554874310239,-5.319435928877989,3.0,0.6178266178266179,1618.5770750988142,-0.5041664238680723,-0.0632830254647157,-0.37154012003962433,1338.4615384615383,-1.0,108.79150066401063,0.617910386904702,
2023-08-08 18:29:00.541000,-7.951807228915663,-1.385542168674699,-5.650602409638554,-1.3169834457388105,-7.784794604537093,-5.309625996321275,3.0,0.6173826173826173,1619.7411003236248,-0.04067362041839003,-0.24345900588543773,-0.12003962473049327,1332.6007326007325,-1.0,108.79150066401063,0.6179066719254291,
2023-08-08 18:29:00.549000,-7.9397590361445785,-1.385542168674699,-5.650602409638554,-1.3733905579399142,-7.804414469650521,-5.361128142244022,3.0,0.6169386169386168,1620.9068010075569,0.14311520307674316,-0.10535516578288097,0.08158032748674304,1328.937728937729,-1.0,108.79150066401063,0.6179029835250475,
2023-08-08 18:29:00.556000,-7.951807228915663,-1.3975903614457832,-5.674698795180723,-1.3488657265481299,-7.784794604537093,-5.385652973635806,3.0,0.6173826173826173,1619.7411003236248,0.3851756890624091,-0.09183614008507618,-0.02843657129537877,1331.135531135531,-1.0,108.79150066401063,0.6178993225491515,
2023-08-08 18:29:00.564000,-7.963855421686747,-1.3734939759036144,-5.662650602409639,-1.3194359288779889,-7.772532188841201,-5.3439607602697725,3.0,0.6173826173826173,1619.7411003236248,0.2433424625604569,-0.0597867257152854,0.12225394790513394,1336.263736263736,-1.0,108.79150066401063,0.6178956898664074,
2023-08-08 18:29:00.572000,-7.951807228915663,-1.3734939759036144,-5.674698795180723,-1.4224402207234825,-7.750459840588595,-5.434702636419375,3.0,0.6178266178266179,1618.5770750988142,0.4993881475438493,-0.27457607365538184,0.4375036419789058,1341.3919413919414,-1.0,108.79150066401063,0.6178920862377334,
2023-08-08 18:29:00.579000,-7.951807228915663,-1.385542168674699,-5.63855421686747,-1.3267933782955241,-7.770079705702023,-5.334150827713059,3.0,0.6173826173826173,1619.7411003236248,0.678049064739817,-0.252083211934037,0.16432608822329747,1346.5201465201465,-1.0,108.79150066401063,0.6178885123452098,
2023-08-08 18:29:00.587000,-7.927710843373494,-1.385542168674699,-5.650602409638554,-1.2949110974862048,-7.784794604537093,-5.361128142244022,3.0,0.6178266178266179,1618.5770750988142,0.5192005127906296,-0.5657012994580737,0.05897092244041694,1350.9157509157508,-1.0,108.79150066401063,0.6178849688105397,
2023-08-08 18:29:00.595000,-7.927710843373494,-1.3734939759036144,-5.662650602409639,-1.4126302881667687,-7.713672593500919,-5.370938074800735,3.0,0.6178266178266179,1618.5770750988142,0.16397645824835452,-0.46081230697511777,0.06025289901520874,1354.5787545787546,-1.0,108.79150066401063,0.6178814561821174,
2023-08-08 18:29:00.602000,-7.927710843373494,-1.3734939759036144,-5.662650602409639,-1.356223175965665,-7.794604537093807,-5.370938074800735,3.0,0.6173826173826173,1619.7411003236248,-0.006992599498864074,-0.431210302429928,0.07447118466289813,1358.2417582417581,-1.0,108.79150066401063,0.6178779750926964,
2023-08-08 18:29:00.610000,-7.903614457831326,-1.385542168674699,-5.63855421686747,-1.3586756591048437,-7.76026977314531,-5.356223175965665,3.0,0.6178266178266179,1618.5770750988142,0.1596643552240549,-0.33820872909504,0.043936833517859965,1363.3699633699632,-1.0,108.79150066401063,0.6178745259702302,
2023-08-08 18:29:00.618000,-7.9397590361445785,-1.3975903614457832,-5.662650602409639,-1.3415082771305946,-7.777437155119558,-5.42489270386266,3.0,0.6173826173826173,1619.7411003236248,-0.11910727813064571,0.10430627585804997,0.015616805547462026,1373.6263736263736,-1.0,108.79150066401063,0.6178711091645449,
2023-08-08 18:29:00.625000,-7.91566265060241,-1.3975903614457832,-5.674698795180723,-1.3292458614347025,-7.770079705702023,-5.3954629061925194,3.0,0.6178266178266179,1618.5770750988142,-0.2714294038808923,-0.03228250101975592,-0.2852980595536392,1386.8131868131868,-1.0,108.79150066401063,0.6178677249566098,
2023-08-08 18:29:00.633000,-7.9397590361445785,-1.3734939759036144,-5.650602409638554,-1.3390557939914163,-7.75781729000613,-5.385652973635806,3.0,0.6178266178266179,1618.5770750988142,-0.49927160421886846,0.21304119806538216,-0.2154886078899836,1405.128205128205,-1.0,108.79150066401063,0.6178643735470336,
2023-08-08 18:29:00.641000,-7.927710843373494,-1.349397590361446,-5.650602409638554,-1.356223175965665,-7.784794604537093,-5.383200490496628,3.0,0.6173826173826173,1619.7411003236248,-0.2961365887768782,0.2771400268049637,-0.3906532253365184,1425.6410256410256,-1.0,108.79150066401063,0.6178610552152279,
2023-08-08 18:29:00.648000,-7.951807228915663,-1.3734939759036144,-5.650602409638554,-1.3341508277130594,-7.806866952789699,-5.383200490496628,3.0,0.6173826173826173,1619.7411003236248,-0.6136006060252894,-0.20884563836606335,-0.2591923547578815,1447.6190476190475,-1.0,108.79150066401063,0.6178577700318106,
2023-08-08 18:29:00.656000,-7.951807228915663,-1.3734939759036144,-5.662650602409639,-1.3096259963212753,-7.76026977314531,-5.346413243408951,3.0,0.6178266178266179,1618.5770750988142,-0.24007924946098655,0.10139269273352212,-0.2294738068877109,1470.3296703296703,-1.0,108.79150066401063,0.6178545178375954,
2023-08-08 18:29:00.664000,-7.9397590361445785,-1.349397590361446,-5.63855421686747,-1.3513182096873084,-7.765174739423666,-5.383200490496628,3.0,0.6178266178266179,1618.5770750988142,-0.4208379465066145,-0.18588660334479346,-0.54670473748616,1493.040293040293,-1.0,108.79150066401063,0.6178512985312316,
2023-08-08 18:29:00.671000,-7.963855421686747,-1.3614457831325302,-5.626506024096386,-1.3635806253832004,-7.792152053954629,-5.3439607602697725,3.0,0.6173826173826173,1619.7411003236248,-0.09230231338500125,-0.33273119282093205,-0.4632597167997201,1512.087912087912,-1.0,108.79150066401063,0.6178481120909097,
2023-08-08 18:29:00.679000,-7.927710843373494,-1.3614457831325302,-5.626506024096386,-1.3218884120171672,-7.777437155119558,-5.3366033108522375,3.0,0.6173826173826173,1619.7411003236248,-0.13705495017772923,-0.15605151214964202,-0.24194394266068425,1527.4725274725274,-1.0,108.79150066401063,0.6178449582880804,
2023-08-08 18:29:00.687000,-7.927710843373494,-1.3614457831325302,-5.63855421686747,-1.3243408951563458,-7.789699570815451,-5.3366033108522375,3.0,0.6173826173826173,1619.7411003236248,-0.05768894586562513,0.2344851698618977,-0.20057106229240748,1539.194139194139,-1.0,108.79150066401063,0.6178418366677672,
2023-08-08 18:29:00.694000,-7.91566265060241,-1.3734939759036144,-5.662650602409639,-1.3243408951563458,-7.789699570815451,-5.3292458614347025,3.0,0.6178266178266179,1618.5770750988142,-0.2498688887593959,0.7146436687838708,-0.21933453761435817,1549.4505494505493,-1.0,108.79150066401063,0.6178387466882448,
2023-08-08 18:29:00.702000,-7.927710843373494,-1.3614457831325302,-5.626506024096386,-1.3635806253832004,-7.797057020232986,-5.3292458614347025,3.0,0.6169386169386168,1620.9068010075569,0.0896218169104368,0.14136705320202714,0.03542917079424241,1552.3809523809523,-1.0,108.79150066401063,0.617835688010244,
2023-08-08 18:29:00.710000,-7.927710843373494,-1.3614457831325302,-5.590361445783133,-1.3709380748007356,-7.77498467198038,-5.339055793991416,3.0,0.6173826173826173,1619.7411003236248,-0.13717149350271007,0.42701474273060924,-0.2611735912825592,1552.3809523809523,-1.0,108.79150066401063,0.6178326602012567,
2023-08-08 18:29:00.717000,-7.963855421686747,-1.3734939759036144,-5.626506024096386,-1.3292458614347025,-7.767627222562845,-5.351318209687308,3.0,0.6173826173826173,1619.7411003236248,0.0666627818891669,0.422236466406388,-0.25219975525901783,1548.7179487179485,-1.0,108.79150066401063,0.6178296625576445,
2023-08-08 18:29:00.725000,-7.9397590361445785,-1.385542168674699,-5.650602409638554,-1.390557939914163,-7.784794604537093,-5.3439607602697725,3.0,0.6178266178266179,1618.5770750988142,0.08659169046092811,0.6779325214148362,-0.15302138570013377,1541.3919413919414,-1.0,108.79150066401063,0.6178266942667162,
2023-08-08 18:29:00.733000,-7.903614457831326,-1.3614457831325302,-5.63855421686747,-1.3586756591048437,-7.809319435928877,-5.3660331085223785,3.0,0.6178266178266179,1618.5770750988142,-0.09358428995979219,1.3241652584348222,-0.00850766272361755,1531.135531135531,-1.0,108.79150066401063,0.6178237544406258,
2023-08-08 18:29:00.740000,-7.927710843373494,-1.3734939759036144,-5.650602409638554,-1.3096259963212753,-7.738197424892704,-5.3439607602697725,3.0,0.6173826173826173,1619.7411003236248,0.09206922673503957,0.792844239846163,-0.022609405046325665,1514.2857142857142,-1.0,108.79150066401063,0.6178208422892307,
2023-08-08 18:29:00.748000,-7.951807228915663,-1.385542168674699,-5.63855421686747,-1.3390557939914163,-7.782342121397915,-5.339055793991416,3.0,0.6178266178266179,1618.5770750988142,0.09451663655964061,0.8001864693199696,-0.02249286172134483,1494.5054945054944,-1.0,108.79150066401063,0.6178179568356511,
2023-08-08 18:29:00.756000,-7.9397590361445785,-1.3975903614457832,-5.662650602409639,-1.2998160637645615,-7.725935009196811,-5.368485591661557,3.0,0.6178266178266179,1618.5770750988142,-0.04160596701823846,0.8213973544665218,-0.2646698910319912,1475.4578754578754,-1.0,108.79150066401063,0.6178150970476883,
2023-08-08 18:29:00.763000,-7.927710843373494,-1.3614457831325302,-5.662650602409639,-1.3881054567749846,-7.784794604537093,-5.397915389331698,3.0,0.6173826173826173,1619.7411003236248,0.1426490297768198,1.1449216246139504,0.4069692908338676,1461.5384615384614,-1.0,108.79150066401063,0.6178122620011636,
2023-08-08 18:29:00.771000,-7.9397590361445785,-1.3734939759036144,-5.686746987951808,-1.3439607602697732,-7.745554874310239,-5.3954629061925194,3.0,0.6178266178266179,1618.5770750988142,0.03682769069401549,1.0706835266010135,0.5689645125575428,1447.6190476190475,-1.0,108.79150066401063,0.6178094505964753,
2023-08-08 18:29:00.779000,-7.951807228915663,-1.3614457831325302,-5.686746987951808,-1.2777437155119558,-7.735744941753525,-5.400367872470876,3.0,0.6173826173826173,1619.7411003236248,0.2793543499796048,1.1951517976807882,0.21234193811549454,1436.6300366300366,-1.0,108.79150066401063,0.6178066616909884,
2023-08-08 18:29:00.786000,-7.91566265060241,-1.349397590361446,-5.710843373493976,-1.3169834457388105,-7.735744941753525,-5.3586756591048434,3.0,0.6178266178266179,1618.5770750988142,-0.16525843482314548,0.9196433774255579,0.4394848785035839,1427.106227106227,-1.0,108.79150066401063,0.617803894114022,
2023-08-08 18:29:00.794000,-7.9397590361445785,-1.3614457831325302,-5.698795180722892,-1.3096259963212753,-7.721030042918454,-5.3366033108522375,3.0,0.6173826173826173,1619.7411003236248,-0.1343744537031648,0.7325913408309543,0.35673911776702993,1420.5128205128203,-1.0,108.79150066401063,0.6178011466610112,
2023-08-08 18:29:00.802000,-7.927710843373494,-1.349397590361446,-5.710843373493976,-1.2949110974862048,-7.657265481299816,-5.422440220723482,3.0,0.6173826173826173,1619.7411003236248,-0.04533535341763217,0.6506613833692684,0.4137288036827687,1415.3846153846152,-1.0,108.79150066401063,0.6177984182477319,
2023-08-08 18:29:00.809000,-7.91566265060241,-1.349397590361446,-5.710843373493976,-1.2777437155119558,-7.711220110361741,-5.400367872470876,3.0,0.6173826173826173,1619.7411003236248,0.16525843482314548,0.2036011887419153,0.4230522696812543,1411.7216117216117,-1.0,108.79150066401063,0.6177957075964934,
2023-08-08 18:29:00.817000,-7.927710843373494,-1.3614457831325302,-5.72289156626506,-1.2924586143470262,-7.755364806866952,-5.393010423053341,3.0,0.6173826173826173,1619.7411003236248,0.34182157216945463,0.2172367577646992,0.37235592331449235,1409.5238095238094,-1.0,108.79150066401063,0.6177930132518332,
2023-08-08 18:29:00.824000,-7.879518072289157,-1.3614457831325302,-5.710843373493976,-1.260576333537707,-7.708767627222563,-5.42489270386266,3.0,0.6173826173826173,1619.7411003236248,-0.18623623331973596,0.28995979255288173,0.15302138570013377,1408.7912087912086,-1.0,108.79150066401063,0.6177903338729982,
2023-08-08 18:29:00.832000,-7.879518072289157,-1.3734939759036144,-5.710843373493976,-1.331698344573881,-7.735744941753525,-5.451870018393623,3.0,0.6173826173826173,1619.7411003236248,0.0079249460987125,0.05768894586562513,0.14835965270089163,1408.7912087912086,-1.0,108.79150066401063,0.617787668079319,
2023-08-08 18:29:00.840000,-7.903614457831326,-1.349397590361446,-5.710843373493976,-1.3635806253832004,-7.716125076640098,-5.446965052115266,3.0,0.6173826173826173,1619.7411003236248,0.04685041664238651,0.08530971388613719,0.02307557834624988,1408.058608058608,-1.0,108.79150066401063,0.6177850143271443,
2023-08-08 18:29:00.847000,-7.891566265060241,-1.385542168674699,-5.72289156626506,-1.3169834457388105,-7.74310239117106,-5.44206008583691,3.0,0.6178266178266179,1618.5770750988142,-0.2346017131868768,-0.2530155585338854,-0.2551133383835444,1409.5238095238094,-1.0,108.79150066401063,0.6177823710635152,
2023-08-08 18:29:00.855000,-7.891566265060241,-1.3614457831325302,-5.710843373493976,-1.30226854690374,-7.750459840588595,-5.446965052115266,3.0,0.6169386169386168,1620.9068010075569,-0.22178194743896051,-0.35662257444204865,-0.36478060719072325,1405.8608058608058,-1.0,108.79150066401063,0.6177797368798471,
2023-08-08 18:29:00.863000,-7.9397590361445785,-1.349397590361446,-5.710843373493976,-1.3267933782955241,-7.706315144083384,-5.393010423053341,3.0,0.6169386169386168,1620.9068010075569,-0.42270263970631133,-0.3826117359128255,-0.42736437270555305,1403.6630036630036,-1.0,108.79150066401063,0.6177771105171059,
2023-08-08 18:29:00.870000,-7.903614457831326,-1.349397590361446,-5.686746987951808,-1.314530962599632,-7.674432863274064,-5.44206008583691,3.0,0.6178266178266179,1618.5770750988142,-0.33249810617096864,-0.12015616805547498,-0.3666453003904201,1400.7326007326005,-1.0,108.79150066401063,0.6177744905098501,
2023-08-08 18:29:00.878000,-7.91566265060241,-1.3614457831325302,-5.698795180722892,-1.2924586143470262,-7.6989576946658485,-5.405272838749234,3.0,0.6173826173826173,1619.7411003236248,-0.30254647165083637,-0.40627003088398045,-0.21210885146553243,1398.5347985347985,-1.0,108.79150066401063,0.6177718754895424,
2023-08-08 18:29:00.886000,-7.903614457831326,-1.3734939759036144,-5.686746987951808,-1.30226854690374,-7.711220110361741,-5.370938074800735,3.0,0.6173826173826173,1619.7411003236248,-0.6059087465765404,-0.7062525493852332,-0.89575199580444,1399.2673992673992,-1.0,108.79150066401063,0.6177692640930432,
2023-08-08 18:29:00.893000,-7.903614457831326,-1.3614457831325302,-5.662650602409639,-1.2875536480686696,-7.738197424892704,-5.444512568976088,3.0,0.6178266178266179,1618.5770750988142,-0.5710622924072025,-0.8161529048423755,-0.323407726822446,1399.2673992673992,582.1533203125,103.06563220801006,0.6177666546900372,
2023-08-08 18:29:00.901000,-7.91566265060241,-1.3614457831325302,-5.686746987951808,-1.2998160637645615,-7.701410177805027,-5.385652973635806,3.0,0.6173826173826173,1619.7411003236248,-0.44379698152788266,-0.5123244566167464,-0.3798146961132798,1399.2673992673992,-1.0,103.06563220801006,0.6177640458237211,
2023-08-08 18:29:00.909000,-7.951807228915663,-1.3614457831325302,-5.686746987951808,-1.3341508277130594,-7.733292458614347,-5.34886572654813,3.0,0.6173826173826173,1619.7411003236248,-0.5295728687139449,-0.746926169803625,-0.1910145096439598,1402.9304029304028,-1.0,103.06563220801006,0.6177614360866582,
2023-08-08 18:29:00.916000,-7.951807228915663,-1.3614457831325302,-5.686746987951808,-1.331698344573881,-7.711220110361741,-5.339055793991416,3.0,0.6173826173826173,1619.7411003236248,-0.10803566225744368,-0.7173241652584352,-0.35370899131752254,1407.3260073260071,-1.0,103.06563220801006,0.6177588239650289,
2023-08-08 18:29:00.924000,-7.9397590361445785,-1.3614457831325302,-5.662650602409639,-1.3096259963212753,-7.779889638258736,-5.397915389331698,3.0,0.6173826173826173,1619.7411003236248,-0.028902744595302985,-1.0403822621059389,0.33984033564477606,1408.7912087912086,-1.0,103.06563220801006,0.6177562079806617,
2023-08-08 18:29:00.932000,-7.927710843373494,-1.3614457831325302,-5.662650602409639,-1.3807480073574494,-7.738197424892704,-5.415082771305947,3.0,0.6173826173826173,1619.7411003236248,0.11071615873200813,-1.208204650078666,-0.22376318396363862,1409.5238095238094,-1.0,103.06563220801006,0.6177535866942144,
2023-08-08 18:29:00.939000,-7.891566265060241,-1.349397590361446,-5.650602409638554,-1.3635806253832004,-7.708767627222563,-5.339055793991416,3.0,0.6173826173826173,1619.7411003236248,0.08461045393625043,-0.90018064215372,-0.2777227434298701,1409.5238095238094,-1.0,103.06563220801006,0.6177509587082459,
2023-08-08 18:29:00.947000,-7.903614457831326,-1.3614457831325302,-5.63855421686747,-1.2924586143470262,-7.708767627222563,-5.3954629061925194,3.0,0.6173826173826173,1619.7411003236248,-0.21642095448983162,-0.6721053551657822,0.09836256628401603,1408.058608058608,-1.0,103.06563220801006,0.6177483226701731,
2023-08-08 18:29:00.955000,-7.927710843373494,-1.3614457831325302,-5.626506024096386,-1.3366033108522377,-7.711220110361741,-5.388105456774984,3.0,0.6173826173826173,1619.7411003236248,0.15605151214964202,-0.5397121379872968,-0.19719130586795627,1405.128205128205,-1.0,103.06563220801006,0.6177456772751094,
2023-08-08 18:29:00.962000,-7.903614457831326,-1.3734939759036144,-5.674698795180723,-1.2949110974862048,-7.708767627222563,-5.334150827713059,3.0,0.6173826173826173,1619.7411003236248,0.17469844414661231,-0.32014451372297564,-0.07761785443738722,1404.3956043956043,-1.0,103.06563220801006,0.6177430214073248,
2023-08-08 18:29:00.970000,-7.91566265060241,-1.3614457831325302,-5.63855421686747,-1.3930104230533413,-7.711220110361741,-5.319435928877989,3.0,0.6178266178266179,1618.5770750988142,0.02703805139560613,-0.3147835207738485,-0.018413845347007744,1406.5934065934066,-1.0,103.06563220801006,0.6177403539837001,
2023-08-08 18:29:00.978000,-7.91566265060241,-1.3734939759036144,-5.650602409638554,-1.3513182096873084,-7.765174739423666,-5.375843041079093,3.0,0.6173826173826173,1619.7411003236248,0.2767903968300212,-0.41582658353242813,-0.06864401841384546,1408.7912087912086,-1.0,103.06563220801006,0.617737674116602,
2023-08-08 18:29:00.985000,-7.9397590361445785,-1.3734939759036144,-5.662650602409639,-1.3684855916615573,-7.748007357449417,-5.412630288166769,3.0,0.6173826173826173,1619.7411003236248,-0.039624730493560766,-0.1496416292756839,0.2914748557776352,1409.5238095238094,-1.0,103.06563220801006,0.6177349809787395,
2023-08-08 18:29:00.993000,-7.975903614457832,-1.3734939759036144,-5.674698795180723,-1.2728387492335989,-7.782342121397915,-5.351318209687308,3.0,0.6173826173826173,1619.7411003236248,0.23891381621117644,0.15616805547462287,0.06957636501369388,1409.5238095238094,-1.0,103.06563220801006,0.617732273518578,
2023-08-08 18:29:01.001000,-7.951807228915663,-1.3614457831325302,-5.662650602409639,-1.3218884120171672,-7.762722256284488,-5.378295524218271,3.0,0.6169386169386168,1620.9068010075569,0.19357846279354426,-0.05943709574034115,0.1808752403706075,1408.7912087912086,-1.0,103.06563220801006,0.617729550888939,
2023-08-08 18:29:01.008000,-7.963855421686747,-1.349397590361446,-5.662650602409639,-1.3243408951563458,-7.706315144083384,-5.368485591661557,3.0,0.6169386169386168,1620.9068010075569,0.42480041955596987,-0.07482081463784107,0.3362274925703628,1405.8608058608058,-1.0,103.06563220801006,0.617726812140232,
2023-08-08 18:29:01.016000,-7.963855421686747,-1.3373493975903614,-5.674698795180723,-1.3169834457388105,-7.787247087676271,-5.368485591661557,3.0,0.6173826173826173,1619.7411003236248,0.272711380455685,-0.1361226035778808,0.13822038342753934,1402.9304029304028,-1.0,103.06563220801006,0.6177240562112106,
2023-08-08 18:29:01.024000,-7.951807228915663,-1.349397590361446,-5.686746987951808,-1.314530962599632,-7.745554874310239,-5.42489270386266,3.0,0.6173826173826173,1619.7411003236248,0.27504224695530516,-0.1392692733523686,0.13891964337742566,1400.7326007326005,-1.0,103.06563220801006,0.6177212823453839,
2023-08-08 18:29:01.031000,-7.951807228915663,-1.3373493975903614,-5.698795180722892,-1.290006131207848,-7.694052728387492,-5.3586756591048434,3.0,0.6173826173826173,1619.7411003236248,0.44542858807761787,-0.4215372064564995,0.3030126449507602,1394.8717948717947,-1.0,103.06563220801006,0.6177184899640157,
2023-08-08 18:29:01.039000,-7.91566265060241,-1.349397590361446,-5.674698795180723,-1.2654812998160636,-7.755364806866952,-5.412630288166769,3.0,0.6173826173826173,1619.7411003236248,0.49006468154536503,-0.5639531495833576,0.6166307324747973,1389.0109890109889,-1.0,103.06563220801006,0.6177156785289507,
2023-08-08 18:29:01.047000,-7.903614457831326,-1.3614457831325302,-5.686746987951808,-1.3341508277130594,-7.721030042918454,-5.353770692826487,3.0,0.6173826173826173,1619.7411003236248,0.3020802983509113,-0.627352718373056,0.28634694947846845,1383.150183150183,-1.0,103.06563220801006,0.6177128474051088,
2023-08-08 18:29:01.054000,-7.91566265060241,-1.349397590361446,-5.686746987951808,-1.3243408951563458,-7.740649908031882,-5.3954629061925194,3.0,0.6173826173826173,1619.7411003236248,0.05279412621642132,-0.6421537206456499,0.3107045043995106,1380.2197802197802,-1.0,103.06563220801006,0.6177099958817933,
2023-08-08 18:29:01.062000,-7.927710843373494,-1.3734939759036144,-5.63855421686747,-1.3513182096873084,-7.792152053954629,-5.383200490496628,3.0,0.6173826173826173,1619.7411003236248,0.15733348872443298,-0.6570712662432265,0.2877454693782415,1375.091575091575,-1.0,103.06563220801006,0.6177071234600496,
2023-08-08 18:29:01.070000,-7.927710843373494,-1.3614457831325302,-5.650602409638554,-1.3415082771305946,-7.733292458614347,-5.341508277130594,3.0,0.6173826173826173,1619.7411003236248,0.07388846803799265,-1.0391002855311462,0.09731367635918634,1369.9633699633698,-1.0,103.06563220801006,0.6177042296927597,
2023-08-08 18:29:01.077000,-7.91566265060241,-1.3614457831325302,-5.650602409638554,-1.3366033108522377,-7.748007357449417,-5.361128142244022,3.0,0.6173826173826173,1619.7411003236248,0.17504807412155482,-0.7209370083328481,0.24497406911019165,1366.3003663003662,-1.0,103.06563220801006,0.6177013141949147,
2023-08-08 18:29:01.085000,-7.927710843373494,-1.3614457831325302,-5.650602409638554,-1.3930104230533413,-7.75781729000613,-5.412630288166769,3.0,0.6173826173826173,1619.7411003236248,-0.16572460812307055,-0.5595245032340772,-0.022026688421420616,1362.6373626373625,-1.0,103.06563220801006,0.6176983766326579,
2023-08-08 18:29:01.093000,-7.927710843373494,-1.3614457831325302,-5.63855421686747,-1.4150827713059473,-7.676885346413243,-5.388105456774984,3.0,0.6173826173826173,1619.7411003236248,-0.5052153137929033,-0.5634869762834326,-0.026105704795758137,1359.7069597069597,-1.0,103.06563220801006,0.6176954165944947,
2023-08-08 18:29:01.100000,-7.9397590361445785,-1.3614457831325302,-5.650602409638554,-1.3513182096873084,-7.740649908031882,-5.370938074800735,3.0,0.6173826173826173,1619.7411003236248,-0.20173649554221845,-0.5505506672105355,-0.22830837363789994,1356.0439560439559,-1.0,103.06563220801006,0.6176924337391788,
2023-08-08 18:29:01.108000,-7.927710843373494,-1.385542168674699,-5.63855421686747,-1.3415082771305946,-7.770079705702023,-5.412630288166769,3.0,0.6173826173826173,1619.7411003236248,-0.2819183031291884,-0.4439135248528635,-0.27341064040557084,1350.18315018315,-1.0,103.06563220801006,0.6176894279330342,
2023-08-08 18:29:01.116000,-7.951807228915663,-1.3734939759036144,-5.686746987951808,-1.3537706928264868,-7.819129368485592,-5.3586756591048434,3.0,0.6173826173826173,1619.7411003236248,-0.08414428063632708,-0.42887943593030786,-0.6224578987238504,1342.1245421245421,-1.0,103.06563220801006,0.6176863992281441,
2023-08-08 18:29:01.123000,-7.963855421686747,-1.3975903614457832,-5.674698795180723,-1.4101778050275904,-7.770079705702023,-5.34886572654813,3.0,0.6173826173826173,1619.7411003236248,-0.49729036769419077,-0.49705728104422736,-0.6077734397762368,1337.7289377289376,-1.0,103.06563220801006,0.6176833475741897,
2023-08-08 18:29:01.131000,-7.951807228915663,-1.385542168674699,-5.686746987951808,-1.3341508277130594,-7.851011649294911,-5.339055793991416,3.0,0.6173826173826173,1619.7411003236248,-0.7490239496532836,-0.011887419148067882,-0.41629275683235234,1334.7985347985348,-1.0,103.06563220801006,0.6176802728385463,
2023-08-08 18:29:01.139000,-7.9397590361445785,-1.3734939759036144,-5.650602409638554,-1.3415082771305946,-7.745554874310239,-5.3733905579399135,3.0,0.6173826173826173,1619.7411003236248,-0.46279354349979546,-0.3978789114853446,-0.2658353242818022,1332.6007326007325,-1.0,103.06563220801006,0.6176771750925755,
2023-08-08 18:29:01.146000,-7.951807228915663,-1.3614457831325302,-5.63855421686747,-1.2875536480686696,-7.765174739423666,-5.3635806253832,3.0,0.6173826173826173,1619.7411003236248,0.036128430744128734,-0.4940271545947204,-0.16630732474797516,1328.2051282051282,-1.0,103.06563220801006,0.6176740545895572,
2023-08-08 18:29:01.154000,-7.9397590361445785,-1.3373493975903614,-5.662650602409639,-1.2924586143470262,-7.76026977314531,-5.378295524218271,3.0,0.6173826173826173,1619.7411003236248,-0.17260066429695206,0.053959559466231426,0.2340189965619722,1328.937728937729,-1.0,103.06563220801006,0.6176709114763265,
2023-08-08 18:29:01.162000,-7.951807228915663,-1.3373493975903614,-5.626506024096386,-1.3096259963212753,-7.772532188841201,-5.326793378295524,3.0,0.6169386169386168,1620.9068010075569,-0.2695647106811954,-0.2546471650836206,-0.14952508595070219,1331.135531135531,-1.0,103.06563220801006,0.6176677459519649,
2023-08-08 18:29:01.169000,-7.987951807228916,-1.3373493975903614,-5.590361445783133,-1.2654812998160636,-7.74310239117106,-5.3635806253832,3.0,0.6173826173826173,1619.7411003236248,0.14055124992716128,-0.48738418507080056,-0.19322883281860045,1336.263736263736,-1.0,103.06563220801006,0.6176645582455833,
2023-08-08 18:29:01.177000,-7.975903614457832,-1.349397590361446,-5.63855421686747,-1.3096259963212753,-7.811771919068056,-5.346413243408951,3.0,0.6173826173826173,1619.7411003236248,-0.1276149408542624,-0.6258376551483016,-0.0992949128838649,1340.6593406593406,-1.0,103.06563220801006,0.6176613485940109,
2023-08-08 18:29:01.185000,-7.987951807228916,-1.3614457831325302,-5.626506024096386,-1.3733905579399142,-7.83629675045984,-5.324340895156346,3.0,0.6173826173826173,1619.7411003236248,-0.5310879319386975,-0.6370258143464828,-0.004778276324223841,1342.8571428571427,-1.0,103.06563220801006,0.6176581174002214,
2023-08-08 18:29:01.192000,-7.951807228915663,-1.3614457831325302,-5.626506024096386,-1.3366033108522377,-7.779889638258736,-5.3366033108522375,3.0,0.6173826173826173,1619.7411003236248,-0.029485461220208904,-0.44601130470252376,0.1659576947730318,1345.054945054945,-1.0,103.06563220801006,0.6176548649550715,
2023-08-08 18:29:01.200000,-7.9397590361445785,-1.349397590361446,-5.650602409638554,-1.290006131207848,-7.748007357449417,-5.385652973635806,3.0,0.6173826173826173,1619.7411003236248,0.010022725948371029,-0.5111590233669363,-0.03239904434473502,1350.18315018315,-1.0,103.06563220801006,0.6176515915956122,
2023-08-08 18:29:01.207000,-7.927710843373494,-1.3373493975903614,-5.63855421686747,-1.3292458614347025,-7.762722256284488,-5.3218884120171674,3.0,0.6173826173826173,1619.7411003236248,-0.011770875823087047,-0.4687372530738303,0.04568498339257598,1358.2417582417581,-1.0,103.06563220801006,0.6176482978318543,
2023-08-08 18:29:01.215000,-7.9397590361445785,-1.3734939759036144,-5.626506024096386,-1.356223175965665,-7.784794604537093,-5.3439607602697725,3.0,0.6173826173826173,1619.7411003236248,-0.018880018646931958,-0.3193287104481098,0.21409008799021012,1367.032967032967,-1.0,103.06563220801006,0.6176449840580495,
2023-08-08 18:29:01.223000,-7.9397590361445785,-1.3614457831325302,-5.614457831325302,-1.314530962599632,-7.745554874310239,-5.324340895156346,3.0,0.6173826173826173,1619.7411003236248,0.14404754967659159,0.09929491288386533,-0.09171959676009533,1376.5567765567764,-1.0,103.06563220801006,0.6176416507111316,
2023-08-08 18:29:01.230000,-7.927710843373494,-1.3734939759036144,-5.614457831325302,-1.3439607602697732,-7.806866952789699,-5.34886572654813,3.0,0.6173826173826173,1619.7411003236248,-0.03169978439484827,-0.10279121263329563,0.22807528698793694,1383.150183150183,-1.0,103.06563220801006,0.6176382983976453,
2023-08-08 18:29:01.238000,-7.951807228915663,-1.3734939759036144,-5.626506024096386,-1.3071735131820967,-7.730839975475168,-5.346413243408951,3.0,0.6173826173826173,1619.7411003236248,0.2681661907814237,0.6427364372705558,0.1632771982984678,1391.9413919413919,-1.0,103.06563220801006,0.6176349277439696,
2023-08-08 18:29:01.246000,-7.91566265060241,-1.385542168674699,-5.63855421686747,-1.3733905579399142,-7.725935009196811,-5.294911097486205,3.0,0.6173826173826173,1619.7411003236248,-0.09381737660975387,0.5877279878794952,0.06771167181399747,1404.3956043956043,-1.0,103.06563220801006,0.6176315393958601,
2023-08-08 18:29:01.253000,-7.927710843373494,-1.3975903614457832,-5.63855421686747,-1.361128142244022,-7.755364806866952,-5.370938074800735,3.0,0.6173826173826173,1619.7411003236248,-0.010022725948371029,0.5942544140784342,0.16957053784744466,1418.3150183150183,-1.0,103.06563220801006,0.6176281340180109,
2023-08-08 18:29:01.261000,-7.951807228915663,-1.385542168674699,-5.626506024096386,-1.3586756591048437,-7.721030042918454,-5.370938074800735,3.0,0.6173826173826173,1619.7411003236248,-0.1117650486568374,0.9641629275683224,0.48062467222189814,1434.4322344322343,-1.0,103.06563220801006,0.6176247122936508,
2023-08-08 18:29:01.269000,-7.9397590361445785,-1.385542168674699,-5.614457831325302,-1.3881054567749846,-7.718577559779276,-5.368485591661557,3.0,0.6173826173826173,1619.7411003236248,-0.0170153254472351,0.5491521473107619,0.25278247188392333,1454.9450549450548,-1.0,103.06563220801006,0.6176212747854277,
2023-08-08 18:29:01.276000,-7.963855421686747,-1.4096385542168675,-5.650602409638554,-1.314530962599632,-7.77498467198038,-5.30226854690374,3.0,0.6173826173826173,1619.7411003236248,0.3055765981003433,0.4826059087465759,0.18949944641920718,1476.923076923077,-1.0,103.06563220801006,0.6176178220942121,
2023-08-08 18:29:01.284000,-7.9397590361445785,-1.3734939759036144,-5.650602409638554,-1.3415082771305946,-7.740649908031882,-5.378295524218271,3.0,0.6173826173826173,1619.7411003236248,0.24229357263562765,0.5856302080298349,0.047433133267291996,1499.6336996336995,-1.0,103.06563220801006,0.617614354986433,
2023-08-08 18:29:01.292000,-7.91566265060241,-1.3614457831325302,-5.674698795180723,-1.331698344573881,-7.787247087676271,-5.3292458614347025,3.0,0.6173826173826173,1619.7411003236248,0.3899539653866321,0.2880950993531849,0.1772623972961955,1517.9487179487178,-1.0,103.06563220801006,0.617610874106003,
2023-08-08 18:29:01.299000,-7.9397590361445785,-1.3614457831325302,-5.662650602409639,-1.3439607602697732,-7.730839975475168,-5.3635806253832,3.0,0.6173826173826173,1619.7411003236248,0.38389371248761645,0.2795874366295665,0.1612959617737888,1534.065934065934,-1.0,103.06563220801006,0.6176073801334688,
2023-08-08 18:29:01.307000,-7.927710843373494,-1.349397590361446,-5.63855421686747,-1.3488657265481299,-7.716125076640098,-5.351318209687308,3.0,0.6173826173826173,1619.7411003236248,0.35953615756657475,0.5129071732416524,0.2981178253015559,1553.8461538461538,-1.0,103.06563220801006,0.6176038737749521,
2023-08-08 18:29:01.315000,-7.927710843373494,-1.3373493975903614,-5.626506024096386,-1.3243408951563458,-7.767627222562845,-5.3439607602697725,3.0,0.6169386169386168,1620.9068010075569,0.106054425732766,0.6251383951984149,0.34322009206922643,1567.7655677655678,-1.0,103.06563220801006,0.6176003557723069,
2023-08-08 18:29:01.322000,-7.963855421686747,-1.3373493975903614,-5.674698795180723,-1.30226854690374,-7.730839975475168,-5.370938074800735,3.0,0.6169386169386168,1620.9068010075569,-0.058388205815511886,0.13798729677757768,0.2347182565118581,1575.8241758241757,-1.0,103.06563220801006,0.617596827020564,
2023-08-08 18:29:01.330000,-7.9397590361445785,-1.3253012048192772,-5.662650602409639,-1.2630288166768853,-7.6989576946658485,-5.390557939914163,3.0,0.6173826173826173,1619.7411003236248,0.009323465998484274,0.4778276324223529,0.07994872093700829,1577.2893772893772,-1.0,103.06563220801006,0.6175932882382486,
2023-08-08 18:29:01.338000,-7.927710843373494,-1.349397590361446,-5.650602409638554,-1.2826486817903127,-7.725935009196811,-5.356223175965665,3.0,0.6173826173826173,1619.7411003236248,0.06048598566517042,0.41943942660684097,0.015849892197424133,1572.8937728937728,-1.0,103.06563220801006,0.6175897401267775,
2023-08-08 18:29:01.345000,-7.9397590361445785,-1.349397590361446,-5.650602409638554,-1.3243408951563458,-7.765174739423666,-5.30226854690374,3.0,0.6173826173826173,1619.7411003236248,0.19019870636909308,0.8025173358195916,0.2433424625604569,1566.3003663003662,-1.0,103.06563220801006,0.6175861835402507,
2023-08-08 18:29:01.353000,-7.927710843373494,-1.3614457831325302,-5.650602409638554,-1.2728387492335989,-7.75781729000613,-5.3292458614347025,3.0,0.6173826173826173,1619.7411003236248,-0.2781889167297947,0.6638307790921272,0.026338791445720242,1556.0439560439559,-1.0,103.06563220801006,0.6175826193468528,
2023-08-08 18:29:01.361000,-7.951807228915663,-1.3614457831325302,-5.674698795180723,-1.3169834457388105,-7.752912323727774,-5.326793378295524,3.0,0.6169386169386168,1620.9068010075569,-0.19136413961890317,0.478993065672163,0.07447118466289857,1538.4615384615383,-1.0,103.06563220801006,0.6175790484290429,
2023-08-08 18:29:01.368000,-7.963855421686747,-1.3975903614457832,-5.662650602409639,-1.390557939914163,-7.828939301042305,-5.324340895156346,3.0,0.6173826173826173,1619.7411003236248,0.33902453236990937,0.6465823669949304,0.18611968999475556,1520.8791208791208,-1.0,103.06563220801006,0.6175754713957333,
2023-08-08 18:29:01.376000,-7.951807228915663,-1.385542168674699,-5.662650602409639,-1.331698344573881,-7.789699570815451,-5.326793378295524,3.0,0.6173826173826173,1619.7411003236248,0.10372355923314405,0.5697803158324098,0.08472699726123213,1503.2967032967033,-1.0,103.06563220801006,0.6175718888690906,
2023-08-08 18:29:01.384000,-7.951807228915663,-1.3734939759036144,-5.662650602409639,-1.3684855916615573,-7.75781729000613,-5.378295524218271,3.0,0.6173826173826173,1619.7411003236248,-0.19019870636909308,0.32667093992191637,0.4884330749956294,1487.179487179487,-1.0,103.06563220801006,0.6175683017713607,
2023-08-08 18:29:01.391000,-7.927710843373494,-1.385542168674699,-5.650602409638554,-1.290006131207848,-7.779889638258736,-5.3292458614347025,3.0,0.6173826173826173,1619.7411003236248,0.35837072431676464,0.6659285589417875,0.5391294213623917,1476.1904761904761,-1.0,103.06563220801006,0.6175647108983898,
2023-08-08 18:29:01.399000,-7.9397590361445785,-1.3975903614457832,-5.63855421686747,-1.356223175965665,-7.752912323727774,-5.324340895156346,3.0,0.6169386169386168,1620.9068010075569,0.061884505564943924,0.42328535633121556,0.26956471068119586,1467.3992673992673,-1.0,103.06563220801006,0.6175611170790896,
2023-08-08 18:29:01.407000,-7.91566265060241,-1.3614457831325302,-5.63855421686747,-1.3194359288779889,-7.824034334763948,-5.287553648068669,3.0,0.6173826173826173,1619.7411003236248,-0.0170153254472351,0.24369209253539942,0.12481790105471711,1462.2710622710622,-1.0,103.06563220801006,0.6175575211541087,
2023-08-08 18:29:01.414000,-7.927710843373494,-1.349397590361446,-5.626506024096386,-1.356223175965665,-7.718577559779276,-5.383200490496628,3.0,0.6173826173826173,1619.7411003236248,0.592622807528699,0.7397004836547992,0.49903851756890594,1460.8058608058607,-1.0,103.06563220801006,0.617553923954525,
2023-08-08 18:29:01.422000,-7.927710843373494,-1.349397590361446,-5.63855421686747,-1.3169834457388105,-7.816676885346413,-5.351318209687308,3.0,0.6169386169386168,1620.9068010075569,0.01992890857176122,0.3136180875240367,0.47514713594778846,1457.142857142857,-1.0,103.06563220801006,0.617550326461357,
2023-08-08 18:29:01.430000,-7.91566265060241,-1.3253012048192772,-5.650602409638554,-1.2752912323727774,-7.735744941753525,-5.326793378295524,3.0,0.6169386169386168,1620.9068010075569,0.5541635102849483,0.5947205873783575,0.3767845696637724,1454.9450549450548,-1.0,103.06563220801006,0.6175467295179038,
2023-08-08 18:29:01.437000,-7.927710843373494,-1.3253012048192772,-5.650602409638554,-1.2679337829552422,-7.728387492335989,-5.341508277130594,3.0,0.6173826173826173,1619.7411003236248,0.5027679039683005,0.17236757764699037,0.12749839752928155,1452.014652014652,-1.0,103.06563220801006,0.6175431338082591,
2023-08-08 18:29:01.445000,-7.903614457831326,-1.3373493975903614,-5.650602409638554,-1.3267933782955241,-7.733292458614347,-5.405272838749234,3.0,0.6173826173826173,1619.7411003236248,0.23914690286113813,-0.12470135772973627,0.04650078666744357,1447.6190476190475,-1.0,103.06563220801006,0.6175395401440406,
2023-08-08 18:29:01.453000,-7.927710843373494,-1.3614457831325302,-5.662650602409639,-1.2654812998160636,-7.799509503372164,-5.370938074800735,3.0,0.6173826173826173,1619.7411003236248,0.191480682943884,0.16257793834858103,-0.002097779849658962,1443.956043956044,-1.0,103.06563220801006,0.6175359494847557,
2023-08-08 18:29:01.460000,-7.963855421686747,-1.349397590361446,-5.662650602409639,-1.2630288166768853,-7.809319435928877,-5.429797670141017,3.0,0.6173826173826173,1619.7411003236248,0.14404754967659159,0.478993065672163,-0.1448633529514596,1439.5604395604394,-1.0,103.06563220801006,0.6175323627990353,
2023-08-08 18:29:01.468000,-7.9397590361445785,-1.3614457831325302,-5.686746987951808,-1.2360515021459226,-7.76026977314531,-5.390557939914163,3.0,0.6169386169386168,1620.9068010075569,0.3221257502476551,0.33401316939572295,0.25091777868422604,1432.2344322344322,-1.0,103.06563220801006,0.6175287810646017,
2023-08-08 18:29:01.476000,-7.9397590361445785,-1.3614457831325302,-5.698795180722892,-1.3047210300429184,-7.794604537093807,-5.3733905579399135,3.0,0.6169386169386168,1620.9068010075569,0.11980653808053073,0.543091894411748,-0.1829730202202669,1427.106227106227,-1.0,103.06563220801006,0.6175252052576861,
2023-08-08 18:29:01.483000,-7.903614457831326,-1.3614457831325302,-5.686746987951808,-1.3243408951563458,-7.733292458614347,-5.370938074800735,3.0,0.6169386169386168,1620.9068010075569,0.28541460287862047,0.597867257152847,-0.09451663655964106,1423.4432234432234,566.83349609375,105.85118983525358,0.6175216363107193,
2023-08-08 18:29:01.491000,-7.91566265060241,-1.349397590361446,-5.662650602409639,-1.3390557939914163,-7.694052728387492,-5.405272838749234,3.0,0.6173826173826173,1619.7411003236248,0.11619369500611786,0.28692966610337306,-0.27667385350504037,1417.5824175824175,-1.0,105.85118983525358,0.6175180749625785,
2023-08-08 18:29:01.499000,-7.927710843373494,-1.349397590361446,-5.63855421686747,-1.280196198651134,-7.804414469650521,-5.419987737584304,3.0,0.6169386169386168,1620.9068010075569,-0.2818017598042076,-0.1290134607540359,0.027504224695530776,1412.4542124542124,-1.0,105.85118983525358,0.617514521927408,
2023-08-08 18:29:01.506000,-7.9397590361445785,-1.349397590361446,-5.674698795180723,-1.2507664009809931,-7.804414469650521,-5.378295524218271,3.0,0.6173826173826173,1619.7411003236248,-0.23471825651185765,0.2815686731542459,-0.15791620534933845,1408.7912087912086,-1.0,105.85118983525358,0.6175109779139386,
2023-08-08 18:29:01.514000,-7.91566265060241,-1.3614457831325302,-5.674698795180723,-1.2777437155119558,-7.721030042918454,-5.370938074800735,3.0,0.6173826173826173,1619.7411003236248,-0.21700367111473753,0.0170153254472351,0.08519317056115591,1402.9304029304028,-1.0,105.85118983525358,0.6175074436131072,
2023-08-08 18:29:01.522000,-7.91566265060241,-1.3614457831325302,-5.662650602409639,-1.3488657265481299,-7.750459840588595,-5.370938074800735,3.0,0.6173826173826173,1619.7411003236248,-0.1396189033273111,-0.3808635860381095,0.0825126740865919,1396.3369963369962,-1.0,105.85118983525358,0.6175039198559609,
2023-08-08 18:29:01.529000,-7.91566265060241,-1.3614457831325302,-5.674698795180723,-1.331698344573881,-7.689147762109135,-5.368485591661557,3.0,0.6173826173826173,1619.7411003236248,-0.3224753802225976,-0.02587261814579603,0.15663422877454708,1390.4761904761904,-1.0,105.85118983525358,0.6175004074737075,
2023-08-08 18:29:01.537000,-7.951807228915663,-1.3614457831325302,-5.674698795180723,-1.3733905579399142,-7.75781729000613,-5.3733905579399135,3.0,0.6173826173826173,1619.7411003236248,-0.04521881009265133,-0.13216013052852368,0.19975525901753988,1389.7435897435896,-1.0,105.85118983525358,0.6174969072965628,
2023-08-08 18:29:01.545000,-7.9397590361445785,-1.3614457831325302,-5.686746987951808,-1.3390557939914163,-7.826486817903127,-5.3954629061925194,3.0,0.6173826173826173,1619.7411003236248,-0.3964803915855711,-0.37760037293863913,0.16630732474797516,1394.139194139194,-1.0,105.85118983525358,0.617493420152643,
2023-08-08 18:29:01.552000,-7.927710843373494,-1.349397590361446,-5.650602409638554,-1.3194359288779889,-7.750459840588595,-5.3635806253832,3.0,0.6173826173826173,1619.7411003236248,-0.2407785094108733,-0.13146087057863695,-0.019113105296894063,1402.9304029304028,-1.0,105.85118983525358,0.6174899468669194,
2023-08-08 18:29:01.560000,-7.91566265060241,-1.349397590361446,-5.63855421686747,-1.2752912323727774,-7.733292458614347,-5.378295524218271,3.0,0.6169386169386168,1620.9068010075569,-0.1764465940213266,-0.20663131519142225,-0.11001689878212224,1411.7216117216117,-1.0,105.85118983525358,0.617486488260246,
2023-08-08 18:29:01.567000,-7.903614457831326,-1.3373493975903614,-5.626506024096386,-1.226241569589209,-7.730839975475168,-5.3635806253832,3.0,0.6173826173826173,1619.7411003236248,0.2098945282908926,-0.41839053668201176,-0.09416700658469768,1421.245421245421,-1.0,105.85118983525358,0.6174830449991646,
2023-08-08 18:29:01.575000,-7.903614457831326,-1.3614457831325302,-5.650602409638554,-1.2532188841201717,-7.654812998160637,-5.3733905579399135,3.0,0.6173826173826173,1619.7411003236248,0.21059378824077765,-0.4144280636326546,-0.09253540003496293,1427.106227106227,-1.0,105.85118983525358,0.617479617722517,
2023-08-08 18:29:01.583000,-7.91566265060241,-1.349397590361446,-5.63855421686747,-1.3267933782955241,-7.770079705702023,-5.353770692826487,3.0,0.6169386169386168,1620.9068010075569,0.13693840685274666,-0.1982401957927864,0.20161995221723675,1430.03663003663,-1.0,105.85118983525358,0.6174762071996615,
2023-08-08 18:29:01.590000,-7.927710843373494,-1.349397590361446,-5.650602409638554,-1.3390557939914163,-7.787247087676271,-5.339055793991416,3.0,0.6169386169386168,1620.9068010075569,0.44694365130237224,-0.2887943593030716,-0.256511858283317,1432.2344322344322,-1.0,105.85118983525358,0.6174728140416307,
2023-08-08 18:29:01.598000,-7.9397590361445785,-1.3614457831325302,-5.674698795180723,-1.3047210300429184,-7.772532188841201,-5.351318209687308,3.0,0.6169386169386168,1620.9068010075569,0.47864343569722045,-0.33517860264553306,0.020977798496590917,1432.9670329670328,-1.0,105.85118983525358,0.6174694386785684,
2023-08-08 18:29:01.606000,-7.91566265060241,-1.3734939759036144,-5.650602409638554,-1.3488657265481299,-7.748007357449417,-5.356223175965665,3.0,0.6173826173826173,1619.7411003236248,0.4616281102499854,0.0012819765747909368,-0.16152904842375132,1435.164835164835,-1.0,105.85118983525358,0.6174660814962235,
2023-08-08 18:29:01.613000,-7.9397590361445785,-1.3734939759036144,-5.674698795180723,-1.3537706928264868,-7.740649908031882,-5.378295524218271,3.0,0.6169386169386168,1620.9068010075569,0.21443971796515393,0.030068177845113085,-0.052327952916496674,1433.6996336996335,-1.0,105.85118983525358,0.6174627429829374,
2023-08-08 18:29:01.621000,-7.9397590361445785,-1.3614457831325302,-5.662650602409639,-1.2777437155119558,-7.713672593500919,-5.3145309625996315,3.0,0.6164946164946166,1622.0741807706158,0.2146728046151156,-0.07808402773731143,0.14754384942602405,1430.7692307692307,-1.0,105.85118983525358,0.6174594235998716,
2023-08-08 18:29:01.629000,-7.951807228915663,-1.3734939759036144,-5.63855421686747,-1.25567136725935,-7.82158185162477,-5.3586756591048434,3.0,0.6169386169386168,1620.9068010075569,0.28914398927801416,0.33704329584522996,0.16257793834858103,1426.3736263736262,-1.0,105.85118983525358,0.6174561236091441,
2023-08-08 18:29:01.636000,-7.975903614457832,-1.349397590361446,-5.674698795180723,-1.30226854690374,-7.784794604537093,-5.378295524218271,3.0,0.6169386169386168,1620.9068010075569,-0.0045451896742613,0.18308956354524816,-0.4201386865567273,1419.7802197802198,-1.0,105.85118983525358,0.6174528433174119,
2023-08-08 18:29:01.644000,-7.975903614457832,-1.3614457831325302,-5.674698795180723,-1.3488657265481299,-7.784794604537093,-5.319435928877989,3.0,0.6173826173826173,1619.7411003236248,0.28238447642911174,0.23063924013752143,-0.05127906299166698,1410.989010989011,-1.0,105.85118983525358,0.6174495829458511,
2023-08-08 18:29:01.652000,-7.975903614457832,-1.3734939759036144,-5.686746987951808,-1.2924586143470262,-7.750459840588595,-5.370938074800735,3.0,0.6173826173826173,1619.7411003236248,0.35487442456733265,-0.02703805139560613,-0.1139793718314785,1402.197802197802,-1.0,105.85118983525358,0.6174463426598009,
2023-08-08 18:29:01.659000,-7.987951807228916,-1.3734939759036144,-5.650602409638554,-1.3635806253832004,-7.750459840588595,-5.375843041079093,3.0,0.6169386169386168,1620.9068010075569,0.4396014218285639,-0.3933337218110833,0.08437736728628875,1391.2087912087911,-1.0,105.85118983525358,0.6174431227371949,
2023-08-08 18:29:01.667000,-7.987951807228916,-1.3734939759036144,-5.662650602409639,-1.3586756591048437,-7.794604537093807,-5.346413243408951,3.0,0.6173826173826173,1619.7411003236248,0.5569605500844936,-0.342287745469378,0.1898490763941497,1383.150183150183,-1.0,105.85118983525358,0.6174399232795179,
2023-08-08 18:29:01.675000,-7.951807228915663,-1.3734939759036144,-5.63855421686747,-1.3096259963212753,-7.772532188841201,-5.331698344573881,3.0,0.6169386169386168,1620.9068010075569,0.5803857584056868,-0.415943126857409,0.20045451896742622,1379.4871794871794,-1.0,105.85118983525358,0.6174367443384998,
2023-08-08 18:29:01.682000,-7.9397590361445785,-1.3614457831325302,-5.626506024096386,-1.3366033108522377,-7.826486817903127,-5.339055793991416,3.0,0.6173826173826173,1619.7411003236248,0.37701765631373496,-0.15430336227492603,0.3947322417108559,1379.4871794871794,-1.0,105.85118983525358,0.6174335859253173,
2023-08-08 18:29:01.690000,-7.9397590361445785,-1.3614457831325302,-5.63855421686747,-1.3096259963212753,-7.755364806866952,-5.351318209687308,3.0,0.6173826173826173,1619.7411003236248,0.2206165141891504,0.18297302022026732,0.19217994289377077,1378.021978021978,-1.0,105.85118983525358,0.6174304479989303,
2023-08-08 18:29:01.698000,-7.91566265060241,-1.3734939759036144,-5.650602409638554,-1.3194359288779889,-7.711220110361741,-5.34886572654813,3.0,0.6169386169386168,1620.9068010075569,0.2797039799545473,-0.4106986772332609,-0.0849600839111938,1374.3589743589744,-1.0,105.85118983525358,0.6174273306250093,
2023-08-08 18:29:01.705000,-7.927710843373494,-1.385542168674699,-5.674698795180723,-1.3758430410790925,-7.718577559779276,-5.412630288166769,3.0,0.6169386169386168,1620.9068010075569,0.3368102091952683,0.1335586504282972,0.647398170269798,1372.161172161172,-1.0,105.85118983525358,0.6174242336880227,
2023-08-08 18:29:01.713000,-7.951807228915663,-1.4096385542168675,-5.674698795180723,-1.3832004904966277,-7.750459840588595,-5.368485591661557,3.0,0.6173826173826173,1619.7411003236248,-9.323465998484274E-4,0.5013693840685269,0.6737369617155178,1369.9633699633698,-1.0,105.85118983525358,0.6174211568698369,
2023-08-08 18:29:01.721000,-7.963855421686747,-1.4096385542168675,-5.63855421686747,-1.356223175965665,-7.777437155119558,-5.3439607602697725,3.0,0.6169386169386168,1620.9068010075569,-0.21572169453994486,0.36466406386574196,0.31583241069867735,1366.3003663003662,-1.0,105.85118983525358,0.617418099936907,
2023-08-08 18:29:01.728000,-7.927710843373494,-1.4457831325301205,-5.650602409638554,-1.4101778050275904,-7.740649908031882,-5.393010423053341,3.0,0.6173826173826173,1619.7411003236248,0.13752112347765258,0.4426315482780726,0.43389079890449295,1362.6373626373625,-1.0,105.85118983525358,0.6174150626121762,
2023-08-08 18:29:01.736000,-7.91566265060241,-1.4457831325301205,-5.650602409638554,-1.4126302881667687,-7.75781729000613,-5.3586756591048434,3.0,0.6169386169386168,1620.9068010075569,-0.275158790280286,0.3386749023949651,0.032632130994697126,1361.1721611721612,-1.0,105.85118983525358,0.6174120445649388,
2023-08-08 18:29:01.744000,-7.891566265060241,-1.4337349397590362,-5.686746987951808,-1.3709380748007356,-7.684242795830778,-5.378295524218271,3.0,0.6173826173826173,1619.7411003236248,-0.1364722335528233,0.7137113221840223,0.35300973136763575,1364.8351648351647,-1.0,105.85118983525358,0.6174090454220623,
2023-08-08 18:29:01.751000,-7.903614457831326,-1.4457831325301205,-5.734939759036145,-1.4469650521152666,-7.652360515021459,-5.483752299202942,3.0,0.6169386169386168,1620.9068010075569,-0.3638482605908744,0.6696579453411812,0.19754093584289967,1368.4981684981683,-1.0,105.85118983525358,0.6174060647584305,
2023-08-08 18:29:01.759000,-7.903614457831326,-1.4457831325301205,-5.771084337349398,-1.4101778050275904,-7.76026977314531,-5.417535254445125,3.0,0.6169386169386168,1620.9068010075569,-0.39100285531146134,0.8244274809160305,0.6997261231862947,1372.8937728937728,-1.0,105.85118983525358,0.6174031021087554,
2023-08-08 18:29:01.767000,-7.903614457831326,-1.3975903614457832,-5.734939759036145,-1.3169834457388105,-7.745554874310239,-5.429797670141017,3.0,0.6169386169386168,1620.9068010075569,-0.5563778334595894,0.8560107219858979,0.7381854204300449,1377.2893772893772,-1.0,105.85118983525358,0.6174001568093246,
2023-08-08 18:29:01.774000,-7.927710843373494,-1.385542168674699,-5.746987951807229,-1.331698344573881,-7.762722256284488,-5.44206008583691,3.0,0.6164946164946166,1622.0741807706158,-0.5969349105529986,0.41652584348231486,0.2776062001048888,1379.4871794871794,-1.0,105.85118983525358,0.6173972281378269,
2023-08-08 18:29:01.782000,-7.903614457831326,-1.349397590361446,-5.698795180722892,-1.290006131207848,-7.686695278969957,-5.41017780502759,3.0,0.6169386169386168,1620.9068010075569,-0.7448283899539647,0.14777693607598702,0.31035487442456716,1380.952380952381,-1.0,105.85118983525358,0.6173943154428384,
2023-08-08 18:29:01.790000,-7.927710843373494,-1.3373493975903614,-5.710843373493976,-1.3488657265481299,-7.748007357449417,-5.451870018393623,3.0,0.6169386169386168,1620.9068010075569,-0.29427189557718136,-0.31641512732358196,0.08064798088689461,1383.8827838827838,-1.0,105.85118983525358,0.6173914180932071,
2023-08-08 18:29:01.797000,-7.879518072289157,-1.3373493975903614,-5.746987951807229,-1.290006131207848,-7.711220110361741,-5.4028203556100545,3.0,0.6169386169386168,1620.9068010075569,-0.33902453236990937,-0.351611211467864,-0.17609696404638409,1382.4175824175823,-1.0,105.85118983525358,0.6173885352243194,
2023-08-08 18:29:01.805000,-7.903614457831326,-1.3253012048192772,-5.746987951807229,-1.314530962599632,-7.745554874310239,-5.444512568976088,3.0,0.6169386169386168,1620.9068010075569,-0.6122020861255176,-0.845871452712546,-0.5383136180875242,1377.2893772893772,-1.0,105.85118983525358,0.6173856657716174,
2023-08-08 18:29:01.813000,-7.927710843373494,-1.3253012048192772,-5.72289156626506,-1.290006131207848,-7.772532188841201,-5.439607602697731,3.0,0.6169386169386168,1620.9068010075569,-0.7757123710739471,-0.9093875648272252,-0.6835266010139267,1372.161172161172,-1.0,105.85118983525358,0.6173828086211993,
2023-08-08 18:29:01.820000,-7.927710843373494,-1.3253012048192772,-5.710843373493976,-1.285101164929491,-7.703862660944206,-5.429797670141017,3.0,0.6169386169386168,1620.9068010075569,-0.7531029660276215,-0.7772274342986998,-0.7358545539304239,1369.230769230769,-1.0,105.85118983525358,0.6173799627500763,
2023-08-08 18:29:01.828000,-7.903614457831326,-1.3012048192771084,-5.698795180722892,-1.2949110974862048,-7.713672593500919,-5.368485591661557,3.0,0.6173826173826173,1619.7411003236248,-0.9887535691393275,-0.9206922673503871,-1.27661558184255,1366.3003663003662,-1.0,105.85118983525358,0.6173771270687641,
2023-08-08 18:29:01.836000,-7.91566265060241,-1.3012048192771084,-5.662650602409639,-1.2385039852851012,-7.738197424892704,-5.339055793991416,3.0,0.6169386169386168,1620.9068010075569,-1.3639065322533657,-0.9250043703746867,-1.2651943359944058,1361.904761904762,-1.0,105.85118983525358,0.6173743004448993,
2023-08-08 18:29:01.843000,-7.903614457831326,-1.3012048192771084,-5.662650602409639,-1.2237890864500305,-7.691600245248313,-5.405272838749234,3.0,0.6169386169386168,1620.9068010075569,-1.3834858108501844,-1.2515587669716224,-1.1927043878561854,1359.7069597069597,-1.0,105.85118983525358,0.6173714817270626,
2023-08-08 18:29:01.851000,-7.927710843373494,-1.313253012048193,-5.650602409638554,-1.2385039852851012,-7.814224402207234,-5.385652973635806,3.0,0.6173826173826173,1619.7411003236248,-1.3108793193869825,-1.239438261173591,-1.0452770817551427,1358.2417582417581,-1.0,105.85118983525358,0.6173686695880102,
2023-08-08 18:29:01.859000,-7.975903614457832,-1.3614457831325302,-5.662650602409639,-1.3243408951563458,-7.860821581851624,-5.405272838749234,3.0,0.6169386169386168,1620.9068010075569,-1.301905483363441,-1.2298817085251434,-1.0384010255812597,1356.0439560439559,-1.0,105.85118983525358,0.6173658628152879,
2023-08-08 18:29:01.866000,-7.987951807228916,-1.349397590361446,-5.662650602409639,-1.2973635806253832,-7.792152053954629,-5.3366033108522375,3.0,0.6169386169386168,1620.9068010075569,-1.26228075286988,-1.1142707301439314,-0.8644018413845347,1356.7765567765566,-1.0,105.85118983525358,0.6173630601865874,
2023-08-08 18:29:01.874000,-8.0,-1.3614457831325302,-5.63855421686747,-1.3537706928264868,-7.801961986511342,-5.312078479460453,3.0,0.6169386169386168,1620.9068010075569,-1.28547287454111,-1.350853679855486,-0.6310821047724492,1358.974358974359,-1.0,105.85118983525358,0.617360260313793,
2023-08-08 18:29:01.882000,-7.987951807228916,-1.3614457831325302,-5.650602409638554,-1.314530962599632,-7.809319435928877,-5.2777437155119555,3.0,0.6169386169386168,1620.9068010075569,-0.742847153429287,-1.1561097838121315,-0.36850999359011694,1361.1721611721612,-1.0,105.85118983525358,0.6173574617851034,
2023-08-08 18:29:01.889000,-8.0,-1.3614457831325302,-5.578313253012048,-1.3267933782955241,-7.772532188841201,-5.253218884120171,3.0,0.6169386169386168,1620.9068010075569,-0.6926169803624493,-0.9649787308431917,-0.412097197133034,1363.3699633699632,-1.0,105.85118983525358,0.6173546631685841,
2023-08-08 18:29:01.897000,-7.963855421686747,-1.3614457831325302,-5.578313253012048,-1.2507664009809931,-7.76026977314531,-5.250766400980993,3.0,0.6169386169386168,1620.9068010075569,-0.2939222656022371,-1.2508595070217357,-0.3079074645999648,1364.8351648351647,-1.0,105.85118983525358,0.6173518630158996,
2023-08-08 18:29:01.905000,-7.963855421686747,-1.3614457831325302,-5.566265060240964,-1.3071735131820967,-7.750459840588595,-5.253218884120171,3.0,0.6173826173826173,1619.7411003236248,0.11724258493094886,-1.0316415127323586,-0.33762601247013585,1362.6373626373625,-1.0,105.85118983525358,0.6173490598662189,
2023-08-08 18:29:01.912000,-7.9397590361445785,-1.349397590361446,-5.578313253012048,-1.2703862660944205,-7.750459840588595,-5.282648681790312,3.0,0.6173826173826173,1619.7411003236248,-0.22189849076394133,-0.6286346949478469,-0.12330283782996321,1361.904761904762,-1.0,105.85118983525358,0.6173462523995547,
2023-08-08 18:29:01.920000,-7.9397590361445785,-1.3614457831325302,-5.566265060240964,-1.2826486817903127,-7.77498467198038,-5.2703862660944205,3.0,0.6169386169386168,1620.9068010075569,0.020977798496590483,-0.5205990326904032,0.1823903035953614,1363.3699633699632,-1.0,105.85118983525358,0.6173434396015927,
2023-08-08 18:29:01.928000,-7.927710843373494,-1.385542168674699,-5.590361445783133,-1.2630288166768853,-7.752912323727774,-5.294911097486205,3.0,0.6164946164946166,1622.0741807706158,0.051395606316647816,-0.1537206456500201,0.2707301439310064,1369.9633699633698,-1.0,105.85118983525358,0.6173406203225297,
2023-08-08 18:29:01.935000,-7.963855421686747,-1.3614457831325302,-5.602409638554217,-1.3881054567749846,-7.794604537093807,-5.309625996321275,3.0,0.6169386169386168,1620.9068010075569,0.26536915098187663,0.22306392401375144,0.5162869296661036,1380.2197802197802,-1.0,105.85118983525358,0.6173377932620954,
2023-08-08 18:29:01.943000,-7.927710843373494,-1.3614457831325302,-5.590361445783133,-1.3537706928264868,-7.797057020232986,-5.290006131207847,3.0,0.6169386169386168,1620.9068010075569,0.24975234543441507,0.7482081463784159,0.35872035429170807,1394.8717948717947,-1.0,105.85118983525358,0.6173349572102075,
2023-08-08 18:29:01.950000,-7.963855421686747,-1.3614457831325302,-5.602409638554217,-1.3341508277130594,-7.77498467198038,-5.30226854690374,3.0,0.6173826173826173,1619.7411003236248,0.3866907522871635,0.981411339665521,0.38505914573742783,1413.1868131868132,-1.0,105.85118983525358,0.6173321107963081,
2023-08-08 18:29:01.958000,-7.951807228915663,-1.3734939759036144,-5.626506024096386,-1.280196198651134,-7.782342121397915,-5.312078479460453,3.0,0.6169386169386168,1620.9068010075569,0.47444787599790167,0.9853738127148763,0.6124351727754793,1435.164835164835,-1.0,105.85118983525358,0.6173292526751019,
2023-08-08 18:29:01.966000,-7.951807228915663,-1.3614457831325302,-5.63855421686747,-1.3390557939914163,-7.765174739423666,-5.2924586143470265,3.0,0.6169386169386168,1620.9068010075569,0.5948371307033383,1.0664879669016964,0.7593963055765979,1460.07326007326,-1.0,105.85118983525358,0.6173263815524834,
2023-08-08 18:29:01.973000,-7.963855421686747,-1.3614457831325302,-5.63855421686747,-1.280196198651134,-7.748007357449417,-5.417535254445125,3.0,0.6169386169386168,1620.9068010075569,0.5922731775537547,0.904259658528058,0.7686032282501017,1486.4468864468863,-1.0,105.85118983525358,0.6173234960306634,
2023-08-08 18:29:01.981000,-7.963855421686747,-1.3614457831325302,-5.650602409638554,-1.3513182096873084,-7.770079705702023,-5.3439607602697725,3.0,0.6169386169386168,1620.9068010075569,0.7564827224520709,0.8958685391294221,1.0528523978789113,1510.6227106227104,-1.0,105.85118983525358,0.617320594751176,
2023-08-08 18:29:01.989000,-7.9397590361445785,-1.3614457831325302,-5.674698795180723,-1.366033108522379,-7.794604537093807,-5.370938074800735,3.0,0.6169386169386168,1620.9068010075569,0.906007808402774,1.0087990210360696,0.9069401550026224,1531.8681318681317,-1.0,105.85118983525358,0.6173176763991116,
2023-08-08 18:29:01.996000,-7.951807228915663,-1.349397590361446,-5.650602409638554,-1.3758430410790925,-7.75781729000613,-5.405272838749234,3.0,0.6169386169386168,1620.9068010075569,0.8687139444088334,0.6800303012644947,0.9021618786783986,1550.9157509157508,-1.0,105.85118983525358,0.6173147397073206,
2023-08-08 18:29:02.004000,-7.9397590361445785,-1.349397590361446,-5.674698795180723,-1.2998160637645615,-7.689147762109135,-5.383200490496628,3.0,0.6169386169386168,1620.9068010075569,1.1848959850824536,0.6919177204125626,0.8040323990443446,1567.032967032967,-1.0,105.85118983525358,0.6173117835993129,
2023-08-08 18:29:02.012000,-7.91566265060241,-1.3373493975903614,-5.674698795180723,-1.2728387492335989,-7.772532188841201,-5.375843041079093,3.0,0.6173826173826173,1619.7411003236248,0.8875939630557653,0.1982401957927864,0.9822271429403882,1578.021978021978,-1.0,105.85118983525358,0.6173088070342156,
2023-08-08 18:29:02.019000,-7.903614457831326,-1.3373493975903614,-5.686746987951808,-1.2949110974862048,-7.686695278969957,-5.407725321888412,3.0,0.6169386169386168,1620.9068010075569,1.0675368568265258,-0.04754967659227327,0.5800361284307439,1583.150183150183,-1.0,105.85118983525358,0.6173058091712039,
2023-08-08 18:29:02.027000,-7.927710843373494,-1.349397590361446,-5.662650602409639,-1.2483139178418148,-7.721030042918454,-5.3292458614347025,3.0,0.6169386169386168,1620.9068010075569,0.9395722859973191,0.028669657945341313,0.8663830779092128,1583.150183150183,-1.0,105.85118983525358,0.6173027892359546,
2023-08-08 18:29:02.035000,-7.903614457831326,-1.3373493975903614,-5.650602409638554,-1.3120784794604536,-7.721030042918454,-5.439607602697731,3.0,0.6169386169386168,1620.9068010075569,0.8278072373404817,0.31804673387331717,0.26501952100693416,1578.7545787545787,-1.0,105.85118983525358,0.6172997463764328,
2023-08-08 18:29:02.042000,-7.91566265060241,-1.3614457831325302,-5.686746987951808,-1.2998160637645615,-7.77498467198038,-5.405272838749234,3.0,0.6169386169386168,1620.9068010075569,0.5196666860905548,0.404638424334247,0.2954373288269915,1572.161172161172,-1.0,105.85118983525358,0.6172966799340007,
2023-08-08 18:29:02.050000,-7.927710843373494,-1.3614457831325302,-5.686746987951808,-1.3267933782955241,-7.711220110361741,-5.397915389331698,3.0,0.6169386169386168,1620.9068010075569,0.42794708933045944,-0.12120505798030425,0.4349396888293222,1566.3003663003662,-1.0,105.85118983525358,0.6172935891599661,
2023-08-08 18:29:02.058000,-7.927710843373494,-1.3373493975903614,-5.686746987951808,-1.2752912323727774,-7.686695278969957,-5.393010423053341,3.0,0.6169386169386168,1620.9068010075569,0.274459530330401,-0.3229415535225227,0.06712895518909155,1558.2417582417581,-1.0,105.85118983525358,0.6172904733789412,
2023-08-08 18:29:02.065000,-7.9397590361445785,-1.3614457831325302,-5.686746987951808,-1.3390557939914163,-7.755364806866952,-5.370938074800735,3.0,0.6169386169386168,1620.9068010075569,0.10500553580793673,-0.4622108268748913,-0.28238447642911263,1547.985347985348,-1.0,105.85118983525358,0.6172873319815533,
2023-08-08 18:29:02.073000,-7.9397590361445785,-1.3614457831325302,-5.662650602409639,-1.314530962599632,-7.723482526057633,-5.380748007357449,3.0,0.6169386169386168,1620.9068010075569,-0.44403006817784435,-0.5242118757648161,-0.12551716100460344,1539.194139194139,-1.0,105.85118983525358,0.617284164299184,
2023-08-08 18:29:02.081000,-7.9397590361445785,-1.3373493975903614,-5.686746987951808,-1.3243408951563458,-7.728387492335989,-5.383200490496628,3.0,0.6164946164946166,1622.0741807706158,0.1250509877046788,-0.6955305634869754,-0.06281685216479235,1526.7399267399267,-1.0,105.85118983525358,0.6172809698939722,
2023-08-08 18:29:02.088000,-7.951807228915663,-1.3373493975903614,-5.686746987951808,-1.280196198651134,-7.794604537093807,-5.388105456774984,3.0,0.6169386169386168,1620.9068010075569,0.09521589650952737,-0.5883107045043994,-0.35056232154303385,1515.7509157509157,-1.0,105.85118983525358,0.6172777485296325,
2023-08-08 18:29:02.096000,-7.9397590361445785,-1.349397590361446,-5.662650602409639,-1.356223175965665,-7.797057020232986,-5.312078479460453,3.0,0.6169386169386168,1620.9068010075569,0.06304993881475403,-0.6027620768020509,-0.3174640172484121,1507.6923076923076,-1.0,105.85118983525358,0.6172744999932849,
2023-08-08 18:29:02.104000,-7.927710843373494,-1.3373493975903614,-5.650602409638554,-1.3071735131820967,-7.735744941753525,-5.339055793991416,3.0,0.6169386169386168,1620.9068010075569,-0.06304993881475403,-0.525493852339607,-0.48307208204650093,1501.098901098901,-1.0,105.85118983525358,0.6172712241291899,
2023-08-08 18:29:02.111000,-7.891566265060241,-1.3614457831325302,-5.650602409638554,-1.2875536480686696,-7.779889638258736,-5.341508277130594,3.0,0.6169386169386168,1620.9068010075569,0.043121030242992804,-0.4334246256045691,-0.4351727754792843,1495.2380952380952,589.813232421875,101.72711750400994,0.6172679207121516,
2023-08-08 18:29:02.119000,-7.9397590361445785,-1.3373493975903614,-5.626506024096386,-1.3120784794604536,-7.76026977314531,-5.309625996321275,3.0,0.6169386169386168,1620.9068010075569,0.2700308839811205,-0.6923838937124877,-0.12843074412913,1490.10989010989,-1.0,101.72711750400994,0.6172645896078409,
2023-08-08 18:29:02.127000,-7.951807228915663,-1.349397590361446,-5.626506024096386,-1.3513182096873084,-7.772532188841201,-5.2998160637645615,3.0,0.6169386169386168,1620.9068010075569,0.4356389487792085,-0.8881766796806713,-0.2847153429287337,1484.2490842490843,-1.0,101.72711750400994,0.6172612307624379,
2023-08-08 18:29:02.134000,-7.9397590361445785,-1.3373493975903614,-5.626506024096386,-1.3390557939914163,-7.765174739423666,-5.346413243408951,3.0,0.6169386169386168,1620.9068010075569,0.42887943593030786,-0.8845638366062584,-0.287162752753336,1476.923076923077,-1.0,101.72711750400994,0.617257844074294,
2023-08-08 18:29:02.142000,-7.9397590361445785,-1.349397590361446,-5.626506024096386,-1.3415082771305946,-7.745554874310239,-5.361128142244022,3.0,0.6169386169386168,1620.9068010075569,0.13006235067886518,-0.6025289901520892,-0.3341297127207038,1465.9340659340658,-1.0,101.72711750400994,0.6172544296808588,
2023-08-08 18:29:02.150000,-7.951807228915663,-1.3614457831325302,-5.650602409638554,-1.3366033108522377,-7.792152053954629,-5.290006131207847,3.0,0.6169386169386168,1620.9068010075569,0.24777110890973736,-0.41722510343220165,-0.4256162228308375,1454.9450549450548,-1.0,101.72711750400994,0.6172509877982435,
2023-08-08 18:29:02.157000,-7.975903614457832,-1.3614457831325302,-5.590361445783133,-1.2826486817903127,-7.814224402207234,-5.375843041079093,3.0,0.6169386169386168,1620.9068010075569,0.06293339548977318,-0.3104714177495489,-0.5005535807936603,1441.0256410256409,-1.0,101.72711750400994,0.6172475187308823,
2023-08-08 18:29:02.165000,-7.975903614457832,-1.349397590361446,-5.614457831325302,-1.3341508277130594,-7.819129368485592,-5.324340895156346,3.0,0.6169386169386168,1620.9068010075569,0.21374045801526717,-0.2767903968300212,-0.25138395198415026,1428.5714285714284,-1.0,101.72711750400994,0.61724402285986,
2023-08-08 18:29:02.173000,-7.963855421686747,-1.3614457831325302,-5.614457831325302,-1.30226854690374,-7.799509503372164,-5.282648681790312,3.0,0.6169386169386168,1620.9068010075569,0.10302429928325904,0.10535516578287923,-0.06817784511392125,1421.245421245421,-1.0,101.72711750400994,0.617240500513313,
2023-08-08 18:29:02.180000,-7.951807228915663,-1.3614457831325302,-5.602409638554217,-1.285101164929491,-7.797057020232986,-5.334150827713059,3.0,0.6169386169386168,1620.9068010075569,-0.003845929724374546,0.03997436046850501,-0.05477536274109902,1416.117216117216,-1.0,101.72711750400994,0.6172369522521561,
2023-08-08 18:29:02.188000,-7.9397590361445785,-1.3373493975903614,-5.614457831325302,-1.2949110974862048,-7.770079705702023,-5.3366033108522375,3.0,0.6169386169386168,1620.9068010075569,0.13227667385350453,-0.056640055940795866,0.03542917079424284,1411.7216117216117,-1.0,101.72711750400994,0.6172333788472645,
2023-08-08 18:29:02.196000,-7.927710843373494,-1.3614457831325302,-5.626506024096386,-1.3439607602697732,-7.833844267320662,-5.3635806253832,3.0,0.6169386169386168,1620.9068010075569,0.08099761086183756,0.2288910902628054,-0.08822329701066374,1410.989010989011,-1.0,101.72711750400994,0.6172297809901842,
2023-08-08 18:29:02.203000,-7.975903614457832,-1.3614457831325302,-5.626506024096386,-1.366033108522379,-7.740649908031882,-5.326793378295524,3.0,0.6169386169386168,1620.9068010075569,0.20173649554221845,0.23868072956121478,0.12609987762950892,1412.4542124542124,-1.0,101.72711750400994,0.6172261593119822,
2023-08-08 18:29:02.211000,-7.963855421686747,-1.3614457831325302,-5.626506024096386,-1.3267933782955241,-7.826486817903127,-5.361128142244022,3.0,0.6169386169386168,1620.9068010075569,0.16910436454752,0.3697919701649092,-0.25826000815803263,1415.3846153846152,-1.0,101.72711750400994,0.6172225146681808,
2023-08-08 18:29:02.219000,-7.9397590361445785,-1.3614457831325302,-5.63855421686747,-1.2679337829552422,-7.806866952789699,-5.3660331085223785,3.0,0.6169386169386168,1620.9068010075569,0.09067070683526607,0.2098945282908926,-0.013285939047840959,1419.047619047619,-1.0,101.72711750400994,0.6172188481152092,
2023-08-08 18:29:02.226000,-7.951807228915663,-1.3734939759036144,-5.650602409638554,-1.2507664009809931,-7.787247087676271,-5.290006131207847,3.0,0.6169386169386168,1620.9068010075569,0.027970397995454557,0.4032399044344735,0.09358428995979262,1424.1758241758241,-1.0,101.72711750400994,0.6172151607591992,
2023-08-08 18:29:02.234000,-7.9397590361445785,-1.3614457831325302,-5.662650602409639,-1.3071735131820967,-7.738197424892704,-5.319435928877989,3.0,0.6164946164946166,1622.0741807706158,0.39438261173591255,0.0026804964745644456,0.013985198997727278,1426.3736263736262,-1.0,101.72711750400994,0.6172114536150973,
2023-08-08 18:29:02.242000,-7.951807228915663,-1.3614457831325302,-5.650602409638554,-1.3758430410790925,-7.794604537093807,-5.407725321888412,3.0,0.6164946164946166,1622.0741807706158,0.32911834974651744,0.22947380688771132,0.3037119049006469,1429.3040293040292,-1.0,101.72711750400994,0.6172077277529028,
2023-08-08 18:29:02.249000,-7.9397590361445785,-1.349397590361446,-5.662650602409639,-1.2532188841201717,-7.748007357449417,-5.3366033108522375,3.0,0.6169386169386168,1620.9068010075569,0.22073305751413125,0.04789930656721578,-0.02004545189674249,1428.5714285714284,-1.0,101.72711750400994,0.6172039842417328,
2023-08-08 18:29:02.257000,-7.9397590361445785,-1.349397590361446,-5.686746987951808,-1.4003678724708768,-7.782342121397915,-5.407725321888412,3.0,0.6169386169386168,1620.9068010075569,0.2019695821921801,0.27947089330458563,0.19217994289377077,1427.106227106227,-1.0,101.72711750400994,0.6172002241567502,
2023-08-08 18:29:02.265000,-7.927710843373494,-1.3734939759036144,-5.686746987951808,-1.3415082771305946,-7.777437155119558,-5.361128142244022,3.0,0.6169386169386168,1620.9068010075569,0.21443971796515393,0.2039508187168578,-0.02400792494609874,1428.5714285714284,-1.0,101.72711750400994,0.6171964486068339,
2023-08-08 18:29:02.272000,-7.91566265060241,-1.3734939759036144,-5.686746987951808,-1.3243408951563458,-7.752912323727774,-5.3660331085223785,3.0,0.6169386169386168,1620.9068010075569,0.36338208729095106,0.00967309597342852,0.008041489423693338,1432.2344322344322,-1.0,101.72711750400994,0.6171926586128276,
2023-08-08 18:29:02.280000,-7.927710843373494,-1.385542168674699,-5.674698795180723,-1.30226854690374,-7.659717964438994,-5.370938074800735,3.0,0.6169386169386168,1620.9068010075569,0.19124759629392235,0.3175805605733938,-0.11456208845638355,1438.095238095238,-1.0,101.72711750400994,0.6171888553907976,
2023-08-08 18:29:02.288000,-7.903614457831326,-1.385542168674699,-5.674698795180723,-1.2826486817903127,-7.75781729000613,-5.3660331085223785,3.0,0.6169386169386168,1620.9068010075569,0.2671173008565927,0.3326146494959495,0.2060485985665172,1441.7582417582416,-1.0,101.72711750400994,0.6171850401882416,
2023-08-08 18:29:02.295000,-7.927710843373494,-1.3614457831325302,-5.674698795180723,-1.3415082771305946,-7.799509503372164,-5.419987737584304,3.0,0.6169386169386168,1620.9068010075569,0.250335062059321,-0.14020161995221703,0.47736145912242867,1441.7582417582416,-1.0,101.72711750400994,0.6171812141519517,
2023-08-08 18:29:02.303000,-7.951807228915663,-1.3614457831325302,-5.674698795180723,-1.3096259963212753,-7.814224402207234,-5.432250153280196,3.0,0.6169386169386168,1620.9068010075569,0.2959035021269148,-0.5658178427830545,0.1827399335703048,1440.2930402930401,-1.0,101.72711750400994,0.6171773786115065,
2023-08-08 18:29:02.311000,-7.927710843373494,-1.3614457831325302,-5.686746987951808,-1.3832004904966277,-7.792152053954629,-5.419987737584304,3.0,0.6169386169386168,1620.9068010075569,-0.10162577938348553,-0.5759571120564064,0.5620884563836608,1439.5604395604394,-1.0,101.72711750400994,0.6171735349157764,
2023-08-08 18:29:02.318000,-7.9397590361445785,-1.385542168674699,-5.686746987951808,-1.3243408951563458,-7.833844267320662,-5.4028203556100545,3.0,0.6169386169386168,1620.9068010075569,0.38925470543674534,-0.9352601829730195,0.26793310413146115,1435.164835164835,-1.0,101.72711750400994,0.6171696844399,
2023-08-08 18:29:02.326000,-7.927710843373494,-1.349397590361446,-5.698795180722892,-1.2777437155119558,-7.725935009196811,-5.351318209687308,3.0,0.6169386169386168,1620.9068010075569,0.3401899656197195,-1.1839636384826053,0.09859565293397814,1431.5018315018315,-1.0,101.72711750400994,0.6171658285713162,
2023-08-08 18:29:02.333000,-7.927710843373494,-1.349397590361446,-5.626506024096386,-1.3243408951563458,-7.725935009196811,-5.351318209687308,3.0,0.6169386169386168,1620.9068010075569,0.06130178894003801,-1.0984208379465064,-0.42130411980653787,1426.3736263736262,-1.0,101.72711750400994,0.617161968717006,
2023-08-08 18:29:02.341000,-7.927710843373494,-1.349397590361446,-5.63855421686747,-1.260576333537707,-7.767627222562845,-5.30226854690374,3.0,0.6169386169386168,1620.9068010075569,0.24310937591049522,-0.9191772041256328,-0.3123361109492453,1421.245421245421,-1.0,101.72711750400994,0.6171581064285714,
2023-08-08 18:29:02.349000,-7.927710843373494,-1.349397590361446,-5.626506024096386,-1.3071735131820967,-7.755364806866952,-5.34886572654813,3.0,0.6169386169386168,1620.9068010075569,0.17970980712079695,-0.894236932579687,-0.5709457490822213,1415.3846153846152,-1.0,101.72711750400994,0.6171542432506657,
2023-08-08 18:29:02.356000,-7.927710843373494,-1.349397590361446,-5.650602409638554,-1.3390557939914163,-7.738197424892704,-5.3071735131820965,3.0,0.6164946164946166,1622.0741807706158,-0.24858691218460496,-0.820581551191656,-0.6272361750480743,1410.989010989011,-1.0,101.72711750400994,0.6171503807188032,
2023-08-08 18:29:02.364000,-7.9397590361445785,-1.3614457831325302,-5.650602409638554,-1.3341508277130594,-7.730839975475168,-5.304721030042918,3.0,0.6169386169386168,1620.9068010075569,-0.38704038226210596,-0.5651185828331677,-0.6540411397937183,1407.3260073260071,-1.0,101.72711750400994,0.6171465202079596,
2023-08-08 18:29:02.372000,-7.951807228915663,-1.3734939759036144,-5.590361445783133,-1.3464132434089515,-7.811771919068056,-5.2703862660944205,3.0,0.6169386169386168,1620.9068010075569,-0.2336693665870284,-0.6181457956995507,-0.985490356039858,1405.128205128205,-1.0,101.72711750400994,0.6171426630579773,
2023-08-08 18:29:02.379000,-7.963855421686747,-1.3734939759036144,-5.566265060240964,-1.3243408951563458,-7.779889638258736,-5.250766400980993,3.0,0.6169386169386168,1620.9068010075569,-0.0010488899248292638,-0.4861022084960079,-0.6111531962006875,1401.4652014652013,-1.0,101.72711750400994,0.617138810730597,
2023-08-08 18:29:02.387000,-7.975903614457832,-1.385542168674699,-5.55421686746988,-1.3169834457388105,-7.853464132434089,-5.250766400980993,3.0,0.6164946164946166,1622.0741807706158,-0.2146728046151156,-0.24858691218460496,-0.5609230231338498,1395.6043956043954,-1.0,101.72711750400994,0.6171349645299735,
2023-08-08 18:29:02.395000,-7.951807228915663,-1.3734939759036144,-5.542168674698796,-1.3390557939914163,-7.801961986511342,-5.243408951563458,3.0,0.6164946164946166,1622.0741807706158,-0.001398519899773509,-0.029835091195151413,-0.32468970339723785,1392.6739926739926,-1.0,101.72711750400994,0.6171311257494001,
2023-08-08 18:29:02.402000,-7.987951807228916,-1.3614457831325302,-5.530120481927711,-1.3366033108522377,-7.809319435928877,-5.216431637032495,3.0,0.6169386169386168,1620.9068010075569,0.06176796223996309,0.20523279529165048,-0.28821164267816574,1390.4761904761904,-1.0,101.72711750400994,0.617127295754939,
2023-08-08 18:29:02.410000,-7.987951807228916,-1.349397590361446,-5.506024096385542,-1.3120784794604536,-7.779889638258736,-5.272838749233599,3.0,0.6169386169386168,1620.9068010075569,0.06118524561505717,0.20779674844123236,-0.2844822562787716,1386.8131868131868,-1.0,101.72711750400994,0.6171234756955928,
2023-08-08 18:29:02.418000,-8.0,-1.349397590361446,-5.506024096385542,-1.3464132434089515,-7.828939301042305,-5.248313917841815,3.0,0.6169386169386168,1620.9068010075569,0.3042946215255524,0.3312161295961777,-0.25126740865916897,1382.4175824175823,-1.0,101.72711750400994,0.6171196667026708,
2023-08-08 18:29:02.425000,-8.0,-1.3734939759036144,-5.518072289156627,-1.3415082771305946,-7.799509503372164,-5.233599019006744,3.0,0.6169386169386168,1620.9068010075569,0.382262105937883,1.3277781015092351,-0.18483771341996375,1378.7545787545787,-1.0,101.72711750400994,0.6171158700260863,
2023-08-08 18:29:02.433000,-7.987951807228916,-1.3975903614457832,-5.506024096385542,-1.3537706928264868,-7.82158185162477,-5.174739423666462,3.0,0.6169386169386168,1620.9068010075569,0.6996095798613133,1.2601829730202199,0.09474972320960316,1372.8937728937728,-1.0,101.72711750400994,0.6171120867448143,
2023-08-08 18:29:02.441000,-7.987951807228916,-1.385542168674699,-5.542168674698796,-1.331698344573881,-7.799509503372164,-5.172286940527283,3.0,0.6169386169386168,1620.9068010075569,0.850649729036769,1.943359944059204,0.1883340131693958,1367.7655677655678,-1.0,101.72711750400994,0.6171083179247083,
2023-08-08 18:29:02.448000,-7.975903614457832,-1.385542168674699,-5.542168674698796,-1.3733905579399142,-7.762722256284488,-5.236051502145923,3.0,0.6169386169386168,1620.9068010075569,1.0917778684225865,2.1906648796690162,0.08088106753685671,1366.3003663003662,-1.0,101.72711750400994,0.6171045647449819,
2023-08-08 18:29:02.456000,-7.951807228915663,-1.385542168674699,-5.542168674698796,-1.3513182096873084,-7.819129368485592,-5.187001839362354,3.0,0.6169386169386168,1620.9068010075569,1.1153196200687607,2.4185070800069925,0.5538138803100049,1367.7655677655678,-1.0,101.72711750400994,0.617100828348171,
2023-08-08 18:29:02.464000,-7.975903614457832,-1.385542168674699,-5.55421686746988,-1.2924586143470262,-7.860821581851624,-5.2777437155119555,3.0,0.6169386169386168,1620.9068010075569,0.8787366703572045,2.9215080706252547,0.6258376551483011,1367.7655677655678,-1.0,101.72711750400994,0.6170971098395857,
2023-08-08 18:29:02.471000,-7.963855421686747,-1.3734939759036144,-5.566265060240964,-1.3390557939914163,-7.777437155119558,-5.280196198651134,3.0,0.6169386169386168,1620.9068010075569,1.5443155993240494,3.2245207155760163,0.955771808169687,1368.4981684981683,-1.0,101.72711750400994,0.6170934102869532,
2023-08-08 18:29:02.479000,-7.975903614457832,-1.3614457831325302,-5.614457831325302,-1.3390557939914163,-7.799509503372164,-5.3366033108522375,3.0,0.6169386169386168,1620.9068010075569,1.641279645708291,3.554571411922382,1.5915156459413788,1369.230769230769,-1.0,101.72711750400994,0.6170897307202574,
2023-08-08 18:29:02.487000,-7.963855421686747,-1.3734939759036144,-5.626506024096386,-1.290006131207848,-7.787247087676271,-5.3954629061925194,3.0,0.6169386169386168,1620.9068010075569,1.2015616805547462,3.562962531321018,1.5320785502010372,1369.9633699633698,-1.0,101.72711750400994,0.6170860721317664,
2023-08-08 18:29:02.494000,-7.975903614457832,-1.385542168674699,-5.662650602409639,-1.3782955242182708,-7.74310239117106,-5.437155119558553,3.0,0.6169386169386168,1620.9068010075569,1.3770759279762244,3.418914981644426,1.5500262222481207,1368.4981684981683,-1.0,101.72711750400994,0.6170824354762521,
2023-08-08 18:29:02.502000,-7.975903614457832,-1.385542168674699,-5.686746987951808,-1.4273451870018392,-7.787247087676271,-5.446965052115266,3.0,0.6169386169386168,1620.9068010075569,1.0766272361750484,3.212400209777985,1.535807936600431,1365.5677655677655,-1.0,101.72711750400994,0.6170788216713918,
2023-08-08 18:29:02.510000,-7.963855421686747,-1.3614457831325302,-5.72289156626506,-1.3218884120171672,-7.767627222562845,-5.415082771305947,3.0,0.6169386169386168,1620.9068010075569,1.4471184662898426,3.4621525552123997,1.6918594487500729,1362.6373626373625,-1.0,101.72711750400994,0.6170752314595989,
2023-08-08 18:29:02.517000,-7.951807228915663,-1.3614457831325302,-5.734939759036145,-1.30226854690374,-7.723482526057633,-5.496014714898835,3.0,0.6164946164946166,1622.0741807706158,1.5249694073771922,3.392343103548745,1.6620243575549207,1358.2417582417581,-1.0,101.72711750400994,0.6170716655679064,
2023-08-08 18:29:02.525000,-7.91566265060241,-1.349397590361446,-5.710843373493976,-1.2826486817903127,-7.772532188841201,-5.41017780502759,3.0,0.6169386169386168,1620.9068010075569,1.0526193112289493,3.2751005186177964,1.1303537089913172,1358.974358974359,-1.0,101.72711750400994,0.6170681246872041,
2023-08-08 18:29:02.533000,-7.891566265060241,-1.3253012048192772,-5.759036144578314,-1.3415082771305946,-7.748007357449417,-5.491109748620478,3.0,0.6169386169386168,1620.9068010075569,0.4316764757298531,3.109725540469668,1.2438669075228714,1360.4395604395604,-1.0,101.72711750400994,0.6170646094516383,
2023-08-08 18:29:02.540000,-7.91566265060241,-1.349397590361446,-5.759036144578314,-1.2875536480686696,-7.6817903126916,-5.535254445125689,3.0,0.6169386169386168,1620.9068010075569,0.5162869296661036,2.4137288036827678,1.0669541402016198,1359.7069597069597,-1.0,101.72711750400994,0.6170611207377202,
2023-08-08 18:29:02.548000,-7.903614457831326,-1.349397590361446,-5.783132530120482,-1.2728387492335989,-7.637645616186388,-5.535254445125689,3.0,0.6164946164946166,1622.0741807706158,0.29695239205174584,2.2563953149583367,0.9374745061476606,1360.4395604395604,-1.0,101.72711750400994,0.6170576595065643,
2023-08-08 18:29:02.556000,-7.903614457831326,-1.3614457831325302,-5.795180722891566,-1.3586756591048437,-7.6989576946658485,-5.537706928264868,3.0,0.6160506160506161,1623.2432432432433,0.2292407202377479,1.7471009847910954,0.9919002389138157,1359.7069597069597,-1.0,101.72711750400994,0.6170542263693596,
2023-08-08 18:29:02.563000,-7.891566265060241,-1.3614457831325302,-5.795180722891566,-1.2777437155119558,-7.723482526057633,-5.520539546290619,3.0,0.6164946164946166,1622.0741807706158,-0.14218285647689471,1.960957986131345,0.2047666219917254,1356.0439560439559,-1.0,101.72711750400994,0.6170508214393007,
2023-08-08 18:29:02.571000,-7.879518072289157,-1.349397590361446,-5.771084337349398,-1.3513182096873084,-7.674432863274064,-5.498467198038013,3.0,0.6169386169386168,1620.9068010075569,-0.2660684109317634,1.02744595303304,0.24730493560981315,1353.113553113553,-1.0,101.72711750400994,0.6170474447466953,
2023-08-08 18:29:02.579000,-7.867469879518072,-1.3614457831325302,-5.795180722891566,-1.3267933782955241,-7.691600245248313,-5.525444512568976,3.0,0.6164946164946166,1622.0741807706158,-0.49297826466989114,0.7099819357846269,-0.15313792902511547,1352.3809523809523,-1.0,101.72711750400994,0.6170440965467557,
2023-08-08 18:29:02.586000,-7.867469879518072,-1.349397590361446,-5.795180722891566,-1.290006131207848,-7.738197424892704,-5.478847332924586,3.0,0.6169386169386168,1620.9068010075569,-0.4738651593729975,0.44065031175339486,-0.5963521939280927,1348.7179487179487,-1.0,101.72711750400994,0.6170407770527179,
2023-08-08 18:29:02.594000,-7.879518072289157,-1.3734939759036144,-5.783132530120482,-1.3439607602697732,-7.654812998160637,-5.50337216431637,3.0,0.6169386169386168,1620.9068010075569,-0.6844589476137751,0.1443971796515358,-0.713361692209079,1347.985347985348,-1.0,101.72711750400994,0.617037486425403,
2023-08-08 18:29:02.602000,-7.855421686746988,-1.3975903614457832,-5.746987951807229,-1.3439607602697732,-7.686695278969957,-5.545064377682404,3.0,0.6169386169386168,1620.9068010075569,-1.3185711788357317,0.41454460695763545,-0.3291183497465187,1347.2527472527472,-1.0,101.72711750400994,0.6170342249331723,
2023-08-08 18:29:02.609000,-7.855421686746988,-1.3975903614457832,-5.746987951807229,-1.331698344573881,-7.6817903126916,-5.461679950950337,3.0,0.6169386169386168,1620.9068010075569,-1.046792144979897,0.5448400442864623,-0.9685915739176033,1349.4505494505493,-1.0,101.72711750400994,0.6170309928141104,
2023-08-08 18:29:02.617000,-7.867469879518072,-1.3614457831325302,-5.746987951807229,-1.331698344573881,-7.671980380134886,-5.464132434089516,3.0,0.6164946164946166,1622.0741807706158,-1.4183322650195205,0.7071848959850816,-0.6732707884155932,1358.974358974359,-1.0,101.72711750400994,0.6170277902770853,
2023-08-08 18:29:02.625000,-7.867469879518072,-1.385542168674699,-5.746987951807229,-1.3120784794604536,-7.725935009196811,-5.449417535254445,3.0,0.6169386169386168,1620.9068010075569,-1.4529456325388965,0.7158091020336792,-0.8373637899889281,1374.3589743589744,-1.0,101.72711750400994,0.6170246173536278,
2023-08-08 18:29:02.632000,-7.891566265060241,-1.385542168674699,-5.746987951807229,-1.3267933782955241,-7.706315144083384,-5.454322501532801,3.0,0.6169386169386168,1620.9068010075569,-2.0062933395489773,0.5097605034671628,-0.845987996037527,1393.4065934065934,-1.0,101.72711750400994,0.6170214740266439,
2023-08-08 18:29:02.640000,-7.903614457831326,-1.385542168674699,-5.759036144578314,-1.3881054567749846,-7.748007357449417,-5.45677498467198,3.0,0.6164946164946166,1622.0741807706158,-1.806654623856419,0.4457782180525621,-0.35056232154303385,1416.117216117216,-1.0,101.72711750400994,0.6170183603907555,
2023-08-08 18:29:02.648000,-7.891566265060241,-1.385542168674699,-5.72289156626506,-1.3169834457388105,-7.782342121397915,-5.464132434089516,3.0,0.6164946164946166,1622.0741807706158,-1.7785676825359837,0.19789056581784217,-0.7182565118582832,1436.6300366300366,-1.0,101.72711750400994,0.6170152763655969,
2023-08-08 18:29:02.655000,-7.91566265060241,-1.3734939759036144,-5.686746987951808,-1.3366033108522377,-7.76026977314531,-5.388105456774984,3.0,0.6164946164946166,1622.0741807706158,-1.54990967892314,0.04382029019287956,-0.7597459355515412,1454.9450549450548,-1.0,101.72711750400994,0.6170122216753867,
2023-08-08 18:29:02.663000,-7.891566265060241,-1.3734939759036144,-5.686746987951808,-1.3586756591048437,-7.733292458614347,-5.42489270386266,3.0,0.6169386169386168,1620.9068010075569,-1.5665753743954307,-0.14160013985199055,-0.7860847269972615,1473.260073260073,-1.0,101.72711750400994,0.6170091959875619,
2023-08-08 18:29:02.671000,-7.903614457831326,-1.3614457831325302,-5.674698795180723,-1.3513182096873084,-7.716125076640098,-5.417535254445125,3.0,0.6169386169386168,1620.9068010075569,-0.9105529980770353,-0.3589534409416706,-0.6580036128430741,1495.970695970696,-1.0,101.72711750400994,0.6170061990618768,
2023-08-08 18:29:02.678000,-7.891566265060241,-1.349397590361446,-5.674698795180723,-1.2703862660944205,-7.74310239117106,-5.380748007357449,3.0,0.6164946164946166,1622.0741807706158,-1.0065846978614303,-0.3300506963463676,-0.6827107977390595,1520.14652014652,-1.0,101.72711750400994,0.6170032307720273,
2023-08-08 18:29:02.686000,-7.891566265060241,-1.3734939759036144,-5.686746987951808,-1.3341508277130594,-7.728387492335989,-5.375843041079093,3.0,0.6173826173826173,1619.7411003236248,-0.9946972787133607,-0.33249810617096864,-0.6765340015150635,1543.5897435897434,-1.0,101.72711750400994,0.6170002908189747,
2023-08-08 18:29:02.694000,-7.91566265060241,-1.3373493975903614,-5.686746987951808,-1.3071735131820967,-7.745554874310239,-5.378295524218271,3.0,0.6160506160506161,1623.2432432432433,-0.8774546937824135,-0.3482314550434128,-0.3787658061884505,1561.1721611721612,-1.0,101.72711750400994,0.6169973790091692,
2023-08-08 18:29:02.701000,-7.91566265060241,-1.3373493975903614,-5.686746987951808,-1.2679337829552422,-7.703862660944206,-5.459227467811158,3.0,0.6160506160506161,1623.2432432432433,-1.0370025056814876,-0.02540644484587095,-0.34426898199405653,1561.1721611721612,-1.0,101.72711750400994,0.6169944951278672,
2023-08-08 18:29:02.709000,-7.903614457831326,-1.3373493975903614,-5.686746987951808,-1.2434089515634579,-7.689147762109135,-5.42489270386266,3.0,0.6164946164946166,1622.0741807706158,-0.20243575549210346,-0.1523221257502483,-0.2968358487267641,1580.9523809523807,-1.0,101.72711750400994,0.6169916384401593,
2023-08-08 18:29:02.716000,-7.903614457831326,-1.3253012048192772,-5.674698795180723,-1.2949110974862048,-7.755364806866952,-5.385652973635806,3.0,0.6164946164946166,1622.0741807706158,0.04615115669249976,-0.1826233902453231,0.030650894470019438,1586.8131868131868,-1.0,101.72711750400994,0.6169888081274408,
2023-08-08 18:29:02.724000,-7.867469879518072,-1.349397590361446,-5.686746987951808,-1.2949110974862048,-7.755364806866952,-5.3635806253832,3.0,0.6164946164946166,1622.0741807706158,-0.4577821805256108,-0.6526426198939443,0.17271720762193377,1591.2087912087911,-1.0,101.72711750400994,0.6169860034566921,
2023-08-08 18:29:02.732000,-7.891566265060241,-1.3373493975903614,-5.698795180722892,-1.2998160637645615,-7.6989576946658485,-5.407725321888412,3.0,0.6169386169386168,1620.9068010075569,-0.07400501136297521,-0.265136064331915,0.2499854320843776,1591.9413919413919,-1.0,101.72711750400994,0.6169832236413091,
2023-08-08 18:29:02.739000,-7.903614457831326,-1.349397590361446,-5.72289156626506,-1.3292458614347025,-7.728387492335989,-5.446965052115266,3.0,0.6169386169386168,1620.9068010075569,0.06526426198939513,-0.36850999359011655,0.3123361109492453,1588.278388278388,-1.0,101.72711750400994,0.6169804679899606,
2023-08-08 18:29:02.747000,-7.91566265060241,-1.3373493975903614,-5.72289156626506,-1.3218884120171672,-7.804414469650521,-5.356223175965665,3.0,0.6169386169386168,1620.9068010075569,0.1545364489248877,0.3372763824951916,0.20325155876697193,1580.9523809523807,-1.0,101.72711750400994,0.6169777359280236,
2023-08-08 18:29:02.755000,-7.891566265060241,-1.349397590361446,-5.72289156626506,-1.3243408951563458,-7.75781729000613,-5.449417535254445,3.0,0.6169386169386168,1620.9068010075569,0.2288910902628054,0.21607132451488736,0.34170502884447296,1567.7655677655678,-1.0,101.72711750400994,0.6169750268601001,
2023-08-08 18:29:02.762000,-7.903614457831326,-1.3373493975903614,-5.710843373493976,-1.3292458614347025,-7.676885346413243,-5.510729613733905,3.0,0.6169386169386168,1620.9068010075569,0.23984616281102486,-0.1030242992832573,0.6153487559000059,1552.3809523809523,-1.0,101.72711750400994,0.6169723401715019,
2023-08-08 18:29:02.770000,-7.879518072289157,-1.3734939759036144,-5.771084337349398,-1.3169834457388105,-7.6400980993255665,-5.400367872470876,3.0,0.6169386169386168,1620.9068010075569,-0.14649495950119434,-0.5711788357321851,0.6770001748149873,1538.4615384615383,-1.0,101.72711750400994,0.6169696752299465,
2023-08-08 18:29:02.778000,-7.903614457831326,-1.3614457831325302,-5.771084337349398,-1.2998160637645615,-7.645003065603923,-5.473942366646229,3.0,0.6164946164946166,1622.0741807706158,0.09474972320960229,-0.7759454577239105,0.5705961191072784,1522.3443223443223,-1.0,101.72711750400994,0.6169670313874981,
2023-08-08 18:29:02.785000,-7.903614457831326,-1.349397590361446,-5.771084337349398,-1.2777437155119558,-7.708767627222563,-5.405272838749234,3.0,0.6169386169386168,1620.9068010075569,0.13530680030301323,-1.0587961074529457,0.6141833226501954,1508.4249084249084,-1.0,101.72711750400994,0.6169644078334385,
2023-08-08 18:29:02.793000,-7.867469879518072,-1.3253012048192772,-5.771084337349398,-1.3047210300429184,-7.6621704475781724,-5.510729613733905,3.0,0.6164946164946166,1622.0741807706158,0.18961598974418717,-1.0972554046966962,0.5965852805780553,1495.2380952380952,-1.0,101.72711750400994,0.6169618037240893,
2023-08-08 18:29:02.801000,-7.855421686746988,-1.3373493975903614,-5.759036144578314,-1.285101164929491,-7.657265481299816,-5.469037400367872,3.0,0.6169386169386168,1620.9068010075569,0.39951051803507975,-1.42905425091778,0.34834799836839364,1485.7142857142856,-1.0,101.72711750400994,0.6169592181950971,
2023-08-08 18:29:02.808000,-7.867469879518072,-1.3012048192771084,-5.759036144578314,-1.2458614347026364,-7.667075413856529,-5.498467198038013,3.0,0.6169386169386168,1620.9068010075569,0.6285181516228661,-1.6733290600780852,0.14987471592564555,1478.3882783882782,-1.0,101.72711750400994,0.6169566503527936,
2023-08-08 18:29:02.816000,-7.867469879518072,-1.3253012048192772,-5.771084337349398,-1.2777437155119558,-7.63519313304721,-5.510729613733905,3.0,0.6164946164946166,1622.0741807706158,0.445312044752637,-1.9328710448109097,0.21094341821572188,1471.7948717948716,628.11279296875,95.52424448547275,0.6169540994360634,
2023-08-08 18:29:02.824000,-7.891566265060241,-1.3012048192771084,-5.746987951807229,-1.2654812998160636,-7.62047823421214,-5.469037400367872,3.0,0.6169386169386168,1620.9068010075569,0.2773731134549271,-2.4366878387040396,0.1956762426432028,1464.4688644688645,-1.0,95.52424448547275,0.6169515645312862,
2023-08-08 18:29:02.831000,-7.891566265060241,-1.313253012048193,-5.72289156626506,-1.2703862660944205,-7.691600245248313,-5.432250153280196,3.0,0.6169386169386168,1620.9068010075569,0.3842433424625607,-2.6198939455742685,-0.2623390245323697,1460.07326007326,-1.0,95.52424448547275,0.6169490447029763,
2023-08-08 18:29:02.839000,-7.879518072289157,-1.3253012048192772,-5.734939759036145,-1.2237890864500305,-7.767627222562845,-5.486204782342121,3.0,0.6164946164946166,1622.0741807706158,0.15523570887477445,-2.604626770001749,-0.2776062001048888,1455.6776556776556,-1.0,95.52424448547275,0.6169465391561791,
2023-08-08 18:29:02.847000,-7.903614457831326,-1.3253012048192772,-5.72289156626506,-1.2998160637645615,-7.725935009196811,-5.434702636419375,3.0,0.6160506160506161,1623.2432432432433,0.3842433424625607,-2.726764174581902,-0.5982168871277895,1446.8864468864467,-1.0,95.52424448547275,0.6169440469519261,
2023-08-08 18:29:02.854000,-7.903614457831326,-1.349397590361446,-5.759036144578314,-1.3071735131820967,-7.701410177805027,-5.439607602697731,3.0,0.6164946164946166,1622.0741807706158,-0.5165200163160653,-2.7878328768719784,-0.8882932230056522,1440.2930402930401,-1.0,95.52424448547275,0.6169415669785397,
2023-08-08 18:29:02.862000,-7.91566265060241,-1.349397590361446,-5.746987951807229,-1.3096259963212753,-7.703862660944206,-5.434702636419375,3.0,0.6164946164946166,1622.0741807706158,-0.4249169628809507,-2.848901579162055,-1.040964978730843,1434.4322344322343,-1.0,95.52424448547275,0.6169390981996727,
2023-08-08 18:29:02.870000,-7.927710843373494,-1.3373493975903614,-5.710843373493976,-1.3513182096873084,-7.748007357449417,-5.42489270386266,3.0,0.6169386169386168,1620.9068010075569,-0.40964978730843166,-3.062642037177322,-0.9340947497232094,1428.5714285714284,-1.0,95.52424448547275,0.6169366395287749,
2023-08-08 18:29:02.877000,-7.927710843373494,-1.3373493975903614,-5.698795180722892,-1.361128142244022,-7.806866952789699,-5.405272838749234,3.0,0.6164946164946166,1622.0741807706158,-0.7302604743313323,-2.940504632597169,-1.1631023833109957,1423.4432234432234,-1.0,95.52424448547275,0.6169341898632191,
2023-08-08 18:29:02.885000,-7.927710843373494,-1.3373493975903614,-5.686746987951808,-1.290006131207848,-7.765174739423666,-5.368485591661557,3.0,0.6169386169386168,1620.9068010075569,-0.2569780315832408,-3.09317638832236,-0.8730260474331331,1419.047619047619,-1.0,95.52424448547275,0.6169317481078971,
2023-08-08 18:29:02.893000,-7.9397590361445785,-1.349397590361446,-5.674698795180723,-1.3513182096873084,-7.745554874310239,-5.380748007357449,3.0,0.6169386169386168,1620.9068010075569,-0.4554513140259889,-3.413787075345261,-0.9035603985781712,1417.5824175824175,-1.0,95.52424448547275,0.6169293131673131,
2023-08-08 18:29:02.900000,-7.9397590361445785,-1.3373493975903614,-5.626506024096386,-1.3071735131820967,-7.76026977314531,-5.3586756591048434,3.0,0.6164946164946166,1622.0741807706158,-0.05850474914049272,-3.3679855486277037,-0.8272245207155758,1421.245421245421,-1.0,95.52424448547275,0.6169268842468999,
2023-08-08 18:29:02.908000,-7.9397590361445785,-1.349397590361446,-5.63855421686747,-1.356223175965665,-7.792152053954629,-5.341508277130594,3.0,0.6164946164946166,1622.0741807706158,-0.19590932929316449,-3.5969931822154897,-0.674552764990385,1425.6410256410256,-1.0,95.52424448547275,0.6169244604094809,
2023-08-08 18:29:02.916000,-7.927710843373494,-1.3373493975903614,-5.63855421686747,-1.3709380748007356,-7.770079705702023,-5.380748007357449,3.0,0.6164946164946166,1622.0741807706158,-0.08903910028553089,-3.673329060078085,-0.4302779558300796,1430.03663003663,-1.0,95.52424448547275,0.6169220404296155,
2023-08-08 18:29:02.923000,-7.9397590361445785,-1.349397590361446,-5.602409638554217,-1.2949110974862048,-7.809319435928877,-5.294911097486205,3.0,0.6169386169386168,1620.9068010075569,-0.11957345143056906,-3.276382495192589,-0.4760794825476369,1435.8974358974358,-1.0,95.52424448547275,0.6169196230837742,
2023-08-08 18:29:02.931000,-7.927710843373494,-1.3614457831325302,-5.63855421686747,-1.3390557939914163,-7.811771919068056,-5.339055793991416,3.0,0.6164946164946166,1622.0741807706158,0.26210593788240805,-3.230580968475032,-0.6592855894178659,1437.3626373626373,-1.0,95.52424448547275,0.6169172073017515,
2023-08-08 18:29:02.939000,-7.975903614457832,-1.349397590361446,-5.650602409638554,-1.2875536480686696,-7.765174739423666,-5.339055793991416,3.0,0.6164946164946166,1622.0741807706158,0.10943418215721719,-3.0473748616048026,-0.4760794825476369,1435.8974358974358,-1.0,95.52424448547275,0.616914792180106,
2023-08-08 18:29:02.946000,-7.9397590361445785,-1.349397590361446,-5.614457831325302,-1.2752912323727774,-7.755364806866952,-5.309625996321275,3.0,0.6169386169386168,1620.9068010075569,0.26210593788240805,-2.9557718081696884,-0.4302779558300796,1438.095238095238,-1.0,95.52424448547275,0.6169123766661807,
2023-08-08 18:29:02.954000,-7.951807228915663,-1.349397590361446,-5.590361445783133,-1.3071735131820967,-7.799509503372164,-5.275291232372777,3.0,0.6164946164946166,1622.0741807706158,0.23157158673736986,-2.8183672280170167,-0.7203542917079422,1435.8974358974358,-1.0,95.52424448547275,0.6169099597207858,
2023-08-08 18:29:02.962000,-7.951807228915663,-1.349397590361446,-5.566265060240964,-1.3243408951563458,-7.782342121397915,-5.2630288166768855,3.0,0.6164946164946166,1622.0741807706158,0.23157158673736986,-2.8183672280170167,-0.7203542917079422,1434.4322344322343,-1.0,95.52424448547275,0.6169075404808468,
2023-08-08 18:29:02.969000,-7.975903614457832,-1.3614457831325302,-5.578313253012048,-1.2679337829552422,-7.816676885346413,-5.30226854690374,3.0,0.6164946164946166,1622.0741807706158,0.4300448691801179,-2.528290892139154,-0.6287512382728278,1435.164835164835,-1.0,95.52424448547275,0.6169051180820746,
2023-08-08 18:29:02.977000,-7.975903614457832,-1.3614457831325302,-5.578313253012048,-1.366033108522379,-7.801961986511342,-5.22378908645003,3.0,0.6164946164946166,1622.0741807706158,0.26210593788240805,-2.1924130295437343,-0.7508886428529804,1437.3626373626373,-1.0,95.52424448547275,0.6169026915130977,
2023-08-08 18:29:02.985000,-7.975903614457832,-1.3734939759036144,-5.566265060240964,-1.3120784794604536,-7.77498467198038,-5.267933782955242,3.0,0.6164946164946166,1622.0741807706158,0.0941670065846981,-2.177145853971215,-0.7203542917079422,1440.2930402930401,-1.0,95.52424448547275,0.6169002596390262,
2023-08-08 18:29:02.992000,-7.987951807228916,-1.3734939759036144,-5.578313253012048,-1.3635806253832004,-7.801961986511342,-5.2998160637645615,3.0,0.6164946164946166,1622.0741807706158,0.03309830429462177,-1.8565351669483143,-0.7203542917079422,1443.2234432234432,-1.0,95.52424448547275,0.616897821352369,
2023-08-08 18:29:03,-8.012048192771084,-1.385542168674699,-5.55421686746988,-1.3488657265481299,-7.814224402207234,-5.258123850398528,3.0,0.6160506160506161,1623.2432432432433,0.017831128722102692,-1.9023366936658714,-0.5982168871277895,1443.956043956044,-1.0,95.52424448547275,0.6168953755746001,
2023-08-08 18:29:03.008000,-8.012048192771084,-1.385542168674699,-5.566265060240964,-1.3120784794604536,-7.733292458614347,-5.260576333537706,3.0,0.6164946164946166,1622.0741807706158,0.03309830429462177,-1.3679855486277035,-0.7814229939980185,1442.4908424908424,-1.0,95.52424448547275,0.6168929212471164,
2023-08-08 18:29:03.015000,-8.012048192771084,-1.3734939759036144,-5.578313253012048,-1.3243408951563458,-7.841201716738197,-5.243408951563458,3.0,0.6164946164946166,1622.0741807706158,0.2010372355923317,-1.2458481440475508,-0.29287337567740784,1440.2930402930401,-1.0,95.52424448547275,0.6168904574397268,
2023-08-08 18:29:03.023000,-7.987951807228916,-1.385542168674699,-5.590361445783133,-1.3047210300429184,-7.782342121397915,-5.285101164929491,3.0,0.6164946164946166,1622.0741807706158,0.5216479226152324,-1.3679855486277035,-0.14020161995221703,1436.6300366300366,-1.0,95.52424448547275,0.6168879833629742,
2023-08-08 18:29:03.031000,-8.012048192771084,-1.3975903614457832,-5.578313253012048,-1.407725321888412,-7.816676885346413,-5.2998160637645615,3.0,0.6169386169386168,1620.9068010075569,0.2926402890274462,-1.1237107394673982,0.027737311345492885,1429.3040293040292,-1.0,95.52424448547275,0.6168854980928844,
2023-08-08 18:29:03.038000,-8.0,-1.3975903614457832,-5.578313253012048,-1.3218884120171672,-7.809319435928877,-5.260576333537706,3.0,0.6164946164946166,1622.0741807706158,0.13996853330225537,-1.26111531962007,-0.1554687955247361,1424.9084249084249,-1.0,95.52424448547275,0.6168830008813754,
2023-08-08 18:29:03.046000,-7.987951807228916,-1.4096385542168675,-5.578313253012048,-1.3096259963212753,-7.811771919068056,-5.3145309625996315,3.0,0.6169386169386168,1620.9068010075569,-0.10430627585804997,-1.3679855486277035,0.10407318920808831,1418.3150183150183,-1.0,95.52424448547275,0.61688049101945,
2023-08-08 18:29:03.054000,-7.975903614457832,-1.4096385542168675,-5.578313253012048,-1.3635806253832004,-7.801961986511342,-5.2777437155119555,3.0,0.6164946164946166,1622.0741807706158,0.17050288444729353,-0.8489015791620548,0.18040906707068372,1414.6520146520145,-1.0,95.52424448547275,0.6168779677003422,
2023-08-08 18:29:03.061000,-7.963855421686747,-1.4337349397590362,-5.590361445783133,-1.3635806253832004,-7.765174739423666,-5.285101164929491,3.0,0.6164946164946166,1622.0741807706158,0.15523570887477445,-0.9405046325971692,0.05827166249053105,1408.7912087912086,-1.0,95.52424448547275,0.6168754301804954,
2023-08-08 18:29:03.069000,-7.9397590361445785,-1.3975903614457832,-5.578313253012048,-1.4420600858369097,-7.811771919068056,-5.294911097486205,3.0,0.6164946164946166,1622.0741807706158,-0.2722452071557599,-0.10080997610861968,0.1956762426432028,1404.3956043956043,-1.0,95.52424448547275,0.6168728776209489,
2023-08-08 18:29:03.077000,-7.9397590361445785,-1.4096385542168675,-5.566265060240964,-1.3635806253832004,-7.733292458614347,-5.282648681790312,3.0,0.6164946164946166,1622.0741807706158,-0.11957345143056906,0.14346483305168567,0.18040906707068372,1400.0,-1.0,95.52424448547275,0.6168703092265628,
2023-08-08 18:29:03.084000,-7.951807228915663,-1.385542168674699,-5.566265060240964,-1.3464132434089515,-7.772532188841201,-5.287553648068669,3.0,0.6169386169386168,1620.9068010075569,0.10943418215721719,0.09766330633412841,0.11934036478060739,1394.8717948717947,-1.0,95.52424448547275,0.6168677242464665,
2023-08-08 18:29:03.092000,-7.927710843373494,-1.3975903614457832,-5.602409638554217,-1.3267933782955241,-7.770079705702023,-5.290006131207847,3.0,0.6164946164946166,1622.0741807706158,0.12470135772973627,0.32667093992191465,0.4246838762309891,1390.4761904761904,-1.0,95.52424448547275,0.6168651221237829,
2023-08-08 18:29:03.099000,-7.951807228915663,-1.3975903614457832,-5.55421686746988,-1.407725321888412,-7.83629675045984,-5.258123850398528,3.0,0.6164946164946166,1622.0741807706158,0.21630441116485077,0.6320144513722963,0.14987471592564555,1386.080586080586,-1.0,95.52424448547275,0.6168625025073601,
2023-08-08 18:29:03.107000,-7.951807228915663,-1.4096385542168675,-5.602409638554217,-1.4052728387492335,-7.752912323727774,-5.248313917841815,3.0,0.6169386169386168,1620.9068010075569,-0.19590932929316449,0.6167472757997773,-0.09440009323465978,1379.4871794871794,-1.0,95.52424448547275,0.6168598649340935,
2023-08-08 18:29:03.115000,-7.9397590361445785,-1.385542168674699,-5.602409638554217,-1.331698344573881,-7.816676885346413,-5.3071735131820965,3.0,0.6164946164946166,1622.0741807706158,-0.19590932929316449,1.105296894120388,-0.0791329176621407,1375.8241758241757,-1.0,95.52424448547275,0.6168572089899147,
