Shimmer_F5D4_Timestamp_FormattedUnix_CAL,Shimmer_F5D4_Accel_LN_X_CAL,Shimmer_F5D4_Accel_LN_Y_CAL,Shimmer_F5D4_Accel_LN_Z_CAL,Shimmer_F5D4_Accel_WR_X_CAL,Shimmer_F5D4_Accel_WR_Y_CAL,Shimmer_F5D4_Accel_WR_Z_CAL,Shimmer_F5D4_GSR_Range_CAL,Shimmer_F5D4_GSR_Skin_Conductance_CAL,Shimmer_F5D4_GSR_Skin_Resistance_CAL,Shimmer_F5D4_Gyro_X_CAL,Shimmer_F5D4_Gyro_Y_CAL,Shimmer_F5D4_Gyro_Z_CAL,Shimmer_F5D4_PPG_A13_CAL,Shimmer_F5D4_PPG_IBI_CAL,Shimmer_F5D4_PPGtoHR_CAL,Shimmer_F5D4_GSR_Skin_Conductance_LPF_CAL,
yyyy/mm/dd hh:mm:ss.000,m/(s^2),m/(s^2),m/(s^2),m/(s^2),m/(s^2),m/(s^2),no_units,uS,kOhms,deg/s,deg/s,deg/s,mV,ms,BPM,uS,
2023-08-09 09:36:15.387000,9.10843373493976,0.04819277108433735,-3.855421686746988,0.18148375229920294,9.716125076640097,-3.180870631514408,2.0,3.6315018315018324,275.3681662295743,-0.055707709340947445,0.17364955422178133,0.05500844939106112,1438.8278388278388,-1.0,80.75245410112129,3.681320019871186,
2023-08-09 09:36:15.394000,9.096385542168676,0.04819277108433735,-3.8192771084337354,0.18638871857755976,9.740649908031882,-3.1661557326793375,2.0,3.6315018315018324,275.3681662295743,0.34275391876930306,-0.16141250509877092,-0.3711904900646814,1430.7692307692307,-1.0,80.75245410112129,3.680765226877317,
2023-08-09 09:36:15.402000,9.120481927710843,0.04819277108433735,-3.807228915662651,0.20600858369098712,9.782342121397916,-3.185775597792765,2.0,3.6315018315018324,275.3681662295743,0.01829730202202604,-0.26758347415651773,-0.04894819649204591,1419.047619047619,-1.0,80.75245410112129,3.6802118329711937,
2023-08-09 09:36:15.410000,9.144578313253012,0.060240963855421686,-3.843373493975904,0.18638871857755976,9.7725321888412,-3.1906805640711218,2.0,3.6315018315018324,275.3681662295743,0.01654915214731002,-0.3865742089621809,0.2580269215080705,1401.4652014652013,-1.0,80.75245410112129,3.679659823073082,
2023-08-09 09:36:15.417000,9.132530120481928,0.07228915662650603,-3.855421686746988,0.1765787860208461,9.760269773145309,-3.2176578786020844,2.0,3.63003663003663,275.47931382441976,-0.13775421012761427,-0.6703572052910661,0.05815511916554978,1381.6849816849815,-1.0,80.75245410112129,3.6791091827186038,
2023-08-09 09:36:15.425000,9.120481927710843,0.07228915662650603,-3.879518072289157,0.24034334763948498,9.740649908031882,-3.2691600245248313,2.0,3.63003663003663,275.47931382441976,-0.15092360585047482,-0.26583532428180173,-0.18565351669483135,1359.7069597069597,-1.0,80.75245410112129,3.6785598971922804,
2023-08-09 09:36:15.432000,9.132530120481928,0.0963855421686747,-3.855421686746988,0.17167381974248927,9.774984671980379,-3.1833231146535867,2.0,3.63003663003663,275.47931382441976,-0.17761202727113842,-0.41699201678223824,0.013635569022784335,1336.263736263736,-1.0,80.75245410112129,3.6780119520304297,
2023-08-09 09:36:15.440000,9.132530120481928,0.07228915662650603,-3.8674698795180724,0.2575107296137339,9.814224402207234,-3.2004904966278356,2.0,3.63003663003663,275.47931382441976,-0.06876056173882716,-0.01678223879727343,-0.2313385000874073,1315.018315018315,-1.0,80.75245410112129,3.6774653335221363,
2023-08-09 09:36:15.448000,9.144578313253012,0.0963855421686747,-3.8192771084337354,0.2599632127529123,9.78969957081545,-3.2127529123237277,2.0,3.63003663003663,275.47931382441976,0.055241536041024095,0.025056814870928437,-0.09206922673503871,1294.5054945054944,-1.0,80.75245410112129,3.676920028787549,
2023-08-09 09:36:15.455000,9.120481927710843,0.0963855421686747,-3.855421686746988,0.22808093194359289,9.809319435928877,-3.202942979767014,2.0,3.628571428571429,275.59055118110234,-0.2785385467047372,-0.055824252665928276,-0.32049414369791945,1274.7252747252746,-1.0,80.75245410112129,3.6763760262798053,
2023-08-09 09:36:15.463000,9.144578313253012,0.08433734939759037,-3.807228915662651,0.27467811158798283,9.794604537093807,-3.1489883507050886,2.0,3.628571428571429,275.59055118110234,-0.19754093584289967,-0.21245848144047624,-0.18075869704562667,1255.6776556776556,-1.0,80.75245410112129,3.6758333148465816,
2023-08-09 09:36:15.471000,9.120481927710843,0.07228915662650603,-3.8313253012048194,0.2550582464745555,9.774984671980379,-3.185775597792765,2.0,3.628571428571429,275.59055118110234,0.11234776528174331,0.09591515645941413,-0.6972787133616923,1238.095238095238,-1.0,80.75245410112129,3.675291883739854,
2023-08-09 09:36:15.478000,9.120481927710843,0.08433734939759037,-3.843373493975904,0.27467811158798283,9.797057020232986,-3.2421827099938687,2.0,3.6256410256410256,275.8132956152758,0.14136705320202714,-0.05605733931588995,-0.339607248994814,1220.5128205128203,-1.0,80.75245410112129,3.6747517231156595,
2023-08-09 09:36:15.486000,9.144578313253012,0.0963855421686747,-3.807228915662651,0.24034334763948498,9.691600245248313,-3.2078479460453706,2.0,3.6256410256410256,275.8132956152758,-0.08868947031058838,0.12703222422935648,-0.07726822446244384,1206.5934065934066,-1.0,80.75245410112129,3.6742128235830025,
2023-08-09 09:36:15.494000,9.096385542168676,0.10843373493975904,-3.8313253012048194,0.27467811158798283,9.708767627222562,-3.2421827099938687,2.0,3.6271062271062275,275.7018784084023,-0.0587378357904544,-0.30044869180117784,0.13507371365305068,1194.1391941391942,-1.0,80.75245410112129,3.6736751760335817,
2023-08-09 09:36:15.501000,9.084337349397591,0.12048192771084337,-3.855421686746988,0.27713059472716123,9.694052728387492,-3.2201103617412628,2.0,3.6256410256410256,275.8132956152758,-0.1029077559582782,-0.17271720762193288,-0.111648505331857,1183.150183150183,-1.0,80.75245410112129,3.6731387721687145,
2023-08-09 09:36:15.509000,9.096385542168676,0.1566265060240964,-3.855421686746988,0.22808093194359289,9.774984671980379,-3.232372777437155,2.0,3.6256410256410256,275.8132956152758,-0.23891381621117644,-0.5050987704679207,-0.1743488141716685,1172.8937728937728,-1.0,80.75245410112129,3.6726036041783363,
2023-08-09 09:36:15.517000,9.156626506024097,0.12048192771084337,-3.855421686746988,0.2844880441446965,9.811771919068056,-3.163703249540159,2.0,3.6256410256410256,275.8132956152758,-0.008973836023541765,-0.5905250276790405,-0.0226094050463261,1161.904761904762,-1.0,80.75245410112129,3.672069664312053,
2023-08-09 09:36:15.524000,9.144578313253012,0.14457831325301207,-3.855421686746988,0.25260576333537704,9.738197424892704,-3.244635193133047,2.0,3.6256410256410256,275.8132956152758,-0.1313443272536561,-0.3438028086941323,-0.18973253306916843,1153.8461538461538,-1.0,80.75245410112129,3.671536945887474,
2023-08-09 09:36:15.532000,9.156626506024097,0.13253012048192772,-3.8674698795180724,0.25260576333537704,9.792152053954629,-3.1980380134886572,2.0,3.6241758241758237,275.9248029108551,0.06782821513897873,0.006526426198938992,-0.14497989627644087,1147.985347985348,-1.0,80.75245410112129,3.671005443312473,
2023-08-09 09:36:15.540000,9.120481927710843,0.12048192771084337,-3.8674698795180724,0.2844880441446965,9.801961986511342,-3.264255058246474,2.0,3.6241758241758237,275.9248029108551,-0.3424042887943588,-0.6042771400268052,0.1931122894936192,1145.054945054945,-1.0,80.75245410112129,3.670475151648798,
2023-08-09 09:36:15.547000,9.120481927710843,0.13253012048192772,-3.8674698795180724,0.3041079092581238,9.782342121397916,-3.2372777437155116,2.0,3.6241758241758237,275.9248029108551,-0.21793601771458596,-0.40020977798496654,-0.16129596177378921,1145.054945054945,-1.0,80.75245410112129,3.6699460665607955,
2023-08-09 09:36:15.555000,9.120481927710843,0.13253012048192772,-3.8674698795180724,0.26486817903126914,9.730839975475169,-3.2421827099938687,2.0,3.6241758241758237,275.9248029108551,-0.21385700134024802,-0.39857817143523133,-0.16176213507371343,1147.985347985348,-1.0,80.75245410112129,3.669418184822934,
2023-08-09 09:36:15.563000,9.120481927710843,0.12048192771084337,-3.891566265060241,0.26486817903126914,9.801961986511342,-3.2495401594114037,2.0,3.6227106227106227,276.03640040444895,0.14136705320202714,-0.0882232970106633,-0.3297010663714234,1153.8461538461538,-1.0,80.75245410112129,3.668891504333646,
2023-08-09 09:36:15.570000,9.132530120481928,0.12048192771084337,-3.855421686746988,0.27713059472716123,9.755364806866952,-3.2372777437155116,2.0,3.6227106227106227,276.03640040444895,-0.14614532952625184,0.022609405046325665,-0.2369325796864983,1161.1721611721612,-1.0,80.75245410112129,3.6683660236703868,
2023-08-09 09:36:15.578000,9.120481927710843,0.14457831325301207,-3.891566265060241,0.2820355610055181,9.809319435928877,-3.261802575107296,2.0,3.6227106227106227,276.03640040444895,0.024124468271080012,-0.03845929724375067,-0.5574267233844182,1169.230769230769,-1.0,80.75245410112129,3.6678417420296525,
2023-08-09 09:36:15.586000,9.120481927710843,0.12048192771084337,-3.879518072289157,0.23053341508277128,9.718577559779275,-3.2470876762722254,2.0,3.6227106227106227,276.03640040444895,0.040440533768428356,0.023774838296135765,-0.2635044577821807,1179.4871794871794,-1.0,80.75245410112129,3.6673186597256042,
2023-08-09 09:36:15.593000,9.096385542168676,0.12048192771084337,-3.8313253012048194,0.2869405272838749,9.740649908031882,-3.2103004291845494,2.0,3.6227106227106227,276.03640040444895,0.07167414486335329,-0.5419264611619362,-0.23098887011246438,1190.4761904761904,-1.0,80.75245410112129,3.666796778194899,
2023-08-09 09:36:15.601000,9.084337349397591,0.13253012048192772,-3.8192771084337354,0.2893930104230533,9.733292458614347,-3.2127529123237277,2.0,3.6227106227106227,276.03640040444895,-0.2019695821921801,-0.20534933861663132,-0.32049414369791945,1202.197802197802,-1.0,80.75245410112129,3.666276100035289,
2023-08-09 09:36:15.609000,9.120481927710843,0.12048192771084337,-3.855421686746988,0.21827099938687922,9.703862660944205,-3.1784181483752296,2.0,3.621245421245421,276.1480882055432,0.03146669774488659,-0.2850649729036762,0.04906473981702675,1213.1868131868132,-1.0,80.75245410112129,3.6657566290085692,
2023-08-09 09:36:15.616000,9.120481927710843,0.12048192771084337,-3.855421686746988,0.22317596566523604,9.755364806866952,-3.2004904966278356,2.0,3.621245421245421,276.1480882055432,0.15069051920051313,0.08181341413670515,0.005244449624147621,1224.1758241758241,-1.0,80.75245410112129,3.6652383695849093,
2023-08-09 09:36:15.624000,9.096385542168676,0.10843373493975904,-3.843373493975904,0.2575107296137339,9.784794604537094,-3.2765174739423664,2.0,3.621245421245421,276.1480882055432,-0.034613367519376124,0.17236757764699037,0.08414428063632665,1236.6300366300366,-1.0,80.75245410112129,3.66472132687228,
2023-08-09 09:36:15.632000,9.096385542168676,0.10843373493975904,-3.8674698795180724,0.17412630288166767,9.69650521152667,-3.2495401594114037,2.0,3.6183150183150175,276.3717351690626,0.13367519375327805,0.3408892255696062,-0.2501019754093584,1247.6190476190475,-1.0,80.75245410112129,3.664205506646786,
2023-08-09 09:36:15.639000,9.096385542168676,0.12048192771084337,-3.8674698795180724,0.2550582464745555,9.716125076640097,-3.251992642550582,2.0,3.61978021978022,276.2598664238009,0.24007924946098655,0.1579162053493389,0.04405337684284123,1255.6776556776556,-1.0,80.75245410112129,3.6636909153449553,
2023-08-09 09:36:15.647000,9.096385542168676,0.10843373493975904,-3.8674698795180724,0.21827099938687922,9.75781729000613,-3.315757204169221,2.0,3.61978021978022,276.2598664238009,0.16176213507371343,0.12703222422935648,-0.2919410290775594,1260.8058608058607,-1.0,80.75245410112129,3.66317756033658,
2023-08-09 09:36:15.655000,9.10843373493976,0.13253012048192772,-3.8674698795180724,0.23053341508277128,9.770079705702022,-3.1906805640711218,2.0,3.61978021978022,276.2598664238009,-0.17458190082162975,-0.3907697686614997,0.07703513781248174,1265.9340659340658,-1.0,80.75245410112129,3.6626654499815063,
2023-08-09 09:36:15.662000,9.144578313253012,0.14457831325301207,-3.843373493975904,0.26486817903126914,9.81912936848559,-3.2765174739423664,2.0,3.61978021978022,276.2598664238009,0.009789639298409356,-0.03484645416933779,0.015733348872443296,1269.5970695970695,-1.0,80.75245410112129,3.6621545932271258,
2023-08-09 09:36:15.670000,9.132530120481928,0.13253012048192772,-3.8674698795180724,0.3408951563458001,9.821581851624769,-3.22501532801962,2.0,3.61978021978022,276.2598664238009,-0.21980071091428283,0.0791329176621407,0.35254355806771154,1273.260073260073,-1.0,80.75245410112129,3.6616449996604654,
2023-08-09 09:36:15.678000,9.156626506024097,0.13253012048192772,-3.879518072289157,0.33108522378908645,9.848559166155733,-3.251992642550582,2.0,3.6183150183150175,276.3717351690626,0.08414428063632708,0.11362974185653599,-0.184954256744945,1276.1904761904761,-1.0,80.75245410112129,3.661136680015394,
2023-08-09 09:36:15.685000,9.144578313253012,0.13253012048192772,-3.855421686746988,0.29429797670141017,9.80441446965052,-3.2103004291845494,2.0,3.6183150183150175,276.3717351690626,0.06479808868947004,0.26268865450731393,-0.045568440067595146,1276.923076923077,-1.0,80.75245410112129,3.6606296461176444,
2023-08-09 09:36:15.693000,9.156626506024097,0.14457831325301207,-3.8313253012048194,0.2722256284488044,9.740649908031882,-3.244635193133047,2.0,3.6183150183150175,276.3717351690626,0.07703513781248217,0.4753802225977501,0.15162286580036113,1275.4578754578754,-1.0,80.75245410112129,3.660123910302261,
2023-08-09 09:36:15.701000,9.144578313253012,0.16867469879518074,-3.8313253012048194,0.2550582464745555,9.797057020232986,-3.2078479460453706,2.0,3.6183150183150175,276.3717351690626,-0.017248412097196776,0.9456325388963347,0.030650894470019438,1271.062271062271,-1.0,80.75245410112129,3.6596194854251842,
2023-08-09 09:36:15.708000,9.120481927710843,0.13253012048192772,-3.843373493975904,0.2893930104230533,9.779889638258737,-3.2397302268546904,2.0,3.6183150183150175,276.3717351690626,0.10325738593322072,0.6177961657246083,0.42759745935551563,1263.7362637362637,-1.0,80.75245410112129,3.659116384906873,
2023-08-09 09:36:15.716000,9.132530120481928,0.10843373493975904,-3.843373493975904,0.3041079092581238,9.846106683016554,-3.2397302268546904,2.0,3.6183150183150175,276.3717351690626,-0.22213157741390302,0.26793310413146026,-0.0012819765747918046,1254.9450549450548,-1.0,80.75245410112129,3.6586146232315846,
2023-08-09 09:36:15.724000,9.168674698795181,0.13253012048192772,-3.8192771084337354,0.3016554261189454,9.799509503372164,-3.2053954629061923,2.0,3.616849816849816,276.483694551347,-0.1468445894761386,0.03997436046850501,0.07493735796282278,1246.153846153846,-1.0,80.75245410112129,3.65811421637763,
2023-08-09 09:36:15.731000,9.156626506024097,0.12048192771084337,-3.8313253012048194,0.29675045984058857,9.81912936848559,-3.1587982832618025,2.0,3.616849816849816,276.483694551347,0.06491463201445088,0.04195559699318271,0.1954431559932407,1241.0256410256409,-1.0,80.75245410112129,3.657615180807446,
2023-08-09 09:36:15.739000,9.168674698795181,0.10843373493975904,-3.8313253012048194,0.24770079705702022,9.824034334763947,-3.1955855303494785,2.0,3.616849816849816,276.483694551347,0.2292407202377479,0.2729444671056466,-0.020861255171610082,1242.4908424908424,-1.0,80.75245410112129,3.657117533406103,
2023-08-09 09:36:15.747000,9.144578313253012,0.0963855421686747,-3.8192771084337354,0.2722256284488044,9.7725321888412,-3.2053954629061923,2.0,3.616849816849816,276.483694551347,0.0427714002680503,0.3502126915680905,0.1786609171959677,1253.4798534798533,-1.0,80.75245410112129,3.6566212919101906,
2023-08-09 09:36:15.754000,9.120481927710843,0.0963855421686747,-3.8192771084337354,0.24279583077866337,9.784794604537094,-3.156345800122624,2.0,3.615384615384615,276.5957446808511,0.16141250509877092,0.12167123128022758,0.05477536274109902,1274.7252747252746,-1.0,80.75245410112129,3.6561264749137505,
2023-08-09 09:36:15.762000,9.10843373493976,0.10843373493975904,-3.843373493975904,0.2722256284488044,9.801961986511342,-3.1661557326793375,2.0,3.615384615384615,276.5957446808511,-0.08787366703572079,0.16572460812307055,-0.32795291649670777,1310.6227106227104,-1.0,80.75245410112129,3.6556331013470396,
2023-08-09 09:36:15.770000,9.10843373493976,0.0963855421686747,-3.855421686746988,0.24034334763948498,9.784794604537094,-3.1538933169834458,2.0,3.615384615384615,276.5957446808511,-0.01281976574791631,0.31816327719829796,-0.5577763533593612,1367.032967032967,-1.0,80.75245410112129,3.655141190410933,
2023-08-09 09:36:15.777000,9.072289156626507,0.08433734939759037,-3.843373493975904,0.25260576333537704,9.721030042918455,-3.202942979767014,2.0,3.615384615384615,276.5957446808511,0.13915273002738776,0.13740458015267176,-0.3265543965969347,1443.2234432234432,-1.0,80.75245410112129,3.6546507620015745,
2023-08-09 09:36:15.785000,9.096385542168676,0.08433734939759037,-3.8313253012048194,0.19374616799509503,9.782342121397916,-3.1759656652360513,2.0,3.612454212454212,276.8201176232002,0.07423809801293689,0.1582658353242814,-0.3415884855194921,1539.9267399267399,-1.0,80.75245410112129,3.6541618362540276,
2023-08-09 09:36:15.793000,9.072289156626507,0.08433734939759037,-3.807228915662651,0.18638871857755976,9.698957694665848,-3.1759656652360513,2.0,3.612454212454212,276.8201176232002,-0.06561389196433763,0.10150923605850469,-0.12691568090437608,1660.07326007326,-1.0,80.75245410112129,3.6536744339647096,
2023-08-09 09:36:15.800000,9.096385542168676,0.08433734939759037,-3.8313253012048194,0.22562844880441446,9.740649908031882,-3.2201103617412628,2.0,3.6139194139194135,276.70788566795056,-0.1843715401200391,-0.28995979255288173,-0.050579803041780655,1799.9999999999998,-1.0,80.75245410112129,3.6531885762776373,
2023-08-09 09:36:15.808000,9.096385542168676,0.0963855421686747,-3.843373493975904,0.24770079705702022,9.745554874310239,-3.1710606989576946,2.0,3.6139194139194135,276.70788566795056,0.014334828972670657,-0.6303828448225629,0.055707709340947445,1950.9157509157508,-1.0,80.75245410112129,3.652704284189806,
2023-08-09 09:36:15.815000,9.120481927710843,0.0963855421686747,-3.807228915662651,0.269773145309626,9.725935009196812,-3.1784181483752296,2.0,3.6139194139194135,276.70788566795056,-0.1681720179476716,-0.5576598100343804,-0.022376318396363993,2106.227106227106,-1.0,80.75245410112129,3.652221579177288,
2023-08-09 09:36:15.823000,9.10843373493976,0.12048192771084337,-3.843373493975904,0.25015328019619865,9.745554874310239,-3.2078479460453706,2.0,3.6139194139194135,276.70788566795056,0.29357263562729463,-0.5932055241536048,0.06887710506380756,2254.945054945055,-1.0,80.75245410112129,3.6517404831892937,
2023-08-09 09:36:15.831000,9.10843373493976,0.0963855421686747,-3.8192771084337354,0.2599632127529123,9.779889638258737,-3.22501532801962,2.0,3.6139194139194135,276.70788566795056,0.29357263562729463,-0.584348231455044,0.0689936483887884,2388.2783882783883,-1.0,80.75245410112129,3.651261018184507,
2023-08-09 09:36:15.838000,9.144578313253012,0.13253012048192772,-3.807228915662651,0.299202942979767,9.81912936848559,-3.2421827099938687,2.0,3.6139194139194135,276.70788566795056,-0.2878620127032232,-0.4542858807761788,-0.05104597634170487,2498.168498168498,-1.0,80.75245410112129,3.6507832066160044,
2023-08-09 09:36:15.846000,9.156626506024097,0.12048192771084337,-3.8192771084337354,0.25260576333537704,9.750459840588595,-3.1833231146535867,2.0,3.612454212454212,276.8201176232002,0.1446302663014975,-0.4024241011596059,-0.08029835091195167,2576.556776556776,-1.0,80.75245410112129,3.6503070713895887,
2023-08-09 09:36:15.854000,9.132530120481928,0.13253012048192772,-3.8313253012048194,0.24034334763948498,9.826486817903126,-3.2004904966278356,2.0,3.612454212454212,276.8201176232002,0.05372647281626975,-0.2619893945574272,0.016549152147310887,2621.978021978022,-1.0,80.75245410112129,3.649832635365206,
2023-08-09 09:36:15.861000,9.144578313253012,0.10843373493975904,-3.843373493975904,0.269773145309626,9.78969957081545,-3.2348252605763332,2.0,3.6109890109890106,276.93244065733415,0.11724258493094886,0.05827166249053105,0.07983217761202745,2632.234432234432,750.67138671875,79.92844946743638,3.649359921245238,
2023-08-09 09:36:15.869000,9.156626506024097,0.13253012048192772,-3.8674698795180724,0.30901287553648066,9.81912936848559,-3.2176578786020844,2.0,3.612454212454212,276.8201176232002,-0.09474972320960402,0.008740749373580091,0.1885670998193579,2609.523809523809,-1.0,79.92844946743638,3.648888951072796,
2023-08-09 09:36:15.877000,9.144578313253012,0.13253012048192772,-3.843373493975904,0.3261802575107296,9.80441446965052,-3.2372777437155116,2.0,3.612454212454212,276.8201176232002,3.496299749425094E-4,-0.23821455626128968,-0.2209661441640929,2553.113553113553,-1.0,79.92844946743638,3.648419746676475,
2023-08-09 09:36:15.884000,9.144578313253012,0.13253012048192772,-3.807228915662651,0.2722256284488044,9.774984671980379,-3.161250766400981,2.0,3.6109890109890106,276.93244065733415,0.3074412913000402,-0.26898199405629125,-0.3107045043995106,2468.131868131868,-1.0,79.92844946743638,3.647952331133843,
2023-08-09 09:36:15.892000,9.120481927710843,0.14457831325301207,-3.8313253012048194,0.25015328019619865,9.716125076640097,-3.2053954629061923,2.0,3.612454212454212,276.8201176232002,-0.07726822446244384,-0.2546471650836206,0.07656896451255753,2361.904761904762,-1.0,79.92844946743638,3.6474867277085,
2023-08-09 09:36:15.900000,9.10843373493976,0.10843373493975904,-3.8192771084337354,0.26241569589209074,9.748007357449417,-3.2053954629061923,2.0,3.6109890109890106,276.93244065733415,0.12306975118000109,0.14299865975176232,0.04661732999242484,2241.0256410256407,-1.0,79.92844946743638,3.647022959315853,
2023-08-09 09:36:15.907000,9.072289156626507,0.0963855421686747,-3.843373493975904,0.23789086450030655,9.755364806866952,-3.244635193133047,2.0,3.6109890109890106,276.93244065733415,0.030650894470019004,0.019812365246780383,0.09405046325971683,2112.087912087912,-1.0,79.92844946743638,3.6465610485847,
2023-08-09 09:36:15.915000,9.096385542168676,0.0963855421686747,-3.855421686746988,0.23789086450030655,9.703862660944205,-3.2103004291845494,2.0,3.6109890109890106,276.93244065733415,0.03041780782005733,-0.08799021036070162,-0.07225686148825833,1982.4175824175823,-1.0,79.92844946743638,3.646101017813708,
2023-08-09 09:36:15.923000,9.132530120481928,0.0963855421686747,-3.855421686746988,0.22562844880441446,9.750459840588595,-3.1784181483752296,2.0,3.609523809523809,277.04485488126653,0.05733931589068263,-0.04533535341763217,0.05244449624147795,1856.4102564102564,-1.0,79.92844946743638,3.6456428893851767,
2023-08-09 09:36:15.930000,9.120481927710843,0.12048192771084337,-3.855421686746988,0.26241569589209074,9.745554874310239,-3.2201103617412628,2.0,3.6109890109890106,276.93244065733415,0.4512557543266701,-0.25254938523396037,0.14264902977681937,1740.6593406593406,-1.0,79.92844946743638,3.6451866852648487,
2023-08-09 09:36:15.938000,9.10843373493976,0.0963855421686747,-3.855421686746988,0.2795830778663397,9.765174739423665,-3.1661557326793375,2.0,3.6080586080586072,277.1573604060914,0.15476953557484935,-0.06945982168871218,0.06876056173882629,1637.3626373626373,-1.0,79.92844946743638,3.644732427382031,
2023-08-09 09:36:15.946000,9.096385542168676,0.10843373493975904,-3.855421686746988,0.2575107296137339,9.733292458614347,-3.264255058246474,2.0,3.6080586080586072,277.1573604060914,-0.2924072023774845,0.006876056173883237,0.03880892721869361,1547.2527472527472,-1.0,79.92844946743638,3.644280137623099,
2023-08-09 09:36:15.953000,9.120481927710843,0.10843373493975904,-3.879518072289157,0.25260576333537704,9.814224402207234,-3.2397302268546904,2.0,3.609523809523809,277.04485488126653,-0.09323465998484969,0.11526134840626943,0.13239321717848623,1472.5274725274724,-1.0,79.92844946743638,3.643829837125212,
2023-08-09 09:36:15.961000,9.144578313253012,0.10843373493975904,-3.843373493975904,0.3041079092581238,9.752912323727774,-3.2176578786020844,2.0,3.6080586080586072,277.1573604060914,0.1665404113979364,-0.09591515645941413,0.3442689819940561,1409.5238095238094,-1.0,79.92844946743638,3.6433815467276207,
2023-08-09 09:36:15.969000,9.132530120481928,0.10843373493975904,-3.855421686746988,0.27713059472716123,9.721030042918455,-3.2348252605763332,2.0,3.609523809523809,277.04485488126653,-0.17003671114736846,-0.18157450032049383,0.31035487442456716,1355.3113553113553,-1.0,79.92844946743638,3.6429352865775586,
2023-08-09 09:36:15.976000,9.120481927710843,0.10843373493975904,-3.8674698795180724,0.24770079705702022,9.777437155119559,-3.2887798896382585,2.0,3.6080586080586072,277.1573604060914,-0.12341938115494361,-0.2966027620768016,-0.1816910436454751,1309.89010989011,-1.0,79.92844946743638,3.6424910761233913,
2023-08-09 09:36:15.984000,9.120481927710843,0.13253012048192772,-3.8674698795180724,0.2329858982219497,9.792152053954629,-3.2103004291845494,2.0,3.6080586080586072,277.1573604060914,-0.3542917079424284,0.27096323058096894,-0.04580152671755725,1272.5274725274724,-1.0,79.92844946743638,3.6420489341766804,
2023-08-09 09:36:15.992000,9.120481927710843,0.12048192771084337,-3.8674698795180724,0.2844880441446965,9.733292458614347,-3.2078479460453706,2.0,3.6080586080586072,277.1573604060914,0.09090379348522774,0.31443389079890427,-0.15441990559990684,1238.8278388278388,-1.0,79.92844946743638,3.64160887886971,
2023-08-09 09:36:15.999000,9.10843373493976,0.12048192771084337,-3.855421686746988,0.27713059472716123,9.80441446965052,-3.2348252605763332,2.0,3.6080586080586072,277.1573604060914,-0.18553697336985095,-0.07074179826350485,0.16467571819824042,1208.058608058608,-1.0,79.92844946743638,3.641170928070836,
2023-08-09 09:36:16.007000,9.120481927710843,0.13253012048192772,-3.843373493975904,0.25015328019619865,9.75781729000613,-3.1686082158185163,2.0,3.6080586080586072,277.1573604060914,0.05815511916555022,-0.20826292174115743,0.16071324514888416,1179.4871794871794,-1.0,79.92844946743638,3.640735099379079,
2023-08-09 09:36:16.015000,9.144578313253012,0.13253012048192772,-3.843373493975904,0.3163703249540159,9.760269773145309,-3.161250766400981,2.0,3.6065934065934067,277.2699573430835,-0.1580327486743197,-0.4363382087290953,-0.05698968591573925,1155.3113553113553,-1.0,79.92844946743638,3.6403014100864493,
2023-08-09 09:36:16.022000,9.132530120481928,0.14457831325301207,-3.843373493975904,0.3114653586756591,9.765174739423665,-3.22501532801962,2.0,3.6080586080586072,277.1573604060914,-0.4463609346774663,-0.5139560631664816,-0.015267175572519083,1134.065934065934,-1.0,79.92844946743638,3.6398698762270336,
2023-08-09 09:36:16.030000,9.132530120481928,0.12048192771084337,-3.855421686746988,0.25015328019619865,9.777437155119559,-3.2176578786020844,2.0,3.6080586080586072,277.1573604060914,-0.07656896451255708,-0.5887768778043244,-0.019229648621875334,1116.4835164835165,-1.0,79.92844946743638,3.6394405134901437,
2023-08-09 09:36:16.038000,9.120481927710843,0.10843373493975904,-3.8313253012048194,0.26486817903126914,9.733292458614347,-3.22501532801962,2.0,3.6080586080586072,277.1573604060914,-0.2429928325855144,-0.3265543965969356,0.06945982168871305,1102.5641025641025,-1.0,79.92844946743638,3.639013337713085,
2023-08-09 09:36:16.045000,9.144578313253012,0.12048192771084337,-3.855421686746988,0.33108522378908645,9.870631514408338,-3.264255058246474,2.0,3.6065934065934067,277.2699573430835,0.09521589650952737,-0.17936017714585445,-0.16351028494842945,1095.2380952380952,-1.0,79.92844946743638,3.638588364428844,
2023-08-09 09:36:16.053000,9.144578313253012,0.10843373493975904,-3.843373493975904,0.3041079092581238,9.765174739423665,-3.1955855303494785,2.0,3.6080586080586072,277.1573604060914,-0.10279121263329563,-0.07866674436221735,-0.09078725016024691,1093.040293040293,-1.0,79.92844946743638,3.638165608347411,
2023-08-09 09:36:16.061000,9.132530120481928,0.13253012048192772,-3.855421686746988,0.2844880441446965,9.816676885346412,-3.2691600245248313,2.0,3.6065934065934067,277.2699573430835,0.08437736728628875,0.12854728745411081,-0.0476662199172541,1098.9010989010987,-1.0,79.92844946743638,3.637745083788227,
2023-08-09 09:36:16.068000,9.132530120481928,0.12048192771084337,-3.855421686746988,0.2673206621704476,9.78969957081545,-3.2103004291845494,2.0,3.6065934065934067,277.2699573430835,-0.2515004953091311,0.3359944059204007,-0.03496299749431863,1115.018315018315,-1.0,79.92844946743638,3.6373268046924743,
2023-08-09 09:36:16.076000,9.10843373493976,0.12048192771084337,-3.843373493975904,0.21336603310852237,9.794604537093807,-3.2789699570815447,2.0,3.6065934065934067,277.2699573430835,-0.2180525610395668,0.11584406503117535,-0.0679447584639587,1136.9963369963368,-1.0,79.92844946743638,3.6369107836529975,
2023-08-09 09:36:16.084000,9.120481927710843,0.10843373493975904,-3.891566265060241,0.269773145309626,9.767627222562844,-3.2299202942979766,2.0,3.6065934065934067,277.2699573430835,-0.19928908571761567,-0.14859273935085288,0.16094633179884626,1166.3003663003662,-1.0,79.92844946743638,3.6364970324202157,
2023-08-09 09:36:16.091000,9.132530120481928,0.0963855421686747,-3.843373493975904,0.24770079705702022,9.78969957081545,-3.2176578786020844,2.0,3.605128205128205,277.38264580369844,-4.661732999250815E-4,-0.26898199405629125,0.09661441640930002,1199.2673992673992,-1.0,79.92844946743638,3.6360855619507935,
2023-08-09 09:36:16.099000,9.120481927710843,0.10843373493975904,-3.843373493975904,0.24770079705702022,9.733292458614347,-3.215205395462906,2.0,3.605128205128205,277.38264580369844,-0.08006526426198912,-0.17364955422178133,0.06608006526426184,1234.4322344322343,-1.0,79.92844946743638,3.6356763828803396,
2023-08-09 09:36:16.107000,9.10843373493976,0.0963855421686747,-3.8313253012048194,0.2207234825260576,9.78969957081545,-3.1906805640711218,2.0,3.605128205128205,277.38264580369844,-0.0802983509119508,-0.17248412097197122,0.06642969523920522,1268.8644688644688,-1.0,79.92844946743638,3.6352695053675546,
2023-08-09 09:36:16.114000,9.120481927710843,0.13253012048192772,-3.855421686746988,0.24770079705702022,9.828939301042304,-3.2495401594114037,2.0,3.605128205128205,277.38264580369844,-0.17353301089680048,-0.26408717440708573,-0.07248994813822043,1302.5641025641025,-1.0,79.92844946743638,3.6348649386221723,
2023-08-09 09:36:16.122000,9.120481927710843,0.10843373493975904,-3.843373493975904,0.29675045984058857,9.821581851624769,-3.2421827099938687,2.0,3.605128205128205,277.38264580369844,-0.10943418215721719,0.027271138045567803,-0.34578404521881,1333.3333333333333,-1.0,79.92844946743638,3.6344626914180926,
2023-08-09 09:36:16.130000,9.132530120481928,0.0963855421686747,-3.855421686746988,0.18638871857755976,9.816676885346412,-3.222562844880441,2.0,3.605128205128205,277.38264580369844,-0.27550842025523026,-0.18949944641920632,-0.22224812073888472,1361.1721611721612,-1.0,79.92844946743638,3.6340627720815197,
2023-08-09 09:36:16.137000,9.120481927710843,0.12048192771084337,-3.855421686746988,0.22562844880441446,9.777437155119559,-3.2053954629061923,2.0,3.605128205128205,277.38264580369844,-0.028436571295379638,0.041372880368276785,0.13309247712837255,1385.3479853479853,-1.0,79.92844946743638,3.633665188058392,
2023-08-09 09:36:16.145000,9.096385542168676,0.0963855421686747,-3.855421686746988,0.27713059472716123,9.74310239117106,-3.1833231146535867,2.0,3.6065934065934067,277.2699573430835,-0.010955072548219456,0.27073014393100553,-0.18390536682011532,1404.3956043956043,-1.0,79.92844946743638,3.633269945974465,
2023-08-09 09:36:16.153000,9.120481927710843,0.10843373493975904,-3.8313253012048194,0.29429797670141017,9.721030042918455,-3.2127529123237277,2.0,3.6065934065934067,277.2699573430835,0.1414835965270097,0.16351028494842945,-0.19346191946856256,1414.6520146520145,-1.0,79.92844946743638,3.6328770521883307,
2023-08-09 09:36:16.160000,9.096385542168676,0.10843373493975904,-3.843373493975904,0.24770079705702022,9.684242795830778,-3.1661557326793375,2.0,3.605128205128205,277.38264580369844,-0.025173358195909275,0.5432084377367289,-0.2215488607889984,1418.3150183150183,-1.0,79.92844946743638,3.6324865133823074,
2023-08-09 09:36:16.168000,9.096385542168676,0.10843373493975904,-3.843373493975904,0.2599632127529123,9.816676885346412,-3.1833231146535867,2.0,3.605128205128205,277.38264580369844,-0.03892547054367401,0.20325155876697107,-0.12796457082920576,1416.117216117216,-1.0,79.92844946743638,3.632098336069638,
2023-08-09 09:36:16.176000,9.10843373493976,0.12048192771084337,-3.855421686746988,0.26486817903126914,9.78969957081545,-3.202942979767014,2.0,3.605128205128205,277.38264580369844,0.05559116601596661,-0.20942835499096754,0.026688421420663185,1409.5238095238094,-1.0,79.92844946743638,3.631712526035318,
2023-08-09 09:36:16.183000,9.132530120481928,0.12048192771084337,-3.843373493975904,0.2869405272838749,9.784794604537094,-3.1980380134886572,2.0,3.605128205128205,277.38264580369844,-0.020395081871686302,-0.22387972728861905,-0.04988054309189434,1398.5347985347985,-1.0,79.92844946743638,3.631329088374038,
2023-08-09 09:36:16.191000,9.144578313253012,0.13253012048192772,-3.8192771084337354,0.21091354996934394,9.797057020232986,-3.227467811158798,2.0,3.605128205128205,277.38264580369844,-0.19917254239263485,-0.006992599498864074,0.088339840335645,1386.8131868131868,-1.0,79.92844946743638,3.6309480280207396,
2023-08-09 09:36:16.198000,9.132530120481928,0.13253012048192772,-3.855421686746988,0.2820355610055181,9.83874923359902,-3.2299202942979766,2.0,3.605128205128205,277.38264580369844,-0.30033214847619527,-0.037293863993940565,0.04382029019287913,1371.4285714285713,-1.0,79.92844946743638,3.630569349756115,
2023-08-09 09:36:16.206000,9.120481927710843,0.13253012048192772,-3.8674698795180724,0.269773145309626,9.843654199877376,-3.1980380134886572,2.0,3.6036630036630033,277.4954258995731,-0.08099761086183756,-0.08018180758696997,-0.29322300565235127,1352.3809523809523,-1.0,79.92844946743638,3.6301930582491315,
2023-08-09 09:36:16.214000,9.132530120481928,0.10843373493975904,-3.8674698795180724,0.2795830778663397,9.782342121397916,-3.2593500919681175,2.0,3.605128205128205,277.38264580369844,3.496299749425094E-4,-0.29112522580269184,0.03111706776994322,1334.065934065934,-1.0,79.92844946743638,3.6298191575741154,
2023-08-09 09:36:16.221000,9.120481927710843,0.14457831325301207,-3.879518072289157,0.2795830778663397,9.7725321888412,-3.2421827099938687,2.0,3.6036630036630033,277.4954258995731,-0.026921508070625294,-0.014684458947613166,-0.014334828972670657,1313.5531135531135,-1.0,79.92844946743638,3.6294476512197065,
2023-08-09 09:36:16.229000,9.120481927710843,0.13253012048192772,-3.8674698795180724,0.2820355610055181,9.814224402207234,-3.283874923359902,2.0,3.6036630036630033,277.4954258995731,0.08274576073655357,-0.4282967193054019,-0.22725948371307023,1291.5750915750914,-1.0,79.92844946743638,3.629078542658993,
2023-08-09 09:36:16.237000,9.132530120481928,0.13253012048192772,-3.8674698795180724,0.2575107296137339,9.80441446965052,-3.232372777437155,2.0,3.605128205128205,277.38264580369844,0.020628168521647974,-0.27329409708058916,-0.4694365130237166,1271.062271062271,-1.0,79.92844946743638,3.628711834831401,
2023-08-09 09:36:16.244000,9.120481927710843,0.10843373493975904,-3.855421686746988,0.29429797670141017,9.777437155119559,-3.215205395462906,2.0,3.602197802197802,277.60829774252596,0.03577880076918622,-0.17796165724608096,-0.1286638307790921,1249.8168498168498,-1.0,79.92844946743638,3.6283475306780097,
2023-08-09 09:36:16.252000,9.132530120481928,0.12048192771084337,-3.9036144578313254,0.25015328019619865,9.831391784181482,-3.256897608828939,2.0,3.602197802197802,277.60829774252596,-0.3784161762135067,-0.27795583007983304,0.13402482372822097,1230.03663003663,-1.0,79.92844946743638,3.6279856332199194,
2023-08-09 09:36:16.260000,9.120481927710843,0.12048192771084337,-3.891566265060241,0.26241569589209074,9.740649908031882,-3.2201103617412628,2.0,3.6036630036630033,277.4954258995731,-0.3145504341238851,-0.2537148184837722,-0.24683876230988852,1214.6520146520145,-1.0,79.92844946743638,3.627626144901262,
2023-08-09 09:36:16.267000,9.096385542168676,0.10843373493975904,-3.8674698795180724,0.2452483139178418,9.75781729000613,-3.1931330472103,2.0,3.6036630036630033,277.4954258995731,-0.22283083736378978,-0.33762601247013585,-0.3953149583357614,1203.6630036630036,-1.0,79.92844946743638,3.6272690680886663,
2023-08-09 09:36:16.275000,9.096385542168676,0.12048192771084337,-3.8674698795180724,0.2329858982219497,9.762722256284487,-3.2053954629061923,2.0,3.6036630036630033,277.4954258995731,-0.3913524852864056,0.15838237864926225,-0.0543091894411748,1197.069597069597,-1.0,79.92844946743638,3.626914405216532,
2023-08-09 09:36:16.283000,9.084337349397591,0.0963855421686747,-3.855421686746988,0.20846106683016552,9.738197424892704,-3.2372777437155116,2.0,3.6036630036630033,277.4954258995731,-0.2063982285414606,0.06841093176388291,-0.432375735679739,1194.8717948717947,-1.0,79.92844946743638,3.626562158404649,
2023-08-09 09:36:16.290000,9.096385542168676,0.08433734939759037,-3.855421686746988,0.2207234825260576,9.752912323727774,-3.185775597792765,2.0,3.6036630036630033,277.4954258995731,-0.37398752986422623,0.024940271545947603,-0.15104014917545608,1192.6739926739926,-1.0,79.92844946743638,3.6262123295312825,
2023-08-09 09:36:16.298000,9.132530120481928,0.08433734939759037,-3.891566265060241,0.3408951563458001,9.779889638258737,-3.173513182096873,2.0,3.6036630036630033,277.4954258995731,-0.3871569255870868,0.1343744537031648,-0.3448516986189616,1193.4065934065934,-1.0,79.92844946743638,3.625864920761853,
2023-08-09 09:36:16.306000,9.10843373493976,0.0963855421686747,-3.843373493975904,0.2599632127529123,9.752912323727774,-3.2004904966278356,2.0,3.6036630036630033,277.4954258995731,-0.034380280869412715,0.48761727172076225,-0.09579861313443286,1195.6043956043954,-1.0,79.92844946743638,3.625519934550332,
2023-08-09 09:36:16.313000,9.084337349397591,0.10843373493975904,-3.8192771084337354,0.27467811158798283,9.777437155119559,-3.202942979767014,2.0,3.6036630036630033,277.4954258995731,-0.3876230988870119,0.45696637725074324,0.06060252899015212,1197.069597069597,-1.0,79.92844946743638,3.625177373675373,
2023-08-09 09:36:16.321000,9.084337349397591,0.0963855421686747,-3.8313253012048194,0.24770079705702022,9.74310239117106,-3.22501532801962,2.0,3.6036630036630033,277.4954258995731,-0.3556902278422002,0.04556844006759558,-0.10372355923314493,1200.0,-1.0,79.92844946743638,3.624837241241457,
2023-08-09 09:36:16.329000,9.132530120481928,0.12048192771084337,-3.843373493975904,0.2918454935622317,9.752912323727774,-3.151440833844267,2.0,3.602197802197802,277.60829774252596,-0.3969465648854962,-0.4872676417458197,-0.14602878620127013,1202.9304029304028,-1.0,79.92844946743638,3.624499540714375,
2023-08-09 09:36:16.336000,9.168674698795181,0.12048192771084337,-3.8313253012048194,0.3237277743715512,9.824034334763947,-3.1686082158185163,2.0,3.6036630036630033,277.4954258995731,-0.24007924946098655,-0.16397645824835452,0.11677641163102377,1203.6630036630036,-1.0,79.92844946743638,3.624164275428667,
2023-08-09 09:36:16.344000,9.168674698795181,0.14457831325301207,-3.843373493975904,0.2599632127529123,9.816676885346412,-3.1710606989576946,2.0,3.602197802197802,277.60829774252596,-0.3446186119689999,-0.008391119398635847,0.16455917487325916,1204.3956043956043,-1.0,79.92844946743638,3.6238314485843044,
2023-08-09 09:36:16.352000,9.156626506024097,0.12048192771084337,-3.8192771084337354,0.2869405272838749,9.811771919068056,-3.2004904966278356,2.0,3.602197802197802,277.60829774252596,0.13402482372822055,-0.376434939688829,0.029135831245265524,1206.5934065934066,-1.0,79.92844946743638,3.623501063344061,
2023-08-09 09:36:16.359000,9.132530120481928,0.14457831325301207,-3.843373493975904,0.2918454935622317,9.767627222562844,-3.2103004291845494,2.0,3.6036630036630033,277.4954258995731,-0.08111415418681839,-0.11328011188159173,-0.13682186352776626,1208.7912087912086,-1.0,79.92844946743638,3.623173122823123,
2023-08-09 09:36:16.367000,9.10843373493976,0.14457831325301207,-3.855421686746988,0.25015328019619865,9.784794604537094,-3.1882280809319434,2.0,3.602197802197802,277.60829774252596,-0.10838529223238792,0.22434590058854412,0.02016199522172376,1213.9194139194137,-1.0,79.92844946743638,3.622847631025608,
2023-08-09 09:36:16.375000,9.132530120481928,0.13253012048192772,-3.843373493975904,0.27713059472716123,9.762722256284487,-3.2299202942979766,2.0,3.602197802197802,277.60829774252596,-0.2749257036303243,-0.05209486626653457,-0.16420954489831577,1219.047619047619,-1.0,79.92844946743638,3.622524591985497,
2023-08-09 09:36:16.382000,9.132530120481928,0.13253012048192772,-3.879518072289157,0.29675045984058857,9.750459840588595,-3.2299202942979766,2.0,3.602197802197802,277.60829774252596,-0.27212866383077905,-0.048248936542160024,-0.16351028494842945,1225.6410256410256,-1.0,79.92844946743638,3.6222040097502224,
2023-08-09 09:36:16.390000,9.120481927710843,0.13253012048192772,-3.891566265060241,0.30656039239730226,9.74310239117106,-3.2201103617412628,2.0,3.602197802197802,277.60829774252596,-0.068877105063808,0.0916030534351145,-0.22422935726356286,1233.6996336996335,-1.0,79.92844946743638,3.621885889276258,
2023-08-09 09:36:16.398000,9.120481927710843,0.1566265060240964,-3.855421686746988,0.3237277743715512,9.74310239117106,-3.2127529123237277,2.0,3.6007326007326,277.7212614445575,-0.08344502068644033,0.07820057106229227,0.00769185944874996,1241.0256410256409,-1.0,79.92844946743638,3.6215702354592154,
2023-08-09 09:36:16.405000,9.120481927710843,0.14457831325301207,-3.843373493975904,0.27467811158798283,9.765174739423665,-3.1906805640711218,2.0,3.602197802197802,277.60829774252596,-0.40020977798496654,-0.2429928325855144,-0.1928792028436571,1252.7472527472526,-1.0,79.92844946743638,3.62125705317973,
2023-08-09 09:36:16.413000,9.096385542168676,0.13253012048192772,-3.843373493975904,0.2329858982219497,9.723482526057634,-3.1833231146535867,2.0,3.602197802197802,277.60829774252596,-0.029951634520132248,0.032865217644660105,-0.00780840277373123,1261.5384615384614,-1.0,79.92844946743638,3.6209463481216404,
2023-08-09 09:36:16.421000,9.10843373493976,0.13253012048192772,-3.855421686746988,0.2893930104230533,9.713672593500918,-3.266707541385653,2.0,3.602197802197802,277.60829774252596,-0.3037119049006465,0.16828856127265243,0.10185886603344807,1268.8644688644688,-1.0,79.92844946743638,3.620638126355779,
2023-08-09 09:36:16.428000,9.072289156626507,0.13253012048192772,-3.891566265060241,0.2575107296137339,9.676885346413243,-3.2103004291845494,2.0,3.602197802197802,277.60829774252596,0.018880018646931958,-0.2797039799545473,0.10232503933337228,1273.9926739926739,-1.0,79.92844946743638,3.620332393921563,
2023-08-09 09:36:16.436000,9.084337349397591,0.12048192771084337,-3.891566265060241,0.3384426732066217,9.730839975475169,-3.1955855303494785,2.0,3.602197802197802,277.60829774252596,-0.19544315599324114,-0.03426373754443188,-0.14334828972670569,1276.1904761904761,-1.0,79.92844946743638,3.620029156862156,
2023-08-09 09:36:16.444000,9.072289156626507,0.10843373493975904,-3.9036144578313254,0.24770079705702022,9.730839975475169,-3.274064990803188,2.0,3.602197802197802,277.60829774252596,0.1259833343045272,0.16234485169861934,0.08764058038575825,1279.120879120879,-1.0,79.92844946743638,3.6197284212556795,
2023-08-09 09:36:16.451000,9.084337349397591,0.0963855421686747,-3.8674698795180724,0.25260576333537704,9.735744941753525,-3.291232372777437,2.0,3.602197802197802,277.60829774252596,0.09463317988462146,0.2841326263038278,-0.23460171318687725,1280.5860805860805,-1.0,79.92844946743638,3.6194301937005484,
2023-08-09 09:36:16.459000,9.084337349397591,0.10843373493975904,-3.9036144578313254,0.23053341508277128,9.762722256284487,-3.2372777437155116,2.0,3.602197802197802,277.60829774252596,0.0949828098595657,0.17633005069634577,0.026804964745644023,1282.7838827838827,-1.0,79.92844946743638,3.6191344812722996,
2023-08-09 09:36:16.467000,9.120481927710843,0.10843373493975904,-3.891566265060241,0.2452483139178418,9.767627222562844,-3.2716125076640097,2.0,3.602197802197802,277.60829774252596,0.2912417691276727,-0.20604859856651633,0.04020744711846625,1282.7838827838827,-1.0,79.92844946743638,3.618841291514072,
2023-08-09 09:36:16.474000,9.132530120481928,0.12048192771084337,-3.8674698795180724,0.2869405272838749,9.770079705702022,-3.2495401594114037,2.0,3.602197802197802,277.60829774252596,-0.1699201678223876,-0.08286230406153441,-0.23553405978672567,1280.5860805860805,-1.0,79.92844946743638,3.618550632391212,
2023-08-09 09:36:16.482000,9.132530120481928,0.13253012048192772,-3.879518072289157,0.24034334763948498,9.784794604537094,-3.2765174739423664,2.0,3.602197802197802,277.60829774252596,-0.2283083736378995,0.17912709049589104,-0.08565934386108055,1278.3882783882782,-1.0,79.92844946743638,3.618262511821647,
2023-08-09 09:36:16.490000,9.132530120481928,0.13253012048192772,-3.879518072289157,0.2035561005518087,9.745554874310239,-3.256897608828939,2.0,3.602197802197802,277.60829774252596,-0.17912709049589104,0.05629042596585336,0.08099761086183799,1276.1904761904761,-1.0,79.92844946743638,3.617976938153343,
2023-08-09 09:36:16.497000,9.132530120481928,0.13253012048192772,-3.8674698795180724,0.2550582464745555,9.78969957081545,-3.227467811158798,2.0,3.602197802197802,277.60829774252596,-0.3610512207913291,-0.033681020919527696,0.09568206980945158,1273.260073260073,-1.0,79.92844946743638,3.617693920113563,
2023-08-09 09:36:16.505000,9.144578313253012,0.12048192771084337,-3.8674698795180724,0.30656039239730226,9.7725321888412,-3.1661557326793375,2.0,3.602197802197802,277.60829774252596,-0.358137637666803,0.28599731950352464,-0.08659169046092899,1268.8644688644688,-1.0,79.92844946743638,3.61741346633419,
2023-08-09 09:36:16.513000,9.10843373493976,0.13253012048192772,-3.8674698795180724,0.26486817903126914,9.774984671980379,-3.222562844880441,2.0,3.602197802197802,277.60829774252596,-0.3250393333721812,0.49729036769419077,0.26501952100693416,1261.5384615384614,-1.0,79.92844946743638,3.617135585824516,
2023-08-09 09:36:16.520000,9.120481927710843,0.12048192771084337,-3.843373493975904,0.2844880441446965,9.806866952789699,-3.1882280809319434,2.0,3.602197802197802,277.60829774252596,-0.26268865450731393,0.5211817493153074,-0.012470135772973802,1252.014652014652,-1.0,79.92844946743638,3.6168602879161464,
2023-08-09 09:36:16.528000,9.120481927710843,0.12048192771084337,-3.843373493975904,0.3507050889025138,9.801961986511342,-3.2078479460453706,2.0,3.6007326007326,277.7212614445575,-0.1074529456325395,0.3609346774663483,-0.04242177029310648,1246.153846153846,-1.0,79.92844946743638,3.6165875822422358,
2023-08-09 09:36:16.536000,9.156626506024097,0.13253012048192772,-3.8192771084337354,0.2599632127529123,9.794604537093807,-3.1980380134886572,2.0,3.602197802197802,277.60829774252596,-0.19858982576772893,0.005244449624148055,0.09451663655964106,1243.956043956044,-1.0,79.92844946743638,3.6163174781888694,
2023-08-09 09:36:16.543000,9.19277108433735,0.10843373493975904,-3.8313253012048194,0.24770079705702022,9.860821581851624,-3.1661557326793375,2.0,3.602197802197802,277.60829774252596,-0.08903910028553089,0.21980071091428283,0.15441990559990684,1248.3516483516482,-1.0,79.92844946743638,3.6160499848360845,
2023-08-09 09:36:16.551000,9.168674698795181,0.12048192771084337,-3.8192771084337354,0.31882280809319435,9.738197424892704,-3.1955855303494785,2.0,3.5992673992673994,277.8343171178506,-0.25826000815803346,0.8097430219684173,0.33855835906998427,1256.4102564102564,-1.0,79.92844946743638,3.6157851114928774,
2023-08-09 09:36:16.558000,9.132530120481928,0.12048192771084337,-3.843373493975904,0.29429797670141017,9.81912936848559,-3.163703249540159,2.0,3.6007326007326,277.7212614445575,-0.24206048598566596,0.8623040615348753,0.12167123128022846,1272.5274725274724,-1.0,79.92844946743638,3.615522867177295,
2023-08-09 09:36:16.566000,9.096385542168676,0.14457831325301207,-3.8674698795180724,0.2820355610055181,9.738197424892704,-3.1759656652360513,2.0,3.6007326007326,277.7212614445575,-0.10384010255812663,1.0670706835266006,0.4713012062234135,1300.3663003663003,-1.0,79.92844946743638,3.615263260835773,
2023-08-09 09:36:16.574000,9.120481927710843,0.12048192771084337,-3.7951807228915664,0.24279583077866337,9.669527896995708,-3.2176578786020844,2.0,3.6007326007326,277.7212614445575,0.036011887419147896,0.9671930540178312,0.2826175630790747,1342.8571428571427,-1.0,79.92844946743638,3.615006301347123,
2023-08-09 09:36:16.581000,9.10843373493976,0.12048192771084337,-3.8192771084337354,0.23543838136112813,9.713672593500918,-3.2201103617412628,2.0,3.6007326007326,277.7212614445575,0.18786783986947114,0.3192121671231272,-0.25511333838354394,1404.3956043956043,-1.0,79.92844946743638,3.614751997067801,
2023-08-09 09:36:16.589000,9.120481927710843,0.12048192771084337,-3.8313253012048194,0.23789086450030655,9.725935009196812,-3.1538933169834458,2.0,3.6007326007326,277.7212614445575,0.20243575549210346,-0.08006526426198912,-0.043121030242992804,1489.3772893772893,-1.0,79.92844946743638,3.6145003558322584,
2023-08-09 09:36:16.597000,9.144578313253012,0.12048192771084337,-3.7951807228915664,0.27713059472716123,9.787247087676272,-3.1906805640711218,2.0,3.6007326007326,277.7212614445575,-0.08833984033564414,-0.39951051803507975,-0.3648971505157041,1600.7326007326005,-1.0,79.92844946743638,3.614251384950882,
2023-08-09 09:36:16.604000,9.120481927710843,0.10843373493975904,-3.8313253012048194,0.23789086450030655,9.733292458614347,-3.1759656652360513,2.0,3.6007326007326,277.7212614445575,0.035545714119224546,-0.09486626653458487,0.15570188217469821,1734.7985347985348,-1.0,79.92844946743638,3.6140050916638033,
2023-08-09 09:36:16.612000,9.072289156626507,0.12048192771084337,-3.855421686746988,0.2575107296137339,9.75781729000613,-3.232372777437155,2.0,3.6007326007326,277.7212614445575,-0.21001107161587346,-0.1105996154070273,0.13728803682769047,1884.249084249084,-1.0,79.92844946743638,3.6137614830679725,
2023-08-09 09:36:16.620000,9.096385542168676,0.0963855421686747,-3.8192771084337354,0.2599632127529123,9.797057020232986,-3.2103004291845494,2.0,3.6007326007326,277.7212614445575,0.15873200862420647,-0.43214264902977645,-0.07668550783753879,2041.7582417582416,-1.0,79.92844946743638,3.613520565621927,
2023-08-09 09:36:16.627000,9.096385542168676,0.0963855421686747,-3.879518072289157,0.20600858369098712,9.7725321888412,-3.1759656652360513,2.0,3.602197802197802,277.60829774252596,0.2660684109317634,-0.7789755841734157,-0.4420488316531671,2198.5347985347985,-1.0,79.92844946743638,3.6132823455996426,
2023-08-09 09:36:16.635000,9.120481927710843,0.10843373493975904,-3.843373493975904,0.2207234825260576,9.784794604537094,-3.232372777437155,2.0,3.6007326007326,277.7212614445575,0.1574500320494138,-0.05372647281626975,-0.14754384942602405,2346.520146520146,-1.0,79.92844946743638,3.613046829510893,
2023-08-09 09:36:16.643000,9.120481927710843,0.12048192771084337,-3.879518072289157,0.26486817903126914,9.75781729000613,-3.202942979767014,2.0,3.6007326007326,277.7212614445575,0.27993706660451073,-0.1571004020744713,0.004778276324223407,2473.9926739926736,750.67138671875,79.92844946743638,3.612814023186683,
2023-08-09 09:36:16.650000,9.120481927710843,0.10843373493975904,-3.891566265060241,0.29675045984058857,9.748007357449417,-3.2103004291845494,2.0,3.6007326007326,277.7212614445575,0.0816968708117243,-0.33739292582017416,-0.2387972728861956,2571.428571428571,-1.0,79.92844946743638,3.612583931710305,
2023-08-09 09:36:16.658000,9.120481927710843,0.12048192771084337,-3.855421686746988,0.22808093194359289,9.824034334763947,-3.2078479460453706,2.0,3.6007326007326,277.7212614445575,0.08286230406153441,-0.3333139094458362,-0.2387972728861956,2636.6300366300366,-1.0,79.92844946743638,3.6123565598057295,
2023-08-09 09:36:16.666000,9.132530120481928,0.12048192771084337,-3.8674698795180724,0.2918454935622317,9.733292458614347,-3.232372777437155,2.0,3.602197802197802,277.60829774252596,0.2036011887419153,0.12481790105471711,0.023541751646174527,2666.6666666666665,-1.0,79.92844946743638,3.6121319118046933,
2023-08-09 09:36:16.673000,9.120481927710843,0.13253012048192772,-3.879518072289157,0.24770079705702022,9.774984671980379,-3.261802575107296,2.0,3.6007326007326,277.7212614445575,0.3095390711497005,0.15465299224986853,-0.05244449624147795,2659.3406593406594,-1.0,79.92844946743638,3.611909992073546,
2023-08-09 09:36:16.681000,9.132530120481928,0.12048192771084337,-3.879518072289157,0.3139178418148375,9.7725321888412,-3.2176578786020844,2.0,3.6007326007326,277.7212614445575,0.229706893537673,-0.07447118466289857,0.057922032515587675,2617.5824175824173,-1.0,79.92844946743638,3.6116908041057356,
2023-08-09 09:36:16.689000,9.10843373493976,0.12048192771084337,-3.8674698795180724,0.29429797670141017,9.81912936848559,-3.2078479460453706,2.0,3.6007326007326,277.7212614445575,0.09171959676009533,-0.4695530563486979,0.20919526834100588,2543.589743589743,-1.0,79.92844946743638,3.6114743500025366,
2023-08-09 09:36:16.696000,9.120481927710843,0.12048192771084337,-3.891566265060241,0.25015328019619865,9.784794604537094,-3.283874923359902,2.0,3.602197802197802,277.60829774252596,-0.060602528990151255,-0.1276149408542624,-0.23506788648680146,2449.0842490842488,-1.0,79.92844946743638,3.6112606313945714,
2023-08-09 09:36:16.704000,9.120481927710843,0.12048192771084337,-3.879518072289157,0.30901287553648066,9.765174739423665,-3.293684855916615,2.0,3.5992673992673994,277.8343171178506,-0.22690985373812772,0.45766563720062997,-0.0026804964745644456,2332.6007326007325,-1.0,79.92844946743638,3.611049649873256,
2023-08-09 09:36:16.712000,9.144578313253012,0.10843373493975904,-3.843373493975904,0.3237277743715512,9.784794604537094,-3.232372777437155,2.0,3.6007326007326,277.7212614445575,-0.37736728628867744,0.1719014043470653,0.08962181691043637,2203.6630036630036,-1.0,79.92844946743638,3.6108414065116214,
2023-08-09 09:36:16.719000,9.10843373493976,0.10843373493975904,-3.855421686746988,0.3041079092581238,9.762722256284487,-3.202942979767014,2.0,3.6007326007326,277.7212614445575,-0.05244449624147708,0.19124759629392235,-0.16689004137288022,2071.062271062271,-1.0,79.92844946743638,3.610635901179048,
2023-08-09 09:36:16.727000,9.120481927710843,0.0963855421686747,-3.843373493975904,0.27713059472716123,9.767627222562844,-3.1686082158185163,2.0,3.6007326007326,277.7212614445575,0.05384301614125059,0.10092651943359877,-0.2872792960783173,1941.3919413919414,-1.0,79.92844946743638,3.6104331330842494,
2023-08-09 09:36:16.735000,9.132530120481928,0.0963855421686747,-3.8313253012048194,0.2575107296137339,9.814224402207234,-3.1587982832618025,2.0,3.6007326007326,277.7212614445575,-0.130178894003846,-0.2041839053668195,-0.45195501427655727,1817.5824175824175,-1.0,79.92844946743638,3.61023310075826,
2023-08-09 09:36:16.742000,9.120481927710843,0.0963855421686747,-3.8313253012048194,0.27467811158798283,9.740649908031882,-3.2201103617412628,2.0,3.6007326007326,277.7212614445575,-0.2348347998368385,0.02738768137054864,-0.4159431268574094,1704.7619047619046,-1.0,79.92844946743638,3.610035801581922,
2023-08-09 09:36:16.750000,9.096385542168676,0.10843373493975904,-3.843373493975904,0.2722256284488044,9.794604537093807,-3.1661557326793375,2.0,3.6007326007326,277.7212614445575,-0.09311811665986884,0.36582949711555207,0.015150632247537814,1604.3956043956043,-1.0,79.92844946743638,3.6098412318061053,
2023-08-09 09:36:16.758000,9.120481927710843,0.10843373493975904,-3.843373493975904,0.2795830778663397,9.779889638258737,-3.1931330472103,2.0,3.6007326007326,277.7212614445575,-0.09125342346017198,0.13740458015267176,0.06281685216479235,1515.018315018315,-1.0,79.92844946743638,3.6096493870301516,
2023-08-09 09:36:16.765000,9.120481927710843,0.12048192771084337,-3.807228915662651,0.3163703249540159,9.748007357449417,-3.215205395462906,2.0,3.6007326007326,277.7212614445575,-0.042654856943067726,0.07691859448750134,-0.25721111823320336,1440.2930402930401,-1.0,79.92844946743638,3.609460262155775,
2023-08-09 09:36:16.773000,9.132530120481928,0.13253012048192772,-3.8192771084337354,0.25015328019619865,9.811771919068056,-3.1710606989576946,2.0,3.6007326007326,277.7212614445575,-0.026804964745644456,0.1699201678223876,-0.04335411689295491,1378.7545787545787,-1.0,79.92844946743638,3.609273850920715,
2023-08-09 09:36:16.781000,9.120481927710843,0.12048192771084337,-3.843373493975904,0.2869405272838749,9.782342121397916,-3.2103004291845494,2.0,3.6007326007326,277.7212614445575,0.2490530854845283,0.06491463201445088,-0.03135015441990576,1327.4725274725274,-1.0,79.92844946743638,3.6090901459255074,
2023-08-09 09:36:16.788000,9.10843373493976,0.13253012048192772,-3.855421686746988,0.2869405272838749,9.816676885346412,-3.2421827099938687,2.0,3.6007326007326,277.7212614445575,0.020161995221722892,0.08146378416176263,0.21129304819066483,1287.179487179487,-1.0,79.92844946743638,3.608909139118818,
2023-08-09 09:36:16.796000,9.120481927710843,0.13253012048192772,-3.843373493975904,0.3114653586756591,9.794604537093807,-3.227467811158798,2.0,3.5992673992673994,277.8343171178506,-0.008973836023541765,0.02167705844647724,0.05500844939106112,1253.4798534798533,-1.0,79.92844946743638,3.6087308217585776,
2023-08-09 09:36:16.804000,9.144578313253012,0.14457831325301207,-3.855421686746988,0.33108522378908645,9.762722256284487,-3.264255058246474,2.0,3.5992673992673994,277.8343171178506,-0.08472699726123126,-0.11444554513140184,0.03892547054367445,1223.4432234432234,-1.0,79.92844946743638,3.6085551834604552,
2023-08-09 09:36:16.811000,9.120481927710843,0.13253012048192772,-3.8674698795180724,0.32127529123237275,9.770079705702022,-3.256897608828939,2.0,3.6007326007326,277.7212614445575,-0.053959559466231426,-0.09987762950876951,-0.20546588194161172,1199.2673992673992,-1.0,79.92844946743638,3.608382212618047,
2023-08-09 09:36:16.819000,9.144578313253012,0.13253012048192772,-3.879518072289157,0.27467811158798283,9.784794604537094,-3.251992642550582,2.0,3.5992673992673994,277.8343171178506,0.19183031291882827,0.24777110890973736,0.08717440708583403,1178.7545787545787,-1.0,79.92844946743638,3.6082118973159947,
2023-08-09 09:36:16.827000,9.120481927710843,0.1566265060240964,-3.9036144578313254,0.23543838136112813,9.760269773145309,-3.2765174739423664,2.0,3.5992673992673994,277.8343171178506,-0.008391119398635847,0.04358720354291789,0.1174756715809101,1159.7069597069597,-1.0,79.92844946743638,3.608044224451408,
2023-08-09 09:36:16.834000,9.10843373493976,0.13253012048192772,-3.91566265060241,0.3359901900674433,9.78969957081545,-3.2421827099938687,2.0,3.6007326007326,277.7212614445575,0.23914690286113813,0.1611794184488075,-0.03496299749431863,1142.1245421245421,-1.0,79.92844946743638,3.6078791792439464,
2023-08-09 09:36:16.842000,9.144578313253012,0.16867469879518074,-3.891566265060241,0.3114653586756591,9.831391784181482,-3.3083997547516857,2.0,3.5992673992673994,277.8343171178506,0.24054542276091162,0.3389079890449268,-0.018297302022026472,1124.5421245421244,-1.0,79.92844946743638,3.607716746679631,
2023-08-09 09:36:16.850000,9.096385542168676,0.16867469879518074,-3.91566265060241,0.328632740649908,9.725935009196812,-3.227467811158798,2.0,3.6007326007326,277.7212614445575,0.3749198764640747,0.05815511916555022,-0.20115377891731254,1113.5531135531135,-1.0,79.92844946743638,3.6075569110588686,
2023-08-09 09:36:16.857000,9.120481927710843,0.1566265060240964,-3.879518072289157,0.2869405272838749,9.716125076640097,-3.2299202942979766,2.0,3.5992673992673994,277.8343171178506,-0.02284249169628734,-0.3728220966144162,0.10570479575782304,1104.7619047619046,-1.0,79.92844946743638,3.6073996555125505,
2023-08-09 09:36:16.865000,9.10843373493976,0.1566265060240964,-3.879518072289157,0.3237277743715512,9.762722256284487,-3.2814224402207235,2.0,3.5992673992673994,277.8343171178506,0.16187867839869427,0.13181050055358118,-0.3066254880251735,1102.5641025641025,-1.0,79.92844946743638,3.6072449629964645,
2023-08-09 09:36:16.873000,9.096385542168676,0.18072289156626506,-3.879518072289157,0.3801348865726548,9.765174739423665,-3.227467811158798,2.0,3.5992673992673994,277.8343171178506,-0.05127906299166698,0.1006934327836371,-0.0588543791154361,1108.4249084249084,-1.0,79.92844946743638,3.6070928156738087,
2023-08-09 09:36:16.880000,9.096385542168676,0.1566265060240964,-3.9036144578313254,0.29675045984058857,9.7725321888412,-3.261802575107296,2.0,3.5992673992673994,277.8343171178506,-0.05069634636676106,0.09999417283375035,-0.025872618145795594,1120.14652014652,-1.0,79.92844946743638,3.606943193980888,
2023-08-09 09:36:16.888000,9.120481927710843,0.14457831325301207,-3.927710843373494,0.20846106683016552,9.75781729000613,-3.2593500919681175,2.0,3.5992673992673994,277.8343171178506,0.24066196608589246,0.3569722044169912,-0.1489423693257967,1139.194139194139,-1.0,79.92844946743638,3.6067960767446623,
2023-08-09 09:36:16.896000,9.10843373493976,0.14457831325301207,-3.8674698795180724,0.29429797670141017,9.765174739423665,-3.2397302268546904,2.0,3.6007326007326,277.7212614445575,0.31839636384826137,0.21478934794009644,-0.07330575141308802,1167.032967032967,-1.0,79.92844946743638,3.606651441720715,
2023-08-09 09:36:16.903000,9.156626506024097,0.12048192771084337,-3.8674698795180724,0.30656039239730226,9.708767627222562,-3.2593500919681175,2.0,3.5992673992673994,277.8343171178506,-0.004312103024299628,0.2569780315832408,-0.2701474273061009,1200.7326007326008,-1.0,79.92844946743638,3.606509266589278,
2023-08-09 09:36:16.911000,9.10843373493976,0.14457831325301207,-3.855421686746988,0.2722256284488044,9.735744941753525,-3.251992642550582,2.0,3.5992673992673994,277.8343171178506,-0.20092069226735085,0.2407785094108733,-0.22143231746401712,1239.5604395604396,-1.0,79.92844946743638,3.6063695285133015,
2023-08-09 09:36:16.919000,9.096385542168676,0.13253012048192772,-3.855421686746988,0.31882280809319435,9.730839975475169,-3.222562844880441,2.0,3.5992673992673994,277.8343171178506,0.07656896451255708,0.4680379931239435,-0.004778276324223407,1279.120879120879,-1.0,79.92844946743638,3.606232203629693,
2023-08-09 09:36:16.926000,9.096385542168676,0.12048192771084337,-3.891566265060241,0.328632740649908,9.762722256284487,-3.202942979767014,2.0,3.5992673992673994,277.8343171178506,-0.09078725016024691,-0.22329701066371485,-0.02004545189674249,1316.4835164835165,-1.0,79.92844946743638,3.606097267491062,
2023-08-09 09:36:16.934000,9.120481927710843,0.10843373493975904,-3.8674698795180724,0.2893930104230533,9.779889638258737,-3.2127529123237277,2.0,3.5992673992673994,277.8343171178506,-0.08868947031058838,-0.22201503408892218,-0.018996561971913226,1346.5201465201465,-1.0,79.92844946743638,3.6059646946285393,
2023-08-09 09:36:16.941000,9.132530120481928,0.14457831325301207,-3.8192771084337354,0.2599632127529123,9.762722256284487,-3.202942979767014,2.0,3.5992673992673994,277.8343171178506,0.2523162985839987,-0.2680496474564411,-0.032515587669716295,1369.9633699633698,-1.0,79.92844946743638,3.6058344586068194,
2023-08-09 09:36:16.949000,9.10843373493976,0.1566265060240964,-3.855421686746988,0.3237277743715512,9.78969957081545,-3.1759656652360513,2.0,3.6007326007326,277.7212614445575,-0.25115086533418857,0.17621350737136493,0.12143814463026635,1387.5457875457876,-1.0,79.92844946743638,3.605706532078869,
2023-08-09 09:36:16.957000,9.120481927710843,0.14457831325301207,-3.855421686746988,0.2795830778663397,9.774984671980379,-3.2176578786020844,2.0,3.5992673992673994,277.8343171178506,-0.21980071091428283,0.5260765689645129,0.12132160130528508,1401.4652014652013,-1.0,79.92844946743638,3.6055808877910045,
2023-08-09 09:36:16.964000,9.10843373493976,0.13253012048192772,-3.879518072289157,0.3139178418148375,9.760269773145309,-3.261802575107296,2.0,3.5992673992673994,277.8343171178506,-0.15663422877454622,0.5076627236175043,0.015034088922556976,1411.7216117216117,-1.0,79.92844946743638,3.605457498149621,
2023-08-09 09:36:16.972000,9.132530120481928,0.14457831325301207,-3.8192771084337354,0.269773145309626,9.814224402207234,-3.1906805640711218,2.0,3.5992673992673994,277.8343171178506,-0.09195268341005701,0.31979488374803317,-0.1956762426432028,1417.5824175824175,-1.0,79.92844946743638,3.605336334262845,
2023-08-09 09:36:16.980000,9.144578313253012,0.13253012048192772,-3.8313253012048194,0.34334763948497854,9.7725321888412,-3.163703249540159,2.0,3.5992673992673994,277.8343171178506,-0.09136996678515283,0.8654507313093648,-0.19124759629392235,1419.7802197802198,-1.0,79.92844946743638,3.605217366457358,
2023-08-09 09:36:16.987000,9.120481927710843,0.14457831325301207,-3.8192771084337354,0.299202942979767,9.828939301042304,-3.1980380134886572,2.0,3.5992673992673994,277.8343171178506,0.15383718897500093,0.5968183672280177,-0.1142124584814406,1417.5824175824175,-1.0,79.92844946743638,3.605100564336981,
2023-08-09 09:36:16.995000,9.120481927710843,0.1566265060240964,-3.807228915662651,0.25260576333537704,9.745554874310239,-3.2004904966278356,2.0,3.5992673992673994,277.8343171178506,0.12062234135539832,0.6703572052910661,-0.021443971796515564,1408.058608058608,-1.0,79.92844946743638,3.604985897298825,
2023-08-09 09:36:17.003000,9.10843373493976,0.13253012048192772,-3.8192771084337354,0.26241569589209074,9.787247087676272,-3.1906805640711218,2.0,3.6007326007326,277.7212614445575,0.12155468795524675,0.6978614299865974,0.02400792494609874,1394.139194139194,-1.0,79.92844946743638,3.6048733345241772,
2023-08-09 09:36:17.010000,9.132530120481928,0.1566265060240964,-3.8192771084337354,0.31882280809319435,9.809319435928877,-3.163703249540159,2.0,3.597802197802197,277.94746487477096,0.04405337684284123,0.35580677116718107,-0.2795874366295669,1375.091575091575,-1.0,79.92844946743638,3.60476284504084,
2023-08-09 09:36:17.018000,9.144578313253012,0.14457831325301207,-3.8313253012048194,0.2575107296137339,9.779889638258737,-3.2372777437155116,2.0,3.5992673992673994,277.8343171178506,0.22854146028786118,0.15267175572519084,-0.04650078666744357,1353.113553113553,-1.0,79.92844946743638,3.604654397787449,
2023-08-09 09:36:17.026000,9.132530120481928,0.14457831325301207,-3.807228915662651,0.27467811158798283,9.748007357449417,-3.222562844880441,2.0,3.5992673992673994,277.8343171178506,-0.29229065905250196,0.025639531495834356,0.16793893129770993,1332.6007326007325,-1.0,79.92844946743638,3.6045479614361438,
2023-08-09 09:36:17.033000,9.144578313253012,0.12048192771084337,-3.807228915662651,0.3703249540159411,9.81912936848559,-3.1710606989576946,2.0,3.5992673992673994,277.8343171178506,0.37946506613833775,-0.13157741390361952,0.045218810092651766,1309.89010989011,-1.0,79.92844946743638,3.604443504001642,
2023-08-09 09:36:17.041000,9.144578313253012,0.13253012048192772,-3.8192771084337354,0.24279583077866337,9.745554874310239,-3.202942979767014,2.0,3.5992673992673994,277.8343171178506,-0.03507954081929947,-0.2118757648155703,0.13717149350270966,1288.6446886446886,-1.0,79.92844946743638,3.6043409929761223,
2023-08-09 09:36:17.049000,9.132530120481928,0.13253012048192772,-3.855421686746988,0.25260576333537704,9.846106683016554,-3.1955855303494785,2.0,3.5992673992673994,277.8343171178506,0.22399627061359986,-0.1827399335703039,-0.04568498339257598,1267.3992673992673,-1.0,79.92844946743638,3.6042403958163645,
2023-08-09 09:36:17.056000,9.132530120481928,0.12048192771084337,-3.855421686746988,0.2795830778663397,9.797057020232986,-3.2103004291845494,2.0,3.5992673992673994,277.8343171178506,0.37678456966377327,-0.183206106870229,0.2291241769127675,1243.956043956044,-1.0,79.92844946743638,3.6041416795162635,
2023-08-09 09:36:17.064000,9.120481927710843,0.13253012048192772,-3.8674698795180724,0.299202942979767,9.811771919068056,-3.222562844880441,2.0,3.5992673992673994,277.8343171178506,0.12994580735388434,-0.12178777460521016,-0.09300157333488714,1225.6410256410256,-1.0,79.92844946743638,3.6040448106705787,
2023-08-09 09:36:17.072000,9.132530120481928,0.13253012048192772,-3.855421686746988,0.30656039239730226,9.7725321888412,-3.2372777437155116,2.0,3.5992673992673994,277.8343171178506,-0.0983625662840169,-0.028669657945341313,-1.1654332498127038E-4,1212.4542124542124,-1.0,79.92844946743638,3.6039497559952745,
2023-08-09 09:36:17.079000,9.120481927710843,0.10843373493975904,-3.8674698795180724,0.26241569589209074,9.863274064990803,-3.2103004291845494,2.0,3.5992673992673994,277.8343171178506,-0.02214323174640232,0.46232737019987213,0.10745294563253907,1202.9304029304028,-1.0,79.92844946743638,3.603856482321484,
2023-08-09 09:36:17.087000,9.084337349397591,0.12048192771084337,-3.843373493975904,0.2795830778663397,9.730839975475169,-3.2078479460453706,2.0,3.5992673992673994,277.8343171178506,0.05372647281626975,0.30674203135015515,-0.06083561564011423,1194.1391941391942,-1.0,79.92844946743638,3.603764956167253,
2023-08-09 09:36:17.095000,9.120481927710843,0.12048192771084337,-3.855421686746988,0.2329858982219497,9.740649908031882,-3.215205395462906,2.0,3.5992673992673994,277.8343171178506,-0.191480682943884,0.1503408892255689,0.0029135831245265527,1186.8131868131868,-1.0,79.92844946743638,3.6036751438002823,
2023-08-09 09:36:17.102000,9.120481927710843,0.10843373493975904,-3.855421686746988,0.2673206621704476,9.748007357449417,-3.283874923359902,2.0,3.5992673992673994,277.8343171178506,-0.15849892197424306,-0.08216304411164765,-0.16327719829846735,1182.4175824175823,-1.0,79.92844946743638,3.6035870117569693,
2023-08-09 09:36:17.110000,9.132530120481928,0.10843373493975904,-3.843373493975904,0.2795830778663397,9.75781729000613,-3.215205395462906,2.0,3.5992673992673994,277.8343171178506,-0.15686731542450963,0.37480333313909386,-0.038342753918769394,1178.021978021978,-1.0,79.92844946743638,3.603500526834844,
2023-08-09 09:36:17.118000,9.096385542168676,0.10843373493975904,-3.855421686746988,0.2918454935622317,9.760269773145309,-3.2372777437155116,2.0,3.5992673992673994,277.8343171178506,-0.03309830429462177,0.5687314259075806,-0.06701241186411028,1173.6263736263736,-1.0,79.92844946743638,3.603415655662542,
2023-08-09 09:36:17.125000,9.096385542168676,0.08433734939759037,-3.879518072289157,0.25015328019619865,9.767627222562844,-3.2299202942979766,2.0,3.5992673992673994,277.8343171178506,0.027970397995454557,0.2566284016082983,-0.4171085601072199,1167.7655677655678,-1.0,79.92844946743638,3.603332364760503,
2023-08-09 09:36:17.133000,9.096385542168676,0.12048192771084337,-3.8674698795180724,0.26241569589209074,9.78969957081545,-3.2053954629061923,2.0,3.597802197802197,277.94746487477096,-0.017831128722102692,0.42235300973136713,-0.24753802225977525,1163.3699633699632,-1.0,79.92844946743638,3.6032506205998875,
2023-08-09 09:36:17.141000,9.132530120481928,0.13253012048192772,-3.8674698795180724,0.3237277743715512,9.748007357449417,-3.2348252605763332,2.0,3.5992673992673994,277.8343171178506,-0.17143523104714195,0.035545714119224546,-0.07831711438727354,1163.3699633699632,-1.0,79.92844946743638,3.603170389167114,
2023-08-09 09:36:17.148000,9.120481927710843,0.1566265060240964,-3.8674698795180724,0.2844880441446965,9.81912936848559,-3.161250766400981,2.0,3.597802197802197,277.94746487477096,0.15127323582541732,-0.010721985898257782,-0.45731600722568616,1166.3003663003662,-1.0,79.92844946743638,3.6030916368978256,
2023-08-09 09:36:17.156000,9.144578313253012,0.14457831325301207,-3.8674698795180724,0.32127529123237275,9.801961986511342,-3.2372777437155116,2.0,3.5992673992673994,277.8343171178506,-0.21537206456500235,-0.1006934327836371,0.1717848610220849,1173.6263736263736,-1.0,79.92844946743638,3.603014330695601,
2023-08-09 09:36:17.164000,9.132530120481928,0.1566265060240964,-3.855421686746988,0.3507050889025138,9.811771919068056,-3.2201103617412628,2.0,3.5963369963369964,278.0607048278672,-0.013169395722860555,0.08402773731134625,-0.15057397587553187,1178.7545787545787,-1.0,79.92844946743638,3.602938437458348,
2023-08-09 09:36:17.171000,9.144578313253012,0.1566265060240964,-3.843373493975904,0.3163703249540159,9.794604537093807,-3.2103004291845494,2.0,3.597802197802197,277.94746487477096,-0.027504224695531213,0.1786609171959677,-0.24171085601072215,1186.8131868131868,-1.0,79.92844946743638,3.602863924587785,
2023-08-09 09:36:17.179000,9.132530120481928,0.16867469879518074,-3.855421686746988,0.3016554261189454,9.784794604537094,-3.151440833844267,2.0,3.597802197802197,277.94746487477096,-0.07237340481324003,0.5753743954315022,0.29450498222714305,1193.4065934065934,-1.0,79.92844946743638,3.6027907593396566,
2023-08-09 09:36:17.187000,9.120481927710843,0.1566265060240964,-3.8192771084337354,0.23543838136112813,9.750459840588595,-3.215205395462906,2.0,3.5992673992673994,277.8343171178506,0.05174523629159206,0.6300332148476204,0.0644484587145271,1200.7326007326008,-1.0,79.92844946743638,3.6027189089416045,
2023-08-09 09:36:17.194000,9.084337349397591,0.1566265060240964,-3.8192771084337354,0.2722256284488044,9.767627222562844,-3.1784181483752296,2.0,3.597802197802197,277.94746487477096,-0.08519317056115634,0.5467047374861609,-0.10337392925820155,1205.8608058608058,-1.0,79.92844946743638,3.602648341165892,
2023-08-09 09:36:17.202000,9.072289156626507,0.13253012048192772,-3.8192771084337354,0.3041079092581238,9.72838749233599,-3.1980380134886572,2.0,3.597802197802197,277.94746487477096,-0.32935143639648085,0.19078142299399725,-0.07039216828856147,1212.4542124542124,-1.0,79.92844946743638,3.6025790239515723,
2023-08-09 09:36:17.210000,9.10843373493976,0.13253012048192772,-3.7951807228915664,0.29675045984058857,9.706315144083383,-3.163703249540159,2.0,3.597802197802197,277.94746487477096,-0.328186003146669,0.18845055649437706,-0.06852747508886418,1218.3150183150183,-1.0,79.92844946743638,3.6025109249202396,
2023-08-09 09:36:17.217000,9.10843373493976,0.13253012048192772,-3.8313253012048194,0.30656039239730226,9.760269773145309,-3.0876762722256283,2.0,3.597802197802197,277.94746487477096,0.14789347940096786,0.04836547986714086,0.2819183031291884,1223.4432234432234,-1.0,79.92844946743638,3.6024440123303885,
2023-08-09 09:36:17.225000,9.132530120481928,0.14457831325301207,-3.8313253012048194,0.2575107296137339,9.784794604537094,-3.1955855303494785,2.0,3.597802197802197,277.94746487477096,0.14766039275100445,-0.09230231338500125,0.0825126740865919,1229.3040293040292,-1.0,79.92844946743638,3.602378255046667,
2023-08-09 09:36:17.233000,9.132530120481928,0.14457831325301207,-3.7951807228915664,0.2795830778663397,9.794604537093807,-3.13182096873084,2.0,3.597802197802197,277.94746487477096,0.1471942194510811,-0.03135015441990576,0.37282209661441656,1237.3626373626373,-1.0,79.92844946743638,3.6023136220861534,
2023-08-09 09:36:17.240000,9.144578313253012,0.14457831325301207,-3.8192771084337354,0.24279583077866337,9.799509503372164,-3.1465358675659103,2.0,3.597802197802197,277.94746487477096,0.1475438494260236,-0.11141541868189489,0.1554687955247361,1246.153846153846,-1.0,79.92844946743638,3.602250082654885,
2023-08-09 09:36:17.248000,9.132530120481928,0.12048192771084337,-3.855421686746988,0.3163703249540159,9.760269773145309,-3.180870631514408,2.0,3.597802197802197,277.94746487477096,0.16269448167356187,0.024007924946099175,0.28902744595303287,1255.6776556776556,-1.0,79.92844946743638,3.602187606182256,
2023-08-09 09:36:17.256000,9.096385542168676,0.13253012048192772,-3.8674698795180724,0.2844880441446965,9.745554874310239,-3.2176578786020844,2.0,3.597802197802197,277.94746487477096,0.31524969407377185,0.1438144630266299,0.05768894586562557,1264.4688644688645,-1.0,79.92844946743638,3.602126162353418,
2023-08-09 09:36:17.263000,9.120481927710843,0.13253012048192772,-3.8674698795180724,0.2207234825260576,9.718577559779275,-3.185775597792765,2.0,3.597802197802197,277.94746487477096,0.41769127673212497,-0.4251500495309124,0.05908746576539821,1272.5274725274724,-1.0,79.92844946743638,3.602065721597756,
2023-08-09 09:36:17.271000,9.144578313253012,0.12048192771084337,-3.855421686746988,0.2820355610055181,9.7725321888412,-3.2299202942979766,2.0,3.5963369963369964,278.0607048278672,0.4281801759804211,-0.37899889283841265,0.07283957811316338,1281.3186813186812,-1.0,79.92844946743638,3.6020062550506844,
2023-08-09 09:36:17.279000,9.144578313253012,0.14457831325301207,-3.855421686746988,0.23789086450030655,9.824034334763947,-3.2814224402207235,2.0,3.597802197802197,277.94746487477096,0.4850533185711786,-0.5323699085134902,-0.18949944641920632,1291.5750915750914,-1.0,79.92844946743638,3.601947733600243,
2023-08-09 09:36:17.286000,9.132530120481928,0.14457831325301207,-3.879518072289157,0.33353770692826484,9.801961986511342,-3.2470876762722254,2.0,3.5963369963369964,278.0607048278672,0.02109434182157132,-0.3907697686614997,-0.3404230522696811,1298.9010989010987,-1.0,79.92844946743638,3.601890128337672,
2023-08-09 09:36:17.294000,9.132530120481928,0.1566265060240964,-3.891566265060241,0.2599632127529123,9.72838749233599,-3.2348252605763332,2.0,3.5963369963369964,278.0607048278672,0.020045451896742058,-0.03717732066895799,-0.23355282326204754,1302.5641025641025,-1.0,79.92844946743638,3.6018334110755736,
2023-08-09 09:36:17.302000,9.060240963855422,0.1566265060240964,-3.9036144578313254,0.3139178418148375,9.706315144083383,-3.3059472716125073,2.0,3.597802197802197,277.94746487477096,-0.16549152147310714,0.130178894003846,-0.018530388671989015,1299.6336996336995,-1.0,79.92844946743638,3.6017775537769907,
2023-08-09 09:36:17.309000,9.060240963855422,0.18072289156626506,-3.9036144578313254,0.33353770692826484,9.703862660944205,-3.283874923359902,2.0,3.5963369963369964,278.0607048278672,0.01666569547229259,0.23600023308665033,-0.23413553988695304,1296.7032967032967,-1.0,79.92844946743638,3.601722529037162,
2023-08-09 09:36:17.317000,9.084337349397591,0.18072289156626506,-3.879518072289157,0.3016554261189454,9.733292458614347,-3.2103004291845494,2.0,3.594871794871794,278.17403708987166,-0.05943709574034115,-0.29753510867665,-0.15616805547462287,1289.3772893772893,-1.0,79.92844946743638,3.6016683096846385,
2023-08-09 09:36:17.324000,9.120481927710843,0.1927710843373494,-3.891566265060241,0.3139178418148375,9.782342121397916,-3.2299202942979766,2.0,3.594871794871794,278.17403708987166,-0.1529048423751525,-0.018064215372064367,0.25826000815803263,1284.9816849816848,-1.0,79.92844946743638,3.601614868699411,
2023-08-09 09:36:17.332000,9.10843373493976,0.1927710843373494,-3.855421686746988,0.3850398528510116,9.75781729000613,-3.2004904966278356,2.0,3.5963369963369964,278.0607048278672,0.22784220033797614,-0.018646931996970283,0.4392517918536214,1280.5860805860805,-1.0,79.92844946743638,3.6015621794823622,
2023-08-09 09:36:17.340000,9.120481927710843,0.21686746987951808,-3.843373493975904,0.35561005518087063,9.797057020232986,-3.1955855303494785,2.0,3.5963369963369964,278.0607048278672,0.2847153429287337,0.37363789988928375,0.3894877920867083,1273.9926739926739,-1.0,79.92844946743638,3.6015102153823126,
2023-08-09 09:36:17.347000,9.144578313253012,0.1927710843373494,-3.855421686746988,0.34580012262415694,9.797057020232986,-3.1833231146535867,2.0,3.594871794871794,278.17403708987166,0.35755492104189707,0.07831711438727311,0.40312336110949265,1268.131868131868,-1.0,79.92844946743638,3.601458949851821,
2023-08-09 09:36:17.355000,9.168674698795181,0.18072289156626506,-3.7831325301204823,0.3359901900674433,9.855916615573268,-3.1489883507050886,2.0,3.5963369963369964,278.0607048278672,0.6274692616980367,-0.534234601713187,0.15745003204941424,1263.003663003663,-1.0,79.92844946743638,3.6014083560039434,
2023-08-09 09:36:17.363000,9.156626506024097,0.20481927710843376,-3.771084337349398,0.3948497854077253,9.848559166155733,-3.1072961373390555,2.0,3.594871794871794,278.17403708987166,0.5630208029835092,-0.6258376551483016,0.30953907114970003,1260.8058608058607,-1.0,79.92844946743638,3.6013584070458324,
2023-08-09 09:36:17.370000,9.156626506024097,0.18072289156626506,-3.7831325301204823,0.3114653586756591,9.811771919068056,-3.1686082158185163,2.0,3.594871794871794,278.17403708987166,0.1157275217061945,0.0027970397995452823,0.275974593555154,1260.07326007326,-1.0,79.92844946743638,3.6013090763224724,
2023-08-09 09:36:17.378000,9.168674698795181,0.16867469879518074,-3.7831325301204823,0.2918454935622317,9.843654199877376,-3.1955855303494785,2.0,3.594871794871794,278.17403708987166,0.4960083911193981,0.4154769535574856,0.030068177845113953,1260.07326007326,-1.0,79.92844946743638,3.601260336796992,
2023-08-09 09:36:17.386000,9.132530120481928,0.16867469879518074,-3.8192771084337354,0.3139178418148375,9.809319435928877,-3.232372777437155,2.0,3.594871794871794,278.17403708987166,0.7346891206806129,0.242759745935551,0.16630732474797516,1265.9340659340658,-1.0,79.92844946743638,3.6012121619705963,
2023-08-09 09:36:17.393000,9.132530120481928,0.13253012048192772,-3.8192771084337354,0.2722256284488044,9.730839975475169,-3.222562844880441,2.0,3.594871794871794,278.17403708987166,0.5134898898665583,0.04079016374337087,0.3931006351611212,1280.5860805860805,-1.0,79.92844946743638,3.6011645258185347,
2023-08-09 09:36:17.401000,9.132530120481928,0.13253012048192772,-3.855421686746988,0.24770079705702022,9.7725321888412,-3.22501532801962,2.0,3.594871794871794,278.17403708987166,0.6923838937124877,-0.3876230988870119,-0.19148068294388446,1305.4945054945053,-1.0,79.92844946743638,3.6011174027622075,
2023-08-09 09:36:17.409000,9.120481927710843,0.12048192771084337,-3.855421686746988,0.23053341508277128,9.765174739423665,-3.1980380134886572,2.0,3.593406593406593,278.28746177370033,0.9002971854787009,-0.6296835848726762,-0.3118699376493211,1347.985347985348,-1.0,79.92844946743638,3.601070767149934,
2023-08-09 09:36:17.416000,9.096385542168676,0.12048192771084337,-3.855421686746988,0.3114653586756591,9.814224402207234,-3.173513182096873,2.0,3.593406593406593,278.28746177370033,1.0735971097255397,-0.3379756424450784,-0.23436862653691515,1412.4542124542124,-1.0,79.92844946743638,3.601024592348391,
2023-08-09 09:36:17.424000,9.084337349397591,0.12048192771084337,-3.855421686746988,0.23053341508277128,9.74310239117106,-3.2004904966278356,2.0,3.593406593406593,278.28746177370033,0.34753219509352606,-0.6418040906707074,0.14929199930074008,1504.0293040293038,-1.0,79.92844946743638,3.6009788516251717,
2023-08-09 09:36:17.432000,9.10843373493976,0.13253012048192772,-3.879518072289157,0.2575107296137339,9.765174739423665,-3.163703249540159,2.0,3.593406593406593,278.28746177370033,0.4492745178019924,-0.48423751529631104,0.4392517918536214,1621.9780219780218,-1.0,79.92844946743638,3.600933518080108,
2023-08-09 09:36:17.439000,9.096385542168676,0.12048192771084337,-3.8192771084337354,0.2575107296137339,9.735744941753525,-3.202942979767014,2.0,3.593406593406593,278.28746177370033,0.5984499737777512,-0.392284831886254,0.5132568032165957,1763.3699633699632,-1.0,79.92844946743638,3.600888564680243,
2023-08-09 09:36:17.447000,9.096385542168676,0.10843373493975904,-3.843373493975904,0.22562844880441446,9.703862660944205,-3.215205395462906,2.0,3.593406593406593,278.28746177370033,0.2104772449157968,-0.25336518850882794,0.6153487559000059,1918.6813186813185,781.31103515625,76.79400046871338,3.6008439646827886,
2023-08-09 09:36:17.455000,9.120481927710843,0.10843373493975904,-3.855421686746988,0.24770079705702022,9.779889638258737,-3.1759656652360513,2.0,3.593406593406593,278.28746177370033,0.14847619602587203,-0.43459005885437924,0.5351669483130355,2079.8534798534797,-1.0,76.79400046871338,3.6007996911446094,
2023-08-09 09:36:17.462000,9.084337349397591,0.0963855421686747,-3.843373493975904,0.18148375229920294,9.694052728387492,-3.1980380134886572,2.0,3.593406593406593,278.28746177370033,0.1630441116485061,-0.39974360468504144,0.483654798671406,2236.6300366300366,-1.0,76.79400046871338,3.600755717382247,
2023-08-09 09:36:17.470000,9.084337349397591,0.12048192771084337,-3.855421686746988,0.2893930104230533,9.745554874310239,-3.1955855303494785,2.0,3.59047619047619,278.51458885941645,0.14696113280111944,-0.4117475671580902,0.1443971796515354,2372.161172161172,-1.0,76.79400046871338,3.6007120164492736,
2023-08-09 09:36:17.478000,9.096385542168676,0.10843373493975904,-3.843373493975904,0.21091354996934394,9.770079705702022,-3.2397302268546904,2.0,3.591941391941391,278.40097899245364,0.17831128722102518,-0.22807528698793783,0.6017131868772215,2484.2490842490843,-1.0,76.79400046871338,3.6006685606487214,
2023-08-09 09:36:17.485000,9.10843373493976,0.10843373493975904,-3.855421686746988,0.30901287553648066,9.777437155119559,-3.2078479460453706,2.0,3.591941391941391,278.40097899245364,-0.1604801584989225,-0.8845638366062584,0.183206106870229,2565.5677655677655,-1.0,76.79400046871338,3.600625322243029,
2023-08-09 09:36:17.493000,9.120481927710843,0.10843373493975904,-3.843373493975904,0.27713059472716123,9.752912323727774,-3.151440833844267,2.0,3.591941391941391,278.40097899245364,-0.16129596177379008,-0.8775712371073944,0.18122487034555088,2614.6520146520143,-1.0,76.79400046871338,3.6005822730010015,
2023-08-09 09:36:17.501000,9.144578313253012,0.12048192771084337,-3.8674698795180724,0.2844880441446965,9.755364806866952,-3.254445125689761,2.0,3.591941391941391,278.40097899245364,0.20465007866674456,-0.1386865567274627,0.6690752287162752,2632.967032967033,-1.0,76.79400046871338,3.600539384271998,
2023-08-09 09:36:17.508000,9.144578313253012,0.12048192771084337,-3.855421686746988,0.269773145309626,9.860821581851624,-3.222562844880441,2.0,3.591941391941391,278.40097899245364,0.0015150632247543454,-0.4747975059728459,0.3288852630965562,2617.5824175824173,-1.0,76.79400046871338,3.600496626956189,
2023-08-09 09:36:17.516000,9.132530120481928,0.12048192771084337,-3.843373493975904,0.27467811158798283,9.816676885346412,-3.2348252605763332,2.0,3.591941391941391,278.40097899245364,-0.12376901112988785,-0.6837596876638884,0.4478759979022202,2567.7655677655675,-1.0,76.79400046871338,3.6004539715450976,
2023-08-09 09:36:17.524000,9.144578313253012,0.12048192771084337,-3.8313253012048194,0.3163703249540159,9.801961986511342,-3.215205395462906,2.0,3.591941391941391,278.40097899245364,-0.07994872093700829,-0.18716857991958438,0.37014160013985214,2490.10989010989,-1.0,76.79400046871338,3.6004113885516205,
2023-08-09 09:36:17.531000,9.168674698795181,0.13253012048192772,-3.843373493975904,0.22562844880441446,9.755364806866952,-3.251992642550582,2.0,3.591941391941391,278.40097899245364,-0.21921799428937688,-0.5643027795583002,0.30615931472524927,2389.010989010989,-1.0,76.79400046871338,3.600368848028032,
2023-08-09 09:36:17.539000,9.156626506024097,0.12048192771084337,-3.8674698795180724,0.22808093194359289,9.799509503372164,-3.202942979767014,2.0,3.59047619047619,278.51458885941645,0.04067362041839003,-0.06945982168871218,0.16607423809801306,2273.9926739926736,-1.0,76.79400046871338,3.6003263195781425,
2023-08-09 09:36:17.547000,9.132530120481928,0.13253012048192772,-3.843373493975904,0.2893930104230533,9.801961986511342,-3.251992642550582,2.0,3.591941391941391,278.40097899245364,0.17574733407144158,-0.23751529631140295,0.07388846803799308,2149.4505494505493,-1.0,76.79400046871338,3.600283771878614,
2023-08-09 09:36:17.554000,9.10843373493976,0.12048192771084337,-3.8674698795180724,0.25015328019619865,9.738197424892704,-3.291232372777437,2.0,3.59047619047619,278.51458885941645,0.11211467863178164,-0.1889167297943004,-0.03239904434473502,2019.7802197802196,-1.0,76.79400046871338,3.600241173573449,
2023-08-09 09:36:17.562000,9.10843373493976,0.12048192771084337,-3.855421686746988,0.2452483139178418,9.733292458614347,-3.185775597792765,2.0,3.59047619047619,278.51458885941645,0.2308723267874831,-0.2429928325855144,0.16887127789755835,1892.3076923076922,-1.0,76.79400046871338,3.6001984927992767,
2023-08-09 09:36:17.570000,9.120481927710843,0.13253012048192772,-3.8674698795180724,0.35806253832004903,9.75781729000613,-3.222562844880441,2.0,3.59047619047619,278.51458885941645,0.21140959151564523,-0.6778159780898553,0.10745294563253864,1771.4285714285713,-1.0,76.79400046871338,3.60015569625493,
2023-08-09 09:36:17.577000,9.096385542168676,0.13253012048192772,-3.8192771084337354,0.25015328019619865,9.716125076640097,-3.1955855303494785,2.0,3.5890109890109883,278.62829148805884,0.2999825185012528,-0.37480333313909386,0.40032632130994694,1660.8058608058607,-1.0,76.79400046871338,3.6001127501696053,
2023-08-09 09:36:17.585000,9.060240963855422,0.14457831325301207,-3.843373493975904,0.26486817903126914,9.745554874310239,-3.227467811158798,2.0,3.5890109890109883,278.62829148805884,-0.008041489423693338,-0.5632538896334709,0.38424334246256026,1560.4395604395604,-1.0,76.79400046871338,3.6000696202884352,
2023-08-09 09:36:17.593000,9.072289156626507,0.12048192771084337,-3.8674698795180724,0.3163703249540159,9.721030042918455,-3.1833231146535867,2.0,3.5890109890109883,278.62829148805884,-0.236233319736612,-0.32760328652176485,0.5932055241536041,1478.3882783882782,-1.0,76.79400046871338,3.600026271298594,
2023-08-09 09:36:17.600000,9.096385542168676,0.13253012048192772,-3.855421686746988,0.25260576333537704,9.740649908031882,-3.126916002452483,2.0,3.5890109890109883,278.62829148805884,0.0870578637608532,-0.24940271545947254,0.4357554921041898,1408.058608058608,-1.0,76.79400046871338,3.5999826673450808,
2023-08-09 09:36:17.608000,9.10843373493976,0.10843373493975904,-3.879518072289157,0.25260576333537704,9.760269773145309,-3.2397302268546904,2.0,3.5890109890109883,278.62829148805884,0.1003438028086946,-0.12843074412913,0.35335936134257917,1349.4505494505493,-1.0,76.79400046871338,3.5999387724796033,
2023-08-09 09:36:17.616000,9.10843373493976,0.14457831325301207,-3.879518072289157,0.26486817903126914,9.784794604537094,-3.2765174739423664,2.0,3.5890109890109883,278.62829148805884,0.29765165200163085,-0.28086941320435915,0.15337101567507716,1300.3663003663003,-1.0,76.79400046871338,3.5998945501989086,
2023-08-09 09:36:17.623000,9.144578313253012,0.14457831325301207,-3.879518072289157,0.30656039239730226,9.865726548129981,-3.251992642550582,2.0,3.587545787545787,278.742086992036,0.39997669133500313,-0.5849309480799482,0.2448575257852104,1257.142857142857,-1.0,76.79400046871338,3.5998499634785857,
2023-08-09 09:36:17.631000,9.144578313253012,0.1566265060240964,-3.927710843373494,0.33353770692826484,9.792152053954629,-3.291232372777437,2.0,3.587545787545787,278.742086992036,0.47374861604801666,-0.7517044461278479,0.07447118466289857,1222.7106227106226,-1.0,76.79400046871338,3.599804974775136,
2023-08-09 09:36:17.639000,9.144578313253012,0.14457831325301207,-3.91566265060241,0.33353770692826484,9.816676885346412,-3.2593500919681175,2.0,3.587545787545787,278.742086992036,0.4103490472583184,-0.7824718839228478,0.22318046733873315,1190.4761904761904,-1.0,76.79400046871338,3.599759545926682,
2023-08-09 09:36:17.646000,9.132530120481928,0.14457831325301207,-3.891566265060241,0.3237277743715512,9.831391784181482,-3.3010423053341507,2.0,3.587545787545787,278.742086992036,0.010721985898257782,-0.1052386224578984,0.15919818192413068,1164.8351648351647,-1.0,76.79400046871338,3.5997136381604995,
2023-08-09 09:36:17.654000,9.10843373493976,0.1566265060240964,-3.891566265060241,0.30901287553648066,9.745554874310239,-3.315757204169221,2.0,3.587545787545787,278.742086992036,0.6226909853738121,0.04696695996736735,0.14264902977681937,1142.857142857143,-1.0,76.79400046871338,3.5996672121377578,
2023-08-09 09:36:17.662000,9.096385542168676,0.16867469879518074,-3.9036144578313254,0.2452483139178418,9.676885346413243,-3.3231146535867566,2.0,3.587545787545787,278.742086992036,0.15978089854903574,0.18134141367053214,-0.04358720354291745,1124.5421245421244,-1.0,76.79400046871338,3.599620228000842,
2023-08-09 09:36:17.669000,9.048192771084338,0.1566265060240964,-3.9397590361445785,0.2550582464745555,9.752912323727774,-3.3083997547516857,2.0,3.587545787545787,278.742086992036,0.21945108093933857,0.3604685041664232,0.12272012120505772,1109.89010989011,-1.0,76.79400046871338,3.5995726454234354,
2023-08-09 09:36:17.677000,9.084337349397591,0.13253012048192772,-3.9759036144578315,0.2599632127529123,9.708767627222562,-3.293684855916615,2.0,3.587545787545787,278.742086992036,0.11164850533185655,0.38902161878678365,-0.3056931414253246,1098.9010989010987,-1.0,76.79400046871338,3.5995244236635546,
2023-08-09 09:36:17.685000,9.084337349397591,0.14457831325301207,-3.91566265060241,0.2575107296137339,9.689147762109135,-3.337829552421827,2.0,3.587545787545787,278.742086992036,0.17341646757181964,0.17329992424683882,-0.4108152205582426,1091.5750915750914,-1.0,76.79400046871338,3.5994755211618026,
2023-08-09 09:36:17.692000,9.096385542168676,0.13253012048192772,-3.891566265060241,0.3678724708767627,9.770079705702022,-3.2421827099938687,2.0,3.5860805860805858,278.855975485189,0.09673095973428172,-0.01200396247304872,-0.17842783054600517,1087.9120879120878,-1.0,76.79400046871338,3.599425895667985,
2023-08-09 09:36:17.700000,9.084337349397591,0.14457831325301207,-3.951807228915663,0.3114653586756591,9.752912323727774,-3.2716125076640097,2.0,3.5860805860805858,278.855975485189,0.26385408775712405,0.07586970456267034,-0.05349338616630721,1087.9120879120878,-1.0,76.79400046871338,3.5993755047574396,
2023-08-09 09:36:17.707000,9.096385542168676,0.13253012048192772,-3.9036144578313254,0.25260576333537704,9.755364806866952,-3.274064990803188,2.0,3.5860805860805858,278.855975485189,-0.3348289726705906,-0.24660567565992728,-0.05500844939106155,1094.5054945054944,-1.0,76.79400046871338,3.599324305754157,
2023-08-09 09:36:17.715000,9.120481927710843,0.1566265060240964,-3.9036144578313254,0.2452483139178418,9.740649908031882,-3.2789699570815447,2.0,3.5860805860805858,278.855975485189,-0.06001981236524707,-0.4095332439834508,0.06736204183905366,1107.6923076923076,-1.0,76.79400046871338,3.599272255761522,
2023-08-09 09:36:17.723000,9.120481927710843,0.1566265060240964,-3.9036144578313254,0.31882280809319435,9.777437155119559,-3.2176578786020844,2.0,3.5860805860805858,278.855975485189,0.07412155468795606,-0.40545422760911287,-0.03950818716857993,1125.2747252747251,-1.0,76.79400046871338,3.5992193117308298,
2023-08-09 09:36:17.730000,9.096385542168676,0.1566265060240964,-3.927710843373494,0.30656039239730226,9.806866952789699,-3.2887798896382585,2.0,3.5860805860805858,278.855975485189,0.2096614416409292,0.3468329351436393,0.17306683759687627,1152.3809523809523,-1.0,76.79400046871338,3.5991654305328966,
2023-08-09 09:36:17.738000,9.096385542168676,0.1566265060240964,-3.927710843373494,0.3016554261189454,9.801961986511342,-3.256897608828939,2.0,3.5846153846153843,278.9699570815451,0.039624730493560766,0.22248120738884725,0.15407027562496348,1180.952380952381,-1.0,76.79400046871338,3.5991105690327707,
2023-08-09 09:36:17.746000,9.096385542168676,0.13253012048192772,-3.8674698795180724,0.269773145309626,9.750459840588595,-3.2765174739423664,2.0,3.5846153846153843,278.9699570815451,0.19008216304411224,0.7684866849251214,-0.07983217761202745,1211.7216117216117,-1.0,76.79400046871338,3.599054684132779,
2023-08-09 09:36:17.753000,9.084337349397591,0.13253012048192772,-3.9036144578313254,0.2452483139178418,9.708767627222562,-3.2985898221949723,2.0,3.5846153846153843,278.9699570815451,-0.18052561039566456,0.7624264320261057,-0.265951867606783,1245.4212454212454,-1.0,76.79400046871338,3.5989977322561844,
2023-08-09 09:36:17.761000,9.096385542168676,0.12048192771084337,-3.8674698795180724,0.299202942979767,9.723482526057634,-3.2593500919681175,2.0,3.5846153846153843,278.9699570815451,-0.028203484645416232,0.19404463609346762,-0.08099761086183799,1281.3186813186812,-1.0,76.79400046871338,3.5989396699203144,
2023-08-09 09:36:17.769000,9.132530120481928,0.14457831325301207,-3.855421686746988,0.31882280809319435,9.7725321888412,-3.2176578786020844,2.0,3.5846153846153843,278.9699570815451,-0.029718547870170576,0.1931122894936192,-0.08029835091195167,1314.2857142857142,-1.0,76.79400046871338,3.5988804542422943,
2023-08-09 09:36:17.776000,9.120481927710843,0.14457831325301207,-3.8674698795180724,0.2158185162477008,9.760269773145309,-3.2421827099938687,2.0,3.581684981684981,279.1982000409082,-0.030883981119980676,0.1764465940213266,0.25383136180875215,1342.8571428571427,-1.0,76.79400046871338,3.5988200420755385,
2023-08-09 09:36:17.784000,9.10843373493976,0.14457831325301207,-3.855421686746988,0.27713059472716123,9.767627222562844,-3.2078479460453706,2.0,3.5831501831501833,279.08403189531793,0.21234193811549365,0.06899364838878884,0.22061651418914954,1368.4981684981683,-1.0,76.79400046871338,3.598758390096154,
2023-08-09 09:36:17.792000,9.132530120481928,0.13253012048192772,-3.891566265060241,0.3041079092581238,9.824034334763947,-3.254445125689761,2.0,3.5831501831501833,279.08403189531793,-0.0632830254647157,0.007342229473806583,0.08088106753685671,1390.4761904761904,-1.0,76.79400046871338,3.59869545559551,
2023-08-09 09:36:17.799000,9.10843373493976,0.13253012048192772,-3.8674698795180724,0.25015328019619865,9.794604537093807,-3.1906805640711218,2.0,3.5831501831501833,279.08403189531793,-0.06374919876464077,-0.16059670182390334,-0.0406736204183909,1405.128205128205,-1.0,76.79400046871338,3.5986311961107726,
2023-08-09 09:36:17.807000,9.120481927710843,0.12048192771084337,-3.9036144578313254,0.25015328019619865,9.811771919068056,-3.1931330472103,2.0,3.5831501831501833,279.08403189531793,0.04242177029310605,0.2829671930540177,0.05127906299166698,1410.989010989011,-1.0,76.79400046871338,3.598565569125289,
2023-08-09 09:36:17.815000,9.10843373493976,0.12048192771084337,-3.843373493975904,0.24034334763948498,9.814224402207234,-3.2176578786020844,2.0,3.5831501831501833,279.08403189531793,0.08612551716100478,0.15721694539945213,-0.0713245148884099,1409.5238095238094,-1.0,76.79400046871338,3.5984985326481667,
2023-08-09 09:36:17.822000,9.10843373493976,0.0963855421686747,-3.8674698795180724,0.2452483139178418,9.80441446965052,-3.2397302268546904,2.0,3.5831501831501833,279.08403189531793,0.17551424742147817,0.5974010838529219,-0.1185245615057398,1400.0,-1.0,76.79400046871338,3.5984300453019804,
2023-08-09 09:36:17.830000,9.132530120481928,0.0963855421686747,-3.8674698795180724,0.2722256284488044,9.74310239117106,-3.2176578786020844,2.0,3.581684981684981,279.1982000409082,0.47980886894703056,0.731542450906125,-0.05629042596585249,1383.8827838827838,-1.0,76.79400046871338,3.5983600664112085,
2023-08-09 09:36:17.838000,9.156626506024097,0.08433734939759037,-3.891566265060241,0.26241569589209074,9.843654199877376,-3.2470876762722254,2.0,3.581684981684981,279.1982000409082,0.10850183555736877,0.3745702464891322,-0.04009090379348498,1361.904761904762,-1.0,76.79400046871338,3.5982885555986575,
2023-08-09 09:36:17.845000,9.132530120481928,0.0963855421686747,-3.843373493975904,0.2599632127529123,9.777437155119559,-3.2299202942979766,2.0,3.581684981684981,279.1982000409082,0.26094050463259794,0.1128139385816684,-0.3915855719363673,1339.9267399267399,-1.0,76.79400046871338,3.5982154728029383,
2023-08-09 09:36:17.853000,9.10843373493976,0.14457831325301207,-3.8192771084337354,0.22317596566523604,9.740649908031882,-3.2004904966278356,2.0,3.581684981684981,279.1982000409082,0.1984732824427481,0.8162694481673564,0.06887710506380713,1317.9487179487178,-1.0,76.79400046871338,3.598140778820979,
2023-08-09 09:36:17.861000,9.132530120481928,0.12048192771084337,-3.855421686746988,0.2722256284488044,9.7725321888412,-3.2201103617412628,2.0,3.581684981684981,279.1982000409082,-0.35102849484295806,0.5809684750305928,0.09696404638424339,1300.3663003663003,-1.0,76.79400046871338,3.5980644353924327,
2023-08-09 09:36:17.868000,9.10843373493976,0.10843373493975904,-3.855421686746988,0.2452483139178418,9.767627222562844,-3.1661557326793375,2.0,3.58021978021978,279.31246163290365,-0.13600606025289824,-0.12913000407901673,0.26455334770700994,1282.051282051282,-1.0,76.79400046871338,3.5979864057417124,
2023-08-09 09:36:17.876000,9.10843373493976,0.10843373493975904,-3.879518072289157,0.2844880441446965,9.713672593500918,-3.2887798896382585,2.0,3.58021978021978,279.31246163290365,-0.21129304819066438,-0.036128430744128734,-0.21350737136530507,1265.9340659340658,-1.0,76.79400046871338,3.597906653644025,
2023-08-09 09:36:17.884000,9.084337349397591,0.12048192771084337,-3.879518072289157,0.2918454935622317,9.74310239117106,-3.227467811158798,2.0,3.58021978021978,279.31246163290365,-0.1196899947555499,0.26968125400617626,-0.014334828972670657,1251.2820512820513,-1.0,76.79400046871338,3.5978251434733286,
2023-08-09 09:36:17.891000,9.144578313253012,0.13253012048192772,-3.891566265060241,0.2918454935622317,9.75781729000613,-3.2397302268546904,2.0,3.58021978021978,279.31246163290365,0.20022143231746412,0.34415243866907486,-0.3202610570479574,1238.095238095238,-1.0,76.79400046871338,3.5977418411623394,
2023-08-09 09:36:17.899000,9.120481927710843,0.13253012048192772,-3.843373493975904,0.2918454935622317,9.748007357449417,-3.222562844880441,2.0,3.58021978021978,279.31246163290365,-0.014451372297651493,0.8322358836897622,-0.07517044461278445,1224.1758241758241,-1.0,76.79400046871338,3.5976567133317943,
2023-08-09 09:36:17.907000,9.060240963855422,0.16867469879518074,-3.843373493975904,0.2673206621704476,9.809319435928877,-3.2201103617412628,2.0,3.58021978021978,279.31246163290365,-0.04370374686789872,0.8727929607831714,-0.13670532020278542,1212.4542124542124,-1.0,76.79400046871338,3.5975697278935197,
2023-08-09 09:36:17.914000,9.072289156626507,0.16867469879518074,-3.855421686746988,0.328632740649908,9.755364806866952,-3.296137339055794,2.0,3.58021978021978,279.31246163290365,-0.07517044461278531,0.6538080531437561,-0.061884505564943924,1200.0,-1.0,76.79400046871338,3.5974808545475674,
2023-08-09 09:36:17.922000,9.120481927710843,0.16867469879518074,-3.8674698795180724,0.3727774371551195,9.792152053954629,-3.156345800122624,2.0,3.58021978021978,279.31246163290365,0.10582133908280432,0.34473515529398074,0.04323757356797407,1187.5457875457876,-1.0,76.79400046871338,3.597390064364245,
2023-08-09 09:36:17.930000,9.144578313253012,0.14457831325301207,-3.843373493975904,0.33108522378908645,9.7725321888412,-3.2176578786020844,2.0,3.577289377289377,279.5412656154004,0.19590932929316449,-0.1434648330516874,0.10337392925820155,1177.2893772893772,-1.0,76.79400046871338,3.597297329856834,
2023-08-09 09:36:17.937000,9.144578313253012,0.14457831325301207,-3.843373493975904,0.3041079092581238,9.799509503372164,-3.2176578786020844,2.0,3.577289377289377,279.5412656154004,-0.03659460404405381,-0.3278363731717265,0.19346191946856256,1168.4981684981685,-1.0,76.79400046871338,3.59720262452481,
2023-08-09 09:36:17.945000,9.156626506024097,0.1566265060240964,-3.843373493975904,0.31882280809319435,9.816676885346412,-3.232372777437155,2.0,3.577289377289377,279.5412656154004,0.14486335295145916,0.34415243866907486,0.19124759629392235,1164.8351648351647,-1.0,76.79400046871338,3.5971059222529824,
2023-08-09 09:36:17.953000,9.144578313253012,0.14457831325301207,-3.843373493975904,0.24770079705702022,9.755364806866952,-3.2004904966278356,2.0,3.578754578754578,279.4268167860799,0.23588368976166948,0.14043470660217872,0.11258085193170585,1161.904761904762,-1.0,76.79400046871338,3.597007197861591,
2023-08-09 09:36:17.960000,9.132530120481928,0.1566265060240964,-3.843373493975904,0.33353770692826484,9.735744941753525,-3.232372777437155,2.0,3.577289377289377,279.5412656154004,0.06281685216479235,0.4606957636501369,0.1577996620243576,1162.6373626373625,-1.0,76.79400046871338,3.5969064281431486,
2023-08-09 09:36:17.968000,9.132530120481928,0.1566265060240964,-3.8313253012048194,0.3163703249540159,9.777437155119559,-3.2299202942979766,2.0,3.577289377289377,279.5412656154004,0.07447118466289857,0.2773731134549271,-0.17901054717091108,1164.8351648351647,-1.0,76.79400046871338,3.5968035914902683,
2023-08-09 09:36:17.976000,9.156626506024097,0.1566265060240964,-3.8192771084337354,0.30656039239730226,9.83629675045984,-3.1882280809319434,2.0,3.577289377289377,279.5412656154004,0.17807820057106177,0.3243400734222945,-0.23926344618611983,1165.5677655677655,-1.0,76.79400046871338,3.5966986674162906,
2023-08-09 09:36:17.983000,9.156626506024097,0.1566265060240964,-3.7831325301204823,0.2820355610055181,9.83629675045984,-3.1661557326793375,2.0,3.577289377289377,279.5412656154004,0.15919818192412982,-0.1495250859507013,0.035196084144280736,1168.4981684981685,-1.0,76.79400046871338,3.5965916370558535,
2023-08-09 09:36:17.991000,9.132530120481928,0.1566265060240964,-3.771084337349398,0.2575107296137339,9.797057020232986,-3.144083384426732,2.0,3.577289377289377,279.5412656154004,0.01829730202202604,-0.21863527766447097,-0.043587203542917015,1171.4285714285713,-1.0,76.79400046871338,3.5964824832045914,
2023-08-09 09:36:17.999000,9.156626506024097,0.14457831325301207,-3.771084337349398,0.3237277743715512,9.797057020232986,-3.1661557326793375,2.0,3.575824175824176,279.6558082360172,-0.18075869704562622,-0.09067070683526607,0.13833692675252018,1172.8937728937728,-1.0,76.79400046871338,3.596371190355976,
2023-08-09 09:36:18.006000,9.144578313253012,0.14457831325301207,-3.7951807228915664,0.3114653586756591,9.777437155119559,-3.180870631514408,2.0,3.577289377289377,279.5412656154004,-0.042654856943067726,0.036944234018996325,0.48750072839578096,1174.3589743589744,-1.0,76.79400046871338,3.596257744242745,
2023-08-09 09:36:18.014000,9.156626506024097,0.14457831325301207,-3.8313253012048194,0.2599632127529123,9.748007357449417,-3.2348252605763332,2.0,3.575824175824176,279.6558082360172,-0.43995105180350813,-0.35522405454227685,0.14731076277606195,1177.2893772893772,-1.0,76.79400046871338,3.5961421322888834,
2023-08-09 09:36:18.022000,9.144578313253012,0.12048192771084337,-3.8192771084337354,0.3163703249540159,9.811771919068056,-3.2397302268546904,2.0,3.575824175824176,279.6558082360172,-0.514189149816445,0.0927684866849246,0.28063632655439663,1181.6849816849815,-1.0,76.79400046871338,3.59602434367048,
2023-08-09 09:36:18.029000,9.132530120481928,0.08433734939759037,-3.855421686746988,0.24770079705702022,9.81912936848559,-3.2814224402207235,2.0,3.575824175824176,279.6558082360172,-0.34217120214439717,-0.013752112347764738,0.032981760969640506,1189.0109890109889,-1.0,76.79400046871338,3.5959043688117873,
2023-08-09 09:36:18.037000,9.132530120481928,0.08433734939759037,-3.8192771084337354,0.15695892090741875,9.740649908031882,-3.2421827099938687,2.0,3.575824175824176,279.6558082360172,-0.7097488491346653,-0.2577938348581084,0.09416700658469768,1198.5347985347985,-1.0,76.79400046871338,3.595782199861525,
2023-08-09 09:36:18.045000,9.132530120481928,0.10843373493975904,-3.8192771084337354,0.22808093194359289,9.814224402207234,-3.232372777437155,2.0,3.575824175824176,279.6558082360172,-0.7029893362857645,-0.25686148825826,0.0928850300099063,1210.2564102564102,-1.0,76.79400046871338,3.595657830708748,
2023-08-09 09:36:18.052000,9.144578313253012,0.0963855421686747,-3.807228915662651,0.2795830778663397,9.740649908031882,-3.1931330472103,2.0,3.5743589743589737,279.7704447632712,-0.5009032107686037,-0.3786492628634701,0.2907755958277489,1223.4432234432234,-1.0,76.79400046871338,3.59553125699634,
2023-08-09 09:36:18.060000,9.096385542168676,0.0963855421686747,-3.8192771084337354,0.21091354996934394,9.725935009196812,-3.180870631514408,2.0,3.5743589743589737,279.7704447632712,-0.5884272478293802,-0.1786609171959677,0.18040906707068372,1240.2930402930401,-1.0,76.79400046871338,3.595402475639677,
2023-08-09 09:36:18.067000,9.120481927710843,0.10843373493975904,-3.843373493975904,0.3016554261189454,9.755364806866952,-3.22501532801962,2.0,3.5743589743589737,279.7704447632712,-0.8725598741332097,0.03507954081929947,0.10349047258318282,1257.142857142857,-1.0,76.79400046871338,3.595271485221692,
2023-08-09 09:36:18.075000,9.120481927710843,0.0963855421686747,-3.807228915662651,0.25015328019619865,9.69650521152667,-3.161250766400981,2.0,3.5743589743589737,279.7704447632712,-0.8662665345842324,-0.1798263504457778,0.4063865742089621,1272.5274725274724,-1.0,76.79400046871338,3.595138285927671,
2023-08-09 09:36:18.083000,9.096385542168676,0.12048192771084337,-3.843373493975904,0.2329858982219497,9.703862660944205,-3.261802575107296,2.0,3.571428571428571,280.0,-0.5869121846046276,0.32515587669716206,0.20383427539187698,1282.051282051282,-1.0,76.79400046871338,3.5950028791240474,
2023-08-09 09:36:18.090000,9.060240963855422,0.12048192771084337,-3.855421686746988,0.3016554261189454,9.765174739423665,-3.244635193133047,2.0,3.5728937728937726,279.88517531269224,-0.5838820581551188,0.4330749956296249,0.49216246139502356,1290.10989010989,-1.0,76.79400046871338,3.594865267778843,
2023-08-09 09:36:18.098000,9.060240963855422,0.14457831325301207,-3.879518072289157,0.23543838136112813,9.708767627222562,-3.222562844880441,2.0,3.5728937728937726,279.88517531269224,-0.6413379173707824,-0.13274284715342963,0.16630732474797516,1294.5054945054944,-1.0,76.79400046871338,3.594725456213265,
2023-08-09 09:36:18.106000,9.096385542168676,0.10843373493975904,-3.8674698795180724,0.23053341508277128,9.706315144083383,-3.2716125076640097,2.0,3.5728937728937726,279.88517531269224,-0.5475205407610285,-0.26793310413146026,0.5151214964162926,1298.168498168498,-1.0,76.79400046871338,3.5945834501632725,
2023-08-09 09:36:18.113000,9.10843373493976,0.14457831325301207,-3.855421686746988,0.269773145309626,9.738197424892704,-3.2053954629061923,2.0,3.5728937728937726,279.88517531269224,-0.6679097954664651,-0.2664180409067077,0.43249227900471987,1298.168498168498,-1.0,76.79400046871338,3.5944392568037147,
2023-08-09 09:36:18.121000,9.096385542168676,0.1566265060240964,-3.855421686746988,0.2869405272838749,9.777437155119559,-3.2348252605763332,2.0,3.5728937728937726,279.88517531269224,-0.48202319212167166,-0.45987996037526935,0.6261872851232445,1297.4358974358975,-1.0,76.79400046871338,3.594292884735517,
2023-08-09 09:36:18.129000,9.10843373493976,0.13253012048192772,-3.879518072289157,0.30656039239730226,9.730839975475169,-3.254445125689761,2.0,3.5728937728937726,279.88517531269224,-0.8004195559699313,-0.31443389079890427,0.22271429403880894,1295.2380952380952,-1.0,76.79400046871338,3.594144343971093,
2023-08-09 09:36:18.136000,9.10843373493976,0.14457831325301207,-3.891566265060241,0.2722256284488044,9.787247087676272,-3.261802575107296,2.0,3.571428571428571,280.0,-1.024299283258552,-0.03496299749431863,0.6898199405629041,1289.3772893772893,-1.0,76.79400046871338,3.5939936459182213,
2023-08-09 09:36:18.144000,9.132530120481928,0.13253012048192772,-3.91566265060241,0.3041079092581238,9.811771919068056,-3.3182096873083995,2.0,3.571428571428571,280.0,-1.1704446127848023,-0.7028727929607838,0.6202435755492102,1281.3186813186812,-1.0,76.79400046871338,3.5938408028700852,
2023-08-09 09:36:18.152000,9.144578313253012,0.13253012048192772,-3.927710843373494,0.2893930104230533,9.851011649294911,-3.337829552421827,2.0,3.571428571428571,280.0,-1.0112464308606723,-0.5746751354816154,0.3692092535400033,1273.9926739926739,-1.0,76.79400046871338,3.5936858279149235,
2023-08-09 09:36:18.159000,9.132530120481928,0.10843373493975904,-3.963855421686747,0.2893930104230533,9.843654199877376,-3.313304721030043,2.0,3.571428571428571,280.0,-0.8965677990793072,-0.7073014393100642,0.4377367286288679,1267.3992673992673,-1.0,76.79400046871338,3.593528735369609,
2023-08-09 09:36:18.167000,9.120481927710843,0.10843373493975904,-3.9759036144578315,0.22808093194359289,9.843654199877376,-3.3108522378908645,2.0,3.571428571428571,280.0,-1.1519142241128144,-0.2288910902628054,0.4646582366994932,1265.2014652014652,-1.0,76.79400046871338,3.59336954029663,
2023-08-09 09:36:18.175000,9.132530120481928,0.12048192771084337,-3.951807228915663,0.2673206621704476,9.792152053954629,-3.313304721030043,2.0,3.5699633699633697,280.11491894110407,-1.006817784511392,0.033564477594545124,0.1682885612726533,1263.7362637362637,-1.0,76.79400046871338,3.5932082590035574,
2023-08-09 09:36:18.182000,9.132530120481928,0.13253012048192772,-3.963855421686747,0.26241569589209074,9.83874923359902,-3.3304721030042916,2.0,3.5699633699633697,280.11491894110407,-0.832352427014743,0.06573043528931848,-0.0654973486393568,1262.2710622710622,-1.0,76.79400046871338,3.5930449089456795,
2023-08-09 09:36:18.190000,9.10843373493976,0.14457831325301207,-3.9036144578313254,0.2795830778663397,9.752912323727774,-3.2470876762722254,2.0,3.5699633699633697,280.11491894110407,-0.8121904317930184,0.31443389079890427,-0.033914107569488934,1262.2710622710622,-1.0,76.79400046871338,3.592879508136083,
2023-08-09 09:36:18.198000,9.120481927710843,0.1566265060240964,-3.91566265060241,0.30901287553648066,9.831391784181482,-3.251992642550582,2.0,3.568498168498168,280.22993225210433,-0.6538080531437561,0.4396014218285639,-0.019579278596818277,1259.3406593406592,-1.0,76.79400046871338,3.5927120755734268,
2023-08-09 09:36:18.205000,9.120481927710843,0.14457831325301207,-3.879518072289157,0.30901287553648066,9.730839975475169,-3.254445125689761,2.0,3.5699633699633697,280.11491894110407,-0.40603694423401876,0.18157450032049383,0.11549443505623197,1255.6776556776556,-1.0,76.79400046871338,3.592542630261434,
2023-08-09 09:36:18.213000,9.096385542168676,0.1566265060240964,-3.879518072289157,0.23789086450030655,9.748007357449417,-3.1710606989576946,2.0,3.568498168498168,280.22993225210433,-0.8032165957694766,-0.21455626129013475,0.234485169861896,1256.4102564102564,-1.0,76.79400046871338,3.5923711921250643,
2023-08-09 09:36:18.221000,9.144578313253012,0.14457831325301207,-3.843373493975904,0.31882280809319435,9.75781729000613,-3.2397302268546904,2.0,3.568498168498168,280.22993225210433,-0.5866790979546641,-0.3939164384359892,-0.07493735796282278,1264.4688644688645,-1.0,76.79400046871338,3.5921977824348614,
2023-08-09 09:36:18.228000,9.132530120481928,0.13253012048192772,-3.855421686746988,0.2599632127529123,9.748007357449417,-3.1906805640711218,2.0,3.568498168498168,280.22993225210433,-0.3986947147602122,-0.11491171843132691,0.21607132451488822,1285.7142857142856,-1.0,76.79400046871338,3.592022422756778,
2023-08-09 09:36:18.236000,9.096385542168676,0.10843373493975904,-3.8313253012048194,0.2575107296137339,9.75781729000613,-3.2176578786020844,2.0,3.565567765567765,280.46024244914736,-0.39531495833576097,0.2678165608064794,-0.12260357788007688,1321.6117216117216,-1.0,76.79400046871338,3.59184513492067,
2023-08-09 09:36:18.244000,9.096385542168676,0.04819277108433735,-3.855421686746988,0.20846106683016552,9.730839975475169,-3.2103004291845494,2.0,3.567032967032967,280.34504004929147,-0.45300390420138614,0.20534933861663132,-0.13588951692791784,1378.021978021978,-1.0,76.79400046871338,3.59166594098758,
2023-08-09 09:36:18.251000,9.096385542168676,0.04819277108433735,-3.879518072289157,0.21827099938687922,9.738197424892704,-3.256897608828939,2.0,3.567032967032967,280.34504004929147,-0.06747858516403449,0.24963580210943423,-0.2728279237806654,1453.4798534798533,-1.0,76.79400046871338,3.591484863465135,
2023-08-09 09:36:18.259000,9.096385542168676,0.060240963855421686,-3.879518072289157,0.164316370324954,9.738197424892704,-3.2127529123237277,2.0,3.565567765567765,280.46024244914736,-0.05116251966668614,0.1877512965444903,-0.8504166423868074,1553.113553113553,-1.0,76.79400046871338,3.5913019253440264,
2023-08-09 09:36:18.267000,9.060240963855422,0.024096385542168676,-3.843373493975904,0.15695892090741875,9.738197424892704,-3.22501532801962,2.0,3.565567765567765,280.46024244914736,0.1341413670532014,0.23413553988695346,-0.784103490472583,1673.9926739926739,-1.0,76.79400046871338,3.591117149608259,
2023-08-09 09:36:18.274000,9.096385542168676,0.03614457831325302,-3.843373493975904,0.17903126916002451,9.78969957081545,-3.1784181483752296,2.0,3.567032967032967,280.34504004929147,0.3951984150107801,0.8865450731309361,-0.9930656721636267,1808.7912087912086,-1.0,76.79400046871338,3.590930559132771,
2023-08-09 09:36:18.282000,9.10843373493976,0.03614457831325302,-3.8313253012048194,0.21091354996934394,9.752912323727774,-3.261802575107296,2.0,3.565567765567765,280.46024244914736,0.272711380455685,0.6487966901695698,-0.8033331390944584,1950.9157509157508,804.290771484375,74.59988616960729,3.5907421776003043,
2023-08-09 09:36:18.290000,9.096385542168676,0.03614457831325302,-3.855421686746988,0.1765787860208461,9.799509503372164,-3.222562844880441,2.0,3.565567765567765,280.46024244914736,0.4875007283957814,0.716974535283491,-1.059728454052794,2092.3076923076924,-1.0,74.59988616960729,3.5905520290489275,
2023-08-09 09:36:18.297000,9.10843373493976,0.08433734939759037,-3.8674698795180724,0.16676885346413242,9.750459840588595,-3.1980380134886572,2.0,3.565567765567765,280.46024244914736,0.3612843074412908,1.0146261872851237,-0.5672163626828272,2226.3736263736264,-1.0,74.59988616960729,3.590360137317581,
2023-08-09 09:36:18.305000,9.084337349397591,0.0963855421686747,-3.855421686746988,0.26486817903126914,9.723482526057634,-3.222562844880441,2.0,3.565567765567765,280.46024244914736,0.6940155002622228,0.9309480799487215,-0.5356331216129597,2342.8571428571427,-1.0,74.59988616960729,3.5901665264768847,
2023-08-09 09:36:18.313000,9.096385542168676,0.14457831325301207,-3.879518072289157,0.2722256284488044,9.725935009196812,-3.244635193133047,2.0,3.5641025641025643,280.57553956834533,0.2441582658353245,0.589592681079192,-0.5789872385059146,2434.432234432234,-1.0,74.59988616960729,3.58997122080463,
2023-08-09 09:36:18.320000,9.084337349397591,0.14457831325301207,-3.891566265060241,0.32127529123237275,9.777437155119559,-3.232372777437155,2.0,3.5641025641025643,280.57553956834533,0.24182739933570255,0.5874949012295317,-0.577821805256104,2496.7032967032965,-1.0,74.59988616960729,3.589774244271426,
2023-08-09 09:36:18.328000,9.132530120481928,0.18072289156626506,-3.9036144578313254,0.3507050889025138,9.760269773145309,-3.2470876762722254,2.0,3.5641025641025643,280.57553956834533,0.3915855719363673,0.3828448225627872,-0.42340189965619723,2525.274725274725,-1.0,74.59988616960729,3.5895756204498643,
2023-08-09 09:36:18.336000,9.120481927710843,0.1927710843373494,-3.91566265060241,0.3507050889025138,9.799509503372164,-3.274064990803188,2.0,3.5641025641025643,280.57553956834533,0.21886836431443438,0.19707476254297457,-0.2364664063865741,2517.948717948718,-1.0,74.59988616960729,3.5893753734093634,
2023-08-09 09:36:18.343000,9.156626506024097,0.18072289156626506,-3.9036144578313254,0.34580012262415694,9.81912936848559,-3.264255058246474,2.0,3.5641025641025643,280.57553956834533,0.1877512965444903,0.1501078025756072,-0.5991492337276384,2478.388278388278,-1.0,74.59988616960729,3.5891735276308916,
2023-08-09 09:36:18.351000,9.144578313253012,0.16867469879518074,-3.9036144578313254,0.33108522378908645,9.814224402207234,-3.266707541385653,2.0,3.562637362637362,280.6909315237508,0.09626478643435664,0.39659693491055364,-0.4097663306334129,2410.25641025641,-1.0,74.59988616960729,3.5889701070458067,
2023-08-09 09:36:18.359000,9.132530120481928,0.1566265060240964,-3.927710843373494,0.2452483139178418,9.831391784181482,-3.354996934396076,2.0,3.562637362637362,280.6909315237508,0.03659460404405381,0.34893071499329953,-0.6186119689994753,2317.2161172161173,-1.0,74.59988616960729,3.5887651350603846,
2023-08-09 09:36:18.366000,9.144578313253012,0.1566265060240964,-3.951807228915663,0.3041079092581238,9.779889638258737,-3.266707541385653,2.0,3.562637362637362,280.6909315237508,0.28483188625371453,0.9381737660975473,-1.1788357321834388,2204.395604395604,-1.0,74.59988616960729,3.5885586348996497,
2023-08-09 09:36:18.374000,9.156626506024097,0.14457831325301207,-3.891566265060241,0.3139178418148375,9.794604537093807,-3.2814224402207235,2.0,3.561172161172161,280.8064184324213,-0.06468154536448921,1.1710273294097082,-1.2144979896276442,2079.8534798534797,-1.0,74.59988616960729,3.5883506291077683,
2023-08-09 09:36:18.382000,9.132530120481928,0.12048192771084337,-3.91566265060241,0.2550582464745555,9.809319435928877,-3.320662170447578,2.0,3.562637362637362,280.6909315237508,0.027853854670473722,0.9945807353883798,-1.0821047724491581,1951.6483516483515,-1.0,74.59988616960729,3.5881411395761513,
2023-08-09 09:36:18.389000,9.120481927710843,0.12048192771084337,-3.9036144578313254,0.3163703249540159,9.762722256284487,-3.3402820355610054,2.0,3.559706959706959,280.92200041160737,0.10733640230755867,0.6698910319911429,-1.2731192820931179,1824.1758241758241,-1.0,74.59988616960729,3.587930187925618,
