Shimmer_F5D4_Timestamp_FormattedUnix_CAL,Shimmer_F5D4_Accel_LN_X_CAL,Shimmer_F5D4_Accel_LN_Y_CAL,Shimmer_F5D4_Accel_LN_Z_CAL,Shimmer_F5D4_Accel_WR_X_CAL,Shimmer_F5D4_Accel_WR_Y_CAL,Shimmer_F5D4_Accel_WR_Z_CAL,Shimmer_F5D4_GSR_Range_CAL,Shimmer_F5D4_GSR_Skin_Conductance_CAL,Shimmer_F5D4_GSR_Skin_Resistance_CAL,Shimmer_F5D4_Gyro_X_CAL,Shimmer_F5D4_Gyro_Y_CAL,Shimmer_F5D4_Gyro_Z_CAL,Shimmer_F5D4_PPG_A13_CAL,Shimmer_F5D4_PPG_IBI_CAL,Shimmer_F5D4_PPGtoHR_CAL,Shimmer_F5D4_GSR_Skin_Conductance_LPF_CAL,
yyyy/mm/dd hh:mm:ss.000,m/(s^2),m/(s^2),m/(s^2),m/(s^2),m/(s^2),m/(s^2),no_units,uS,kOhms,deg/s,deg/s,deg/s,mV,ms,BPM,uS,
2023-08-11 20:34:53.786000,-9.421686746987952,0.10843373493975904,-2.4216867469879517,0.22562844880441446,-9.383813611281422,-1.9693439607602696,3.0,0.913086913086913,1095.1859956236324,-0.15476953557484935,-0.18530388671988754,-0.24951925878445297,1355.3113553113553,605.133056640625,99.15174744061727,0.9137865433287606,
2023-08-11 20:34:53.794000,-9.409638554216867,0.13253012048192772,-2.4096385542168677,0.3114653586756591,-9.369098712446352,-2.006131207847946,3.0,0.913086913086913,1095.1859956236324,0.0476662199172541,-0.18693549326962272,-0.017364955422178044,1353.113553113553,-1.0,99.15174744061727,0.9137778964624241,
2023-08-11 20:34:53.801000,-9.421686746987952,0.12048192771084337,-2.433734939759036,0.26241569589209074,-9.427958307786634,-2.0453709380748006,3.0,0.913086913086913,1095.1859956236324,0.2013868655672742,0.08845638366062497,0.02948546122020847,1353.113553113553,-1.0,99.15174744061727,0.913769253415665,
2023-08-11 20:34:53.809000,-9.44578313253012,0.12048192771084337,-2.433734939759036,0.19865113427345185,-9.322501532801962,-1.9865113427345187,3.0,0.913086913086913,1095.1859956236324,-0.136705320202785,-0.24847036885962412,-0.07703513781248174,1354.5787545787546,-1.0,99.15174744061727,0.9137606151756582,
2023-08-11 20:34:53.817000,-9.44578313253012,0.12048192771084337,-2.4216867469879517,0.22317596566523604,-9.41814837522992,-2.001226241569589,3.0,0.913086913086913,1095.1859956236324,0.352310471417749,-0.23063924013752143,-0.10687022900763359,1355.3113553113553,-1.0,99.15174744061727,0.9137519827525155,
2023-08-11 20:34:53.824000,-9.46987951807229,0.12048192771084337,-2.4216867469879517,0.24034334763948498,-9.41814837522992,-2.040465971796444,3.0,0.913086913086913,1095.1859956236324,0.04498572344268966,-0.1188741914806823,-0.2425266592855893,1355.3113553113553,-1.0,99.15174744061727,0.9137433571745658,
2023-08-11 20:34:53.832000,-9.433734939759036,0.12048192771084337,-2.4096385542168677,0.24279583077866337,-9.351931330472102,-2.0723482526057633,3.0,0.913086913086913,1095.1859956236324,0.42666511275566676,-0.10349047258318238,0.0031466697744886593,1356.7765567765566,-1.0,99.15174744061727,0.913734739483887,
2023-08-11 20:34:53.840000,-9.409638554216867,0.14457831325301207,-2.397590361445783,0.24034334763948498,-9.334763948497853,-2.0257510729613735,3.0,0.913086913086913,1095.1859956236324,0.20872909504108078,0.08099761086183756,0.09591515645941369,1358.974358974359,-1.0,99.15174744061727,0.9137261307321219,
2023-08-11 20:34:53.847000,-9.421686746987952,0.13253012048192772,-2.397590361445783,0.2673206621704476,-9.398528510116492,-2.0551808706315144,3.0,0.913086913086913,1095.1859956236324,0.46570712662432334,0.1857700600198126,-0.04148942369325806,1359.7069597069597,-1.0,99.15174744061727,0.9137175319766215,
2023-08-11 20:34:53.855000,-9.421686746987952,0.0963855421686747,-2.4216867469879517,0.2329858982219497,-9.351931330472102,-2.0551808706315144,3.0,0.913086913086913,1095.1859956236324,0.12621642095449062,0.16630732474797474,-0.056290425965852924,1358.974358974359,-1.0,99.15174744061727,0.9137089442769357,
2023-08-11 20:34:53.863000,-9.433734939759036,0.12048192771084337,-2.4457831325301207,0.2673206621704476,-9.391171060698957,-2.0257510729613735,3.0,0.913086913086913,1095.1859956236324,0.26257211118233137,-0.12621642095449062,-0.3287687197715749,1358.974358974359,-1.0,99.15174744061727,0.9137003686916882,
2023-08-11 20:34:53.870000,-9.44578313253012,0.10843373493975904,-2.4216867469879517,0.24279583077866337,-9.37155119558553,-2.0208461066830163,3.0,0.913086913086913,1095.1859956236324,0.1222539479051335,0.13472408367810731,-0.30988870112464295,1359.7069597069597,-1.0,99.15174744061727,0.9136918064146081,
2023-08-11 20:34:53.878000,-9.44578313253012,0.13253012048192772,-2.433734939759036,0.2918454935622317,-9.40098099325567,-2.0674432863274066,3.0,0.913086913086913,1095.1859956236324,0.18099178369558963,0.16549152147310714,-0.09043762018530396,1360.4395604395604,-1.0,99.15174744061727,0.9136832587518569,
2023-08-11 20:34:53.886000,-9.433734939759036,0.12048192771084337,-2.397590361445783,0.24770079705702022,-9.37155119558553,-2.0134886572654813,3.0,0.9126429126429126,1095.7188032108977,0.19334537614358085,-0.004428646349280464,-0.3308664996212343,1359.7069597069597,-1.0,99.15174744061727,0.9136747269721864,
2023-08-11 20:34:53.893000,-9.44578313253012,0.10843373493975904,-2.397590361445783,0.2795830778663397,-9.364193746167995,-1.9914163090128754,3.0,0.9121989121989121,1096.252129471891,-0.03915855719363742,-0.03496299749431863,-0.14393100635161118,1356.7765567765566,-1.0,99.15174744061727,0.9136662121573557,
2023-08-11 20:34:53.901000,-9.421686746987952,0.10843373493975904,-2.4096385542168677,0.19374616799509503,-9.44757817290006,-2.0331085223789085,3.0,0.9126429126429126,1095.7188032108977,-0.07109142823844736,-0.23343627993706673,0.13379173707825887,1353.8461538461538,-1.0,99.15174744061727,0.9136577150309418,
2023-08-11 20:34:53.909000,-9.44578313253012,0.12048192771084337,-2.433734939759036,0.23789086450030655,-9.410790925812385,-2.008583690987124,3.0,0.9126429126429126,1095.7188032108977,-0.19439426606841012,-0.27772274342986963,-0.03333139094458345,1349.4505494505493,-1.0,99.15174744061727,0.9136492362230734,
2023-08-11 20:34:53.916000,-9.433734939759036,0.10843373493975904,-2.4096385542168677,0.2869405272838749,-9.366646229307173,-1.9914163090128754,3.0,0.9126429126429126,1095.7188032108977,-0.05512499271604152,-0.32061068702290074,-0.002214323174640232,1348.7179487179487,-1.0,99.15174744061727,0.91364077642803,
2023-08-11 20:34:53.924000,-9.433734939759036,0.12048192771084337,-2.3855421686746987,0.23789086450030655,-9.347026364193745,-2.0429184549356223,3.0,0.9126429126429126,1095.7188032108977,0.06747858516403449,-0.53027212866383,-0.07901637433715986,1352.3809523809523,-1.0,99.15174744061727,0.913632336264083,
2023-08-11 20:34:53.932000,-9.421686746987952,0.10843373493975904,-2.397590361445783,0.22808093194359289,-9.40098099325567,-2.040465971796444,3.0,0.913086913086913,1095.1859956236324,0.3730551832643778,-0.3265543965969356,-0.16689004137288022,1358.974358974359,-1.0,99.15174744061727,0.9136239162722108,
2023-08-11 20:34:53.939000,-9.433734939759036,0.12048192771084337,-2.4216867469879517,0.2599632127529123,-9.366646229307173,-2.0134886572654813,3.0,0.913086913086913,1095.1859956236324,0.18751820989452864,-0.3688596235650608,-0.02563953149583349,1365.5677655677655,-1.0,99.15174744061727,0.9136155170642534,
2023-08-11 20:34:53.947000,-9.44578313253012,0.0963855421686747,-2.3734939759036147,0.2673206621704476,-9.369098712446352,-1.988963825873697,3.0,0.9126429126429126,1095.7188032108977,0.12551716100460386,-0.31979488374803317,0.08391119398636454,1368.4981684981683,-1.0,99.15174744061727,0.9136071393438114,
2023-08-11 20:34:53.955000,-9.433734939759036,0.0963855421686747,-2.3855421686746987,0.22808093194359289,-9.374003678724709,-2.006131207847946,3.0,0.913086913086913,1095.1859956236324,-0.2728279237806658,-0.545539304236349,0.17574733407144114,1370.6959706959706,-1.0,99.15174744061727,0.9135987836190828,
2023-08-11 20:34:53.962000,-9.44578313253012,0.13253012048192772,-2.4096385542168677,0.21336603310852237,-9.3862660944206,-2.0036787247087675,3.0,0.9126429126429126,1095.7188032108977,-0.011770875823087047,-0.05162869296660949,0.20488316531670667,1371.4285714285713,-1.0,99.15174744061727,0.9135904503315363,
2023-08-11 20:34:53.970000,-9.44578313253012,0.12048192771084337,-2.397590361445783,0.2452483139178418,-9.354383813611282,-2.006131207847946,3.0,0.913086913086913,1095.1859956236324,-0.05768894586562513,-0.34298700541926475,-0.07015908163859894,1369.230769230769,-1.0,99.15174744061727,0.9135821398671885,
2023-08-11 20:34:53.978000,-9.421686746987952,0.12048192771084337,-2.4216867469879517,0.2844880441446965,-9.41814837522992,-2.038013488657265,3.0,0.9126429126429126,1095.7188032108977,0.003962473049355383,-0.234485169861896,0.14334828972670569,1365.5677655677655,-1.0,99.15174744061727,0.9135738525470987,
2023-08-11 20:34:53.985000,-9.44578313253012,0.14457831325301207,-2.4216867469879517,0.20600858369098712,-9.408338442673205,-2.0036787247087675,3.0,0.9126429126429126,1095.7188032108977,-0.11829147485577812,-0.4915797447701176,0.06619660858924312,1360.4395604395604,-1.0,99.15174744061727,0.9135655886392309,
2023-08-11 20:34:53.993000,-9.44578313253012,0.12048192771084337,-2.4096385542168677,0.2035561005518087,-9.35683629675046,-1.9963212752912323,3.0,0.9126429126429126,1095.7188032108977,-0.08624206048598561,-0.41267991375794033,0.1730668375968767,1356.0439560439559,-1.0,99.15174744061727,0.9135573482002444,
2023-08-11 20:34:54.001000,-9.433734939759036,0.12048192771084337,-2.397590361445783,0.2795830778663397,-9.35683629675046,-1.9865113427345187,3.0,0.9126429126429126,1095.7188032108977,-0.08694132043587237,-0.408833984033564,0.1730668375968767,1355.3113553113553,-1.0,99.15174744061727,0.9135491312153667,
2023-08-11 20:34:54.008000,-9.44578313253012,0.12048192771084337,-2.4096385542168677,0.20846106683016552,-9.383813611281422,-1.912936848559166,3.0,0.9126429126429126,1095.7188032108977,-0.3328477361459129,-0.207330575141309,0.03647806071907211,1355.3113553113553,-1.0,99.15174744061727,0.9135409375997188,
2023-08-11 20:34:54.016000,-9.409638554216867,0.10843373493975904,-2.4096385542168677,0.20110361741263028,-9.425505824647455,-1.930104230533415,3.0,0.9126429126429126,1095.7188032108977,0.06701241186411114,-0.45009032107686,0.23413553988695304,1357.5091575091574,-1.0,99.15174744061727,0.9135327671998456,
2023-08-11 20:34:54.023000,-9.44578313253012,0.10843373493975904,-2.4216867469879517,0.23789086450030655,-9.393623543838135,-2.0723482526057633,3.0,0.9126429126429126,1095.7188032108977,0.17178486102208446,0.1496416292756839,0.1273818542043003,1357.5091575091574,-1.0,99.15174744061727,0.9135246197954483,
2023-08-11 20:34:54.031000,-9.433734939759036,0.0963855421686747,-2.4096385542168677,0.20846106683016552,-9.393623543838135,-2.047823421213979,3.0,0.9126429126429126,1095.7188032108977,0.12295320785502026,0.4538197074762537,0.18786783986947156,1356.7765567765566,-1.0,99.15174744061727,0.9135164951013275,
2023-08-11 20:34:54.039000,-9.457831325301205,0.0963855421686747,-2.433734939759036,0.2550582464745555,-9.354383813611282,-2.0748007357449416,3.0,0.9126429126429126,1095.7188032108977,-0.09323465998484969,0.009206922673503438,0.23203776003729365,1356.0439560439559,-1.0,99.15174744061727,0.9135083927695227,
2023-08-11 20:34:54.046000,-9.433734939759036,0.10843373493975904,-2.397590361445783,0.2575107296137339,-9.403433476394849,-2.0232985898221947,3.0,0.9121989121989121,1096.252129471891,-0.16980362449740677,-0.3270205698968589,0.3510284948429577,1353.8461538461538,-1.0,99.15174744061727,0.9135003123916601,
2023-08-11 20:34:54.054000,-9.421686746987952,0.10843373493975904,-2.4457831325301207,0.24279583077866337,-9.347026364193745,-1.9865113427345187,3.0,0.9121989121989121,1096.252129471891,-0.533768428413262,0.02925237457024723,0.28739583940329816,1354.5787545787546,-1.0,99.15174744061727,0.9134922534909584,
2023-08-11 20:34:54.062000,-9.421686746987952,0.13253012048192772,-2.4216867469879517,0.16676885346413242,-9.396076026977314,-2.040465971796444,3.0,0.9126429126429126,1095.7188032108977,-0.392284831886254,0.1199230814055133,0.4197890565817844,1356.0439560439559,-1.0,99.15174744061727,0.913484215482712,
2023-08-11 20:34:54.069000,-9.433734939759036,0.12048192771084337,-2.433734939759036,0.24034334763948498,-9.361741263028817,-2.0527283874923357,3.0,0.9126429126429126,1095.7188032108977,-0.4673387331740568,-0.36781073364023154,0.03554571411922368,1358.2417582417581,-1.0,99.15174744061727,0.9134761978155953,
2023-08-11 20:34:54.077000,-9.433734939759036,0.10843373493975904,-2.4096385542168677,0.24034334763948498,-9.391171060698957,-2.038013488657265,3.0,0.9126429126429126,1095.7188032108977,-0.26525260765689584,-0.2731775537556083,0.40032632130994694,1361.1721611721612,-1.0,99.15174744061727,0.9134681998571468,
2023-08-11 20:34:54.085000,-9.433734939759036,0.10843373493975904,-2.4096385542168677,0.2452483139178418,-9.327406499080318,-1.9816063764561618,3.0,0.9126429126429126,1095.7188032108977,-0.2178194743896051,-0.11526134840626943,0.33750946914515456,1361.904761904762,-1.0,99.15174744061727,0.9134602207792532,
2023-08-11 20:34:54.092000,-9.433734939759036,0.12048192771084337,-2.4096385542168677,0.26241569589209074,-9.383813611281422,-2.006131207847946,3.0,0.9126429126429126,1095.7188032108977,-0.29205757240254027,-0.4960083911193981,0.10558825243284178,1360.4395604395604,-1.0,99.15174744061727,0.9134522598487506,
2023-08-11 20:34:54.100000,-9.44578313253012,0.13253012048192772,-2.4216867469879517,0.1912936848559166,-9.33966891477621,-2.0257510729613735,3.0,0.9126429126429126,1095.7188032108977,-0.625021851873434,-0.5849309480799482,0.22993998018763467,1356.7765567765566,-1.0,99.15174744061727,0.913444316271053,
2023-08-11 20:34:54.108000,-9.44578313253012,0.10843373493975904,-2.4216867469879517,0.25015328019619865,-9.369098712446352,-2.0134886572654813,3.0,0.9126429126429126,1095.7188032108977,-0.34578404521881,-0.6717557251908397,0.028553114620360042,1353.113553113553,-1.0,99.15174744061727,0.9134363890655065,
2023-08-11 20:34:54.115000,-9.44578313253012,0.10843373493975904,-2.4216867469879517,0.23053341508277128,-9.391171060698957,-1.9963212752912323,3.0,0.9126429126429126,1095.7188032108977,-0.5414602878620128,-0.8646349280344972,0.425033506205932,1348.7179487179487,-1.0,99.15174744061727,0.9134284772176483,
2023-08-11 20:34:54.123000,-9.433734939759036,0.12048192771084337,-2.397590361445783,0.18884120171673818,-9.3862660944206,-1.9251992642550582,3.0,0.9126429126429126,1095.7188032108977,-0.29275683235242705,-0.4447293281277311,0.2377483829613659,1346.5201465201465,-1.0,99.15174744061727,0.9134205796823929,
2023-08-11 20:34:54.131000,-9.421686746987952,0.12048192771084337,-2.4096385542168677,0.2599632127529123,-9.35683629675046,-2.0257510729613735,3.0,0.9126429126429126,1095.7188032108977,-0.215605151214964,-0.3777169162636217,0.4794592389720881,1345.7875457875457,-1.0,99.15174744061727,0.9134126953874183,
2023-08-11 20:34:54.138000,-9.44578313253012,0.13253012048192772,-2.397590361445783,0.24034334763948498,-9.376456161863887,-1.9448191293684856,3.0,0.9126429126429126,1095.7188032108977,-0.289260532602995,-0.663248062467223,0.6589359594429229,1347.985347985348,-1.0,99.15174744061727,0.9134048232367674,
2023-08-11 20:34:54.146000,-9.397590361445783,0.10843373493975904,-2.4096385542168677,0.23543838136112813,-9.369098712446352,-1.9693439607602696,3.0,0.9126429126429126,1095.7188032108977,-0.2118757648155703,-0.4427480916030534,0.4843540586212923,1353.8461538461538,-1.0,99.15174744061727,0.9133969622534016,
2023-08-11 20:34:54.154000,-9.3855421686747,0.10843373493975904,-2.4096385542168677,0.2599632127529123,-9.322501532801962,-2.0429184549356223,3.0,0.9126429126429126,1095.7188032108977,-0.5316706485636035,-0.37876580618845096,0.4351727754792843,1361.904761904762,-1.0,99.15174744061727,0.9133891114240893,
2023-08-11 20:34:54.161000,-9.3855421686747,0.12048192771084337,-2.4096385542168677,0.24279583077866337,-9.32495401594114,-1.9816063764561618,3.0,0.9126429126429126,1095.7188032108977,-0.37561913641396144,-0.6042771400268052,0.5392459646873726,1371.4285714285713,-1.0,99.15174744061727,0.9133812695760061,
2023-08-11 20:34:54.169000,-9.421686746987952,0.14457831325301207,-2.3734939759036147,0.269773145309626,-9.359288779889638,-1.9350091968117717,3.0,0.9121989121989121,1096.252129471891,-0.05244449624147708,-0.42992832585513713,0.5360992949128839,1378.7545787545787,-1.0,99.15174744061727,0.9133734356689962,
2023-08-11 20:34:54.177000,-9.44578313253012,0.13253012048192772,-2.397590361445783,0.2035561005518087,-9.332311465358675,-1.930104230533415,3.0,0.9126429126429126,1095.7188032108977,-0.09847910960899774,-0.3321484761960261,0.27224520715576034,1387.5457875457876,-1.0,99.15174744061727,0.9133656086303029,
2023-08-11 20:34:54.184000,-9.421686746987952,0.10843373493975904,-2.4096385542168677,0.29675045984058857,-9.398528510116492,-1.959534028203556,3.0,0.9126429126429126,1095.7188032108977,0.1611794184488075,-0.3572052910669546,0.33098304294621517,1396.3369963369962,-1.0,99.15174744061727,0.9133577871998356,
2023-08-11 20:34:54.192000,-9.44578313253012,0.14457831325301207,-2.3855421686746987,0.2893930104230533,-9.35683629675046,-1.9767014101778049,3.0,0.9126429126429126,1095.7188032108977,0.10080997610861794,-0.07715168113746301,0.23483479983683936,1403.6630036630036,-1.0,99.15174744061727,0.9133499701153575,
2023-08-11 20:34:54.200000,-9.481927710843374,0.14457831325301207,-2.4096385542168677,0.22808093194359289,-9.374003678724709,-2.008583690987124,3.0,0.9117549117549116,1096.7859751643537,0.07050871161354318,-0.04347066021793532,0.15651768544956624,1410.989010989011,-1.0,99.15174744061727,0.9133421561273798,
2023-08-11 20:34:54.207000,-9.46987951807229,0.1566265060240964,-2.3855421686746987,0.2329858982219497,-9.454935622317596,-1.9865113427345187,3.0,0.9121989121989121,1096.252129471891,-0.0078084027737316646,0.20243575549210346,0.12376901112988742,1415.3846153846152,-1.0,99.15174744061727,0.9133343439825988,
2023-08-11 20:34:54.215000,-9.44578313253012,0.13253012048192772,-2.4096385542168677,0.27713059472716123,-9.37155119558553,-1.9497240956468422,3.0,0.9126429126429126,1095.7188032108977,-0.037760037293863916,0.4775945457723912,0.12272012120505772,1416.8498168498168,-1.0,99.15174744061727,0.9133265323546127,
2023-08-11 20:34:54.223000,-9.457831325301205,0.14457831325301207,-2.3855421686746987,0.29429797670141017,-9.41814837522992,-2.001226241569589,3.0,0.9121989121989121,1096.252129471891,0.34706602179360097,0.3380921857700592,-0.09311811665986798,1416.117216117216,-1.0,99.15174744061727,0.9133187200184412,
2023-08-11 20:34:54.230000,-9.421686746987952,0.13253012048192772,-2.3734939759036147,0.2722256284488044,-9.40098099325567,-1.9521765787860208,3.0,0.9121989121989121,1096.252129471891,0.06992599498863726,0.4894819649204591,0.1828564768952856,1412.4542124542124,-1.0,99.15174744061727,0.9133109057374869,
2023-08-11 20:34:54.238000,-9.44578313253012,0.14457831325301207,-2.3855421686746987,0.22808093194359289,-9.391171060698957,-1.9350091968117717,3.0,0.9126429126429126,1095.7188032108977,0.46465823669949236,0.8366645300390426,-0.23238739001223702,1402.9304029304028,-1.0,99.15174744061727,0.9133030879694506,
2023-08-11 20:34:54.246000,-9.433734939759036,0.12048192771084337,-2.36144578313253,0.24770079705702022,-9.420600858369099,-1.9668914776210913,3.0,0.9126429126429126,1095.7188032108977,0.20290192879202854,0.6628984324922788,-0.15407027562496348,1392.6739926739926,-1.0,99.15174744061727,0.9132952653170607,
2023-08-11 20:34:54.253000,-9.46987951807229,0.12048192771084337,-2.397590361445783,0.2869405272838749,-9.425505824647455,-1.9546290619251991,3.0,0.9126429126429126,1095.7188032108977,0.06235067886486727,0.7639414952508601,-0.1987063690927102,1383.150183150183,-1.0,99.15174744061727,0.9132874366809023,
2023-08-11 20:34:54.261000,-9.44578313253012,0.1566265060240964,-2.3734939759036147,0.22808093194359289,-9.398528510116492,-1.9717964438994482,3.0,0.9126429126429126,1095.7188032108977,0.2907755958277493,0.7102150224345903,-0.24357554921041902,1375.8241758241757,-1.0,99.15174744061727,0.9132796008376288,
2023-08-11 20:34:54.269000,-9.44578313253012,0.1566265060240964,-2.4096385542168677,0.24034334763948498,-9.405885959534027,-2.0232985898221947,3.0,0.9126429126429126,1095.7188032108977,0.3193287104481098,0.7032224229357262,-0.16630732474797516,1371.4285714285713,-1.0,99.15174744061727,0.9132717566040695,
2023-08-11 20:34:54.276000,-9.457831325301205,0.13253012048192772,-2.3855421686746987,0.2575107296137339,-9.403433476394849,-1.947271612507664,3.0,0.9126429126429126,1095.7188032108977,0.31664821397354537,0.6968125400617681,-0.16514189149816463,1366.3003663003662,-1.0,99.15174744061727,0.913263902831057,
2023-08-11 20:34:54.284000,-9.46987951807229,0.1566265060240964,-2.397590361445783,0.22808093194359289,-9.381361128142244,-1.9767014101778049,3.0,0.9121989121989121,1096.252129471891,-0.1438144630266299,0.6421537206456499,-0.3037119049006469,1361.904761904762,-1.0,99.15174744061727,0.9132560382796524,
2023-08-11 20:34:54.292000,-9.44578313253012,0.1566265060240964,-2.3734939759036147,0.24770079705702022,-9.322501532801962,-1.942366646229307,3.0,0.9121989121989121,1096.252129471891,0.1778451139211001,0.43622166540411444,-0.11945690810558822,1357.5091575091574,-1.0,99.15174744061727,0.9132481617637163,
2023-08-11 20:34:54.299000,-9.457831325301205,0.14457831325301207,-2.397590361445783,0.29675045984058857,-9.408338442673205,-1.9325567136725934,3.0,0.9126429126429126,1095.7188032108977,-0.06782821513897873,0.2490530854845283,-0.20837946506613828,1354.5787545787546,-1.0,99.15174744061727,0.9132402721116506,
2023-08-11 20:34:54.307000,-9.44578313253012,0.1566265060240964,-2.3734939759036147,0.2795830778663397,-9.405885959534027,-2.006131207847946,3.0,0.9121989121989121,1096.252129471891,0.024124468271080012,0.1865858632946802,0.007575316123769124,1353.8461538461538,-1.0,99.15174744061727,0.9132323683089386,
2023-08-11 20:34:54.315000,-9.44578313253012,0.14457831325301207,-2.397590361445783,0.3016554261189454,-9.327406499080318,-2.0036787247087675,3.0,0.9126429126429126,1095.7188032108977,0.20779674844123236,0.4743313326729208,-0.08321193403647778,1353.113553113553,-1.0,99.15174744061727,0.9132244493743027,
2023-08-11 20:34:54.322000,-9.409638554216867,0.13253012048192772,-2.4096385542168677,0.2575107296137339,-9.405885959534027,-1.9767014101778049,3.0,0.9121989121989121,1096.252129471891,0.1290134607540359,0.6071907231513313,-0.06759512848901576,1351.6483516483515,-1.0,99.15174744061727,0.9132165142146826,
2023-08-11 20:34:54.330000,-9.433734939759036,0.14457831325301207,-2.4216867469879517,0.2599632127529123,-9.327406499080318,-1.9399141630901287,3.0,0.9121989121989121,1096.252129471891,0.12808111415418746,0.25091777868422516,-0.31175339432434024,1349.4505494505493,-1.0,99.15174744061727,0.9132085617990454,
2023-08-11 20:34:54.338000,-9.409638554216867,0.12048192771084337,-2.3855421686746987,0.2599632127529123,-9.430410790925812,-2.0232985898221947,3.0,0.9126429126429126,1095.7188032108977,-0.05698968591573838,0.26560223763184004,-0.1847211700949829,1348.7179487179487,-1.0,99.15174744061727,0.9132005909914483,
2023-08-11 20:34:54.345000,-9.433734939759036,0.10843373493975904,-2.36144578313253,0.2452483139178418,-9.37155119558553,-1.9055793991416308,3.0,0.9126429126429126,1095.7188032108977,-0.2554629683584865,0.5839986014800997,-0.2899597925528813,1352.3809523809523,-1.0,99.15174744061727,0.9131926008522384,
2023-08-11 20:34:54.353000,-9.433734939759036,0.10843373493975904,-2.36144578313253,0.2158185162477008,-9.337216431637032,-1.988963825873697,3.0,0.9117549117549116,1096.7859751643537,-0.3143173474739234,0.5758405687314255,-0.0271545947205874,1356.0439560439559,-1.0,99.15174744061727,0.9131845906519006,
2023-08-11 20:34:54.361000,-9.421686746987952,0.13253012048192772,-2.397590361445783,0.2575107296137339,-9.391171060698957,-1.9717964438994482,3.0,0.9117549117549116,1096.7859751643537,-0.2963696754268399,0.4182739933570309,-0.20814637841617617,1358.974358974359,-1.0,99.15174744061727,0.9131765595870949,
2023-08-11 20:34:54.368000,-9.421686746987952,0.13253012048192772,-2.4096385542168677,0.2207234825260576,-9.378908645003065,-1.9717964438994482,3.0,0.9121989121989121,1096.252129471891,-0.3084901812248712,0.5045160538430165,-0.2209661441640929,1360.4395604395604,-1.0,99.15174744061727,0.9131685068489128,
2023-08-11 20:34:54.376000,-9.433734939759036,0.10843373493975904,-2.4216867469879517,0.18393623543838136,-9.44757817290006,-1.9791538933169834,3.0,0.9126429126429126,1095.7188032108977,-0.18332265019520982,0.5285239787891157,-0.2523162985839987,1359.7069597069597,-1.0,99.15174744061727,0.913160431615209,
2023-08-11 20:34:54.384000,-9.457831325301205,0.12048192771084337,-2.4096385542168677,0.2158185162477008,-9.344573881054567,-1.9865113427345187,3.0,0.9121989121989121,1096.252129471891,-0.21234193811549365,0.629800128197657,-0.5857467513548161,1357.5091575091574,-1.0,99.15174744061727,0.9131523332444254,
2023-08-11 20:34:54.391000,-9.457831325301205,0.10843373493975904,-2.4096385542168677,0.22317596566523604,-9.403433476394849,-1.9963212752912323,3.0,0.9121989121989121,1096.252129471891,-0.22481207388846747,1.0501719014043465,-0.5510168405104596,1353.8461538461538,-1.0,99.15174744061727,0.9131442111607979,
2023-08-11 20:34:54.399000,-9.44578313253012,0.12048192771084337,-2.4096385542168677,0.2893930104230533,-9.403433476394849,-2.001226241569589,3.0,0.9121989121989121,1096.252129471891,-0.0397412738185416,0.930831536623739,-0.16537497814812674,1350.9157509157508,-1.0,99.15174744061727,0.9131360646973052,
2023-08-11 20:34:54.406000,-9.457831325301205,0.12048192771084337,-2.433734939759036,0.23053341508277128,-9.376456161863887,-2.0257510729613735,3.0,0.9121989121989121,1096.252129471891,-0.038808927218693175,0.8303711904900654,-0.20814637841617617,1347.985347985348,-1.0,99.15174744061727,0.913127893236302,
2023-08-11 20:34:54.414000,-9.457831325301205,0.0963855421686747,-2.4096385542168677,0.2158185162477008,-9.391171060698957,-2.0919681177191904,3.0,0.9126429126429126,1095.7188032108977,0.1906648796690164,1.171726589359595,-0.2821513897791505,1348.7179487179487,-1.0,99.15174744061727,0.913119696211231,
2023-08-11 20:34:54.422000,-9.44578313253012,0.10843373493975904,-2.4216867469879517,0.3016554261189454,-9.398528510116492,-2.0232985898221947,3.0,0.9121989121989121,1096.252129471891,0.1602470718489591,0.9145154711263906,-0.12714876755433818,1351.6483516483515,605.133056640625,99.15174744061727,0.9131114732574532,
2023-08-11 20:34:54.429000,-9.44578313253012,0.10843373493975904,-2.433734939759036,0.23543838136112813,-9.41814837522992,-2.028203556100552,3.0,0.9121989121989121,1096.252129471891,0.31128722102441647,1.1203309830429453,-0.03228250101975418,1356.0439560439559,-1.0,99.15174744061727,0.9131032240862063,
2023-08-11 20:34:54.437000,-9.397590361445783,0.12048192771084337,-2.4096385542168677,0.2844880441446965,-9.40098099325567,-2.028203556100552,3.0,0.9121989121989121,1096.252129471891,0.01911310529689363,1.1099586271196318,-0.62677000174815,1362.6373626373625,-1.0,99.15174744061727,0.9130949483268958,
2023-08-11 20:34:54.445000,-9.409638554216867,0.08433734939759037,-2.433734939759036,0.22808093194359289,-9.403433476394849,-2.0625383200490495,3.0,0.9121989121989121,1096.252129471891,-0.16199522172367511,0.8896917429054256,-0.51372297651652,1369.9633699633698,-1.0,99.15174744061727,0.9130866456671203,
2023-08-11 20:34:54.452000,-9.409638554216867,0.0963855421686747,-2.4578313253012047,0.22317596566523604,-9.376456161863887,-1.9767014101778049,3.0,0.9121989121989121,1096.252129471891,-0.08542625721111802,0.7605617388264089,-0.12901346075403503,1376.5567765567764,-1.0,99.15174744061727,0.9130783158538086,
2023-08-11 20:34:54.460000,-9.397590361445783,0.08433734939759037,-2.4457831325301207,0.19619865113427343,-9.388718577559779,-2.0527283874923357,3.0,0.9121989121989121,1096.252129471891,-0.055241536041024095,0.40335644775945434,-0.4495076044519549,1381.6849816849815,-1.0,99.15174744061727,0.9130699586942338,
2023-08-11 20:34:54.468000,-9.397590361445783,0.10843373493975904,-2.4457831325301207,0.24770079705702022,-9.430410790925812,-2.018393623543838,3.0,0.9121989121989121,1096.252129471891,0.02086125517160965,0.366412213740458,-0.46116193695006114,1384.6153846153845,-1.0,99.15174744061727,0.9130615740569121,
2023-08-11 20:34:54.475000,-9.421686746987952,0.0963855421686747,-2.433734939759036,0.2599632127529123,-9.37155119558553,-2.0331085223789085,3.0,0.9121989121989121,1096.252129471891,-0.10115960608356218,0.27038051395606305,-0.13530680030301234,1384.6153846153845,-1.0,99.15174744061727,0.9130531618723902,
2023-08-11 20:34:54.483000,-9.433734939759036,0.0963855421686747,-2.433734939759036,0.23053341508277128,-9.369098712446352,-2.0429184549356223,3.0,0.9121989121989121,1096.252129471891,0.037760037293863916,0.5562612901346068,0.050579803041780655,1383.150183150183,-1.0,99.15174744061727,0.9130447221339448,
2023-08-11 20:34:54.491000,-9.433734939759036,0.10843373493975904,-2.4457831325301207,0.30656039239730226,-9.378908645003065,-2.0232985898221947,3.0,0.9121989121989121,1096.252129471891,-0.31373463084901754,0.3341297127207038,0.08088106753685671,1380.2197802197802,-1.0,99.15174744061727,0.9130362548981859,
2023-08-11 20:34:54.498000,-9.457831325301205,0.10843373493975904,-2.433734939759036,0.2452483139178418,-9.327406499080318,-2.0331085223789085,3.0,0.9121989121989121,1096.252129471891,0.008507662723616683,0.4202552298817086,-0.10209195268341018,1375.091575091575,-1.0,99.15174744061727,0.9130277602855899,
2023-08-11 20:34:54.506000,-9.421686746987952,0.0963855421686747,-2.4096385542168677,0.19374616799509503,-9.35683629675046,-2.0159411404046597,3.0,0.9113109113109114,1097.320341047503,-0.17469844414661231,0.39799545481032544,0.14276557310180063,1367.7655677655678,-1.0,99.15174744061727,0.9130192384809608,
2023-08-11 20:34:54.514000,-9.409638554216867,0.10843373493975904,-2.4216867469879517,0.24279583077866337,-9.347026364193745,-2.094420600858369,3.0,0.9117549117549116,1096.7859751643537,0.1466115028261752,0.3026630149758172,0.10826874890740623,1360.4395604395604,-1.0,99.15174744061727,0.9130106897127445,
2023-08-11 20:34:54.521000,-9.421686746987952,0.12048192771084337,-2.4216867469879517,0.2158185162477008,-9.3862660944206,-2.0625383200490495,3.0,0.9121989121989121,1096.252129471891,-0.12749839752928155,0.329934153021385,-0.30499388147543827,1353.113553113553,-1.0,99.15174744061727,0.9130021143181608,
2023-08-11 20:34:54.529000,-9.457831325301205,0.12048192771084337,-2.4216867469879517,0.2452483139178418,-9.415695892090742,-2.0453709380748006,3.0,0.9121989121989121,1096.252129471891,-0.0802983509119508,0.45009032107686,-0.06071907231513295,1348.7179487179487,-1.0,99.15174744061727,0.912993512615322,
2023-08-11 20:34:54.537000,-9.421686746987952,0.12048192771084337,-2.4698795180722892,0.23789086450030655,-9.359288779889638,-2.0502759043531573,3.0,0.9121989121989121,1096.252129471891,0.07412155468795606,0.32550550667210454,-0.12213740458015267,1348.7179487179487,-1.0,99.15174744061727,0.9129848848275354,
2023-08-11 20:34:54.544000,-9.421686746987952,0.10843373493975904,-2.4457831325301207,0.24034334763948498,-9.327406499080318,-2.07725321888412,3.0,0.9121989121989121,1096.252129471891,0.07633587786259542,0.20208612551716096,-0.10570479575782304,1348.7179487179487,-1.0,99.15174744061727,0.9129762312420553,
2023-08-11 20:34:54.552000,-9.44578313253012,0.13253012048192772,-2.4578313253012047,0.23543838136112813,-9.366646229307173,-2.082158185162477,3.0,0.9121989121989121,1096.252129471891,0.07668550783753793,0.20523279529165048,-0.10442281918303124,1347.985347985348,-1.0,99.15174744061727,0.9129675522090094,
2023-08-11 20:34:54.560000,-9.421686746987952,0.10843373493975904,-2.4578313253012047,0.21091354996934394,-9.378908645003065,-2.0527283874923357,3.0,0.9121989121989121,1096.252129471891,-0.15220558242526575,-0.10104306275858134,0.06339956878969741,1347.985347985348,-1.0,99.15174744061727,0.9129588481403534,
2023-08-11 20:34:54.567000,-9.44578313253012,0.12048192771084337,-2.4457831325301207,0.26241569589209074,-9.376456161863887,-2.0331085223789085,3.0,0.9121989121989121,1096.252129471891,-0.1806421537206454,-0.1911310529689415,0.4761960258726181,1348.7179487179487,-1.0,99.15174744061727,0.9129501195088793,
2023-08-11 20:34:54.575000,-9.433734939759036,0.10843373493975904,-2.4457831325301207,0.22562844880441446,-9.408338442673205,-2.047823421213979,3.0,0.9121989121989121,1096.252129471891,-0.25476370840860146,-0.37247246663947364,0.3030126449507606,1349.4505494505493,-1.0,99.15174744061727,0.9129413668472888,
2023-08-11 20:34:54.583000,-9.44578313253012,0.10843373493975904,-2.4457831325301207,0.2550582464745555,-9.35683629675046,-1.9742489270386265,3.0,0.9121989121989121,1096.252129471891,-0.24007924946098655,-0.2919410290775594,0.42316881300623516,1350.18315018315,-1.0,99.15174744061727,0.9129325907473541,
2023-08-11 20:34:54.590000,-9.421686746987952,0.0963855421686747,-2.4457831325301207,0.24770079705702022,-9.320049049662783,-1.9816063764561618,3.0,0.9121989121989121,1096.252129471891,-0.45253773090146276,-0.7151098420837941,0.23611677641163117,1351.6483516483515,-1.0,99.15174744061727,0.9129237918591737,
2023-08-11 20:34:54.598000,-9.421686746987952,0.13253012048192772,-2.4457831325301207,0.25260576333537704,-9.327406499080318,-2.006131207847946,3.0,0.9121989121989121,1096.252129471891,-0.359885787541519,-0.49670765106928483,0.2646698910319912,1353.8461538461538,-1.0,99.15174744061727,0.9129149708905421,
2023-08-11 20:34:54.606000,-9.397590361445783,0.0963855421686747,-2.4457831325301207,0.23053341508277128,-9.33966891477621,-2.0674432863274066,3.0,0.9121989121989121,1096.252129471891,-0.4174581900821633,-0.60148010022726,0.44403006817784524,1355.3113553113553,-1.0,99.15174744061727,0.9129061286064419,
2023-08-11 20:34:54.613000,-9.433734939759036,0.10843373493975904,-2.433734939759036,0.23053341508277128,-9.413243408951564,-2.0723482526057633,3.0,0.9121989121989121,1096.252129471891,-0.4448458714527119,-0.5661674727579971,0.28646349280344974,1357.5091575091574,-1.0,99.15174744061727,0.9128972658286612,
2023-08-11 20:34:54.621000,-9.409638554216867,0.12048192771084337,-2.4578313253012047,0.2820355610055181,-9.393623543838135,-2.0208461066830163,3.0,0.9121989121989121,1096.252129471891,-0.5771225453062182,-0.7440125866790971,0.31373463084901837,1358.2417582417581,-1.0,99.15174744061727,0.9128883834355573,
2023-08-11 20:34:54.629000,-9.421686746987952,0.13253012048192772,-2.4096385542168677,0.23789086450030655,-9.405885959534027,-2.040465971796444,3.0,0.9121989121989121,1096.252129471891,-0.21828564768952846,-0.7538022259775065,0.4046384243342461,1358.974358974359,-1.0,99.15174744061727,0.9128794825007024,
2023-08-11 20:34:54.636000,-9.409638554216867,0.12048192771084337,-2.4096385542168677,0.2869405272838749,-9.393623543838135,-1.9914163090128754,3.0,0.9121989121989121,1096.252129471891,-0.17096905774721688,-0.7148767554338324,0.49239554804498564,1358.2417582417581,-1.0,99.15174744061727,0.9128705642725529,
2023-08-11 20:34:54.644000,-9.44578313253012,0.13253012048192772,-2.4216867469879517,0.2673206621704476,-9.374003678724709,-2.0036787247087675,3.0,0.9121989121989121,1096.252129471891,-0.24520715576015376,-0.6766505448400435,0.5815511916554978,1358.2417582417581,-1.0,99.15174744061727,0.9128616300266451,
2023-08-11 20:34:54.652000,-9.44578313253012,0.13253012048192772,-2.4216867469879517,0.1912936848559166,-9.396076026977314,-1.988963825873697,3.0,0.9121989121989121,1096.252129471891,-0.09032107686032356,-0.7753627410990029,0.4998543208437735,1358.974358974359,-1.0,99.15174744061727,0.912852681067031,
2023-08-11 20:34:54.659000,-9.457831325301205,0.14457831325301207,-2.4096385542168677,0.2869405272838749,-9.405885959534027,-2.047823421213979,3.0,0.9113109113109114,1097.320341047503,0.01713186877221594,-0.5831827982052321,0.589709224404172,1358.2417582417581,-1.0,99.15174744061727,0.9128437187276589,
2023-08-11 20:34:54.667000,-9.46987951807229,0.12048192771084337,-2.4457831325301207,0.2795830778663397,-9.361741263028817,-2.047823421213979,3.0,0.9117549117549116,1096.7859751643537,-0.07482081463784107,-0.8189499446419207,0.2068644018413848,1356.7765567765566,-1.0,99.15174744061727,0.9128347442138499,
2023-08-11 20:34:54.675000,-9.44578313253012,0.14457831325301207,-2.4457831325301207,0.3016554261189454,-9.442673206621704,-2.018393623543838,3.0,0.9117549117549116,1096.7859751643537,0.0025639531495836093,-0.8244274809160305,0.2671173008565935,1354.5787545787546,-1.0,99.15174744061727,0.9128257585499615,
2023-08-11 20:34:54.682000,-9.433734939759036,0.14457831325301207,-2.397590361445783,0.2918454935622317,-9.459840588595952,-2.0625383200490495,3.0,0.9117549117549116,1096.7859751643537,-0.13425791037818222,-0.8476196025872621,0.1571004020744713,1350.9157509157508,-1.0,99.15174744061727,0.9128167627489593,
2023-08-11 20:34:54.690000,-9.433734939759036,0.13253012048192772,-2.4096385542168677,0.2035561005518087,-9.376456161863887,-1.988963825873697,3.0,0.9117549117549116,1096.7859751643537,-0.19357846279354426,-0.8846803799312393,0.0170153254472351,1346.5201465201465,-1.0,99.15174744061727,0.9128077578218159,
2023-08-11 20:34:54.698000,-9.457831325301205,0.14457831325301207,-2.433734939759036,0.3041079092581238,-9.342121397915388,-1.9668914776210913,3.0,0.9117549117549116,1096.7859751643537,-0.038575840568731506,-0.9662607074179828,0.3519608414428065,1342.8571428571427,-1.0,99.15174744061727,0.9127987447761278,
2023-08-11 20:34:54.705000,-9.433734939759036,0.13253012048192772,-2.4096385542168677,0.2673206621704476,-9.391171060698957,-2.047823421213979,3.0,0.9117549117549116,1096.7859751643537,0.11747567158091053,-0.8044985723442692,-0.018180758697045635,1340.6593406593406,-1.0,99.15174744061727,0.9127897246145031,
2023-08-11 20:34:54.713000,-9.44578313253012,0.10843373493975904,-2.433734939759036,0.27713059472716123,-9.334763948497853,-2.035561005518087,3.0,0.9121989121989121,1096.252129471891,-0.14241594312685812,-0.9528582250451605,0.4517219276265952,1340.6593406593406,-1.0,99.15174744061727,0.9127806983327368,
2023-08-11 20:34:54.721000,-9.44578313253012,0.12048192771084337,-2.433734939759036,0.2722256284488044,-9.408338442673205,-2.035561005518087,3.0,0.9117549117549116,1096.7859751643537,-0.32550550667210454,-0.7325913408309543,0.8722102441582659,1342.8571428571427,-1.0,99.15174744061727,0.9127716670670831,
2023-08-11 20:34:54.728000,-9.44578313253012,0.12048192771084337,-2.4096385542168677,0.24279583077866337,-9.393623543838135,-2.0331085223789085,3.0,0.9117549117549116,1096.7859751643537,0.027737311345492885,-0.6965794534118064,0.6351611211467862,1347.985347985348,-1.0,99.15174744061727,0.9127626319646385,
2023-08-11 20:34:54.736000,-9.421686746987952,0.12048192771084337,-2.36144578313253,0.21827099938687922,-9.361741263028817,-1.9497240956468422,3.0,0.9117549117549116,1096.7859751643537,-0.2018530388671993,-0.9356098129479637,0.5067303770176563,1355.3113553113553,-1.0,99.15174744061727,0.9127535940220538,
2023-08-11 20:34:54.744000,-9.409638554216867,0.12048192771084337,-2.397590361445783,0.24770079705702022,-9.374003678724709,-1.9668914776210913,3.0,0.9121989121989121,1096.252129471891,-0.244507895810267,-0.7311928209311808,0.47013577297360293,1365.5677655677655,-1.0,99.15174744061727,0.9127445542219768,
2023-08-11 20:34:54.751000,-9.421686746987952,0.12048192771084337,-2.4096385542168677,0.22808093194359289,-9.361741263028817,-1.917841814837523,3.0,0.9117549117549116,1096.7859751643537,-0.10593788240778515,-0.7405162869296669,0.34368626536915065,1376.5567765567764,-1.0,99.15174744061727,0.9127355136799294,
2023-08-11 20:34:54.759000,-9.409638554216867,0.12048192771084337,-2.3734939759036147,0.2820355610055181,-9.337216431637032,-2.0036787247087675,3.0,0.9117549117549116,1096.7859751643537,-0.227958743662957,-1.0389837422061652,0.2914748557776352,1389.7435897435896,-1.0,99.15174744061727,0.9127264735143725,
2023-08-11 20:34:54.767000,-9.433734939759036,0.12048192771084337,-2.3855421686746987,0.20110361741263028,-9.378908645003065,-1.9668914776210913,3.0,0.9117549117549116,1096.7859751643537,-0.02738768137054864,-0.8627702348348003,0.3331973661208554,1401.4652014652013,-1.0,99.15174744061727,0.9127174346851823,
2023-08-11 20:34:54.774000,-9.433734939759036,0.10843373493975904,-2.3855421686746987,0.19865113427345185,-9.359288779889638,-2.006131207847946,3.0,0.9117549117549116,1096.7859751643537,-0.6068410931763888,-0.7942427597459348,0.11654332498106167,1412.4542124542124,-1.0,99.15174744061727,0.9127083981299535,
2023-08-11 20:34:54.782000,-9.421686746987952,0.0963855421686747,-2.4216867469879517,0.24034334763948498,-9.359288779889638,-1.9767014101778049,3.0,0.9117549117549116,1096.7859751643537,-0.04953091311695096,-0.6962298234368622,0.05291066954140216,1421.9780219780218,-1.0,99.15174744061727,0.9126993647615265,
2023-08-11 20:34:54.789000,-9.44578313253012,0.10843373493975904,-2.4096385542168677,0.2599632127529123,-9.396076026977314,-2.011036174126303,3.0,0.9117549117549116,1096.7859751643537,-0.3229415535225227,-0.23180467338733154,0.09964454285880783,1427.8388278388277,-1.0,99.15174744061727,0.9126903354655064,
2023-08-11 20:34:54.797000,-9.44578313253012,0.12048192771084337,-2.3855421686746987,0.19865113427345185,-9.378908645003065,-2.008583690987124,3.0,0.9117549117549116,1096.7859751643537,-0.4432142649029785,-0.27667385350504037,0.2644368043820291,1430.03663003663,-1.0,99.15174744061727,0.9126813110978117,
2023-08-11 20:34:54.805000,-9.44578313253012,0.12048192771084337,-2.4096385542168677,0.2158185162477008,-9.3862660944206,-1.9987737584304106,3.0,0.9117549117549116,1096.7859751643537,-0.7289784977565414,-0.18378882349513492,0.17015325447235016,1432.2344322344322,-1.0,99.15174744061727,0.9126722924822614,
2023-08-11 20:34:54.812000,-9.433734939759036,0.12048192771084337,-2.4096385542168677,0.27713059472716123,-9.317596566523605,-2.0036787247087675,3.0,0.9113109113109114,1097.320341047503,-0.6602179360177143,-0.10477244915797505,0.2448575257852104,1427.8388278388277,-1.0,99.15174744061727,0.9126632804082463,
2023-08-11 20:34:54.820000,-9.44578313253012,0.12048192771084337,-2.3855421686746987,0.269773145309626,-9.374003678724709,-1.9742489270386265,3.0,0.9117549117549116,1096.7859751643537,-0.7013577297360294,-0.013635569022783902,-0.032981760969640506,1419.7802197802198,-1.0,99.15174744061727,0.9126542756179424,
2023-08-11 20:34:54.828000,-9.44578313253012,0.13253012048192772,-2.4096385542168677,0.2673206621704476,-9.396076026977314,-1.988963825873697,3.0,0.9117549117549116,1096.7859751643537,-0.6926169803624493,-0.014684458947613166,-0.03414719421945104,1409.5238095238094,-1.0,99.15174744061727,0.9126452789112403,
2023-08-11 20:34:54.835000,-9.44578313253012,0.10843373493975904,-2.3855421686746987,0.2673206621704476,-9.349478847332923,-1.9521765787860208,3.0,0.9117549117549116,1096.7859751643537,-0.7167414486335293,-0.16758930132276742,-0.2043004486918012,1399.2673992673992,-1.0,99.15174744061727,0.9126362910159759,
2023-08-11 20:34:54.843000,-9.433734939759036,0.14457831325301207,-2.3855421686746987,0.25260576333537704,-9.383813611281422,-1.9693439607602696,3.0,0.9117549117549116,1096.7859751643537,-1.2873375677408068,-0.3497465182681654,-0.29497115552706726,1391.9413919413919,-1.0,99.15174744061727,0.9126273124686884,
2023-08-11 20:34:54.851000,-9.44578313253012,0.14457831325301207,-2.397590361445783,0.26486817903126914,-9.351931330472102,-1.9791538933169834,3.0,0.9117549117549116,1096.7859751643537,-1.0765106928500674,-0.4833051686964626,-0.03309830429462134,1386.080586080586,-1.0,99.15174744061727,0.9126183437617496,
2023-08-11 20:34:54.858000,-9.44578313253012,0.14457831325301207,-2.4096385542168677,0.23053341508277128,-9.427958307786634,-1.9276517473942365,3.0,0.9117549117549116,1096.7859751643537,-1.1094924538197066,-0.5539304236349867,-0.4307441291300038,1380.952380952381,-1.0,99.15174744061727,0.9126093853414297,
2023-08-11 20:34:54.866000,-9.457831325301205,0.14457831325301207,-2.3855421686746987,0.29675045984058857,-9.41814837522992,-1.9644389944819127,3.0,0.9117549117549116,1096.7859751643537,-0.9767496066662789,-0.4866849251209138,-0.2911252258026923,1376.5567765567764,-1.0,99.15174744061727,0.9126004376062257,
2023-08-11 20:34:54.874000,-9.433734939759036,0.1566265060240964,-2.3734939759036147,0.27467811158798283,-9.349478847332923,-1.9497240956468422,3.0,0.9117549117549116,1096.7859751643537,-0.8133558650428302,-0.9106695414020161,-0.3989278014101743,1372.8937728937728,-1.0,99.15174744061727,0.9125915009054748,
2023-08-11 20:34:54.881000,-9.457831325301205,0.1566265060240964,-2.3734939759036147,0.21091354996934394,-9.3862660944206,-1.9693439607602696,3.0,0.9117549117549116,1096.7859751643537,-0.9117184313268454,-0.7950585630208025,-0.3836606258376552,1369.230769230769,-1.0,99.15174744061727,0.9125825755382789,
2023-08-11 20:34:54.889000,-9.457831325301205,0.12048192771084337,-2.36144578313253,0.2158185162477008,-9.410790925812385,-1.9399141630901287,3.0,0.9117549117549116,1096.7859751643537,-0.47444787599790167,-0.6647631256919756,-0.4737486160480158,1368.4981684981683,-1.0,99.15174744061727,0.9125736617527644,
2023-08-11 20:34:54.897000,-9.44578313253012,0.16867469879518074,-2.325301204819277,0.25260576333537704,-9.398528510116492,-1.9570815450643775,3.0,0.9117549117549116,1096.7859751643537,-0.7273468912068063,-0.5977507138278645,-0.27492570363032476,1369.9633699633698,-1.0,99.15174744061727,0.9125647597456926,
2023-08-11 20:34:54.904000,-9.433734939759036,0.13253012048192772,-2.3734939759036147,0.2575107296137339,-9.40098099325567,-1.9693439607602696,3.0,0.9117549117549116,1096.7859751643537,-0.6746693083153658,0.3082570945749078,-0.7327078841559347,1370.6959706959706,-1.0,99.15174744061727,0.9125558696624446,
2023-08-11 20:34:54.912000,-9.421686746987952,0.12048192771084337,-2.433734939759036,0.2599632127529123,-9.366646229307173,-2.018393623543838,3.0,0.9117549117549116,1096.7859751643537,-0.39356680846104497,0.8089272186935498,-0.711613542334363,1370.6959706959706,-1.0,99.15174744061727,0.9125469915973954,
2023-08-11 20:34:54.920000,-9.44578313253012,0.12048192771084337,-2.397590361445783,0.2035561005518087,-9.349478847332923,-1.9987737584304106,3.0,0.9117549117549116,1096.7859751643537,-0.6345784045218816,1.061126973952566,-0.9361925295728688,1369.230769230769,-1.0,99.15174744061727,0.9125381255946852,
2023-08-11 20:34:54.927000,-9.421686746987952,0.10843373493975904,-2.4216867469879517,0.19865113427345185,-9.312691600245248,-1.9742489270386265,3.0,0.9117549117549116,1096.7859751643537,-0.8116077151681141,1.1735912825592918,-0.822912417691277,1369.230769230769,-1.0,99.15174744061727,0.9125292716494061,
2023-08-11 20:34:54.935000,-9.421686746987952,0.08433734939759037,-2.4216867469879517,0.24034334763948498,-9.327406499080318,-1.993868792152054,3.0,0.9117549117549116,1096.7859751643537,-0.7267641745819003,1.4819649204591803,-0.4972903676941903,1367.7655677655678,-1.0,99.15174744061727,0.9125204297092052,
2023-08-11 20:34:54.943000,-9.397590361445783,0.0963855421686747,-2.4216867469879517,0.2158185162477008,-9.347026364193745,-1.9963212752912323,3.0,0.9117549117549116,1096.7859751643537,-0.3958976749606669,1.5603985781714342,-0.9534409416700655,1365.5677655677655,-1.0,99.15174744061727,0.9125115996763139,
2023-08-11 20:34:54.950000,-9.421686746987952,0.10843373493975904,-2.397590361445783,0.23053341508277128,-9.408338442673205,-2.0502759043531573,3.0,0.9117549117549116,1096.7859751643537,-0.8169687081172431,1.2713711322184027,-0.6722218984907639,1360.4395604395604,-1.0,99.15174744061727,0.9125027815487481,
2023-08-11 20:34:54.958000,-9.46987951807229,0.13253012048192772,-2.4216867469879517,0.2207234825260576,-9.349478847332923,-2.0134886572654813,3.0,0.9117549117549116,1096.7859751643537,-1.0673037701765624,1.0458597983800468,-0.6823611677641161,1356.7765567765566,-1.0,99.15174744061727,0.9124939754028069,
2023-08-11 20:34:54.966000,-9.44578313253012,0.10843373493975904,-2.4096385542168677,0.23543838136112813,-9.342121397915388,-2.011036174126303,3.0,0.9113109113109114,1097.320341047503,-0.8759396305576591,0.4690868830487728,-0.6153487559000059,1349.4505494505493,-1.0,99.15174744061727,0.9124851811096255,
2023-08-11 20:34:54.973000,-9.433734939759036,0.060240963855421686,-2.3855421686746987,0.22562844880441446,-9.437768240343347,-2.006131207847946,3.0,0.9113109113109114,1097.320341047503,-0.5771225453062182,0.6637142357671463,-0.9913175222889107,1344.3223443223442,-1.0,99.15174744061727,0.912476398488571,
2023-08-11 20:34:54.981000,-9.457831325301205,0.060240963855421686,-2.3855421686746987,0.15450643776824033,-9.410790925812385,-1.9619865113427344,3.0,0.9117549117549116,1096.7859751643537,-0.983159489540237,-0.1835557368451715,-0.8015849892197423,1340.6593406593406,-1.0,99.15174744061727,0.9124676272588625,
2023-08-11 20:34:54.989000,-9.481927710843374,0.07228915662650603,-2.4096385542168677,0.21091354996934394,-9.351931330472102,-1.9963212752912323,3.0,0.9117549117549116,1096.7859751643537,-1.248179010547171,0.319911427073014,-0.6726880717906881,1339.9267399267399,-1.0,99.15174744061727,0.9124588669156772,
2023-08-11 20:34:54.996000,-9.457831325301205,0.060240963855421686,-2.4096385542168677,0.16922133660331085,-9.383813611281422,-2.001226241569589,3.0,0.9117549117549116,1096.7859751643537,-1.130353708991318,-0.006876056173883237,-0.759046675601655,1341.3919413919414,-1.0,99.15174744061727,0.9124501169252105,
2023-08-11 20:34:55.004000,-9.44578313253012,0.060240963855421686,-2.433734939759036,0.2207234825260576,-9.413243408951564,-1.9914163090128754,3.0,0.9117549117549116,1096.7859751643537,-0.6314317347473921,0.6006642969523923,-0.6759512848901575,1344.3223443223442,-1.0,99.15174744061727,0.9124413767391106,
2023-08-11 20:34:55.012000,-9.44578313253012,0.08433734939759037,-2.4096385542168677,0.23543838136112813,-9.40098099325567,-2.040465971796444,3.0,0.9117549117549116,1096.7859751643537,-0.9912009789639303,0.9287337567740804,-0.6697744886661615,1347.985347985348,-1.0,99.15174744061727,0.9124326459374866,
2023-08-11 20:34:55.019000,-9.433734939759036,0.08433734939759037,-2.397590361445783,0.17167381974248927,-9.376456161863887,-2.008583690987124,3.0,0.9117549117549116,1096.7859751643537,-1.0904958918477938,0.8130062350678859,-0.3745702464891322,1353.8461538461538,-1.0,99.15174744061727,0.9124239240743945,
2023-08-11 20:34:55.027000,-9.421686746987952,0.0963855421686747,-2.3855421686746987,0.27713059472716123,-9.403433476394849,-1.9521765787860208,3.0,0.9117549117549116,1096.7859751643537,-0.8958685391294221,0.848901579162053,-0.339607248994814,1358.2417582417581,-1.0,99.15174744061727,0.9124152105551874,
2023-08-11 20:34:55.035000,-9.409638554216867,0.13253012048192772,-2.3855421686746987,0.3114653586756591,-9.374003678724709,-1.9717964438994482,3.0,0.9117549117549116,1096.7859751643537,-1.0682361167764107,0.6447176737952336,-0.4888992482955536,1361.904761904762,-1.0,99.15174744061727,0.9124065047909006,
2023-08-11 20:34:55.042000,-9.421686746987952,0.13253012048192772,-2.3855421686746987,0.23543838136112813,-9.366646229307173,-1.9276517473942365,3.0,0.9117549117549116,1096.7859751643537,-1.0410815220558238,0.47491404929782677,-0.3159489540236582,1368.4981684981683,-1.0,99.15174744061727,0.9123978062036583,
2023-08-11 20:34:55.050000,-9.3855421686747,0.14457831325301207,-2.3493975903614457,0.27713059472716123,-9.290619251992641,-1.9448191293684856,3.0,0.9117549117549116,1096.7859751643537,-1.046209428354991,0.34881417166831696,0.024007924946098307,1375.091575091575,-1.0,99.15174744061727,0.9123891143711126,
2023-08-11 20:34:55.058000,-9.397590361445783,0.12048192771084337,-2.3493975903614457,0.1765787860208461,-9.334763948497853,-1.9227467811158798,3.0,0.9117549117549116,1096.7859751643537,-0.8075286987937762,0.16001398519899743,-0.40102558125983323,1378.021978021978,-1.0,99.15174744061727,0.9123804288732771,
2023-08-11 20:34:55.065000,-9.3855421686747,0.12048192771084337,-2.325301204819277,0.23053341508277128,-9.332311465358675,-1.9399141630901287,3.0,0.9117549117549116,1096.7859751643537,-1.550492395548044,0.15849892197424306,-0.44158265835324245,1378.7545787545787,-1.0,99.15174744061727,0.9123717491711131,
2023-08-11 20:34:55.073000,-9.421686746987952,0.13253012048192772,-2.3373493975903616,0.21827099938687922,-9.393623543838135,-1.9325567136725934,3.0,0.9117549117549116,1096.7859751643537,-1.0500553580793655,0.23401899656197264,-0.41967251325680355,1378.7545787545787,-1.0,99.15174744061727,0.9123630749007925,
2023-08-11 20:34:55.081000,-9.457831325301205,0.0963855421686747,-2.3734939759036147,0.2820355610055181,-9.376456161863887,-1.9840588595953401,3.0,0.9121989121989121,1096.252129471891,-1.1340830953907117,0.9311811665986832,-0.2786550900297189,1380.2197802197802,-1.0,99.15174744061727,0.9123544057209653,
2023-08-11 20:34:55.088000,-9.457831325301205,0.0963855421686747,-2.397590361445783,0.269773145309626,-9.41814837522992,-2.018393623543838,3.0,0.9117549117549116,1096.7859751643537,-1.2311636850999343,0.8603228250101975,-0.5023017306683762,1380.2197802197802,-1.0,99.15174744061727,0.912345741479743,
2023-08-11 20:34:55.096000,-9.44578313253012,0.08433734939759037,-2.4096385542168677,0.164316370324954,-9.381361128142244,-2.0331085223789085,3.0,0.9117549117549116,1096.7859751643537,-1.2660101392692737,1.142241128139386,-0.34298700541926475,1379.4871794871794,-1.0,99.15174744061727,0.9123370822226645,
2023-08-11 20:34:55.104000,-9.46987951807229,0.08433734939759037,-2.433734939759036,0.20110361741263028,-9.425505824647455,-2.028203556100552,3.0,0.9117549117549116,1096.7859751643537,-1.255288153371016,1.1289551890915446,-0.33925761901987017,1374.3589743589744,-1.0,99.15174744061727,0.9123284278923212,
2023-08-11 20:34:55.111000,-9.433734939759036,0.07228915662650603,-2.433734939759036,0.18148375229920294,-9.354383813611282,-2.060085836909871,3.0,0.9117549117549116,1096.7859751643537,-1.7814812656605097,1.6035196084144288,-0.5788706951809334,1368.4981684981683,-1.0,99.15174744061727,0.9123197784749987,
2023-08-11 20:34:55.119000,-9.433734939759036,0.07228915662650603,-2.4457831325301207,0.18148375229920294,-9.354383813611282,-1.9963212752912323,3.0,0.9113109113109114,1097.320341047503,-1.675543383252723,1.905716450090321,-0.7265310879319387,1366.3003663003662,-1.0,99.15174744061727,0.9123111340083712,
2023-08-11 20:34:55.127000,-9.409638554216867,0.08433734939759037,-2.4578313253012047,0.17167381974248927,-9.469650521152667,-2.1017780502759043,3.0,0.9117549117549116,1096.7859751643537,-1.9382320377600386,1.8070042538313615,-0.7783928675485107,1366.3003663003662,-1.0,99.15174744061727,0.9123024945784252,
2023-08-11 20:34:55.134000,-9.433734939759036,0.07228915662650603,-2.4698795180722892,0.18884120171673818,-9.366646229307173,-2.0453709380748006,3.0,0.9117549117549116,1096.7859751643537,-1.7236757764699038,1.8494260241244675,-1.075461802925237,1368.4981684981683,-1.0,99.15174744061727,0.9122938602949427,
2023-08-11 20:34:55.142000,-9.409638554216867,0.04819277108433735,-2.4819277108433737,0.164316370324954,-9.374003678724709,-2.0625383200490495,3.0,0.9117549117549116,1096.7859751643537,-2.319212167123129,1.5865042829671938,-0.78818250684692,1371.4285714285713,-1.0,99.15174744061727,0.9122852313297187,
2023-08-11 20:34:55.149000,-9.44578313253012,0.03614457831325302,-2.4698795180722892,0.2207234825260576,-9.329858982219497,-2.099325567136726,3.0,0.9117549117549116,1096.7859751643537,-2.376318396363848,1.3843016141250502,-1.0206864401841387,1372.8937728937728,-1.0,99.15174744061727,0.9122766079332764,
2023-08-11 20:34:55.157000,-9.433734939759036,0.060240963855421686,-2.4819277108433737,0.2035561005518087,-9.29307173513182,-2.0527283874923357,3.0,0.9117549117549116,1096.7859751643537,-2.859740108385293,1.0935260182973026,-1.0999359011712604,1373.6263736263736,-1.0,99.15174744061727,0.9122679904406794,
2023-08-11 20:34:55.165000,-9.409638554216867,0.04819277108433735,-2.4578313253012047,0.17167381974248927,-9.29307173513182,-2.018393623543838,3.0,0.9117549117549116,1096.7859751643537,-3.1890915447817707,0.7289784977565414,-1.1024998543208435,1374.3589743589744,-1.0,99.15174744061727,0.9122593792769519,
2023-08-11 20:34:55.172000,-9.397590361445783,0.024096385542168676,-2.4457831325301207,0.1912936848559166,-9.369098712446352,-2.0748007357449416,3.0,0.9117549117549116,1096.7859751643537,-3.2397878911485334,0.44169920167822413,-0.9514597051453874,1377.2893772893772,-1.0,99.15174744061727,0.91225077496209,
2023-08-11 20:34:55.180000,-9.397590361445783,0.060240963855421686,-2.4698795180722892,0.2207234825260576,-9.332311465358675,-2.0429184549356223,3.0,0.9117549117549116,1096.7859751643537,-3.638599149233728,0.34100576889458706,-0.8930714993298755,1379.4871794871794,-1.0,99.15174744061727,0.9122421781156331,
2023-08-11 20:34:55.188000,-9.409638554216867,0.04819277108433735,-2.4698795180722892,0.1618638871857756,-9.41814837522992,-2.082158185162477,3.0,0.9117549117549116,1096.7859751643537,-3.8207563661791246,-0.04836547986714086,-1.0660217936017713,1381.6849816849815,-1.0,99.15174744061727,0.9122335894607868,
2023-08-11 20:34:55.195000,-9.421686746987952,0.03614457831325302,-2.4457831325301207,0.14224402207234824,-9.315144083384427,-2.0748007357449416,3.0,0.9117549117549116,1096.7859751643537,-4.442048831653168,-0.20604859856651808,-0.7180234252083215,1383.150183150183,-1.0,99.15174744061727,0.9122250096893147,
2023-08-11 20:34:55.203000,-9.409638554216867,0.03614457831325302,-2.4457831325301207,0.1618638871857756,-9.322501532801962,-2.018393623543838,3.0,0.9117549117549116,1096.7859751643537,-4.3717732066895865,-0.49787308431909494,-0.9229065905250278,1384.6153846153845,-1.0,99.15174744061727,0.9122164396238213,
2023-08-11 20:34:55.211000,-9.44578313253012,0.024096385542168676,-2.397590361445783,0.16676885346413242,-9.378908645003065,-2.03065603923973,3.0,0.9117549117549116,1096.7859751643537,-4.240895052735852,-0.6345784045218816,-1.1267408659169047,1386.080586080586,-1.0,99.15174744061727,0.912207880348014,
2023-08-11 20:34:55.218000,-9.44578313253012,0.07228915662650603,-2.4096385542168677,0.15450643776824033,-9.374003678724709,-2.0502759043531573,3.0,0.9117549117549116,1096.7859751643537,-4.508245440242408,-0.5546296835848734,-0.764291125225803,1389.7435897435896,-1.0,99.15174744061727,0.9121993330597378,
2023-08-11 20:34:55.226000,-9.409638554216867,0.07228915662650603,-2.4216867469879517,0.14224402207234824,-9.32495401594114,-2.0208461066830163,3.0,0.9117549117549116,1096.7859751643537,-4.865101101334418,-0.45789872385059166,-0.9388730260474327,1391.9413919413919,-1.0,99.15174744061727,0.912190799072777,
2023-08-11 20:34:55.234000,-9.421686746987952,0.060240963855421686,-2.4578313253012047,0.18393623543838136,-9.307786633966892,-1.9865113427345187,3.0,0.9117549117549116,1096.7859751643537,-4.8648680146844585,-0.7140609521589649,-1.022084960083911,1392.6739926739926,-1.0,99.15174744061727,0.9121822798181222,
2023-08-11 20:34:55.241000,-9.44578313253012,0.060240963855421686,-2.4216867469879517,0.22808093194359289,-9.413243408951564,-2.057633353770693,3.0,0.9117549117549116,1096.7859751643537,-5.034322009206921,-0.4327253656546824,-0.9956296253132099,1393.4065934065934,-1.0,99.15174744061727,0.9121737768446903,
2023-08-11 20:34:55.249000,-9.421686746987952,0.07228915662650603,-2.4578313253012047,0.17903126916002451,-9.40098099325567,-2.1263028816676885,3.0,0.9117549117549116,1096.7859751643537,-5.199114270730143,-0.10500553580793673,-1.0335062059320554,1392.6739926739926,-1.0,99.15174744061727,0.9121652918195013,
2023-08-11 20:34:55.257000,-9.433734939759036,0.07228915662650603,-2.4819277108433737,0.2673206621704476,-9.342121397915388,-2.1017780502759043,3.0,0.9117549117549116,1096.7859751643537,-5.412854728745411,-0.05920400909037948,-1.1861779616572463,1390.4761904761904,-1.0,99.15174744061727,0.9121568265273026,
2023-08-11 20:34:55.264000,-9.457831325301205,0.060240963855421686,-2.4939759036144578,0.17903126916002451,-9.374003678724709,-2.111587982832618,3.0,0.9117549117549116,1096.7859751643537,-5.76399976691335,-0.3034788182506848,-0.6976283433366357,1388.278388278388,-1.0,99.15174744061727,0.912148382869642,
2023-08-11 20:34:55.272000,-9.457831325301205,0.060240963855421686,-2.4698795180722892,0.20846106683016552,-9.383813611281422,-2.094420600858369,3.0,0.9113109113109114,1097.320341047503,-6.160946331798845,-0.5782879785560283,-0.9571703280694601,1384.6153846153845,-1.0,99.15174744061727,0.9121399628633996,
2023-08-11 20:34:55.280000,-9.44578313253012,0.08433734939759037,-2.4578313253012047,0.1765787860208461,-9.327406499080318,-2.057633353770693,3.0,0.9113109113109114,1097.320341047503,-6.374686789814112,-0.8378299632888527,-1.1861779616572463,1383.150183150183,-1.0,99.15174744061727,0.9121315686282286,
2023-08-11 20:34:55.287000,-9.421686746987952,0.07228915662650603,-2.4698795180722892,0.19374616799509503,-9.354383813611282,-2.0429184549356223,3.0,0.9113109113109114,1097.320341047503,-6.451022667676709,-1.0821047724491581,-1.0487733815045746,1383.8827838827838,-1.0,99.15174744061727,0.9121232023417547,
2023-08-11 20:34:55.295000,-9.46987951807229,0.07228915662650603,-2.4578313253012047,0.21336603310852237,-9.398528510116492,-2.0527283874923357,3.0,0.9117549117549116,1096.7859751643537,-6.603694423401899,-0.868364314433891,-1.0640405570770937,1385.3479853479853,-1.0,99.15174744061727,0.9121148660868263,
2023-08-11 20:34:55.303000,-9.44578313253012,0.07228915662650603,-2.4819277108433737,0.2599632127529123,-9.391171060698957,-2.047823421213979,3.0,0.9117549117549116,1096.7859751643537,-7.183847095157624,-1.3874482838995397,-1.1403764349396892,1389.0109890109889,-1.0,99.15174744061727,0.912106562016838,
2023-08-11 20:34:55.310000,-9.457831325301205,0.08433734939759037,-2.4578313253012047,0.2158185162477008,-9.37155119558553,-2.0232985898221947,3.0,0.9117549117549116,1096.7859751643537,-7.321251675310296,-1.9065322533651885,-1.277781015092361,1394.8717948717947,-1.0,99.15174744061727,0.9120982925203859,
2023-08-11 20:34:55.318000,-9.457831325301205,0.08433734939759037,-2.4457831325301207,0.15695892090741875,-9.391171060698957,-2.0232985898221947,3.0,0.9117549117549116,1096.7859751643537,-7.3517860264553345,-1.814929199930074,-1.5678573509702234,1403.6630036630036,-1.0,99.15174744061727,0.9120900600770432,
2023-08-11 20:34:55.326000,-9.421686746987952,0.08433734939759037,-2.4216867469879517,0.16922133660331085,-9.43286327406499,-2.018393623543838,3.0,0.9117549117549116,1096.7859751643537,-7.702931064623273,-2.21187576481557,-1.5220558242526663,1413.9194139194137,-1.0,99.15174744061727,0.9120818672514759,
2023-08-11 20:34:55.333000,-9.457831325301205,0.0963855421686747,-2.4096385542168677,0.27713059472716123,-9.440220723482526,-2.0232985898221947,3.0,0.9117549117549116,1096.7859751643537,-8.313618087524036,-2.196608589243051,-1.0487733815045746,1425.6410256410256,-1.0,99.15174744061727,0.9120737166871609,
2023-08-11 20:34:55.341000,-9.433734939759036,0.0963855421686747,-2.36144578313253,0.1765787860208461,-9.369098712446352,-1.9693439607602696,3.0,0.9117549117549116,1096.7859751643537,-8.023541751646174,-2.318745993823204,-1.308315366237399,1437.3626373626373,-1.0,99.15174744061727,0.91206561109976,
2023-08-11 20:34:55.349000,-9.433734939759036,0.0963855421686747,-2.3493975903614457,0.23053341508277128,-9.3862660944206,-1.9546290619251991,3.0,0.9117549117549116,1096.7859751643537,-8.145679156226327,-2.3034788182506847,-1.2014451372297654,1445.4212454212454,-1.0,99.15174744061727,0.9120575532701725,
2023-08-11 20:34:55.356000,-9.421686746987952,0.13253012048192772,-2.3373493975903616,0.23543838136112813,-9.366646229307173,-1.9497240956468422,3.0,0.9117549117549116,1096.7859751643537,-8.512091369966784,-2.4408833984033564,-1.12510925936717,1451.2820512820513,-1.0,99.15174744061727,0.9120495460373019,
2023-08-11 20:34:55.364000,-9.409638554216867,0.14457831325301207,-2.313253012048193,0.23789086450030655,-9.410790925812385,-1.8908645003065603,3.0,0.9113109113109114,1097.320341047503,-8.191480682943883,-2.318745993823204,-1.5373229998251854,1457.142857142857,-1.0,99.15174744061727,0.9120415922905838,
2023-08-11 20:34:55.372000,-9.433734939759036,0.13253012048192772,-2.313253012048193,0.2795830778663397,-9.40098099325567,-1.8933169834457386,3.0,0.9117549117549116,1096.7859751643537,-8.496824194394266,-1.967600955655265,-1.7205291066954143,1463.003663003663,-1.0,99.15174744061727,0.9120336948130072,
2023-08-11 20:34:55.379000,-9.433734939759036,0.13253012048192772,-2.313253012048193,0.20600858369098712,-9.381361128142244,-1.8957694665849172,3.0,0.9113109113109114,1097.320341047503,-8.496824194394266,-1.967600955655265,-1.7205291066954143,1467.3992673992673,-1.0,99.15174744061727,0.9120258564006815,
2023-08-11 20:34:55.387000,-9.457831325301205,0.13253012048192772,-2.3012048192771086,0.24034334763948498,-9.425505824647455,-1.930104230533415,3.0,0.9113109113109114,1097.320341047503,-8.405221140959151,-1.9370666045102267,-1.7510634578404525,1471.062271062271,-1.0,99.15174744061727,0.9120180798644961,
2023-08-11 20:34:55.395000,-9.457831325301205,0.14457831325301207,-2.325301204819277,0.2207234825260576,-9.41814837522992,-1.8614347026364193,3.0,0.9117549117549116,1096.7859751643537,-8.649495950119457,-1.3416467571819826,-1.674727579977857,1471.062271062271,-1.0,99.15174744061727,0.9120103678612362,
2023-08-11 20:34:55.402000,-9.433734939759036,0.12048192771084337,-2.3734939759036147,0.2673206621704476,-9.413243408951564,-1.9350091968117717,3.0,0.9113109113109114,1097.320341047503,-8.481557018821746,-0.9599673678690054,-1.644193228832819,1468.8644688644688,-1.0,99.15174744061727,0.9120027231716358,
2023-08-11 20:34:55.410000,-9.457831325301205,0.13253012048192772,-2.3493975903614457,0.2207234825260576,-9.454935622317596,-1.9251992642550582,3.0,0.9113109113109114,1097.320341047503,-8.451022667676709,-0.39508187168579934,-1.9800710914282387,1464.4688644688645,-1.0,99.15174744061727,0.9119951485627809,
2023-08-11 20:34:55.418000,-9.457831325301205,0.0963855421686747,-2.3855421686746987,0.26241569589209074,-9.427958307786634,-1.9570815450643775,3.0,0.9117549117549116,1096.7859751643537,-8.802167705844647,-0.34928034496824206,-2.1480100227259484,1455.6776556776556,-1.0,99.15174744061727,0.9119876466188487,
2023-08-11 20:34:55.425000,-9.457831325301205,0.10843373493975904,-2.36144578313253,0.21827099938687922,-9.47946045370938,-1.9816063764561618,3.0,0.9104229104229103,1098.390636430139,-8.817434881417165,0.01713186877221594,-1.9800710914282387,1446.153846153846,-1.0,99.15174744061727,0.911980220157682,
2023-08-11 20:34:55.433000,-9.457831325301205,0.12048192771084337,-2.397590361445783,0.2722256284488044,-9.413243408951564,-1.9963212752912323,3.0,0.9113109113109114,1097.320341047503,-9.015908163859914,0.3224753802225976,-1.7052619311228951,1438.095238095238,-1.0,99.15174744061727,0.9119728719128807,
2023-08-11 20:34:55.441000,-9.44578313253012,0.08433734939759037,-2.36144578313253,0.19865113427345185,-9.35683629675046,-1.9840588595953401,3.0,0.9113109113109114,1097.320341047503,-9.046442515004953,0.35300973136763575,-2.3159489540236584,1431.5018315018315,-1.0,99.15174744061727,0.9119656043123129,
2023-08-11 20:34:55.448000,-9.44578313253012,0.0963855421686747,-2.3855421686746987,0.19619865113427343,-9.381361128142244,-1.908031882280809,3.0,0.9113109113109114,1097.320341047503,-9.199114270730144,0.27667385350504037,-1.9495367402832005,1427.8388278388277,-1.0,99.15174744061727,0.9119584197982037,
2023-08-11 20:34:55.456000,-9.421686746987952,0.0963855421686747,-2.36144578313253,0.20600858369098712,-9.354383813611282,-1.9816063764561618,3.0,0.9113109113109114,1097.320341047503,-9.351786026455335,-0.4256162228308375,-1.9190023891381625,1426.3736263736262,-1.0,99.15174744061727,0.9119513206893338,
2023-08-11 20:34:55.464000,-9.44578313253012,0.08433734939759037,-2.36144578313253,0.17412630288166767,-9.405885959534027,-1.9767014101778049,3.0,0.9113109113109114,1097.320341047503,-9.473923431035487,-0.3187459938232039,-1.5983917021152616,1425.6410256410256,-1.0,99.15174744061727,0.9119443091714257,
2023-08-11 20:34:55.471000,-9.433734939759036,0.10843373493975904,-2.325301204819277,0.23789086450030655,-9.33966891477621,-1.9448191293684856,3.0,0.9113109113109114,1097.320341047503,-9.107511217295029,-0.8530971388613718,-2.209078725016025,1424.9084249084249,-1.0,99.15174744061727,0.911937387148795,
2023-08-11 20:34:55.479000,-9.433734939759036,0.10843373493975904,-2.36144578313253,0.25260576333537704,-9.40098099325567,-1.9153893316983446,3.0,0.9113109113109114,1097.320341047503,-9.886137171493502,-0.700425383136181,-2.45335353417633,1427.106227106227,-1.0,99.15174744061727,0.9119305562552339,
2023-08-11 20:34:55.487000,-9.433734939759036,0.12048192771084337,-2.325301204819277,0.2599632127529123,-9.403433476394849,-1.9742489270386265,3.0,0.9113109113109114,1097.320341047503,-9.794534118058387,-1.0057688945865626,-2.071674144863353,1430.7692307692307,-1.0,99.15174744061727,0.9119238181314065,
2023-08-11 20:34:55.494000,-9.44578313253012,0.10843373493975904,-2.325301204819277,0.21827099938687922,-9.405885959534027,-1.9399141630901287,3.0,0.9113109113109114,1097.320341047503,-9.809801293630906,-0.5782879785560283,-2.361750480741216,1433.6996336996335,-1.0,99.15174744061727,0.9119171742554926,
2023-08-11 20:34:55.502000,-9.433734939759036,0.12048192771084337,-2.3373493975903616,0.24770079705702022,-9.410790925812385,-1.908031882280809,3.0,0.9113109113109114,1097.320341047503,-9.779266942485869,-0.5782879785560283,-2.3159489540236584,1436.6300366300366,-1.0,99.15174744061727,0.9119106259445752,
2023-08-11 20:34:55.510000,-9.457831325301205,0.12048192771084337,-2.36144578313253,0.24770079705702022,-9.442673206621704,-1.9006744328632739,3.0,0.9113109113109114,1097.320341047503,-9.779266942485869,-0.19660858924305122,-2.422819183031292,1436.6300366300366,-1.0,99.15174744061727,0.9119041743354068,
2023-08-11 20:34:55.517000,-9.46987951807229,0.10843373493975904,-2.3855421686746987,0.26241569589209074,-9.408338442673205,-2.0208461066830163,3.0,0.9113109113109114,1097.320341047503,-9.886137171493502,0.18507080006992585,-2.6823611677641166,1438.095238095238,-1.0,99.15174744061727,0.9118978203867476,
2023-08-11 20:34:55.525000,-9.46987951807229,0.0963855421686747,-2.36144578313253,0.26241569589209074,-9.364193746167995,-1.9963212752912323,3.0,0.9113109113109114,1097.320341047503,-9.534992133325563,0.6736204183905365,-2.6823611677641166,1438.095238095238,-1.0,99.15174744061727,0.9118915649999515,
2023-08-11 20:34:55.532000,-9.493975903614459,0.10843373493975904,-2.433734939759036,0.23789086450030655,-9.454935622317596,-2.0232985898221947,3.0,0.9113109113109114,1097.320341047503,-10.420488316531669,0.9636967542683991,-2.3006817784511395,1438.095238095238,-1.0,99.15174744061727,0.9118854088633574,
2023-08-11 20:34:55.540000,-9.46987951807229,0.10843373493975904,-2.397590361445783,0.29675045984058857,-9.376456161863887,-1.9840588595953401,3.0,0.9113109113109114,1097.320341047503,-10.313618087524036,0.5209486626653457,-2.3006817784511395,1438.8278388278388,-1.0,99.15174744061727,0.9118793524465593,
2023-08-11 20:34:55.548000,-9.44578313253012,0.12048192771084337,-2.3734939759036147,0.23789086450030655,-9.398528510116492,-1.9914163090128754,3.0,0.9113109113109114,1097.320341047503,-10.557892896684342,0.36827690694015486,-2.3006817784511395,1435.8974358974358,-1.0,99.15174744061727,0.911873395995291,
2023-08-11 20:34:55.555000,-9.409638554216867,0.12048192771084337,-2.397590361445783,0.29429797670141017,-9.383813611281422,-2.040465971796444,3.0,0.9113109113109114,1097.320341047503,-10.618961598974417,0.35300973136763575,-2.377017656313735,1432.9670329670328,-1.0,99.15174744061727,0.9118675395269934,
2023-08-11 20:34:55.563000,-9.433734939759036,0.13253012048192772,-2.397590361445783,0.2329858982219497,-9.374003678724709,-1.9840588595953401,3.0,0.9113109113109114,1097.320341047503,-10.75636617912709,0.03239904434473502,-2.3006817784511395,1430.7692307692307,-1.0,99.15174744061727,0.9118617828271,
2023-08-11 20:34:55.571000,-9.421686746987952,0.13253012048192772,-2.3855421686746987,0.269773145309626,-9.297976701410178,-1.9816063764561618,3.0,0.9113109113109114,1097.320341047503,-10.89377075927976,-0.4714177495483947,-2.2548802517335824,1428.5714285714284,-1.0,99.15174744061727,0.9118561254460765,
2023-08-11 20:34:55.578000,-9.409638554216867,0.14457831325301207,-2.3855421686746987,0.29429797670141017,-9.32495401594114,-1.9717964438994482,3.0,0.9108669108669109,1097.8552278820375,-11.138045568440067,-0.7462269098537382,-2.3159489540236584,1427.106227106227,-1.0,99.15174744061727,0.9118505666972762,
2023-08-11 20:34:55.586000,-9.433734939759036,0.13253012048192772,-2.3493975903614457,0.22562844880441446,-9.405885959534027,-1.947271612507664,3.0,0.9108669108669109,1097.8552278820375,-11.382320377600372,-0.8225627877163336,-1.9342695647106813,1425.6410256410256,-1.0,-1.0,0.9118451056450745,
2023-08-11 20:34:55.594000,-9.44578313253012,0.13253012048192772,-2.3855421686746987,0.2550582464745555,-9.327406499080318,-1.942366646229307,3.0,0.9108669108669109,1097.8552278820375,-10.90903793485228,-0.6546238564186238,-2.193811549443506,1421.245421245421,-1.0,-1.0,0.9118397410621731,
2023-08-11 20:34:55.601000,-9.457831325301205,0.13253012048192772,-2.3855421686746987,0.26486817903126914,-9.366646229307173,-1.9840588595953401,3.0,0.9113109113109114,1097.320341047503,-11.107511217295029,-0.5630208029835092,-2.2701474273061013,1415.3846153846152,-1.0,-1.0,0.9118344712803729,
2023-08-11 20:34:55.609000,-9.44578313253012,0.12048192771084337,-2.3855421686746987,0.29675045984058857,-9.408338442673205,-1.9987737584304106,3.0,0.9108669108669109,1097.8552278820375,-10.9243051104248,-0.8072956121438145,-2.5144222364664066,1410.989010989011,-1.0,-1.0,0.9118292943608551,
2023-08-11 20:34:55.617000,-9.46987951807229,0.10843373493975904,-2.4216867469879517,0.18393623543838136,-9.383813611281422,-2.001226241569589,3.0,0.9113109113109114,1097.320341047503,-11.336518850882815,0.09346774663481136,-2.7281626944816737,1409.5238095238094,-1.0,-1.0,0.9118242081159358,
2023-08-11 20:34:55.624000,-9.44578313253012,0.13253012048192772,-2.4216867469879517,0.23789086450030655,-9.359288779889638,-2.0232985898221947,3.0,0.9113109113109114,1097.320341047503,-11.000640988287396,0.3224753802225976,-3.0487733815045743,1412.4542124542124,-1.0,-1.0,0.911819210100094,
2023-08-11 20:34:55.632000,-9.457831325301205,0.10843373493975904,-2.3855421686746987,0.2550582464745555,-9.41814837522992,-1.9816063764561618,3.0,0.9108669108669109,1097.8552278820375,-11.138045568440067,1.1163685099935898,-3.12510925936717,1414.6520146520145,-1.0,-1.0,0.9118142977722783,
2023-08-11 20:34:55.640000,-9.457831325301205,0.10843373493975904,-2.4096385542168677,0.18148375229920294,-9.35683629675046,-1.9963212752912323,3.0,0.9108669108669109,1097.8552278820375,-10.985373812714876,1.5285822504516051,-3.354116892954956,1417.5824175824175,-1.0,-1.0,0.9118094682120763,
2023-08-11 20:34:55.647000,-9.433734939759036,0.12048192771084337,-2.4216867469879517,0.2795830778663397,-9.40098099325567,-2.035561005518087,3.0,0.9108669108669109,1097.8552278820375,-11.138045568440067,1.3453761435813762,-3.170910786084727,1419.047619047619,-1.0,-1.0,0.9118047181030874,
2023-08-11 20:34:55.655000,-9.421686746987952,0.12048192771084337,-2.3855421686746987,0.24770079705702022,-9.342121397915388,-1.9619865113427344,3.0,0.9108669108669109,1097.8552278820375,-11.138045568440067,1.3453761435813762,-3.170910786084727,1417.5824175824175,-1.0,-1.0,0.9118000438762924,
2023-08-11 20:34:55.663000,-9.421686746987952,0.12048192771084337,-2.3734939759036147,0.3041079092581238,-9.376456161863887,-1.9619865113427344,3.0,0.9113109113109114,1097.320341047503,-11.183847095157624,0.9026280519783227,-2.758697045626712,1413.1868131868132,-1.0,-1.0,0.9117954417155414,
2023-08-11 20:34:55.670000,-9.421686746987952,0.14457831325301207,-2.36144578313253,0.2722256284488044,-9.332311465358675,-1.9619865113427344,3.0,0.9108669108669109,1097.8552278820375,-11.2449157974477,0.6583532428180174,-3.186177961657246,1409.5238095238094,-1.0,-1.0,0.9117909077132034,
2023-08-11 20:34:55.678000,-9.409638554216867,0.14457831325301207,-2.36144578313253,0.32127529123237275,-9.383813611281422,-1.858982219497241,3.0,0.9108669108669109,1097.8552278820375,-11.290717324165257,0.6430860672454983,-3.262513839519842,1406.5934065934066,-1.0,-1.0,0.9117864377499855,
2023-08-11 20:34:55.686000,-9.421686746987952,0.18072289156626506,-2.3373493975903616,0.299202942979767,-9.359288779889638,-1.9619865113427344,3.0,0.9113109113109114,1097.320341047503,-11.458656255462968,0.0476662199172541,-2.8655672746343455,1403.6630036630036,-1.0,-1.0,0.9117820273440974,
2023-08-11 20:34:55.693000,-9.421686746987952,0.1566265060240964,-2.3373493975903616,0.2550582464745555,-9.396076026977314,-1.8761496014714898,3.0,0.9113109113109114,1097.320341047503,-11.443389079890448,-0.34928034496824206,-3.094574908222132,1402.9304029304028,-1.0,-1.0,0.9117776719484482,
2023-08-11 20:34:55.701000,-9.44578313253012,0.1566265060240964,-2.3373493975903616,0.2893930104230533,-9.445125689760882,-1.8982219497240955,3.0,0.9108669108669109,1097.8552278820375,-11.229648621875182,-0.6088223297010665,-3.262513839519842,1403.6630036630036,-1.0,-1.0,0.9117733669825211,
2023-08-11 20:34:55.709000,-9.44578313253012,0.13253012048192772,-2.289156626506024,0.30656039239730226,-9.423053341508277,-1.8638871857755976,3.0,0.9108669108669109,1097.8552278820375,-10.725831827982052,-0.2424101159606085,-3.262513839519842,1405.8608058608058,-1.0,-1.0,0.9117691076955878,
2023-08-11 20:34:55.716000,-9.457831325301205,0.1566265060240964,-2.325301204819277,0.25015328019619865,-9.403433476394849,-1.9350091968117717,3.0,0.9108669108669109,1097.8552278820375,-10.847969232562205,0.45987996037526935,-3.0487733815045743,1406.5934065934066,-1.0,-1.0,0.9117648889992106,
2023-08-11 20:34:55.724000,-9.457831325301205,0.12048192771084337,-2.3493975903614457,0.21336603310852237,-9.376456161863887,-1.9767014101778049,3.0,0.9108669108669109,1097.8552278820375,-10.74109900355457,0.9789639298409182,-3.2167123128022843,1408.7912087912086,-1.0,-1.0,0.9117607054911434,
2023-08-11 20:34:55.732000,-9.44578313253012,0.13253012048192772,-2.3855421686746987,0.24279583077866337,-9.44757817290006,-1.9816063764561618,3.0,0.9104229104229103,1098.390636430139,-10.542625721111822,1.6049181283142007,-3.522055824252666,1410.989010989011,-1.0,-1.0,0.9117565516179337,
2023-08-11 20:34:55.739000,-9.457831325301205,0.12048192771084337,-2.4096385542168677,0.20846106683016552,-9.408338442673205,-2.03065603923973,3.0,0.9108669108669109,1097.8552278820375,-10.618961598974417,1.8339257619019869,-3.5831245265427425,1414.6520146520145,-1.0,-1.0,0.9117524218171268,
2023-08-11 20:34:55.747000,-9.457831325301205,0.13253012048192772,-2.3855421686746987,0.2550582464745555,-9.423053341508277,-1.9914163090128754,3.0,0.9108669108669109,1097.8552278820375,-10.634228774546937,2.1545364489248877,-3.522055824252666,1418.3150183150183,-1.0,-1.0,0.9117483104798273,
2023-08-11 20:34:55.755000,-9.457831325301205,0.10843373493975904,-2.4457831325301207,0.2673206621704476,-9.364193746167995,-2.040465971796444,3.0,0.9108669108669109,1097.8552278820375,-10.863236408134723,2.398811258085193,-3.5831245265427425,1422.7106227106226,-1.0,-1.0,0.9117442117105529,
2023-08-11 20:34:55.762000,-9.409638554216867,0.10843373493975904,-2.4457831325301207,0.20846106683016552,-9.354383813611282,-1.9865113427345187,3.0,0.9108669108669109,1097.8552278820375,-10.817434881417165,2.10873492220733,-3.5831245265427425,1425.6410256410256,-1.0,-1.0,0.9117401195134638,
2023-08-11 20:34:55.770000,-9.409638554216867,0.10843373493975904,-2.4819277108433737,0.18884120171673818,-9.361741263028817,-2.040465971796444,3.0,0.9108669108669109,1097.8552278820375,-11.153312744012586,2.597284540527941,-3.5983917021152614,1426.3736263736262,-1.0,-1.0,0.9117360279368645,
2023-08-11 20:34:55.778000,-9.397590361445783,0.0963855421686747,-2.5060240963855422,0.16676885346413242,-9.288166768853463,-2.1017780502759043,3.0,0.9108669108669109,1097.8552278820375,-11.092244041722509,2.062933395489773,-3.2472466639473225,1427.106227106227,-1.0,-1.0,0.9117319308025363,
2023-08-11 20:34:55.785000,-9.421686746987952,0.07228915662650603,-2.4819277108433737,0.16676885346413242,-9.388718577559779,-2.141017780502759,3.0,0.9108669108669109,1097.8552278820375,-11.519724957753043,1.8339257619019869,-3.903735213565643,1426.3736263736262,-1.0,-1.0,0.9117278217437291,
2023-08-11 20:34:55.793000,-9.409638554216867,0.03614457831325302,-2.5180722891566267,0.22317596566523604,-9.351931330472102,-2.0919681177191904,3.0,0.9108669108669109,1097.8552278820375,-11.91667152263854,1.0094982809859563,-3.674727579977857,1422.7106227106226,-1.0,-1.0,0.9117236943709645,
2023-08-11 20:34:55.801000,-9.409638554216867,0.03614457831325302,-2.4939759036144578,0.13979153893316984,-9.423053341508277,-2.099325567136726,3.0,0.9108669108669109,1097.8552278820375,-11.733465415768311,0.8568265252607655,-3.873200862420605,1419.7802197802198,-1.0,-1.0,0.9117195422888835,
2023-08-11 20:34:55.808000,-9.44578313253012,0.04819277108433735,-2.5301204819277108,0.17412630288166767,-9.40098099325567,-2.07725321888412,3.0,0.9108669108669109,1097.8552278820375,-12.08461045393625,0.582017364955422,-3.7968649845580096,1417.5824175824175,-1.0,-1.0,0.911715359113387,
2023-08-11 20:34:55.816000,-9.457831325301205,0.024096385542168676,-2.5301204819277108,0.10055180870631514,-9.393623543838135,-2.0797057020232983,3.0,0.9108669108669109,1097.8552278820375,-12.328885263096556,0.6888875939630557,-4.178544373870987,1413.1868131868132,-1.0,-1.0,0.911711138489024,
2023-08-11 20:34:55.824000,-9.433734939759036,0.0,-2.5180722891566267,0.08828939301042305,-9.32495401594114,-2.158185162477008,3.0,0.9108669108669109,1097.8552278820375,-12.725831827982052,0.45987996037526935,-4.438086358603811,1407.3260073260071,-1.0,-1.0,0.9117068742453102,
2023-08-11 20:34:55.831000,-9.373493975903616,0.012048192771084338,-2.5180722891566267,0.1226241569589209,-9.270999386879215,-2.187614960147149,3.0,0.9108669108669109,1097.8552278820375,-12.817434881417165,1.2079715634287045,-4.606025289901521,1400.7326007326005,-1.0,-1.0,0.9117025603940548,
2023-08-11 20:34:55.839000,-9.349397590361447,0.060240963855421686,-2.5421686746987953,0.18148375229920294,-9.185162477007971,-2.0870631514408338,3.0,0.9108669108669109,1097.8552278820375,-13.41285472874541,2.8415593496882465,-5.995338267000758,1394.8717948717947,-1.0,-1.0,0.9116981908604013,
2023-08-11 20:34:55.847000,-9.337349397590362,0.03614457831325302,-2.566265060240964,0.14714898835070508,-9.258736971183323,-2.190067443286327,3.0,0.9108669108669109,1097.8552278820375,-14.25254938523396,4.749956296253131,-7.751063457840452,1389.0109890109889,-1.0,-1.0,0.9116937596608562,
2023-08-11 20:34:55.854000,-9.265060240963855,0.012048192771084338,-2.5421686746987953,0.08828939301042305,-9.175352544451256,-2.1385652973635807,3.0,0.9108669108669109,1097.8552278820375,-15.122778392867547,5.421712021443971,-8.880834450206864,1386.080586080586,-1.0,-1.0,0.911689260910818,
2023-08-11 20:34:55.862000,-9.180722891566266,-0.024096385542168676,-2.4939759036144578,0.02452483139178418,-9.099325567136725,-2.0453709380748006,3.0,0.9113109113109114,1097.320341047503,-15.321251675310295,5.009498280985956,-8.865567274634346,1386.080586080586,-1.0,-1.0,0.9116846888529723,
2023-08-11 20:34:55.870000,-9.132530120481928,-0.07228915662650603,-2.4096385542168677,0.041692213366033105,-9.050275904353157,-2.0723482526057633,3.0,0.9108669108669109,1097.8552278820375,-15.550259308898083,2.9026280519783225,-8.819765747916788,1386.8131868131868,-1.0,-1.0,0.911680038152405,
2023-08-11 20:34:55.877000,-9.084337349397591,-0.04819277108433735,-2.3734939759036147,0.07112201103617412,-8.942366646229306,-1.9644389944819127,3.0,0.9108669108669109,1097.8552278820375,-15.855602820348464,0.9942311054134373,-8.651826816619078,1389.7435897435896,-1.0,-1.0,0.911675303499132,
2023-08-11 20:34:55.885000,-9.060240963855422,-0.04819277108433735,-2.313253012048193,0.06376456161863887,-8.947271612507663,-1.9399141630901287,3.0,0.90997890997891,1098.926567455477,-16.23728220966144,-1.601188741914807,-8.667093992191598,1394.8717948717947,-1.0,-1.0,0.9116704794870631,
2023-08-11 20:34:55.893000,-9.132530120481928,-0.03614457831325302,-2.289156626506024,0.09074187614960147,-9.072348252605764,-1.8344573881054567,3.0,0.9104229104229103,1098.390636430139,-15.977740224928617,-1.5248528640522114,-9.048773381504574,1402.9304029304028,-1.0,-1.0,0.9116655608968349,
2023-08-11 20:34:55.900000,-9.27710843373494,-0.03614457831325302,-2.3373493975903616,0.06376456161863887,-9.29307173513182,-1.988963825873697,3.0,0.9108669108669109,1097.8552278820375,-16.527358545539304,-1.433249810617097,-10.086941320435871,1410.2564102564102,-1.0,-1.0,0.9116605427760859,
2023-08-11 20:34:55.908000,-9.397590361445783,-0.03614457831325302,-2.4578313253012047,0.07357449417535254,-9.317596566523605,-2.118945432250153,3.0,0.9108669108669109,1097.8552278820375,-17.382320377600372,-0.5935551541285474,-10.28541460287862,1419.7802197802198,-1.0,-1.0,0.9116554204650611,
2023-08-11 20:34:55.915000,-9.457831325301205,-0.03614457831325302,-2.5060240963855422,0.07602697731453095,-9.307786633966892,-2.182709993868792,3.0,0.9108669108669109,1097.8552278820375,-18.08461045393625,-0.7462269098537382,-11.522055824252666,1432.2344322344322,-1.0,-1.0,0.9116501893760738,
2023-08-11 20:34:55.923000,-9.542168674698795,-0.060240963855421686,-2.4698795180722892,0.056407112201103615,-9.46229307173513,-2.1091354996934393,3.0,0.9108669108669109,1097.8552278820375,-19.290717324165257,-0.3798146961132802,-11.857933686848085,1446.153846153846,-1.0,-1.0,0.9116448451771546,
2023-08-11 20:34:55.931000,-9.566265060240964,-0.08433734939759037,-2.4457831325301207,0.07357449417535254,-9.5113427345187,-2.060085836909871,3.0,0.9108669108669109,1097.8552278820375,-19.290717324165257,-0.3798146961132802,-11.857933686848085,1459.3406593406592,-1.0,-1.0,0.9116393839328893,
2023-08-11 20:34:55.938000,-9.602409638554217,-0.08433734939759037,-2.5060240963855422,-0.004904966278356836,-9.629061925199263,-2.1434702636419374,3.0,0.9108669108669109,1097.8552278820375,-19.73346541576831,2.4293456092302312,-12.025872618145796,1472.5274725274724,-1.0,-1.0,0.9116338019677466,
2023-08-11 20:34:55.946000,-9.650602409638555,-0.10843373493975904,-2.5301204819277108,-0.01226241569589209,-9.594727161250766,-2.1557326793378295,3.0,0.9108669108669109,1097.8552278820375,-19.962473049356095,4.032399044344735,-12.331216129596177,1484.2490842490843,-1.0,-1.0,0.9116280958778787,
2023-08-11 20:34:55.954000,-9.710843373493976,-0.12048192771084337,-2.626506024096386,-0.002452483139178418,-9.746781115879827,-2.3077866339668915,3.0,0.9108669108669109,1097.8552278820375,-20.35941961424159,5.650719655031757,-12.086941320435871,1495.970695970696,-1.0,-1.0,0.9116222624033181,
2023-08-11 20:34:55.961000,-9.710843373493976,-0.16867469879518074,-2.626506024096386,-0.0809319435928878,-9.717351318209687,-2.270999386879215,3.0,0.9108669108669109,1097.8552278820375,-20.90903793485228,6.139269273352368,-11.751063457840452,1501.8315018315018,-1.0,-1.0,0.9116162985971701,
2023-08-11 20:34:55.969000,-9.686746987951807,-0.18072289156626506,-2.6867469879518073,-0.0269773145309626,-9.658491722869405,-2.3789086450030656,3.0,0.9104229104229103,1098.390636430139,-21.91667152263854,5.711788357321834,-11.002971854787017,1504.0293040293038,-1.0,-1.0,0.9116102019623891,
2023-08-11 20:34:55.977000,-9.626506024096386,-0.1927710843373494,-2.674698795180723,-0.03678724708767627,-9.506437768240342,-2.2906192519926423,3.0,0.9108669108669109,1097.8552278820375,-22.786900530272128,4.215605151214964,-9.735796282267932,1502.5641025641025,-1.0,-1.0,0.9116039701616274,
2023-08-11 20:34:55.984000,-9.457831325301205,-0.18072289156626506,-2.6144578313253013,-0.04659717964438994,-9.415695892090742,-2.1459227467811157,3.0,0.9108669108669109,1097.8552278820375,-23.55025930889808,1.9865975176271777,-8.819765747916788,1498.9010989010987,-1.0,-1.0,0.9115976011521516,
2023-08-11 20:34:55.992000,-9.361445783132531,-0.16867469879518074,-2.5180722891566267,-0.06866952789699571,-9.24892703862661,-2.1017780502759043,3.0,0.9108669108669109,1097.8552278820375,-24.61896159897442,0.0476662199172541,-7.399918419672513,1493.7728937728937,-1.0,-1.0,0.9115910933513249,
2023-08-11 20:34:56,-9.337349397590362,-0.16867469879518074,-2.4578313253012047,-0.041692213366033105,-9.359288779889638,-2.001226241569589,3.0,0.9108669108669109,1097.8552278820375,-24.71056465240953,-1.5401200396247305,-6.239613076161063,1488.6446886446886,-1.0,-1.0,0.9115844455032573,
2023-08-11 20:34:56.007000,-9.361445783132531,-0.13253012048192772,-2.397590361445783,-0.03678724708767627,-9.322501532801962,-1.9865113427345187,3.0,0.9104229104229103,1098.390636430139,-24.970106637142358,-3.998135306800303,-5.155643610512208,1482.7838827838827,-1.0,-1.0,0.9115776566832402,
2023-08-11 20:34:56.015000,-9.3855421686747,-0.0963855421686747,-2.27710843373494,0.041692213366033105,-9.32495401594114,-1.8467198038013488,3.0,0.9108669108669109,1097.8552278820375,-25.22964862187518,-6.028669657945341,-4.499155060893887,1477.6556776556777,-1.0,-1.0,0.9115707261519238,
2023-08-11 20:34:56.023000,-9.46987951807229,-0.0963855421686747,-2.216867469879518,0.05885959534028203,-9.420600858369099,-1.7633353770692826,3.0,0.9104229104229103,1098.390636430139,-24.90903793485228,-7.998135306800303,-3.674727579977857,1472.5274725274724,-1.0,-1.0,0.9115636534852471,
2023-08-11 20:34:56.030000,-9.542168674698795,-0.060240963855421686,-2.2289156626506026,0.06131207847946045,-9.550582464745554,-1.7903126916002452,3.0,0.9108669108669109,1097.8552278820375,-24.58842724782938,-9.326379581609464,-3.2167123128022843,1464.4688644688645,-1.0,-1.0,0.9115564385856367,
2023-08-11 20:34:56.038000,-9.650602409638555,-0.012048192771084338,-2.1927710843373496,0.1226241569589209,-9.609442060085836,-1.7952176578786019,3.0,0.90997890997891,1098.926567455477,-24.283083736378998,-10.303478818250685,-1.8884680379931242,1455.6776556776556,-1.0,-1.0,0.9115490816710957,
2023-08-11 20:34:56.046000,-9.686746987951807,0.04819277108433735,-2.216867469879518,0.24770079705702022,-9.631514408338441,-1.78295524218271,3.0,0.9104229104229103,1098.390636430139,-24.344152438669074,-11.112639123594196,-1.155643610512208,1446.8864468864467,-1.0,-1.0,0.9115415834125512,
2023-08-11 20:34:56.053000,-9.72289156626506,0.12048192771084337,-2.216867469879518,0.2722256284488044,-9.683016554261188,-1.7755977927651747,3.0,0.9104229104229103,1098.390636430139,-23.977740224928617,-10.929433016723967,-0.1480100227259487,1438.8278388278388,-1.0,-1.0,0.9115339447195347,
2023-08-11 20:34:56.061000,-9.734939759036145,0.08433734939759037,-2.1927710843373496,0.24770079705702022,-9.763948497854077,-1.6824034334763946,3.0,0.9108669108669109,1097.8552278820375,-23.519724957753045,-9.845463551075111,0.44740982460229556,1430.03663003663,-1.0,-1.0,0.911526166619346,
2023-08-11 20:34:56.069000,-9.686746987951807,0.1566265060240964,-2.1566265060240966,0.24279583077866337,-9.565297363580624,-1.7093807480073573,3.0,0.9108669108669109,1097.8552278820375,-22.970106637142358,-7.662257444204883,0.8596235650603108,1420.5128205128203,-1.0,-1.0,0.9115182504327819,
2023-08-11 20:34:56.076000,-9.63855421686747,0.24096385542168675,-2.1566265060240966,0.3163703249540159,-9.55793991416309,-1.6995708154506437,3.0,0.9108669108669109,1097.8552278820375,-22.496824194394264,-4.761494085426257,0.44740982460229556,1412.4542124542124,-1.0,-1.0,0.9115101979383199,
2023-08-11 20:34:56.084000,-9.566265060240964,0.20481927710843376,-2.168674698795181,0.33353770692826484,-9.464745554874309,-1.6627835683629675,3.0,0.9104229104229103,1098.390636430139,-22.23728220966144,-2.3950818716857993,-0.45335353417633034,1406.5934065934066,-1.0,-1.0,0.9115020112271234,
2023-08-11 20:34:56.092000,-9.481927710843374,0.14457831325301207,-2.1566265060240966,0.2722256284488044,-9.398528510116492,-1.7461679950950337,3.0,0.9108669108669109,1097.8552278820375,-21.73346541576831,-1.0363032457316008,-0.8808344502068647,1399.2673992673992,-1.0,-1.0,0.9114936925467902,
2023-08-11 20:34:56.099000,-9.44578313253012,0.14457831325301207,-2.1566265060240966,0.2599632127529123,-9.37155119558553,-1.7510729613733904,3.0,0.9108669108669109,1097.8552278820375,-21.351786026455333,0.36827690694015486,-1.5067886486801472,1391.2087912087911,-1.0,-1.0,0.9114852444211506,
2023-08-11 20:34:56.107000,-9.409638554216867,0.1566265060240964,-2.1566265060240966,0.299202942979767,-9.27835683629675,-1.7339055793991416,3.0,0.9108669108669109,1097.8552278820375,-20.130411980653808,1.1163685099935898,-1.2167123128022845,1383.150183150183,-1.0,-1.0,0.9114766698009719,
2023-08-11 20:34:56.115000,-9.409638554216867,0.1927710843373494,-2.180722891566265,0.29675045984058857,-9.320049049662783,-1.8050275904353157,3.0,0.9108669108669109,1097.8552278820375,-19.351786026455333,1.696521181749315,-2.3006817784511395,1377.2893772893772,-1.0,-1.0,0.9114679719162272,
2023-08-11 20:34:56.122000,-9.409638554216867,0.14457831325301207,-2.204819277108434,0.3163703249540159,-9.376456161863887,-1.7682403433476395,3.0,0.9108669108669109,1097.8552278820375,-19.687663889050754,1.8797272886195442,-2.743429870054193,1371.4285714285713,-1.0,-1.0,0.9114591542666113,
2023-08-11 20:34:56.130000,-9.44578313253012,0.13253012048192772,-2.253012048192771,0.2844880441446965,-9.366646229307173,-1.8442673206621703,3.0,0.9108669108669109,1097.8552278820375,-19.443389079890448,1.9102616397645822,-3.12510925936717,1366.3003663003662,-1.0,-1.0,0.9114502206116051,
2023-08-11 20:34:56.138000,-9.481927710843374,0.13253012048192772,-2.289156626506024,0.25015328019619865,-9.457388105456774,-1.8491722869405272,3.0,0.9108669108669109,1097.8552278820375,-19.04644251500495,2.4904143115203072,-2.941903152496941,1361.904761904762,-1.0,-1.0,0.9114411749601411,
2023-08-11 20:34:56.145000,-9.518072289156628,0.14457831325301207,-2.325301204819277,0.21091354996934394,-9.474555487431024,-1.9668914776210913,3.0,0.9108669108669109,1097.8552278820375,-19.06170969057747,2.2614066779325213,-2.926635976924422,1358.974358974359,-1.0,-1.0,0.9114320215599261,
2023-08-11 20:34:56.153000,-9.55421686746988,0.13253012048192772,-2.36144578313253,0.23053341508277128,-9.46229307173513,-1.9570815450643775,3.0,0.9108669108669109,1097.8552278820375,-19.09224404172251,2.917895227550842,-3.4609871219625896,1357.5091575091574,-1.0,-1.0,0.9114227648864677,
2023-08-11 20:34:56.161000,-9.566265060240964,0.12048192771084337,-2.397590361445783,0.24034334763948498,-9.484365419987737,-2.0036787247087675,3.0,0.9108669108669109,1097.8552278820375,-19.07697686614999,3.0552998077035136,-3.1556436105122083,1355.3113553113553,-1.0,-1.0,0.9114134096318574,
2023-08-11 20:34:56.168000,-9.542168674698795,0.13253012048192772,-2.4216867469879517,0.2893930104230533,-9.484365419987737,-2.069895769466585,3.0,0.9108669108669109,1097.8552278820375,-18.9243051104248,3.3759104947264142,-2.6976283433366355,1354.5787545787546,-1.0,-1.0,0.9114039606933613,
2023-08-11 20:34:56.176000,-9.506024096385543,0.14457831325301207,-2.4457831325301207,0.22808093194359289,-9.445125689760882,-2.0453709380748006,3.0,0.9108669108669109,1097.8552278820375,-19.2449157974477,2.78049064739817,-2.62129246547404,1355.3113553113553,-1.0,-1.0,0.9113944231618604,
2023-08-11 20:34:56.184000,-9.481927710843374,0.13253012048192772,-2.4578313253012047,0.22808093194359289,-9.445125689760882,-1.988963825873697,3.0,0.9108669108669109,1097.8552278820375,-18.74109900355457,2.8568265252607654,-2.422819183031292,1359.7069597069597,-1.0,-1.0,0.911384802310194,
2023-08-11 20:34:56.191000,-9.481927710843374,0.13253012048192772,-2.397590361445783,0.24034334763948498,-9.366646229307173,-2.038013488657265,3.0,0.90997890997891,1098.926567455477,-18.93957228599732,2.5209486626653455,-2.95717032806946,1364.8351648351647,-1.0,-1.0,0.9113751035814388,
2023-08-11 20:34:56.199000,-9.3855421686747,0.10843373493975904,-2.397590361445783,0.2550582464745555,-9.302881667688535,-2.064990803188228,3.0,0.9104229104229103,1098.390636430139,-18.985373812714876,3.314841792436338,-3.262513839519842,1369.230769230769,-1.0,-1.0,0.9113653325560905,
2023-08-11 20:34:56.207000,-9.373493975903616,0.08433734939759037,-2.4578313253012047,0.18148375229920294,-9.283261802575106,-1.9914163090128754,3.0,0.9108669108669109,1097.8552278820375,-18.985373812714876,3.314841792436338,-3.262513839519842,1372.8937728937728,-1.0,-1.0,0.9113554948663809,
2023-08-11 20:34:56.214000,-9.349397590361447,0.08433734939759037,-2.433734939759036,0.19865113427345185,-9.229307173513181,-1.9963212752912323,3.0,0.9104229104229103,1098.390636430139,-18.664763125691977,3.7881242351844295,-3.3846512440999943,1375.091575091575,-1.0,-1.0,0.9113455963543138,
2023-08-11 20:34:56.222000,-9.361445783132531,0.07228915662650603,-2.4698795180722892,0.2035561005518087,-9.26364193746168,-2.118945432250153,3.0,0.9108669108669109,1097.8552278820375,-18.313618087524038,3.7575898840393913,-3.644193228832819,1375.8241758241757,-1.0,-1.0,0.9113356429420748,
2023-08-11 20:34:56.230000,-9.349397590361447,0.03614457831325302,-2.4578313253012047,0.14224402207234824,-9.297976701410178,-2.099325567136726,3.0,0.9104229104229103,1098.390636430139,-18.40522114095915,3.7575898840393913,-4.346483305168697,1372.8937728937728,-1.0,-1.0,0.9113256406094338,
2023-08-11 20:34:56.237000,-9.3855421686747,0.0,-2.4939759036144578,0.16922133660331085,-9.24892703862661,-2.1213979153893314,3.0,0.9104229104229103,1098.390636430139,-18.023541751646174,4.337742555795116,-5.079307732649613,1367.032967032967,-1.0,-1.0,0.9113155953921043,
2023-08-11 20:34:56.245000,-9.397590361445783,0.012048192771084338,-2.5301204819277108,0.15941140404659718,-9.361741263028817,-2.1336603310852236,3.0,0.9108669108669109,1097.8552278820375,-18.527358545539304,4.475147135947788,-5.2472466639473225,1360.4395604395604,-1.0,-1.0,0.9113055132096796,
2023-08-11 20:34:56.253000,-9.361445783132531,-0.012048192771084338,-2.4939759036144578,0.1079092581238504,-9.320049049662783,-2.1312078479460452,3.0,0.9108669108669109,1097.8552278820375,-18.527358545539304,4.658353242818017,-5.6289260532603,1354.5787545787546,-1.0,-1.0,0.9112954000018698,
2023-08-11 20:34:56.260000,-9.397590361445783,-0.024096385542168676,-2.5301204819277108,0.06621704475781728,-9.290619251992641,-2.1753525444512567,3.0,0.9108669108669109,1097.8552278820375,-18.55789289668434,4.704154769535575,-5.689994755550376,1352.3809523809523,-1.0,-1.0,0.9112852618963723,
2023-08-11 20:34:56.268000,-9.397590361445783,-0.03614457831325302,-2.5421686746987953,0.04904966278356836,-9.261189454322501,-2.1729000613120784,3.0,0.9108669108669109,1097.8552278820375,-19.015908163859915,5.009498280985956,-5.415185595245032,1351.6483516483515,-1.0,-1.0,0.9112751051862593,
2023-08-11 20:34:56.276000,-9.361445783132531,-0.04819277108433735,-2.5542168674698797,0.034334763948497854,-9.388718577559779,-2.1925199264255055,3.0,0.9104229104229103,1098.390636430139,-19.168579919585106,4.719421945108094,-5.552590175397704,1353.113553113553,-1.0,-1.0,0.9112649361696031,
2023-08-11 20:34:56.283000,-9.3855421686747,-0.024096385542168676,-2.5542168674698797,0.07602697731453095,-9.31023911710607,-2.158185162477008,3.0,0.9104229104229103,1098.390636430139,-19.93193869821106,4.44461278480275,-5.323582541809918,1354.5787545787546,-1.0,-1.0,0.9112547608505879,
2023-08-11 20:34:56.291000,-9.349397590361447,-0.07228915662650603,-2.5301204819277108,0.034334763948497854,-9.268546903740036,-2.1557326793378295,3.0,0.9104229104229103,1098.390636430139,-20.23728220966144,3.7423227084668724,-5.4762542975351085,1356.0439560439559,-1.0,-1.0,0.9112445850661826,
2023-08-11 20:34:56.298000,-9.337349397590362,-0.08433734939759037,-2.5421686746987953,0.03923973022685469,-9.288166768853463,-2.128755364806867,3.0,0.9108669108669109,1097.8552278820375,-20.77163335469961,4.001864693199697,-5.491521473107628,1357.5091575091574,-1.0,-1.0,0.9112344147405352,
2023-08-11 20:34:56.306000,-9.337349397590362,-0.12048192771084337,-2.5421686746987953,-0.02207234825260576,-9.251379521765788,-2.153280196198651,3.0,0.9104229104229103,1098.390636430139,-21.473923431035487,3.559116601596643,-5.415185595245032,1355.3113553113553,-1.0,-1.0,0.9112242558733459,
2023-08-11 20:34:56.314000,-9.337349397590362,-0.13253012048192772,-2.566265060240964,-0.034334763948497854,-9.241569589209075,-2.153280196198651,3.0,0.9104229104229103,1098.390636430139,-22.176213507371365,3.5438494260241242,-6.102208496008391,1353.113553113553,-1.0,-1.0,0.9112141144009913,
2023-08-11 20:34:56.321000,-9.337349397590362,-0.10843373493975904,-2.566265060240964,0.0269773145309626,-9.300429184549357,-2.1679950950337217,3.0,0.9104229104229103,1098.390636430139,-22.191480682943883,2.78049064739817,-6.270147427306101,1352.3809523809523,-1.0,-1.0,0.9112039960263396,
2023-08-11 20:34:56.329000,-9.313253012048193,-0.16867469879518074,-2.5542168674698797,-0.04904966278356836,-9.327406499080318,-2.1508277130594724,3.0,0.9104229104229103,1098.390636430139,-22.725831827982052,1.8797272886195442,-6.880834450206865,1352.3809523809523,-1.0,-1.0,0.9111939063466767,
2023-08-11 20:34:56.337000,-9.349397590361447,-0.1566265060240964,-2.5301204819277108,-0.0539546290619252,-9.253832004904966,-2.0846106683016554,3.0,0.9104229104229103,1098.390636430139,-23.367053202027854,1.3759104947264145,-6.911368801351903,1352.3809523809523,-1.0,-1.0,0.9111838508431401,
2023-08-11 20:34:56.344000,-9.301204819277109,-0.12048192771084337,-2.5060240963855422,-0.06131207847946045,-9.221949724095646,-2.0797057020232983,3.0,0.90997890997891,1098.926567455477,-23.519724957753045,0.7041547695355747,-7.048773381504574,1350.18315018315,-1.0,-1.0,0.9111738348704447,
2023-08-11 20:34:56.352000,-9.301204819277109,-0.13253012048192772,-2.4216867469879517,0.002452483139178418,-9.226854690374003,-2.0208461066830163,3.0,0.90997890997891,1098.926567455477,-23.90140434706602,-0.12027271138045581,-6.78923139677175,1346.5201465201465,-1.0,-1.0,0.9111638636363829,
2023-08-11 20:34:56.360000,-9.313253012048193,-0.1566265060240964,-2.4457831325301207,-0.07847946045370938,-9.244022072348253,-2.0257510729613735,3.0,0.9104229104229103,1098.390636430139,-24.26781656080648,-0.4714177495483947,-6.544956587611445,1342.1245421245421,-1.0,-1.0,0.9111539420112026,
2023-08-11 20:34:56.367000,-9.313253012048193,-0.13253012048192772,-2.3855421686746987,-0.06621704475781728,-9.224402207234824,-1.9865113427345187,3.0,0.9104229104229103,1098.390636430139,-24.35941961424159,-0.6698910319911429,-6.209078725016025,1336.9963369963368,-1.0,-1.0,0.9111440746771082,
2023-08-11 20:34:56.375000,-9.289156626506024,-0.10843373493975904,-2.3734939759036147,0.019619865113427344,-9.261189454322501,-2.060085836909871,3.0,0.9104229104229103,1098.390636430139,-24.55789289668434,0.26140667793252126,-5.8121321601305285,1332.6007326007325,-1.0,-1.0,0.9111342662885137,
2023-08-11 20:34:56.383000,-9.337349397590362,-0.08433734939759037,-2.433734939759036,0.06131207847946045,-9.302881667688535,-2.060085836909871,3.0,0.9104229104229103,1098.390636430139,-25.07697686614999,0.10873492220733044,-5.674727579977857,1331.135531135531,-1.0,-1.0,0.9111245213243085,
2023-08-11 20:34:56.390000,-9.349397590361447,-0.060240963855421686,-2.4457831325301207,0.019619865113427344,-9.329858982219497,-2.064990803188228,3.0,0.9104229104229103,1098.390636430139,-25.641862362333196,0.5667501893829029,-5.384651244099994,1331.8681318681317,-1.0,-1.0,0.9111148440793417,
2023-08-11 20:34:56.398000,-9.373493975903616,-0.04819277108433735,-2.433734939759036,0.04659717964438994,-9.300429184549357,-2.008583690987124,3.0,0.9104229104229103,1098.390636430139,-26.05407610279121,0.35300973136763575,-5.201445137229765,1332.6007326007325,-1.0,-1.0,0.9111052386564024,
2023-08-11 20:34:56.406000,-9.409638554216867,0.012048192771084338,-2.4819277108433737,0.10300429184549356,-9.369098712446352,-2.047823421213979,3.0,0.9104229104229103,1098.390636430139,-26.603694423401897,0.6430860672454983,-4.911368801351903,1334.065934065934,-1.0,-1.0,0.9110957089587205,
2023-08-11 20:34:56.413000,-9.433734939759036,0.04819277108433735,-2.4578313253012047,0.14714898835070508,-9.305334150827713,-2.0723482526057633,3.0,0.9104229104229103,1098.390636430139,-26.496824194394264,1.1163685099935898,-4.896101625779384,1333.3333333333333,-1.0,-1.0,0.9110862586830232,
2023-08-11 20:34:56.421000,-9.44578313253012,0.07228915662650603,-2.5060240963855422,0.2673206621704476,-9.317596566523605,-2.0527283874923357,3.0,0.9104229104229103,1098.390636430139,-27.04644251500495,0.6430860672454983,-4.896101625779384,1330.4029304029302,-1.0,-1.0,0.9110768913131642,
2023-08-11 20:34:56.429000,-9.433734939759036,0.0963855421686747,-2.5060240963855422,0.23543838136112813,-9.396076026977314,-2.0527283874923357,3.0,0.9104229104229103,1098.390636430139,-27.39758755317289,0.9789639298409182,-5.048773381504574,1330.4029304029302,-1.0,-1.0,0.9110676101143512,
2023-08-11 20:34:56.436000,-9.44578313253012,0.12048192771084337,-2.5421686746987953,0.2575107296137339,-9.393623543838135,-2.0968730839975476,3.0,0.9108669108669109,1097.8552278820375,-27.489190606608005,0.933162403123361,-5.231979488374804,1328.937728937729,-1.0,-1.0,0.9110584181279936,
2023-08-11 20:34:56.444000,-9.409638554216867,0.1566265060240964,-2.5421686746987953,0.31882280809319435,-9.33966891477621,-2.148375229920294,3.0,0.9104229104229103,1098.390636430139,-27.825068469203426,0.27667385350504037,-5.27778101509236,1324.5421245421244,-1.0,-1.0,0.9110493183164827,
2023-08-11 20:34:56.452000,-9.46987951807229,0.18072289156626506,-2.5180722891566267,0.29429797670141017,-9.405885959534027,-2.1508277130594724,3.0,0.9104229104229103,1098.390636430139,-27.809801293630905,-0.2424101159606085,-5.689994755550376,1316.4835164835165,-1.0,-1.0,0.911040313431917,
2023-08-11 20:34:56.459000,-9.506024096385543,0.20481927710843376,-2.4939759036144578,0.3163703249540159,-9.408338442673205,-2.057633353770693,3.0,0.9104229104229103,1098.390636430139,-27.534992133325563,-1.265310879319387,-5.8121321601305285,1305.4945054945053,-1.0,-1.0,0.911031405853979,
2023-08-11 20:34:56.467000,-9.518072289156628,0.22891566265060243,-2.4457831325301207,0.31882280809319435,-9.469650521152667,-2.0919681177191904,3.0,0.9104229104229103,1098.390636430139,-27.962473049356095,-2.288211642678166,-5.781597808985491,1293.7728937728937,-1.0,-1.0,0.911022597726367,
2023-08-11 20:34:56.475000,-9.493975903614459,0.22891566265060243,-2.4216867469879517,0.35806253832004903,-9.516247700797056,-1.9840588595953401,3.0,0.9104229104229103,1098.390636430139,-28.008274576073653,-3.4179826350445777,-5.369384068527475,1281.3186813186812,-1.0,-1.0,0.9110138909551666,
2023-08-11 20:34:56.482000,-9.433734939759036,0.22891566265060243,-2.4216867469879517,0.35561005518087063,-9.415695892090742,-2.0625383200490495,3.0,0.9104229104229103,1098.390636430139,-28.008274576073653,-3.4179826350445777,-5.369384068527475,1270.3296703296703,-1.0,-1.0,0.9110052872079129,
2023-08-11 20:34:56.490000,-9.46987951807229,0.21686746987951808,-2.4216867469879517,0.34334763948497854,-9.378908645003065,-2.011036174126303,3.0,0.9104229104229103,1098.390636430139,-28.466289843249225,-4.013402482372822,-4.575490938756483,1265.2014652014652,-1.0,-1.0,0.9109967879133498,
2023-08-11 20:34:56.498000,-9.457831325301205,0.20481927710843376,-2.4457831325301207,0.3359901900674433,-9.403433476394849,-2.035561005518087,3.0,0.90997890997891,1098.926567455477,-28.77163335469961,-3.9217994289377076,-4.4686207097488495,1262.2710622710622,-1.0,-1.0,0.9109883942618873,
2023-08-11 20:34:56.505000,-9.44578313253012,0.16867469879518074,-2.4819277108433737,0.29675045984058857,-9.366646229307173,-2.1140404659717964,3.0,0.90997890997891,1098.926567455477,-29.031175339432433,-2.730959734281219,-5.1403764349396885,1262.2710622710622,-1.0,-1.0,0.9109801071962105,
2023-08-11 20:34:56.513000,-9.46987951807229,0.14457831325301207,-2.4819277108433737,0.30901287553648066,-9.374003678724709,-2.060085836909871,3.0,0.90997890997891,1098.926567455477,-28.9243051104248,-0.9294330167239673,-5.964803915855719,1262.2710622710622,-1.0,-1.0,0.9109719273708737,
2023-08-11 20:34:56.521000,-9.433734939759036,0.1566265060240964,-2.4698795180722892,0.24770079705702022,-9.317596566523605,-2.07725321888412,3.0,0.9104229104229103,1098.390636430139,-29.04644251500495,-0.16607423809801306,-6.575490938756483,1263.7362637362637,-1.0,-1.0,0.9109638550051558,
2023-08-11 20:34:56.528000,-9.397590361445783,0.16867469879518074,-2.4457831325301207,0.27467811158798283,-9.322501532801962,-2.1042305334150826,3.0,0.90997890997891,1098.926567455477,-28.527358545539304,1.2079715634287045,-7.598391702115261,1265.9340659340658,-1.0,-1.0,0.9109558900551786,
2023-08-11 20:34:56.536000,-9.349397590361447,0.14457831325301207,-2.4216867469879517,0.25260576333537704,-9.285714285714285,-1.9963212752912323,3.0,0.9104229104229103,1098.390636430139,-28.634228774546937,1.4217120214439716,-7.934269564710681,1267.3992673992673,-1.0,-1.0,0.9109480322372286,
2023-08-11 20:34:56.544000,-9.27710843373494,0.12048192771084337,-2.4216867469879517,0.21827099938687922,-9.23175965665236,-1.9521765787860208,3.0,0.9104229104229103,1098.390636430139,-28.603694423401897,1.3606433191538954,-8.361750480741216,1264.4688644688645,-1.0,-1.0,0.9109402810200495,
2023-08-11 20:34:56.551000,-9.228915662650603,0.13253012048192772,-2.4096385542168677,0.18638871857755976,-9.111587982832617,-1.9742489270386265,3.0,0.9104229104229103,1098.390636430139,-28.954839461569836,0.16980362449740677,-8.46862070974885,1258.6080586080586,-1.0,-1.0,0.9109326357880867,
2023-08-11 20:34:56.559000,-9.27710843373494,0.07228915662650603,-2.3734939759036147,0.1618638871857756,-9.236664622930716,-1.988963825873697,3.0,0.9104229104229103,1098.390636430139,-29.58079366004312,-0.6546238564186238,-8.28541460287862,1249.084249084249,-1.0,-1.0,0.9109250957075368,
2023-08-11 20:34:56.567000,-9.325301204819278,0.060240963855421686,-2.4216867469879517,0.15450643776824033,-9.29307173513182,-2.064990803188228,3.0,0.9104229104229103,1098.390636430139,-29.962473049356095,-1.1126391235941961,-8.178544373870986,1237.3626373626373,-1.0,-1.0,0.9109176597318175,
2023-08-11 20:34:56.574000,-9.397590361445783,0.03614457831325302,-2.4216867469879517,0.11281422440220723,-9.334763948497853,-2.0257510729613735,3.0,0.9104229104229103,1098.390636430139,-30.42048831653167,-1.5706543907697688,-8.056406969290833,1224.1758241758241,-1.0,-1.0,0.9109103266077082,
2023-08-11 20:34:56.582000,-9.433734939759036,0.0,-2.433734939759036,0.1618638871857756,-9.3862660944206,-2.0674432863274066,3.0,0.9104229104229103,1098.390636430139,-30.786900530272128,-2.0897383602354176,-7.903735213565643,1210.989010989011,-1.0,-1.0,0.9109030948821382,
2023-08-11 20:34:56.590000,-9.457831325301205,0.012048192771084338,-2.433734939759036,0.09809932556713671,-9.359288779889638,-2.0159411404046597,3.0,0.9104229104229103,1098.390636430139,-31.138045568440067,-2.4866849251209135,-7.8121321601305285,1197.069597069597,-1.0,-1.0,0.9108959629096153,
2023-08-11 20:34:56.597000,-9.481927710843374,0.012048192771084338,-2.4096385542168677,0.14224402207234824,-9.49662783568363,-2.018393623543838,3.0,0.9104229104229103,1098.390636430139,-31.473923431035487,-2.6088223297010664,-8.254880251733582,1180.952380952381,-1.0,-1.0,0.9108889288602735,
2023-08-11 20:34:56.605000,-9.493975903614459,0.024096385542168676,-2.4096385542168677,0.13243408951563457,-9.484365419987737,-1.993868792152054,3.0,0.90997890997891,1098.926567455477,-31.840335644775944,-2.532486451838471,-7.735796282267933,1161.1721611721612,-1.0,-1.0,0.9108819907285183,
2023-08-11 20:34:56.613000,-9.506024096385543,0.0,-2.3734939759036147,0.15695892090741875,-9.467198038013489,-1.959534028203556,3.0,0.90997890997891,1098.926567455477,-32.22201503408892,-2.6240895052735853,-7.323582541809918,1137.7289377289376,-1.0,-1.0,0.910875146192957,
2023-08-11 20:34:56.620000,-9.481927710843374,0.024096385542168676,-2.36144578313253,0.11771919068056406,-9.423053341508277,-1.9546290619251991,3.0,0.90997890997891,1098.926567455477,-32.40522114095915,-3.097371948021677,-6.972437503641979,1115.018315018315,-1.0,-1.0,0.9108683924655481,
2023-08-11 20:34:56.628000,-9.493975903614459,0.024096385542168676,-2.3493975903614457,0.07847946045370938,-9.459840588595952,-1.9448191293684856,3.0,0.90997890997891,1098.926567455477,-32.84796923256221,-3.05157042130412,-6.865567274634345,1090.8424908424909,-1.0,-1.0,0.9108617265980871,
2023-08-11 20:34:56.636000,-9.481927710843374,0.0,-2.3493975903614457,0.12017167381974249,-9.391171060698957,-1.9448191293684856,3.0,0.90997890997891,1098.926567455477,-32.75636617912709,-3.05157042130412,-6.483887885321368,1062.2710622710622,-1.0,-1.0,0.9108551456187376,
2023-08-11 20:34:56.643000,-9.457831325301205,0.012048192771084338,-2.3493975903614457,0.12017167381974249,-9.374003678724709,-1.9448191293684856,3.0,0.90997890997891,1098.926567455477,-33.122778392867545,-3.3721811083270206,-6.377017656313734,1033.6996336996335,-1.0,-1.0,0.9108486463921386,
2023-08-11 20:34:56.651000,-9.46987951807229,0.024096385542168676,-2.3373493975903616,0.17903126916002451,-9.396076026977314,-1.988963825873697,3.0,0.9095349095349096,1099.463021723212,-33.626595186760674,-3.066837596876639,-6.102208496008391,1008.058608058608,-1.0,-1.0,0.9108422256290596,
2023-08-11 20:34:56.659000,-9.457831325301205,0.024096385542168676,-2.3373493975903616,0.16922133660331085,-9.329858982219497,-1.9006744328632739,3.0,0.9095349095349096,1099.463021723212,-33.489190606608005,-2.929433016723967,-6.438086358603811,986.080586080586,-1.0,-1.0,0.9108358798857534,
2023-08-11 20:34:56.666000,-9.409638554216867,0.060240963855421686,-2.3012048192771086,0.18884120171673818,-9.322501532801962,-1.9055793991416308,3.0,0.9095349095349096,1099.463021723212,-33.51972495775304,-2.5935551541285475,-6.392284831886254,967.7655677655677,-1.0,-1.0,0.9108296053930507,
2023-08-11 20:34:56.674000,-9.409638554216867,0.07228915662650603,-2.3012048192771086,0.20846106683016552,-9.3862660944206,-1.8761496014714898,3.0,0.90997890997891,1098.926567455477,-33.06170969057747,-2.318745993823204,-7.155643610512208,953.8461538461538,-1.0,-1.0,0.9108233980760959,
2023-08-11 20:34:56.681000,-9.44578313253012,0.060240963855421686,-2.289156626506024,0.1618638871857756,-9.369098712446352,-1.9006744328632739,3.0,0.90997890997891,1098.926567455477,-33.70293106462327,-2.501952100693433,-6.300681778451139,943.5897435897435,-1.0,-1.0,0.9108172538613072,
2023-08-11 20:34:56.689000,-9.457831325301205,0.08433734939759037,-2.2650602409638556,0.19619865113427343,-9.457388105456774,-1.854077253218884,3.0,0.90997890997891,1098.926567455477,-33.428121904317926,-2.8683643144338906,-6.712895518909154,936.9963369963369,-1.0,-1.0,0.9108111687065858,
2023-08-11 20:34:56.697000,-9.506024096385543,0.0963855421686747,-2.289156626506024,0.19865113427345185,-9.467198038013489,-1.841814837522992,3.0,0.90997890997891,1098.926567455477,-33.76399976691335,-3.601188741914807,-6.483887885321368,933.3333333333333,-1.0,-1.0,0.9108051384725343,
2023-08-11 20:34:56.704000,-9.518072289156628,0.08433734939759037,-2.27710843373494,0.23789086450030655,-9.459840588595952,-1.8761496014714898,3.0,0.90997890997891,1098.926567455477,-33.672396713478236,-4.105005535807937,-6.086941320435872,929.6703296703296,-1.0,-1.0,0.9107991589325458,
2023-08-11 20:34:56.712000,-9.542168674698795,0.060240963855421686,-2.27710843373494,0.15450643776824033,-9.499080318822807,-1.8295524218270998,3.0,0.90997890997891,1098.926567455477,-33.8861371714935,-4.578287978556028,-6.163277198298467,924.5421245421245,-1.0,-1.0,0.9107932257830033,
2023-08-11 20:34:56.720000,-9.542168674698795,0.07228915662650603,-2.27710843373494,0.21091354996934394,-9.501532801961986,-1.8663396689147762,3.0,0.90997890997891,1098.926567455477,-33.74873259134083,-4.9294330167239675,-5.720529106695414,920.8791208791208,-1.0,-1.0,0.910787334653578,
2023-08-11 20:34:56.727000,-9.518072289156628,0.08433734939759037,-2.313253012048193,0.18884120171673818,-9.486817903126916,-1.8614347026364193,3.0,0.90997890997891,1098.926567455477,-33.51972495775304,-3.952333780082746,-5.522055824252666,920.8791208791208,-1.0,-1.0,0.910781481117598,
2023-08-11 20:34:56.735000,-9.530120481927712,0.08433734939759037,-2.313253012048193,0.16676885346413242,-9.457388105456774,-1.8786020846106681,3.0,0.90997890997891,1098.926567455477,-33.39758755317289,-3.479051337334654,-5.415185595245032,923.8095238095237,-1.0,-1.0,0.9107756607024963,
2023-08-11 20:34:56.743000,-9.493975903614459,0.10843373493975904,-2.27710843373494,0.26486817903126914,-9.46229307173513,-1.9227467811158798,3.0,0.90997890997891,1098.926567455477,-33.13804556844006,-2.4714177495483947,-5.4762542975351085,930.4029304029303,-1.0,-1.0,0.9107698689003019,
2023-08-11 20:34:56.750000,-9.457831325301205,0.0963855421686747,-2.289156626506024,0.29429797670141017,-9.369098712446352,-1.8982219497240955,3.0,0.90997890997891,1098.926567455477,-33.428121904317926,-1.3874482838995397,-5.644193228832819,935.5311355311354,-1.0,-1.0,0.9107641011781752,
2023-08-11 20:34:56.758000,-9.46987951807229,0.08433734939759037,-2.3012048192771086,0.23789086450030655,-9.393623543838135,-1.9276517473942365,3.0,0.90997890997891,1098.926567455477,-33.428121904317926,-1.3874482838995397,-5.644193228832819,942.124542124542,-1.0,-1.0,0.9107583529889677,
2023-08-11 20:34:56.766000,-9.457831325301205,0.10843373493975904,-2.313253012048193,0.2550582464745555,-9.366646229307173,-1.8761496014714898,3.0,0.90997890997891,1098.926567455477,-33.04644251500495,-0.19660858924305122,-5.46098712196259,950.1831501831501,-1.0,-1.0,0.9107526197817967,
2023-08-11 20:34:56.773000,-9.44578313253012,0.13253012048192772,-2.3012048192771086,0.2844880441446965,-9.329858982219497,-1.9202942979767013,3.0,0.90997890997891,1098.926567455477,-33.64186236233319,-0.013402482372822228,-5.064040557077093,961.9047619047618,-1.0,-1.0,0.9107468970126156,
2023-08-11 20:34:56.781000,-9.433734939759036,0.12048192771084337,-2.325301204819277,0.21336603310852237,-9.388718577559779,-1.9031269160024524,3.0,0.90997890997891,1098.926567455477,-33.70293106462327,0.20033797564244493,-5.216712312802285,975.8241758241758,-1.0,-1.0,0.9107411801547715,
2023-08-11 20:34:56.789000,-9.44578313253012,0.10843373493975904,-2.325301204819277,0.26486817903126914,-9.317596566523605,-1.9276517473942365,3.0,0.90997890997891,1098.926567455477,-34.283083736379,-0.043936833517860395,-5.201445137229765,990.4761904761904,-1.0,-1.0,0.9107354647095366,
2023-08-11 20:34:56.796000,-9.44578313253012,0.12048192771084337,-2.325301204819277,0.19619865113427343,-9.381361128142244,-1.9865113427345187,3.0,0.90997890997891,1098.926567455477,-34.359419614241595,0.20033797564244493,-5.3541168929549565,1009.5238095238094,-1.0,-1.0,0.9107297462165991,
2023-08-11 20:34:56.804000,-9.44578313253012,0.0963855421686747,-2.3493975903614457,0.2035561005518087,-9.398528510116492,-1.9325567136725934,3.0,0.9095349095349096,1099.463021723212,-34.680030301264495,-0.4866849251209138,-5.308315366237399,1027.106227106227,-1.0,-1.0,0.9107240202644917,
2023-08-11 20:34:56.812000,-9.433734939759036,0.08433734939759037,-2.3373493975903616,0.2207234825260576,-9.408338442673205,-1.942366646229307,3.0,0.90997890997891,1098.926567455477,-34.802167705844646,-1.0821047724491581,-5.155643610512208,1043.956043956044,-1.0,-1.0,0.910718282490417,
2023-08-11 20:34:56.819000,-9.46987951807229,0.08433734939759037,-2.3493975903614457,0.15941140404659718,-9.46229307173513,-1.9350091968117717,3.0,0.90997890997891,1098.926567455477,-34.64949595011946,-1.7233261464949596,-5.6289260532603,1065.2014652014652,-1.0,-1.0,0.9107125286975629,
