Shimmer_F5D4_Timestamp_FormattedUnix_CAL,Shimmer_F5D4_Accel_LN_X_CAL,Shimmer_F5D4_Accel_LN_Y_CAL,Shimmer_F5D4_Accel_LN_Z_CAL,Shimmer_F5D4_Accel_WR_X_CAL,Shimmer_F5D4_Accel_WR_Y_CAL,Shimmer_F5D4_Accel_WR_Z_CAL,Shimmer_F5D4_GSR_Range_CAL,Shimmer_F5D4_GSR_Skin_Conductance_CAL,Shimmer_F5D4_GSR_Skin_Resistance_CAL,Shimmer_F5D4_Gyro_X_CAL,Shimmer_F5D4_Gyro_Y_CAL,Shimmer_F5D4_Gyro_Z_CAL,Shimmer_F5D4_PPG_A13_CAL,Shimmer_F5D4_PPG_IBI_CAL,Shimmer_F5D4_PPGtoHR_CAL,Shimmer_F5D4_GSR_Skin_Conductance_LPF_CAL,
yyyy/mm/dd hh:mm:ss.000,m/(s^2),m/(s^2),m/(s^2),m/(s^2),m/(s^2),m/(s^2),no_units,uS,kOhms,deg/s,deg/s,deg/s,mV,ms,BPM,uS,
2023-08-16 13:13:19.087000,-6.0120481927710845,1.1686746987951808,7.506024096385542,1.407725321888412,-6.00674432863274,8.15695892090742,2.0,1.5816849816849816,632.2371468272348,0.1412505098770463,0.0768020511625205,-0.15010780257560766,1916.4835164835163,-1.0,73.89611365857326,1.601011158849407,
2023-08-16 13:13:19.095000,-6.024096385542169,1.1686746987951808,7.493975903614459,1.4126302881667687,-6.045984058859595,8.142244022072347,2.0,1.5802197802197802,632.8233657858136,0.23227084668725662,0.5202494027154589,-0.2838995396538661,1948.7179487179485,-1.0,73.89611365857326,1.6007999758110136,
2023-08-16 13:13:19.102000,-6.0,1.1686746987951808,7.506024096385542,1.3635806253832004,-6.058246474555487,8.142244022072347,2.0,1.5802197802197802,632.8233657858136,0.07715168113746301,0.3165316706485628,-0.06794475846395914,1967.7655677655675,-1.0,73.89611365857326,1.6005889342377793,
2023-08-16 13:13:19.110000,-6.0120481927710845,1.1686746987951808,7.481927710843374,1.4224402207234825,-6.0705088902513795,8.115266707541386,2.0,1.5802197802197802,632.8233657858136,0.24509061243517294,0.3084901812248712,0.1306450673037702,1977.2893772893772,-1.0,73.89611365857326,1.600378033837269,
2023-08-16 13:13:19.118000,-6.0120481927710845,1.1686746987951808,7.481927710843374,1.4175352544451256,-6.016554261189454,8.164316370324954,2.0,1.578754578754579,633.4106728538283,0.1826233902453231,0.11899073480566313,0.4802750422469552,1968.4981684981683,-1.0,73.89611365857326,1.6001672745919002,
2023-08-16 13:13:19.125000,-6.0120481927710845,1.1927710843373494,7.530120481927711,1.4420600858369097,-6.014101778050276,8.132434089515634,2.0,1.578754578754579,633.4106728538283,0.25686148825826,0.4208379465066145,0.15255521240020956,1945.7875457875457,-1.0,73.89611365857326,1.5999566562944425,
2023-08-16 13:13:19.133000,-6.024096385542169,1.2048192771084338,7.518072289156627,1.4543225015328018,-6.009196811771918,8.15695892090742,2.0,1.578754578754579,633.4106728538283,0.24136122603577922,0.20092069226735085,0.5320202785385468,1908.4249084249084,-1.0,73.89611365857326,1.599746178960305,
2023-08-16 13:13:19.141000,-6.048192771084338,1.216867469879518,7.481927710843374,1.496014714898835,-6.055793991416309,8.16922133660331,2.0,1.578754578754579,633.4106728538283,0.11829147485577812,0.4256162228308375,0.2690985373812712,1861.5384615384614,-1.0,73.89611365857326,1.599535843237835,
2023-08-16 13:13:19.148000,-6.0361445783132535,1.2289156626506024,7.493975903614459,1.4322501532801961,-6.021459227467811,8.117719190680564,2.0,1.578754578754579,633.4106728538283,-0.06573043528931848,-0.05023017306683771,0.06736204183905366,1808.058608058608,-1.0,73.89611365857326,1.599325649937858,
2023-08-16 13:13:19.156000,-6.0361445783132535,1.1927710843373494,7.530120481927711,1.4984671980380133,-6.050889025137952,8.134886572654812,2.0,1.578754578754579,633.4106728538283,-0.215605151214964,-0.446594021327428,0.29706893537672624,1750.18315018315,-1.0,73.89611365857326,1.599115600053696,
2023-08-16 13:13:19.164000,-6.024096385542169,1.2048192771084338,7.518072289156627,1.461679950950337,-6.036174126302881,8.127529123237277,2.0,1.578754578754579,633.4106728538283,-0.33517860264553306,-0.29135831245265353,0.12528407435464134,1688.6446886446886,-1.0,73.89611365857326,1.5989056947792566,
2023-08-16 13:13:19.171000,-6.0,1.1927710843373494,7.518072289156627,1.5009196811771919,-5.950337216431636,8.179031269160024,2.0,1.578754578754579,633.4106728538283,-0.10267466930831479,-1.0039042013868658,0.27748965677990794,1627.106227106227,-1.0,73.89611365857326,1.5986959355254313,
2023-08-16 13:13:19.179000,-5.987951807228916,1.180722891566265,7.518072289156627,1.3537706928264868,-5.994481912936848,8.117719190680564,2.0,1.5772893772893775,633.9990710636321,-0.04032399044344752,-0.38634112231221923,-0.0170153254472351,1569.9633699633698,-1.0,73.89611365857326,1.5984863239350822,
2023-08-16 13:13:19.187000,-5.975903614457832,1.180722891566265,7.506024096385542,1.385652973635806,-5.996934396076027,8.127529123237277,2.0,1.578754578754579,633.4106728538283,-0.13262630382844878,-0.5538138803100058,0.19474389604335393,1515.7509157509157,-1.0,73.89611365857326,1.5982768614042204,
2023-08-16 13:13:19.194000,-6.0,1.180722891566265,7.481927710843374,1.4420600858369097,-5.935622317596566,8.154506437768239,2.0,1.5772893772893775,633.9990710636321,-0.2237631839636382,-0.16770584464774824,0.19183031291882738,1464.4688644688645,-1.0,73.89611365857326,1.5980675499733337,
2023-08-16 13:13:19.202000,-6.0120481927710845,1.1686746987951808,7.457831325301205,1.4224402207234825,-5.996934396076027,8.127529123237277,2.0,1.5772893772893775,633.9990710636321,-0.06759512848901532,-0.2429928325855144,0.3745702464891322,1419.7802197802198,-1.0,73.89611365857326,1.597858392304358,
2023-08-16 13:13:19.210000,-6.0361445783132535,1.1686746987951808,7.493975903614459,1.4469650521152666,-5.999386879215205,8.20110361741263,2.0,1.5772893772893775,633.9990710636321,0.027271138045567803,-0.13740458015267176,0.4484587145271257,1380.952380952381,-1.0,73.89611365857326,1.5976493906737221,
2023-08-16 13:13:19.217000,-6.0,1.180722891566265,7.46987951807229,1.3930104230533413,-6.036174126302881,8.147148988350704,2.0,1.5772893772893775,633.9990710636321,-0.18646931996969937,0.0015150632247543454,0.44577821805256124,1345.054945054945,-1.0,73.89611365857326,1.597440547439776,
2023-08-16 13:13:19.225000,-6.0120481927710845,1.2289156626506024,7.481927710843374,1.4469650521152666,-5.938074800735745,8.110361741263029,2.0,1.5772893772893775,633.9990710636321,0.12213740458015267,0.16933745119748342,0.0452188100926522,1315.7509157509157,-1.0,73.89611365857326,1.597231865051362,
2023-08-16 13:13:19.233000,-6.0,1.216867469879518,7.481927710843374,1.4469650521152666,-6.033721643163703,8.139791538933169,2.0,1.5758241758241762,634.5885634588562,-0.13996853330225537,0.01596643552240584,0.07610279121263332,1293.7728937728937,-1.0,73.89611365857326,1.597023346055719,
2023-08-16 13:13:19.240000,-6.024096385542169,1.2289156626506024,7.481927710843374,1.4690374003678723,-6.014101778050276,8.159411404046597,2.0,1.5758241758241762,634.5885634588562,0.6569547229182456,-0.0019812365246776914,0.12213740458015267,1279.8534798534797,-1.0,73.89611365857326,1.5968149930712157,
2023-08-16 13:13:19.248000,-6.024096385542169,1.216867469879518,7.481927710843374,1.4445125689760883,-6.00674432863274,8.154506437768239,2.0,1.5758241758241762,634.5885634588562,0.039624730493560766,-0.15640114212458453,-0.1687547345725775,1268.8644688644688,-1.0,73.89611365857326,1.5966068086553757,
2023-08-16 13:13:19.255000,-6.0361445783132535,1.180722891566265,7.506024096385542,1.4763948497854076,-6.019006744328633,8.18638871857756,2.0,1.5758241758241762,634.5885634588562,-0.054192646116193094,0.08577588718606226,-0.16630732474797516,1260.8058608058607,-1.0,73.89611365857326,1.596398795276538,
2023-08-16 13:13:19.263000,-6.0361445783132535,1.1927710843373494,7.481927710843374,1.4984671980380133,-6.060698957694665,8.176578786020846,2.0,1.5758241758241762,634.5885634588562,-0.5442573276615581,-0.3304003263213101,-0.05698968591573925,1254.212454212454,-1.0,73.89611365857326,1.5961909553195806,
2023-08-16 13:13:19.271000,-6.024096385542169,1.1927710843373494,7.493975903614459,1.4273451870018392,-6.065603923973022,8.132434089515634,2.0,1.5743589743589748,635.1791530944624,-0.006642969523919828,-0.25581259833343073,-0.25511333838354394,1250.5494505494505,-1.0,73.89611365857326,1.5959832910912726,
2023-08-16 13:13:19.278000,-6.0120481927710845,1.1927710843373494,7.518072289156627,1.4518700183936235,-6.021459227467811,8.127529123237277,2.0,1.5743589743589748,635.1791530944624,-0.3136180875240367,-0.24031233611094996,-0.2387972728861956,1252.014652014652,-1.0,73.89611365857326,1.5957758047907613,
2023-08-16 13:13:19.286000,-6.024096385542169,1.1927710843373494,7.46987951807229,1.4788473329245861,-5.984671980380135,8.088289393010422,2.0,1.5743589743589748,635.1791530944624,0.024357554921041684,0.0654973486393568,-0.008391119398636715,1257.142857142857,-1.0,73.89611365857326,1.595568498375684,
2023-08-16 13:13:19.294000,-6.0120481927710845,1.1686746987951808,7.506024096385542,1.3684855916615573,-5.99202942979767,8.147148988350704,2.0,1.5743589743589748,635.1791530944624,0.19078142299399725,-0.3643144338907995,-0.08542625721111802,1264.4688644688645,-1.0,73.89611365857326,1.5953613735322254,
2023-08-16 13:13:19.301000,-6.0,1.1686746987951808,7.493975903614459,1.4297976701410178,-5.996934396076027,8.15205395462906,2.0,1.5743589743589748,635.1791530944624,-0.19357846279354426,-0.48400442864634935,0.12878037410407336,1272.5274725274724,-1.0,73.89611365857326,1.5951544316796473,
2023-08-16 13:13:19.309000,-5.987951807228916,1.1927710843373494,7.481927710843374,1.4641324340895157,-5.996934396076027,8.215818516247701,2.0,1.5743589743589748,635.1791530944624,0.05209486626653457,0.037060777343977155,0.14055124992716042,1282.051282051282,-1.0,73.89611365857326,1.5949476739747837,
2023-08-16 13:13:19.317000,-6.0120481927710845,1.1927710843373494,7.506024096385542,1.437155119558553,-5.957694665849172,8.161863887185776,2.0,1.5743589743589748,635.1791530944624,0.20558242526659298,-0.17656313734630918,0.13787075345259597,1295.2380952380952,-1.0,73.89611365857326,1.5947411013168906,
2023-08-16 13:13:19.324000,-5.987951807228916,1.180722891566265,7.506024096385542,1.4396076026977314,-5.982219497240957,8.159411404046597,2.0,1.5743589743589748,635.1791530944624,-0.009789639298409356,0.5125575432667099,0.13717149350270966,1307.6923076923076,-1.0,73.89611365857326,1.5945347143531763,
2023-08-16 13:13:19.332000,-6.024096385542169,1.1927710843373494,7.493975903614459,1.4420600858369097,-6.011649294911098,8.112814224402207,2.0,1.5728937728937733,635.7708430367954,-0.27189557718081736,0.0658469786142993,-0.14020161995221703,1319.4139194139193,-1.0,73.89611365857326,1.5943285134853507,
2023-08-16 13:13:19.340000,-6.0361445783132535,1.2048192771084338,7.46987951807229,1.4175352544451256,-5.982219497240957,8.149601471489882,2.0,1.5728937728937733,635.7708430367954,-0.16199522172367511,0.15943126857409323,0.35056232154303385,1331.135531135531,-1.0,73.89611365857326,1.5941224988427558,
2023-08-16 13:13:19.347000,-6.0,1.1927710843373494,7.481927710843374,1.4763948497854076,-6.068056407112201,8.176578786020846,2.0,1.5728937728937733,635.7708430367954,-0.12994580735388434,0.3555736845172194,0.01153778917312494,1339.9267399267399,-1.0,73.89611365857326,1.5939166701525338,
2023-08-16 13:13:19.355000,-6.024096385542169,1.180722891566265,7.506024096385542,1.4469650521152666,-6.016554261189454,8.10790925812385,2.0,1.5728937728937733,635.7708430367954,-0.08426082396130792,0.032049414369792514,-0.004428646349280464,1346.5201465201465,-1.0,73.89611365857326,1.593711026715186,
2023-08-16 13:13:19.363000,-6.024096385542169,1.1927710843373494,7.493975903614459,1.390557939914163,-5.984671980380135,8.105456774984672,2.0,1.5728937728937733,635.7708430367954,-0.08577588718606226,0.030534351145038167,-0.0071091428238449095,1351.6483516483515,-1.0,73.89611365857326,1.5935055674159713,
2023-08-16 13:13:19.370000,-6.024096385542169,1.2048192771084338,7.46987951807229,1.4862047823421214,-6.048436541998774,8.144696505211526,2.0,1.5728937728937733,635.7708430367954,-0.18005943709573946,0.3227084668725593,0.11642678165608039,1356.7765567765566,-1.0,73.89611365857326,1.5933002907376819,
2023-08-16 13:13:19.378000,-6.060240963855422,1.1927710843373494,7.493975903614459,1.4322501532801961,-6.011649294911098,8.179031269160024,2.0,1.5728937728937733,635.7708430367954,-0.12073888468037916,0.03158324106986743,0.0667793252141486,1364.102564102564,-1.0,73.89611365857326,1.5930951952329646,
2023-08-16 13:13:19.386000,-6.024096385542169,1.1927710843373494,7.506024096385542,1.4322501532801961,-6.014101778050276,8.144696505211526,2.0,1.5728937728937733,635.7708430367954,-0.1658411514480514,0.1252840743546422,-0.10162577938348596,1371.4285714285713,-1.0,73.89611365857326,1.5928902794734887,
2023-08-16 13:13:19.393000,-6.0361445783132535,1.180722891566265,7.481927710843374,1.4543225015328018,-6.026364193746168,8.166768853464133,2.0,1.5714285714285716,636.3636363636363,-0.08799021036070162,0.07924946098712153,0.2017364955422176,1380.2197802197802,-1.0,73.89611365857326,1.5926855415802603,
2023-08-16 13:13:19.401000,-6.0120481927710845,1.180722891566265,7.481927710843374,1.419987737584304,-5.989576946658492,8.16922133660331,2.0,1.5728937728937733,635.7708430367954,-0.05629042596585336,-0.07330575141308847,-0.10721985898257697,1386.8131868131868,-1.0,73.89611365857326,1.5924809787558187,
2023-08-16 13:13:19.409000,-6.0361445783132535,1.1927710843373494,7.481927710843374,1.4028203556100551,-6.016554261189454,8.103004291845494,2.0,1.5714285714285716,636.3636363636363,-0.16269448167356187,-0.1468445894761386,-0.05978672571528453,1389.7435897435896,-1.0,73.89611365857326,1.5922765877317262,
2023-08-16 13:13:19.416000,-6.0361445783132535,1.1927710843373494,7.481927710843374,1.4567749846719804,-6.0410790925812385,8.164316370324954,2.0,1.5714285714285716,636.3636363636363,-0.05477536274109902,-0.12913000407901673,0.0476662199172541,1391.2087912087911,-1.0,73.89611365857326,1.592072365287667,
2023-08-16 13:13:19.424000,-6.0361445783132535,1.2048192771084338,7.493975903614459,1.466584917228694,-6.080318822808093,8.088289393010422,2.0,1.56996336996337,636.9575361642557,0.17423227084668724,0.14894236932579713,0.26047433133267284,1391.2087912087911,-1.0,73.89611365857326,1.5918683072276587,
2023-08-16 13:13:19.432000,-6.048192771084338,1.180722891566265,7.481927710843374,1.471489883507051,-5.969957081545064,8.10790925812385,2.0,1.56996336996337,636.9575361642557,-0.1778451139211001,-0.18938290309422548,0.04230522696812521,1388.278388278388,-1.0,73.89611365857326,1.5916644084107123,
2023-08-16 13:13:19.439000,-6.024096385542169,1.1927710843373494,7.506024096385542,1.4396076026977314,-6.05334150827713,8.15695892090742,2.0,1.5714285714285716,636.3636363636363,0.052211409591515406,-0.3238739001223711,-0.06491463201445132,1383.150183150183,-1.0,73.89611365857326,1.5914606631345427,
2023-08-16 13:13:19.447000,-6.024096385542169,1.180722891566265,7.493975903614459,1.4126302881667687,-6.048436541998774,8.125076640098099,2.0,1.56996336996337,636.9575361642557,-0.05629042596585336,-0.38389371248761645,-0.12621642095448976,1373.6263736263736,-1.0,73.89611365857326,1.5912570656253227,
2023-08-16 13:13:19.455000,-6.0120481927710845,1.180722891566265,7.506024096385542,1.449417535254445,-6.028816676885346,8.196198651134273,2.0,1.56996336996337,636.9575361642557,-0.36116776411630996,-0.384010255812599,0.19695821921799417,1362.6373626373625,-1.0,73.89611365857326,1.5910536096506642,
2023-08-16 13:13:19.462000,-6.0,1.1686746987951808,7.493975903614459,1.3758430410790925,-6.009196811771918,8.095646842427957,2.0,1.56996336996337,636.9575361642557,-0.05360992949128891,-0.4003263213099474,0.08868947031058795,1349.4505494505493,-1.0,73.89611365857326,1.5908502880303879,
2023-08-16 13:13:19.470000,-5.987951807228916,1.1927710843373494,7.481927710843374,1.4812998160637645,-6.014101778050276,8.164316370324954,2.0,1.56996336996337,636.9575361642557,-0.1313443272536561,-0.46081230697511777,0.13414136705320226,1337.7289377289376,-1.0,73.89611365857326,1.590647093132259,
2023-08-16 13:13:19.478000,-6.024096385542169,1.180722891566265,7.481927710843374,1.4052728387492335,-5.962599632127529,8.100551808706316,2.0,1.56996336996337,636.9575361642557,-0.11526134840626943,-0.18565351669483177,0.024241011596060846,1328.937728937729,-1.0,73.89611365857326,1.5904440173698855,
2023-08-16 13:13:19.485000,-6.0,1.1686746987951808,7.493975903614459,1.407725321888412,-6.026364193746168,8.127529123237277,2.0,1.5684981684981687,637.5525455394675,-0.03869238389371234,-0.2645533477070108,0.06969290833867473,1320.14652014652,-1.0,73.89611365857326,1.5902410531778093,
2023-08-16 13:13:19.493000,-6.0120481927710845,1.2048192771084338,7.493975903614459,1.4788473329245861,-6.004291845493562,8.154506437768239,2.0,1.56996336996337,636.9575361642557,-0.1786609171959677,-0.12959617737894008,0.15884855194918732,1312.8205128205127,-1.0,73.89611365857326,1.590038192075291,
2023-08-16 13:13:19.501000,-6.024096385542169,1.1927710843373494,7.506024096385542,1.407725321888412,-6.080318822808093,8.15205395462906,2.0,1.5684981684981687,637.5525455394675,-0.08472699726123126,0.3383252724200226,0.7367869005302723,1304.7619047619046,-1.0,73.89611365857326,1.58983542513787,
2023-08-16 13:13:19.508000,-6.024096385542169,1.180722891566265,7.530120481927711,1.4420600858369097,-6.026364193746168,8.183936235438381,2.0,1.5684981684981687,637.5525455394675,-0.14358137637666823,0.21001107161587346,0.027853854670473722,1295.970695970696,-1.0,73.89611365857326,1.5896327430823747,
2023-08-16 13:13:19.516000,-6.024096385542169,1.1927710843373494,7.493975903614459,1.407725321888412,-5.99202942979767,8.105456774984672,2.0,1.5684981684981687,637.5525455394675,0.0848435405862121,0.5408775712371069,0.08647514713594771,1290.8424908424909,-1.0,73.89611365857326,1.589430135791623,
2023-08-16 13:13:19.524000,-6.0,1.1927710843373494,7.46987951807229,1.4420600858369097,-6.021459227467811,8.144696505211526,2.0,1.5684981684981687,637.5525455394675,-0.03764349396888308,0.5057980304178075,0.09999417283375078,1290.8424908424909,-1.0,73.89611365857326,1.5892275932816944,
2023-08-16 13:13:19.531000,-6.0,1.1927710843373494,7.481927710843374,1.4543225015328018,-6.004291845493562,8.12262415695892,2.0,1.5684981684981687,637.5525455394675,-0.14311520307674316,0.44309772157799593,-0.008857292698560493,1293.040293040293,-1.0,73.89611365857326,1.5890251052301272,
2023-08-16 13:13:19.539000,-6.0,1.2048192771084338,7.46987951807229,1.4469650521152666,-6.016554261189454,8.112814224402207,2.0,1.5670329670329672,638.148667601683,-0.17143523104714195,0.13658877687780416,0.1121146786317812,1292.3076923076922,-1.0,73.89611365857326,1.5888226610678928,
2023-08-16 13:13:19.547000,-6.0361445783132535,1.216867469879518,7.481927710843374,1.4641324340895157,-6.045984058859595,8.125076640098099,2.0,1.5670329670329672,638.148667601683,-0.12178777460521016,0.0737719247130118,0.11024998543208435,1293.7728937728937,-1.0,73.89611365857326,1.58862024996869,
2023-08-16 13:13:19.554000,-6.048192771084338,1.216867469879518,7.493975903614459,1.4297976701410178,-6.075413856529736,8.115266707541386,2.0,1.5670329670329672,638.148667601683,-0.13577297360293658,0.13752112347765258,0.0018646931996968547,1295.970695970696,-1.0,73.89611365857326,1.5884178603469945,
2023-08-16 13:13:19.562000,-6.0361445783132535,1.216867469879518,7.493975903614459,1.4052728387492335,-6.0410790925812385,8.183936235438381,2.0,1.5670329670329672,638.148667601683,-0.30301264495075975,-0.028669657945341313,-0.043587203542917015,1294.5054945054944,-1.0,73.89611365857326,1.5882154803747235,
2023-08-16 13:13:19.570000,-6.048192771084338,1.1927710843373494,7.481927710843374,1.4248927038626609,-6.095033721643164,8.188841201716738,2.0,1.5670329670329672,638.148667601683,-0.11642678165608127,-0.25383136180875304,-0.04335411689295491,1294.5054945054944,-1.0,73.89611365857326,1.5880130980409417,
2023-08-16 13:13:19.577000,-6.048192771084338,1.1927710843373494,7.481927710843374,1.4224402207234825,-6.014101778050276,8.144696505211526,2.0,1.5655677655677658,638.7459054749648,-0.160829788473865,-0.47689528582250446,-0.1956762426432028,1293.040293040293,-1.0,73.89611365857326,1.5878107012125262,
2023-08-16 13:13:19.585000,-6.0361445783132535,1.1927710843373494,7.46987951807229,1.4469650521152666,-6.095033721643164,8.20110361741263,2.0,1.5655677655677658,638.7459054749648,-0.3424042887943588,-0.6080065264261989,-0.2260940504632597,1290.10989010989,-1.0,73.89611365857326,1.5876082781189411,
2023-08-16 13:13:19.593000,-6.024096385542169,1.180722891566265,7.481927710843374,1.3832004904966277,-6.036174126302881,8.179031269160024,2.0,1.5670329670329672,638.148667601683,-0.26268865450731393,-0.53901287803741,-0.26944816735621463,1290.10989010989,-1.0,73.89611365857326,1.5874058167504423,
2023-08-16 13:13:19.600000,-6.0361445783132535,1.1686746987951808,7.481927710843374,1.4003678724708768,-6.001839362354383,8.134886572654812,2.0,1.5670329670329672,638.148667601683,-0.17026979779733184,-0.6406386574208955,-0.29823436862653674,1291.5750915750914,-1.0,73.89611365857326,1.5872033049574434,
2023-08-16 13:13:19.608000,-6.0,1.180722891566265,7.46987951807229,1.4518700183936235,-5.99202942979767,8.083384426732065,2.0,1.5655677655677658,638.7459054749648,-0.06036944234018958,-0.5111590233669363,0.06992599498863683,1290.8424908424909,-1.0,73.89611365857326,1.5870007310772447,
2023-08-16 13:13:19.616000,-5.987951807228916,1.180722891566265,7.481927710843374,1.4445125689760883,-6.072961373390558,8.161863887185776,2.0,1.5655677655677658,638.7459054749648,0.06398228541460245,-0.27842200337975637,0.0532602995163451,1289.3772893772893,-1.0,73.89611365857326,1.5867980830508683,
2023-08-16 13:13:19.623000,-5.987951807228916,1.1927710843373494,7.481927710843374,1.4518700183936235,-5.987124463519313,8.15205395462906,2.0,1.5655677655677658,638.7459054749648,0.002214323174639364,-0.306858574675136,0.17364955422178174,1287.179487179487,-1.0,73.89611365857326,1.5865953488767446,
2023-08-16 13:13:19.631000,-6.024096385542169,1.1927710843373494,7.493975903614459,1.4052728387492335,-6.023911710606989,8.15695892090742,2.0,1.5655677655677658,638.7459054749648,-0.08857292698560755,-0.12341938115494361,0.09393391993473557,1284.9816849816848,-1.0,73.89611365857326,1.586392516606548,
2023-08-16 13:13:19.638000,-6.0120481927710845,1.1927710843373494,7.506024096385542,1.4812998160637645,-6.060698957694665,8.15695892090742,2.0,1.5655677655677658,638.7459054749648,-0.08799021036070162,-0.12341938115494361,0.09125342346017112,1286.4468864468863,-1.0,73.89611365857326,1.5861895744451082,
2023-08-16 13:13:19.646000,-6.0,1.2048192771084338,7.506024096385542,1.4886572654812997,-5.996934396076027,8.174126302881668,2.0,1.5655677655677658,638.7459054749648,0.12551716100460386,-0.24578987238505967,-0.27667385350504037,1291.5750915750914,-1.0,73.89611365857326,1.5859865112384495,
2023-08-16 13:13:19.654000,-6.0120481927710845,1.2289156626506024,7.46987951807229,1.4445125689760883,-6.050889025137952,8.15695892090742,2.0,1.5655677655677658,638.7459054749648,-0.2885612726531082,-0.01713186877221594,0.21374045801526717,1301.098901098901,-1.0,73.89611365857326,1.5857833160482,
2023-08-16 13:13:19.661000,-6.0120481927710845,1.2048192771084338,7.457831325301205,1.5009196811771919,-6.009196811771918,8.127529123237277,2.0,1.5655677655677658,638.7459054749648,-0.056640055940795866,0.07027562496357977,0.11572752170619408,1309.1575091575091,-1.0,73.89611365857326,1.5855799782182172,
2023-08-16 13:13:19.669000,-6.024096385542169,1.2289156626506024,7.506024096385542,1.407725321888412,-6.072961373390558,8.139791538933169,2.0,1.5641025641025643,639.3442622950819,-0.1636268282734103,0.1769127673212517,0.29497115552706726,1315.7509157509157,-1.0,73.89611365857326,1.5853764874408063,
2023-08-16 13:13:19.677000,-6.0361445783132535,1.2289156626506024,7.493975903614459,1.419987737584304,-6.011649294911098,8.083384426732065,2.0,1.5641025641025643,639.3442622950819,-0.4524211875764819,0.0045451896742613,0.07703513781248174,1323.076923076923,-1.0,73.89611365857326,1.58517283332989,
2023-08-16 13:13:19.684000,-6.024096385542169,1.216867469879518,7.493975903614459,1.4984671980380133,-5.999386879215205,8.196198651134273,2.0,1.5641025641025643,639.3442622950819,-0.5719946390070509,0.12586679097954637,0.19952217236757777,1327.4725274725274,-1.0,73.89611365857326,1.584969005414327,
2023-08-16 13:13:19.692000,-6.024096385542169,1.216867469879518,7.506024096385542,1.4028203556100551,-5.972409564684242,8.15205395462906,2.0,1.5641025641025643,639.3442622950819,-0.048248936542160024,0.3380921857700592,0.0588543791154361,1331.135531135531,-1.0,73.89611365857326,1.5847649941132849,
2023-08-16 13:13:19.700000,-6.024096385542169,1.180722891566265,7.481927710843374,1.4518700183936235,-6.075413856529736,8.117719190680564,2.0,1.5626373626373624,639.9437412095641,-0.2780723734048139,0.12411864110483035,0.19602587261814575,1335.5311355311355,-1.0,73.89611365857326,1.584560790727731,
2023-08-16 13:13:19.707000,-6.024096385542169,1.1927710843373494,7.481927710843374,1.4567749846719804,-6.050889025137952,8.134886572654812,2.0,1.5641025641025643,639.3442622950819,-0.18600314666977427,0.1086183788823496,0.041839053668201,1335.5311355311355,-1.0,73.89611365857326,1.584356386517288,
2023-08-16 13:13:19.715000,-6.048192771084338,1.2048192771084338,7.481927710843374,1.491109748620478,-6.090128755364806,8.098099325567135,2.0,1.5626373626373624,639.9437412095641,-0.335761319270439,0.10990035545714054,0.08554280053609929,1335.5311355311355,-1.0,73.89611365857326,1.584151773181467,
2023-08-16 13:13:19.723000,-6.0120481927710845,1.1686746987951808,7.481927710843374,1.4690374003678723,-6.026364193746168,8.183936235438381,2.0,1.5641025641025643,639.3442622950819,0.004312103024299628,-0.05710622924072095,-0.16129596177378921,1334.065934065934,-1.0,73.89611365857326,1.5839469429508615,
2023-08-16 13:13:19.730000,-6.024096385542169,1.180722891566265,7.46987951807229,1.449417535254445,-6.023911710606989,8.080931943592887,2.0,1.5626373626373624,639.9437412095641,-0.16211176504865768,0.15779966202435805,0.03764349396888308,1333.3333333333333,-1.0,73.89611365857326,1.5837418886071655,
2023-08-16 13:13:19.738000,-6.024096385542169,1.2048192771084338,7.457831325301205,1.471489883507051,-6.021459227467811,8.15695892090742,2.0,1.5626373626373624,639.9437412095641,-0.11362974185653599,-0.13274284715342963,0.0980129363090731,1334.065934065934,-1.0,73.89611365857326,1.583536604029039,
2023-08-16 13:13:19.746000,-6.024096385542169,1.1927710843373494,7.481927710843374,1.4812998160637645,-6.009196811771918,8.164316370324954,2.0,1.5626373626373624,639.9437412095641,0.31443389079890427,-0.37678456966377327,-0.2405454227609112,1334.7985347985348,-1.0,73.89611365857326,1.5833310836491574,
2023-08-16 13:13:19.753000,-6.0,1.1927710843373494,7.46987951807229,1.4739423666462292,-6.026364193746168,8.083384426732065,2.0,1.5626373626373624,639.9437412095641,-0.15756657537439464,0.02109434182157132,0.03566225744420495,1334.065934065934,-1.0,73.89611365857326,1.5831253224714115,
2023-08-16 13:13:19.761000,-6.0120481927710845,1.1927710843373494,7.46987951807229,1.4641324340895157,-6.092581238503985,8.129981606376456,2.0,1.5626373626373624,639.9437412095641,0.14789347940096786,0.35417516461744586,-0.2709632305809685,1332.6007326007325,-1.0,73.89611365857326,1.5829193161206203,
2023-08-16 13:13:19.769000,-6.0361445783132535,1.1927710843373494,7.46987951807229,1.3881054567749846,-6.011649294911098,8.142244022072347,2.0,1.561172161172161,640.544345377757,-0.20313501544199022,0.060952158965095496,0.08181341413670515,1331.8681318681317,-1.0,73.89611365857326,1.5827130608900493,
2023-08-16 13:13:19.776000,-6.0361445783132535,1.1927710843373494,7.493975903614459,1.4126302881667687,-6.026364193746168,8.115266707541386,2.0,1.561172161172161,640.544345377757,-0.06619660858924355,-0.23028961016257718,-0.20942835499096799,1329.6703296703297,-1.0,73.89611365857326,1.5825065532941764,
2023-08-16 13:13:19.784000,-6.024096385542169,1.180722891566265,7.46987951807229,1.4003678724708768,-6.001839362354383,8.100551808706316,2.0,1.561172161172161,640.544345377757,-0.03531262746926114,-0.13763766680263342,-0.27038051395606305,1326.7399267399267,-1.0,73.89611365857326,1.5822997900399722,
2023-08-16 13:13:19.792000,-6.048192771084338,1.180722891566265,7.46987951807229,1.4101778050275904,-6.001839362354383,8.164316370324954,2.0,1.561172161172161,640.544345377757,0.07179068818833412,0.05967018239030283,-0.3755025930889806,1326.007326007326,-1.0,73.89611365857326,1.5820927685208177,
2023-08-16 13:13:19.799000,-6.0361445783132535,1.1686746987951808,7.46987951807229,1.3881054567749846,-6.011649294911098,8.139791538933169,2.0,1.561172161172161,640.544345377757,0.011887419148067882,-0.3542917079424284,-0.32795291649670777,1326.007326007326,-1.0,73.89611365857326,1.581885487308094,
2023-08-16 13:13:19.807000,-6.024096385542169,1.180722891566265,7.46987951807229,1.4175352544451256,-6.080318822808093,8.080931943592887,2.0,1.561172161172161,640.544345377757,0.15045743255055147,-0.521997552590175,-0.1286638307790921,1326.7399267399267,-1.0,73.89611365857326,1.581677946115464,
2023-08-16 13:13:19.815000,-6.0361445783132535,1.2048192771084338,7.433734939759036,1.5058246474555486,-5.987124463519313,8.095646842427957,2.0,1.5597069597069595,641.1460779708784,0.05897092244041781,-0.7494901229532086,-0.12936309072897842,1325.2747252747251,-1.0,73.89611365857326,1.5814701453400175,
2023-08-16 13:13:19.822000,-6.024096385542169,1.2409638554216869,7.46987951807229,1.5107296137339055,-6.05334150827713,8.154506437768239,2.0,1.5597069597069595,641.1460779708784,0.09032107686032356,-0.8528640522114102,-0.29800128197657466,1323.076923076923,-1.0,73.89611365857326,1.5812620856009152,
2023-08-16 13:13:19.830000,-6.024096385542169,1.2289156626506024,7.506024096385542,1.4763948497854076,-5.989576946658492,8.203556100551808,2.0,1.5597069597069595,641.1460779708784,0.1358895169279174,-0.3567391177670295,-0.2230639240137523,1317.9487179487178,-1.0,73.89611365857326,1.5810537676961962,
2023-08-16 13:13:19.838000,-6.024096385542169,1.2048192771084338,7.518072289156627,1.39546290619252,-6.033721643163703,8.18638871857756,2.0,1.5597069597069595,641.1460779708784,-0.06258376551483068,-0.7968067128955184,-0.5267758289143988,1314.2857142857142,-1.0,73.89611365857326,1.5808451930819414,
2023-08-16 13:13:19.845000,-6.0120481927710845,1.180722891566265,7.566265060240965,1.4003678724708768,-5.987124463519313,8.159411404046597,2.0,1.5597069597069595,641.1460779708784,-0.2906590525027685,-0.5780548919060666,-0.29438843890216176,1309.89010989011,-1.0,73.89611365857326,1.580636364348878,
2023-08-16 13:13:19.853000,-6.0120481927710845,1.1927710843373494,7.518072289156627,1.4150827713059473,-6.033721643163703,8.220723482526058,2.0,1.5597069597069595,641.1460779708784,-0.36373171726589354,-0.37188975001456775,-0.46174465357496663,1304.7619047619046,-1.0,73.89611365857326,1.580427285171535,
2023-08-16 13:13:19.861000,-6.024096385542169,1.1566265060240966,7.506024096385542,1.4150827713059473,-6.004291845493562,8.206008583690986,2.0,1.5597069597069595,641.1460779708784,-0.2554629683584865,-0.2773731134549271,-0.09206922673503871,1301.098901098901,-1.0,73.89611365857326,1.580217959834167,
2023-08-16 13:13:19.868000,-6.0,1.1566265060240966,7.481927710843374,1.4812998160637645,-5.94543225015328,8.120171673819742,2.0,1.5597069597069595,641.1460779708784,-0.08437736728628875,-0.27387681370549505,-0.19660858924305122,1299.6336996336995,-1.0,73.89611365857326,1.5800083932468563,
2023-08-16 13:13:19.876000,-6.0120481927710845,1.1566265060240966,7.46987951807229,1.4322501532801961,-6.03862660944206,8.142244022072347,2.0,1.5597069597069595,641.1460779708784,-0.06631315191422439,-0.08752403706077655,-0.07155760153837201,1300.3663003663003,-1.0,73.89611365857326,1.5797985909593517,
2023-08-16 13:13:19.884000,-6.0,1.1686746987951808,7.46987951807229,1.361128142244022,-5.987124463519313,8.103004291845494,2.0,1.5582417582417583,641.7489421720734,0.440067595128489,0.34182157216945463,-0.08635860381096688,1299.6336996336995,857.91015625,69.93739328400683,1.579588559172915,
2023-08-16 13:13:19.891000,-5.987951807228916,1.1566265060240966,7.457831325301205,1.3930104230533413,-6.031269160024524,8.127529123237277,2.0,1.5582417582417583,641.7489421720734,0.3328477361459129,0.5235126158149292,0.16152904842375132,1299.6336996336995,-1.0,69.93739328400683,1.5793783047156404,
2023-08-16 13:13:19.899000,-6.0120481927710845,1.1686746987951808,7.445783132530121,1.4837522992029428,-6.021459227467811,8.088289393010422,2.0,1.5582417582417583,641.7489421720734,0.3479983683934494,0.45731600722568577,0.40673620418390555,1299.6336996336995,-1.0,69.93739328400683,1.579167834911665,
2023-08-16 13:13:19.907000,-6.024096385542169,1.1686746987951808,7.481927710843374,1.4862047823421214,-6.048436541998774,8.17167381974249,2.0,1.5582417582417583,641.7489421720734,0.13204358720354287,0.6331798846221082,0.6161645591748731,1301.8315018315018,-1.0,69.93739328400683,1.5789571575525696,
2023-08-16 13:13:19.914000,-6.060240963855422,1.180722891566265,7.46987951807229,1.4690374003678723,-6.080318822808093,8.154506437768239,2.0,1.5582417582417583,641.7489421720734,0.13309247712837213,0.6279354349979601,0.6132509760503465,1308.4249084249084,-1.0,69.93739328400683,1.5787462809014043,
2023-08-16 13:13:19.922000,-6.0843373493975905,1.180722891566265,7.493975903614459,1.4518700183936235,-6.060698957694665,8.07602697731453,2.0,1.5582417582417583,641.7489421720734,0.19404463609346762,0.07307266476312506,0.42619893945574255,1319.4139194139193,-1.0,69.93739328400683,1.5785352136948363,
2023-08-16 13:13:19.930000,-6.060240963855422,1.2048192771084338,7.481927710843374,1.4126302881667687,-6.08522378908645,8.134886572654812,2.0,1.5567765567765564,642.3529411764707,0.2736437270555334,0.13449099702814563,0.3319153895460636,1338.4615384615383,-1.0,69.93739328400683,1.5783239651437444,
2023-08-16 13:13:19.937000,-6.072289156626506,1.2048192771084338,7.445783132530121,1.5107296137339055,-6.014101778050276,8.071122011036174,2.0,1.5567765567765564,642.3529411764707,-0.060952158965095496,-0.5674494493327897,0.037760037293863916,1366.3003663003662,-1.0,69.93739328400683,1.57811254443989,
2023-08-16 13:13:19.945000,-6.0361445783132535,1.2048192771084338,7.457831325301205,1.4322501532801961,-6.031269160024524,8.159411404046597,2.0,1.5567765567765564,642.3529411764707,0.03228250101975418,-0.7158091020336809,-0.35976924421653733,1405.128205128205,-1.0,69.93739328400683,1.577900960682147,
2023-08-16 13:13:19.953000,-6.0361445783132535,1.2048192771084338,7.46987951807229,1.4592274678111588,-6.0410790925812385,8.112814224402207,2.0,1.5567765567765564,642.3529411764707,0.04859856651710253,-0.9812947963405402,-0.14299865975176274,1452.014652014652,-1.0,69.93739328400683,1.5776892233266224,
2023-08-16 13:13:19.960000,-6.0,1.1927710843373494,7.46987951807229,1.4248927038626609,-6.043531575720417,8.181483752299203,2.0,1.5567765567765564,642.3529411764707,0.4472932812773147,-1.0191713769593849,-0.34112231221956746,1507.6923076923076,-1.0,69.93739328400683,1.5774773426358828,
2023-08-16 13:13:19.968000,-5.975903614457832,1.2048192771084338,7.493975903614459,1.4592274678111588,-5.977314530962599,8.15695892090742,2.0,1.5567765567765564,642.3529411764707,0.10826874890740709,-0.9608997144688538,-0.3826117359128255,1569.230769230769,-1.0,69.93739328400683,1.5772653296024988,
2023-08-16 13:13:19.976000,-5.975903614457832,1.2048192771084338,7.506024096385542,1.4248927038626609,-6.036174126302881,8.183936235438381,2.0,1.5567765567765564,642.3529411764707,0.29229065905250196,-0.6444845871452719,-0.7462269098537382,1632.2344322344322,-1.0,69.93739328400683,1.577053195451258,
2023-08-16 13:13:19.983000,-5.987951807228916,1.180722891566265,7.493975903614459,1.4396076026977314,-5.967504598405886,8.193746167995094,2.0,1.5553113553113551,642.9580781912389,-0.10337392925820155,-0.2350678864868019,-0.3883223588368978,1691.5750915750914,-1.0,69.93739328400683,1.5768409516335244,
2023-08-16 13:13:19.991000,-5.987951807228916,1.1686746987951808,7.506024096385542,1.4273451870018392,-5.960147148988351,8.149601471489882,2.0,1.5553113553113551,642.9580781912389,0.03589534409416706,-0.18017598042072205,-0.2314550434123886,1742.8571428571427,-1.0,69.93739328400683,1.576628609328738,
2023-08-16 13:13:19.998000,-6.0120481927710845,1.180722891566265,7.493975903614459,1.3979153893316982,-6.03862660944206,8.15205395462906,2.0,1.5553113553113551,642.9580781912389,0.24963580210943423,0.09113688013518942,-0.3929840918361399,1786.8131868131868,-1.0,69.93739328400683,1.5764161793665308,
2023-08-16 13:13:20.006000,-6.0,1.180722891566265,7.46987951807229,1.4592274678111588,-6.139178418148375,8.083384426732065,2.0,1.5553113553113551,642.9580781912389,0.30790746459996526,0.2368160363615179,-0.01771458539712142,1820.5128205128203,-1.0,69.93739328400683,1.5762036726738093,
2023-08-16 13:13:20.014000,-6.024096385542169,1.1686746987951808,7.481927710843374,1.4420600858369097,-6.065603923973022,8.176578786020846,2.0,1.5553113553113551,642.9580781912389,0.23063924013752143,0.1341413670532014,0.13845347007750144,1842.4908424908424,-1.0,69.93739328400683,1.5759911002641454,
2023-08-16 13:13:20.021000,-6.0361445783132535,1.2048192771084338,7.506024096385542,1.3930104230533413,-6.05334150827713,8.191293684855916,2.0,1.5553113553113551,642.9580781912389,0.366412213740458,0.21280811141541875,-0.09125342346017112,1851.2820512820513,-1.0,69.93739328400683,1.575778473685546,
2023-08-16 13:13:20.029000,-6.024096385542169,1.2048192771084338,7.542168674698796,1.471489883507051,-6.087676272225628,8.191293684855916,2.0,1.5553113553113551,642.9580781912389,0.19462735271837353,0.027504224695531213,-0.27469261698036224,1850.5494505494505,-1.0,69.93739328400683,1.5755658049439552,
2023-08-16 13:13:20.037000,-6.0120481927710845,1.1927710843373494,7.530120481927711,1.4347026364193745,-6.043531575720417,8.144696505211526,2.0,1.5538461538461537,643.5643564356436,0.037760037293863916,-0.12714876755433904,-0.059670182390303694,1835.164835164835,-1.0,69.93739328400683,1.5753531060068016,
2023-08-16 13:13:20.044000,-6.024096385542169,1.2048192771084338,7.518072289156627,1.4322501532801961,-6.026364193746168,8.16922133660331,2.0,1.5538461538461537,643.5643564356436,0.5226968125400617,-0.403589534409416,-0.0903210768603227,1808.7912087912086,-1.0,69.93739328400683,1.5751403887652458,
2023-08-16 13:13:20.052000,-6.0120481927710845,1.1927710843373494,7.493975903614459,1.466584917228694,-6.0410790925812385,8.188841201716738,2.0,1.5538461538461537,643.5643564356436,-0.01713186877221594,-0.09579861313443329,-0.0018646931996968547,1769.230769230769,-1.0,69.93739328400683,1.5749276648929238,
2023-08-16 13:13:20.060000,-5.987951807228916,1.216867469879518,7.481927710843374,1.4862047823421214,-6.023911710606989,8.12262415695892,2.0,1.5538461538461537,643.5643564356436,0.04335411689295448,-0.06596352193928014,0.18029252374570245,1718.6813186813185,-1.0,69.93739328400683,1.5747149458094762,
2023-08-16 13:13:20.067000,-6.0120481927710845,1.2048192771084338,7.481927710843374,1.4150827713059473,-6.00674432863274,8.142244022072347,2.0,1.5538461538461537,643.5643564356436,0.028902744595302985,-0.1117650486568374,-0.24975234543441507,1666.6666666666665,-1.0,69.93739328400683,1.57450224222144,
2023-08-16 13:13:20.075000,-6.024096385542169,1.2048192771084338,7.445783132530121,1.4763948497854076,-6.001839362354383,8.071122011036174,2.0,1.5538461538461537,643.5643564356436,0.2577938348581084,-0.21898490763941522,0.025872618145795594,1613.9194139194137,-1.0,69.93739328400683,1.5742895646468775,
2023-08-16 13:13:20.083000,-6.048192771084338,1.2048192771084338,7.46987951807229,1.5450643776824033,-6.028816676885346,8.166768853464133,2.0,1.5538461538461537,643.5643564356436,0.08612551716100478,-0.0927684866849246,0.13122778392867526,1561.1721611721612,-1.0,69.93739328400683,1.574076923837029,
2023-08-16 13:13:20.090000,-6.024096385542169,1.216867469879518,7.518072289156627,1.4543225015328018,-6.124463519313305,8.213366033108523,2.0,1.5523809523809522,644.1717791411044,0.06841093176388291,-0.1048889924829559,0.006759512848901533,1507.6923076923076,-1.0,69.93739328400683,1.5738643302861357,
2023-08-16 13:13:20.098000,-6.0120481927710845,1.2048192771084338,7.493975903614459,1.4396076026977314,-6.058246474555487,8.215818516247701,2.0,1.5523809523809522,644.1717791411044,0.09987762950876951,-0.11805838820581471,-0.0713245148884099,1453.4798534798533,-1.0,69.93739328400683,1.5736517937428582,
2023-08-16 13:13:20.106000,-6.0361445783132535,1.1927710843373494,7.518072289156627,1.449417535254445,-6.063151440833844,8.164316370324954,2.0,1.5523809523809522,644.1717791411044,-0.08192995746168598,-0.17353301089680048,-0.40941670065846997,1405.8608058608058,-1.0,69.93739328400683,1.5734393231440351,
2023-08-16 13:13:20.113000,-6.0120481927710845,1.1927710843373494,7.481927710843374,1.4739423666462292,-6.050889025137952,8.127529123237277,2.0,1.5523809523809522,644.1717791411044,-0.15663422877454622,-0.19952217236757736,-0.2852980595536392,1364.8351648351647,-1.0,69.93739328400683,1.573226927532918,
2023-08-16 13:13:20.121000,-6.024096385542169,1.180722891566265,7.46987951807229,1.4518700183936235,-6.05334150827713,8.098099325567135,2.0,1.5523809523809522,644.1717791411044,-4.661732999250815E-4,-0.25581259833343073,-0.17586387739642198,1328.937728937729,-1.0,69.93739328400683,1.5730146159961476,
2023-08-16 13:13:20.129000,-6.048192771084338,1.2048192771084338,7.457831325301205,1.4175352544451256,-6.0705088902513795,8.120171673819742,2.0,1.5523809523809522,644.1717791411044,0.06246722218984984,-0.17563079074646074,-0.01876347532195112,1295.2380952380952,-1.0,69.93739328400683,1.5728023971815897,
2023-08-16 13:13:20.136000,-6.024096385542169,1.1927710843373494,7.481927710843374,1.461679950950337,-6.043531575720417,8.144696505211526,2.0,1.5523809523809522,644.1717791411044,0.11024998543208478,-0.6127848027504219,0.012586679097954637,1264.4688644688645,-1.0,69.93739328400683,1.5725902793104247,
2023-08-16 13:13:20.144000,-6.0361445783132535,1.1927710843373494,7.457831325301205,1.4396076026977314,-6.043531575720417,8.088289393010422,2.0,1.5523809523809522,644.1717791411044,0.2797039799545473,-0.10162577938348553,-0.106054425732766,1239.5604395604396,-1.0,69.93739328400683,1.5723782701910247,
2023-08-16 13:13:20.152000,-6.048192771084338,1.216867469879518,7.46987951807229,1.5303494788473329,-6.036174126302881,8.149601471489882,2.0,1.5509157509157505,644.7803495512519,0.584348231455044,-0.11164850533185655,-0.22574442048831675,1221.245421245421,-1.0,69.93739328400683,1.5721663772348504,
2023-08-16 13:13:20.159000,-6.0361445783132535,1.2048192771084338,7.506024096385542,1.466584917228694,-6.050889025137952,8.215818516247701,2.0,1.5509157509157505,644.7803495512519,0.12190431793019099,-0.2778392867548505,-0.13227667385350497,1210.989010989011,-1.0,69.93739328400683,1.5719546069819073,
2023-08-16 13:13:20.167000,-6.0361445783132535,1.1927710843373494,7.518072289156627,1.4052728387492335,-6.063151440833844,8.164316370324954,2.0,1.5509157509157505,644.7803495512519,0.16560806479808798,-0.39997669133500313,-0.2209661441640929,1202.9304029304028,-1.0,69.93739328400683,1.5717429655069532,
2023-08-16 13:13:20.175000,-6.0361445783132535,1.1927710843373494,7.493975903614459,1.4224402207234825,-6.055793991416309,8.147148988350704,2.0,1.5509157509157505,644.7803495512519,0.16222830837363852,-0.18413845347007743,-0.2644368043820291,1197.8021978021977,-1.0,69.93739328400683,1.5715314588276807,
2023-08-16 13:13:20.182000,-6.024096385542169,1.180722891566265,7.518072289156627,1.491109748620478,-6.082771305947271,8.21827099938688,2.0,1.5509157509157505,644.7803495512519,-0.037876580618844746,-0.31128722102441647,-0.5812015616805548,1194.1391941391942,-1.0,69.93739328400683,1.5713200924360269,
2023-08-16 13:13:20.190000,-6.024096385542169,1.1927710843373494,7.506024096385542,1.4273451870018392,-5.989576946658492,8.176578786020846,2.0,1.5494505494505493,645.3900709219859,-0.03752695064390224,-0.3107045043995106,-0.5771225453062173,1193.4065934065934,-1.0,69.93739328400683,1.571108871323831,
2023-08-16 13:13:20.198000,-6.024096385542169,1.1927710843373494,7.506024096385542,1.4543225015328018,-6.028816676885346,8.18638871857756,2.0,1.5494505494505493,645.3900709219859,0.2063982285414606,-0.37247246663947364,-0.5714119223821456,1194.8717948717947,-1.0,69.93739328400683,1.570897799975497,
2023-08-16 13:13:20.205000,-5.975903614457832,1.1927710843373494,7.481927710843374,1.4592274678111588,-5.987124463519313,8.161863887185776,2.0,1.5494505494505493,645.3900709219859,0.06608006526426272,-0.41559349688246644,-0.0924188567099821,1198.5347985347985,-1.0,69.93739328400683,1.5706868822579911,
2023-08-16 13:13:20.213000,-6.0,1.1686746987951808,7.481927710843374,1.4469650521152666,-5.996934396076027,8.176578786020846,2.0,1.5494505494505493,645.3900709219859,0.01957927859681871,-0.22993998018763467,-0.027853854670473722,1207.3260073260074,-1.0,69.93739328400683,1.5704761214163048,
2023-08-16 13:13:20.221000,-6.0120481927710845,1.2048192771084338,7.481927710843374,1.449417535254445,-5.989576946658492,8.15205395462906,2.0,1.5494505494505493,645.3900709219859,0.11153196200687572,0.22993998018763467,-0.03950818716857993,1219.7802197802198,-1.0,69.93739328400683,1.570265520104703,
2023-08-16 13:13:20.228000,-6.024096385542169,1.1927710843373494,7.493975903614459,1.3807480073574494,-5.969957081545064,8.098099325567135,2.0,1.5494505494505493,645.3900709219859,0.07901637433715986,0.12248703455509517,0.17796165724608137,1235.164835164835,-1.0,69.93739328400683,1.5700550804190847,
2023-08-16 13:13:20.236000,-6.0120481927710845,1.216867469879518,7.481927710843374,1.4445125689760883,-6.045984058859595,8.129981606376456,2.0,1.5494505494505493,645.3900709219859,0.1712021443971803,0.12400209777984952,-0.1741157275217064,1251.2820512820513,-1.0,69.93739328400683,1.5698448039306199,
2023-08-16 13:13:20.244000,-6.0361445783132535,1.216867469879518,7.481927710843374,1.5058246474555486,-6.021459227467811,8.105456774984672,2.0,1.5479853479853478,646.0009465215335,0.04696695996736735,0.3228250101975401,-0.23320319328710462,1267.3992673992673,-1.0,69.93739328400683,1.5696346917207877,
2023-08-16 13:13:20.251000,-6.048192771084338,1.1927710843373494,7.457831325301205,1.4028203556100551,-5.982219497240957,8.17167381974249,2.0,1.5494505494505493,645.3900709219859,0.11293048190664923,0.09253540003496293,0.044403006817784606,1279.8534798534797,-1.0,69.93739328400683,1.5694247439253124,
2023-08-16 13:13:20.259000,-6.024096385542169,1.216867469879518,7.493975903614459,1.4297976701410178,-6.063151440833844,8.147148988350704,2.0,1.5479853479853478,646.0009465215335,0.15849892197424306,0.1681720179476716,-0.1250509877046792,1294.5054945054944,-1.0,69.93739328400683,1.5692149601929162,
2023-08-16 13:13:20.267000,-6.0361445783132535,1.1927710843373494,7.506024096385542,1.419987737584304,-6.019006744328633,8.13733905579399,2.0,1.5479853479853478,646.0009465215335,0.15721694539945213,-0.289260532602995,-0.29322300565235127,1312.087912087912,-1.0,69.93739328400683,1.5690053397572472,
2023-08-16 13:13:20.274000,-6.0361445783132535,1.180722891566265,7.493975903614459,1.5082771305947271,-5.967504598405886,8.110361741263029,2.0,1.5479853479853478,646.0009465215335,0.24380863586038026,-0.3493968882932229,-0.44403006817784524,1331.8681318681317,-1.0,69.93739328400683,1.5687958809482305,
2023-08-16 13:13:20.282000,-6.0120481927710845,1.1927710843373494,7.506024096385542,1.366033108522379,-6.016554261189454,8.134886572654812,2.0,1.5479853479853478,646.0009465215335,0.48645183847095214,0.15640114212458453,-0.48831653167064853,1350.9157509157508,-1.0,69.93739328400683,1.5685865816878588,
2023-08-16 13:13:20.290000,-6.0120481927710845,1.180722891566265,7.493975903614459,1.4592274678111588,-5.996934396076027,8.223175965665236,2.0,1.5479853479853478,646.0009465215335,0.45009032107686,-0.0896218169104368,-0.6695414020161994,1365.5677655677655,-1.0,69.93739328400683,1.568377439987539,
2023-08-16 13:13:20.297000,-6.0120481927710845,1.180722891566265,7.493975903614459,1.4297976701410178,-6.048436541998774,8.093194359288779,2.0,1.5479853479853478,646.0009465215335,0.23331973661208588,-0.36198356739117754,-0.4354058621292464,1375.8241758241757,-1.0,69.93739328400683,1.5681684539219893,
2023-08-16 13:13:20.305000,-6.0361445783132535,1.1927710843373494,7.493975903614459,1.4003678724708768,-6.011649294911098,8.183936235438381,2.0,1.5465201465201464,646.612979630507,0.5690810558825249,-0.20802983509119577,-0.27993706660450984,1383.150183150183,-1.0,69.93739328400683,1.5679596211837832,
2023-08-16 13:13:20.313000,-6.024096385542169,1.180722891566265,7.493975903614459,1.4003678724708768,-6.028816676885346,8.112814224402207,2.0,1.5479853479853478,646.0009465215335,0.38028086941320355,0.12703222422935648,-0.398811258085193,1388.278388278388,-1.0,69.93739328400683,1.5677509386391235,
2023-08-16 13:13:20.320000,-6.024096385542169,1.1927710843373494,7.481927710843374,1.4297976701410178,-6.063151440833844,8.10790925812385,2.0,1.5465201465201464,646.612979630507,0.31688130062350706,0.02074471184662881,-0.27236175048074157,1389.7435897435896,-1.0,69.93739328400683,1.5675424027980722,
2023-08-16 13:13:20.328000,-6.0120481927710845,1.1927710843373494,7.493975903614459,1.4150827713059473,-6.036174126302881,8.164316370324954,2.0,1.5465201465201464,646.612979630507,0.22457898723850578,-0.055824252665928276,-0.42165374978148124,1391.2087912087911,-1.0,69.93739328400683,1.5673340098975055,
2023-08-16 13:13:20.336000,-6.024096385542169,1.180722891566265,7.493975903614459,1.4690374003678723,-6.009196811771918,8.154506437768239,2.0,1.5465201465201464,646.612979630507,0.46722218984907593,-0.1571004020744713,-0.38657420896218175,1391.2087912087911,-1.0,69.93739328400683,1.567125755880901,
2023-08-16 13:13:20.343000,-6.0120481927710845,1.1927710843373494,7.481927710843374,1.4126302881667687,-6.050889025137952,8.154506437768239,2.0,1.545054945054945,647.2261735419631,0.3090728978497754,-0.15407027562496434,-0.29275683235242705,1385.3479853479853,-1.0,69.93739328400683,1.5669176368369109,
2023-08-16 13:13:20.351000,-6.0,1.1927710843373494,7.493975903614459,1.39546290619252,-6.036174126302881,8.193746167995094,2.0,1.5465201465201464,646.612979630507,-0.10663714235767191,-0.1503408892255689,-0.5012528407435466,1377.2893772893772,-1.0,69.93739328400683,1.5667096480672553,
2023-08-16 13:13:20.359000,-6.0,1.2048192771084338,7.46987951807229,1.4175352544451256,-5.972409564684242,8.13733905579399,2.0,1.545054945054945,647.2261735419631,0.06118524561505717,-0.09929491288386533,-0.16106287512382755,1365.5677655677655,-1.0,69.93739328400683,1.5665017845608467,
2023-08-16 13:13:20.366000,-6.0,1.180722891566265,7.457831325301205,1.4592274678111588,-5.996934396076027,8.129981606376456,2.0,1.5465201465201464,646.612979630507,-9.323465998484274E-4,0.010022725948371029,-0.2510343220092069,1349.4505494505493,-1.0,69.93739328400683,1.5662940410797406,
2023-08-16 13:13:20.374000,-5.987951807228916,1.1927710843373494,7.493975903614459,1.4420600858369097,-6.045984058859595,8.117719190680564,2.0,1.545054945054945,647.2261735419631,0.15115669250043648,0.43913524852864055,-0.11129887535691405,1334.065934065934,-1.0,69.93739328400683,1.5660864121758062,
2023-08-16 13:13:20.381000,-6.024096385542169,1.1927710843373494,7.481927710843374,1.4739423666462292,-5.965052115266707,8.198651134273451,2.0,1.545054945054945,647.2261735419631,-0.019229648621874467,0.25651185828331746,-0.5060311170677699,1320.8791208791208,-1.0,69.93739328400683,1.5658788922772473,
2023-08-16 13:13:20.389000,-6.024096385542169,1.1927710843373494,7.506024096385542,1.3930104230533413,-6.036174126302881,8.154506437768239,2.0,1.545054945054945,647.2261735419631,0.10220849600839145,0.27154594720587316,-0.21105996154070272,1308.4249084249084,-1.0,69.93739328400683,1.5656714756712258,
2023-08-16 13:13:20.397000,-6.0120481927710845,1.180722891566265,7.493975903614459,1.39546290619252,-6.08522378908645,8.117719190680564,2.0,1.5435897435897434,647.8405315614618,0.11549443505623284,0.3634986306159319,-0.08752403706077741,1298.9010989010987,-1.0,69.93739328400683,1.5654641569444994,
2023-08-16 13:13:20.404000,-6.0361445783132535,1.180722891566265,7.481927710843374,1.4322501532801961,-6.060698957694665,8.12262415695892,2.0,1.545054945054945,647.2261735419631,0.2819183031291884,0.2101276149408543,-0.17633005069634664,1291.5750915750914,-1.0,69.93739328400683,1.5652569300526817,
2023-08-16 13:13:20.412000,-6.024096385542169,1.180722891566265,7.506024096385542,1.39546290619252,-6.026364193746168,8.15205395462906,2.0,1.545054945054945,647.2261735419631,0.11141541868189489,0.39263446186119655,-0.007225686148825746,1287.179487179487,-1.0,69.93739328400683,1.5650497887949766,
2023-08-16 13:13:20.420000,-6.0,1.180722891566265,7.481927710843374,1.3709380748007356,-6.0778663396689145,8.120171673819742,2.0,1.5435897435897434,647.8405315614618,0.017714585397121858,0.22201503408892218,-0.20546588194161128,1283.5164835164835,-1.0,69.93739328400683,1.564842727392719,
2023-08-16 13:13:20.427000,-6.0,1.1686746987951808,7.46987951807229,1.4028203556100551,-6.055793991416309,8.127529123237277,2.0,1.5435897435897434,647.8405315614618,0.07820057106229227,0.31233611094924574,0.041372880368276785,1279.8534798534797,-1.0,69.93739328400683,1.564635739592111,
2023-08-16 13:13:20.435000,-6.0361445783132535,1.2048192771084338,7.457831325301205,1.4224402207234825,-6.033721643163703,8.139791538933169,2.0,1.5435897435897434,647.8405315614618,0.0025639531495836093,0.17504807412155482,-0.06316648213973573,1275.4578754578754,-1.0,69.93739328400683,1.564428818645289,
2023-08-16 13:13:20.443000,-6.048192771084338,1.1927710843373494,7.493975903614459,1.4543225015328018,-6.028816676885346,8.159411404046597,2.0,1.5435897435897434,647.8405315614618,0.3675776469902681,0.24998543208437674,0.014684458947614033,1271.062271062271,-1.0,69.93739328400683,1.5642219578159395,
2023-08-16 13:13:20.450000,-6.048192771084338,1.1927710843373494,7.481927710843374,1.4101778050275904,-5.952789699570815,8.183936235438381,2.0,1.5435897435897434,647.8405315614618,0.12085542800536173,0.01794767204708353,-0.061534875590000544,1265.2014652014652,-1.0,69.93739328400683,1.5640151504265958,
2023-08-16 13:13:20.458000,-6.0361445783132535,1.1927710843373494,7.506024096385542,1.4543225015328018,-5.996934396076027,8.139791538933169,2.0,1.5435897435897434,647.8405315614618,0.25686148825826,9.323465998484274E-4,-0.030767437795000706,1261.5384615384614,-1.0,69.93739328400683,1.5638083903634636,
2023-08-16 13:13:20.466000,-6.0361445783132535,1.2048192771084338,7.493975903614459,1.3488657265481299,-6.092581238503985,8.166768853464133,2.0,1.5435897435897434,647.8405315614618,0.252083211934037,-6.992599498867545E-4,-0.028320027970397933,1258.6080586080586,-1.0,69.93739328400683,1.563601672055908,
2023-08-16 13:13:20.473000,-6.024096385542169,1.1927710843373494,7.46987951807229,1.437155119558553,-5.974862047823421,8.15205395462906,2.0,1.5421245421245418,648.456057007126,0.1885670998193579,0.13495717032806898,0.019113105296894497,1257.142857142857,-1.0,69.93739328400683,1.5633949900346988,
2023-08-16 13:13:20.481000,-6.0120481927710845,1.180722891566265,7.481927710843374,1.4396076026977314,-6.021459227467811,8.15205395462906,2.0,1.5421245421245418,648.456057007126,0.018064215372064367,0.20802983509119577,0.2039508187168578,1257.142857142857,-1.0,69.93739328400683,1.5631883384896337,
2023-08-16 13:13:20.489000,-6.0120481927710845,1.180722891566265,7.506024096385542,1.3832004904966277,-6.0705088902513795,8.139791538933169,2.0,1.5421245421245418,648.456057007126,0.15430336227492603,0.09941145620884616,0.004894819649204678,1257.8754578754579,-1.0,69.93739328400683,1.562981711247097,
2023-08-16 13:13:20.496000,-6.0361445783132535,1.180722891566265,7.506024096385542,1.4445125689760883,-6.092581238503985,8.161863887185776,2.0,1.5406593406593403,649.0727532097005,-0.015267175572519083,0.17423227084668724,-0.08542625721111802,1258.6080586080586,-1.0,69.93739328400683,1.5627751022717156,
2023-08-16 13:13:20.504000,-6.0120481927710845,1.180722891566265,7.506024096385542,1.4469650521152666,-6.016554261189454,8.144696505211526,2.0,1.5406593406593403,649.0727532097005,0.090204533535341,-0.010022725948371029,-0.11328011188159218,1261.5384615384614,-1.0,69.93739328400683,1.5625685056744179,
2023-08-16 13:13:20.512000,-6.0,1.1927710843373494,7.481927710843374,1.4420600858369097,-6.026364193746168,8.125076640098099,2.0,1.5406593406593403,649.0727532097005,0.31769710389837463,-0.03659460404405381,-0.16700658469786148,1267.3992673992673,-1.0,69.93739328400683,1.562361915615093,
2023-08-16 13:13:20.519000,-6.0120481927710845,1.2048192771084338,7.493975903614459,1.4445125689760883,-6.014101778050276,8.149601471489882,2.0,1.5421245421245418,648.456057007126,0.35976924421653816,0.25674494493327915,0.27818891672979384,1273.260073260073,-1.0,69.93739328400683,1.5621553263079866,
2023-08-16 13:13:20.527000,-6.0361445783132535,1.2048192771084338,7.481927710843374,1.4248927038626609,-6.004291845493562,8.15205395462906,2.0,1.5421245421245418,648.456057007126,0.05209486626653457,0.3519608414428065,0.21665404113979372,1276.923076923077,-1.0,69.93739328400683,1.561948732552827,
2023-08-16 13:13:20.535000,-6.048192771084338,1.2048192771084338,7.518072289156627,1.4567749846719804,-6.033721643163703,8.13733905579399,2.0,1.5406593406593403,649.0727532097005,-0.055707709340947445,0.6447176737952336,0.33890798904492764,1280.5860805860805,-1.0,69.93739328400683,1.5617421298439051,
2023-08-16 13:13:20.542000,-6.060240963855422,1.2048192771084338,7.481927710843374,1.4862047823421214,-6.05334150827713,8.132434089515634,2.0,1.5406593406593403,649.0727532097005,0.03496299749431863,0.35464133791737096,0.3372763824951925,1287.9120879120878,-1.0,69.93739328400683,1.561535513460608,
2023-08-16 13:13:20.550000,-6.0361445783132535,1.216867469879518,7.46987951807229,1.4567749846719804,-6.033721643163703,8.134886572654812,2.0,1.5406593406593403,649.0727532097005,0.3842433424625607,0.33925761901987106,-0.07563661791270909,1296.7032967032967,-1.0,69.93739328400683,1.5613288784357398,
2023-08-16 13:13:20.558000,-6.0361445783132535,1.2048192771084338,7.506024096385542,1.3832004904966277,-6.026364193746168,8.15205395462906,2.0,1.5406593406593403,649.0727532097005,0.24264320261057015,0.04871510984208337,-0.302196841675893,1304.7619047619046,-1.0,69.93739328400683,1.5611222205058082,
2023-08-16 13:13:20.565000,-6.0361445783132535,1.1927710843373494,7.46987951807229,1.471489883507051,-6.031269160024524,8.117719190680564,2.0,1.5406593406593403,649.0727532097005,-0.12703222422935648,-0.2849484295786954,-0.19194685624380867,1309.1575091575091,-1.0,69.93739328400683,1.5609155356195998,
2023-08-16 13:13:20.573000,-6.024096385542169,1.180722891566265,7.493975903614459,1.419987737584304,-6.011649294911098,8.154506437768239,2.0,1.5406593406593403,649.0727532097005,0.10022725948371375,0.2681661907814237,-0.09812947963405393,1306.227106227106,-1.0,69.93739328400683,1.560708820008002,
2023-08-16 13:13:20.581000,-6.024096385542169,1.1686746987951808,7.46987951807229,1.4175352544451256,-6.0410790925812385,8.117719190680564,2.0,1.5406593406593403,649.0727532097005,0.1744653574966489,-0.024357554921041684,-0.06608006526426184,1301.8315018315018,-1.0,69.93739328400683,1.5605020701835224,
2023-08-16 13:13:20.588000,-6.024096385542169,1.180722891566265,7.481927710843374,1.4445125689760883,-6.026364193746168,8.115266707541386,2.0,1.5406593406593403,649.0727532097005,-0.22551133383835423,0.21793601771458596,-0.24916962880951002,1298.9010989010987,-1.0,69.93739328400683,1.5602952830087662,
2023-08-16 13:13:20.596000,-6.0361445783132535,1.180722891566265,7.481927710843374,1.4984671980380133,-5.979767014101777,8.132434089515634,2.0,1.539194139194139,649.6906235126131,0.07843365771225394,-0.1381038401025585,0.01165433249810621,1295.2380952380952,-1.0,69.93739328400683,1.5600884561528943,
2023-08-16 13:13:20.604000,-6.024096385542169,1.1927710843373494,7.433734939759036,1.4347026364193745,-6.021459227467811,8.139791538933169,2.0,1.539194139194139,649.6906235126131,0.10582133908280432,0.1960258726181453,-0.2489365421595479,1295.2380952380952,-1.0,69.93739328400683,1.559881587141758,
2023-08-16 13:13:20.611000,-6.0120481927710845,1.2048192771084338,7.46987951807229,1.4420600858369097,-6.043531575720417,8.105456774984672,2.0,1.539194139194139,649.6906235126131,0.19474389604335438,-0.1602470718489591,-0.27877163335469973,1295.970695970696,-1.0,69.93739328400683,1.5596746733208764,
2023-08-16 13:13:20.619000,-6.0120481927710845,1.180722891566265,7.481927710843374,1.4739423666462292,-6.026364193746168,8.0907418761496,2.0,1.539194139194139,649.6906235126131,0.10057688945865627,-0.08542625721111802,-0.32084377367286326,1297.4358974358975,-1.0,69.93739328400683,1.5594677123427791,
2023-08-16 13:13:20.627000,-6.024096385542169,1.180722891566265,7.506024096385542,1.4297976701410178,-6.036174126302881,8.134886572654812,2.0,1.539194139194139,649.6906235126131,0.20651477186644143,0.1279645708292049,-0.11840801818075852,1299.6336996336995,-1.0,69.93739328400683,1.5592607021959055,
2023-08-16 13:13:20.634000,-6.0120481927710845,1.180722891566265,7.493975903614459,1.419987737584304,-5.989576946658492,8.17167381974249,2.0,1.539194139194139,649.6906235126131,0.15849892197424306,-0.4086008973836024,0.0071091428238449095,1301.8315018315018,-1.0,69.93739328400683,1.559053641691021,
2023-08-16 13:13:20.642000,-6.0361445783132535,1.1927710843373494,7.506024096385542,1.4297976701410178,-6.0705088902513795,8.183936235438381,2.0,1.5377289377289376,650.3096712720344,0.0643319153895467,-0.054192646116193094,0.11584406503117535,1302.5641025641025,-1.0,69.93739328400683,1.5588465304223214,
2023-08-16 13:13:20.650000,-6.048192771084338,1.1927710843373494,7.506024096385542,1.4322501532801961,-6.080318822808093,8.161863887185776,2.0,1.5362637362637361,650.9298998569385,0.3830779092127506,-0.4047549676592278,0.2390303595361577,1298.9010989010987,-1.0,69.93739328400683,1.558639367814767,
2023-08-16 13:13:20.657000,-6.0361445783132535,1.1927710843373494,7.506024096385542,1.4224402207234825,-6.065603923973022,8.0907418761496,2.0,1.5377289377289376,650.3096712720344,0.12085542800536173,-0.6314317347473921,-0.28273410640405555,1295.970695970696,-1.0,69.93739328400683,1.5584321530493106,
2023-08-16 13:13:20.665000,-6.0361445783132535,1.216867469879518,7.457831325301205,1.4935622317596566,-6.0705088902513795,8.139791538933169,2.0,1.5377289377289376,650.3096712720344,0.11700949828098545,-0.6256045684983399,0.027620768020511614,1293.7728937728937,-1.0,69.93739328400683,1.5582248859003656,
2023-08-16 13:13:20.673000,-6.0361445783132535,1.2530120481927711,7.457831325301205,1.5352544451256898,-5.974862047823421,8.12262415695892,2.0,1.5377289377289376,650.3096712720344,0.14544606957636508,-0.954956004894819,0.12120505798030425,1295.970695970696,-1.0,69.93739328400683,1.5580175667975622,
2023-08-16 13:13:20.680000,-6.0,1.2409638554216869,7.46987951807229,1.5033721643163702,-6.009196811771918,8.117719190680564,2.0,1.5377289377289376,650.3096712720344,0.12703222422935648,-0.3954315016607418,-0.13565643027795574,1299.6336996336995,-1.0,69.93739328400683,1.557810196396025,
2023-08-16 13:13:20.688000,-6.0120481927710845,1.2289156626506024,7.481927710843374,1.471489883507051,-5.979767014101777,8.213366033108523,2.0,1.5377289377289376,650.3096712720344,-0.04615115669249976,-0.08565934386107969,0.03531262746926201,1301.098901098901,-1.0,69.93739328400683,1.5576027756035542,
2023-08-16 13:13:20.696000,-6.0,1.2048192771084338,7.46987951807229,1.407725321888412,-6.00674432863274,8.15205395462906,2.0,1.5377289377289376,650.3096712720344,0.040557077093409194,-0.05209486626653457,-0.3131519142241125,1301.098901098901,-1.0,69.93739328400683,1.5573953056070604,
2023-08-16 13:13:20.703000,-6.0120481927710845,1.1566265060240966,7.518072289156627,1.4763948497854076,-6.055793991416309,8.181483752299203,2.0,1.5377289377289376,650.3096712720344,-0.2206165141891504,0.3034788182506848,-0.18670240661966103,1299.6336996336995,-1.0,69.93739328400683,1.5571877878984401,
2023-08-16 13:13:20.711000,-6.024096385542169,1.180722891566265,7.518072289156627,1.4297976701410178,-6.075413856529736,8.193746167995094,2.0,1.5377289377289376,650.3096712720344,-0.023541751646174093,0.3951984150107801,-0.30441116485053327,1298.9010989010987,-1.0,69.93739328400683,1.556980224300123,
2023-08-16 13:13:20.719000,-6.0120481927710845,1.180722891566265,7.46987951807229,1.4322501532801961,-6.045984058859595,8.166768853464133,2.0,1.5377289377289376,650.3096712720344,0.08111415418681839,0.37923197948837434,0.24940271545947212,1298.168498168498,-1.0,69.93739328400683,1.5567726174483363,
2023-08-16 13:13:20.726000,-6.024096385542169,1.1927710843373494,7.433734939759036,1.385652973635806,-6.055793991416309,8.127529123237277,2.0,1.5362637362637361,650.9298998569385,0.04638424334246317,0.05803857584056938,0.036011887419147896,1294.5054945054944,-1.0,69.93739328400683,1.5565649702934434,
2023-08-16 13:13:20.734000,-6.048192771084338,1.1927710843373494,7.46987951807229,1.407725321888412,-6.001839362354383,8.193746167995094,2.0,1.5362637362637361,650.9298998569385,0.24345900588543773,0.5013693840685269,-0.10127614940854258,1290.8424908424909,-1.0,69.93739328400683,1.5563572856697314,
2023-08-16 13:13:20.742000,-6.0,1.180722891566265,7.493975903614459,1.461679950950337,-5.987124463519313,8.159411404046597,2.0,1.5362637362637361,650.9298998569385,0.23926344618611894,0.5002039508187168,-0.09859565293397814,1287.9120879120878,-1.0,69.93739328400683,1.5561495666741307,
2023-08-16 13:13:20.749000,-6.0120481927710845,1.1927710843373494,7.46987951807229,1.5009196811771919,-6.028816676885346,8.132434089515634,2.0,1.5362637362637361,650.9298998569385,0.18961598974418717,0.45102266767670846,-0.00384592972437498,1284.9816849816848,-1.0,69.93739328400683,1.5559418166562415,
2023-08-16 13:13:20.757000,-6.0361445783132535,1.216867469879518,7.481927710843374,1.4445125689760883,-6.05334150827713,8.10790925812385,2.0,1.5362637362637361,650.9298998569385,0.09777984965911098,0.7362041839053672,0.17924363382087274,1284.9816849816848,-1.0,69.93739328400683,1.5557340392426606,
2023-08-16 13:13:20.764000,-6.072289156626506,1.1927710843373494,7.506024096385542,1.4812998160637645,-6.13182096873084,8.120171673819742,2.0,1.5347985347985347,651.5513126491647,0.01829730202202604,0.3504457782180522,0.5462385641862363,1287.179487179487,-1.0,69.93739328400683,1.55552623836101,
2023-08-16 13:13:20.772000,-6.060240963855422,1.216867469879518,7.481927710843374,1.4420600858369097,-6.1072961373390555,8.120171673819742,2.0,1.5362637362637361,650.9298998569385,-0.22621059378824096,0.15337101567507758,0.4042887943593032,1292.3076923076922,-1.0,69.93739328400683,1.555318418229021,
2023-08-16 13:13:20.780000,-6.072289156626506,1.180722891566265,7.481927710843374,1.4396076026977314,-6.126916002452483,8.132434089515634,2.0,1.5347985347985347,651.5513126491647,-0.0745877279878794,-0.27341064040557,0.23553405978672567,1303.2967032967033,-1.0,69.93739328400683,1.5551105837316943,
2023-08-16 13:13:20.787000,-6.060240963855422,1.1927710843373494,7.46987951807229,1.4812998160637645,-6.092581238503985,8.17167381974249,2.0,1.5347985347985347,651.5513126491647,-0.5490356039857811,-0.47013577297360204,0.3101217877746051,1323.8095238095236,-1.0,69.93739328400683,1.554902739988874,
2023-08-16 13:13:20.795000,-6.0361445783132535,1.1927710843373494,7.46987951807229,1.5205395462906193,-6.028816676885346,8.132434089515634,2.0,1.5347985347985347,651.5513126491647,-0.04253831361808689,-0.7867839869471475,0.2920575724025407,1357.5091575091574,-1.0,69.93739328400683,1.554694891852725,
2023-08-16 13:13:20.803000,-6.0120481927710845,1.1927710843373494,7.46987951807229,1.4641324340895157,-6.031269160024524,8.103004291845494,2.0,1.5333333333333332,652.1739130434784,-0.0734222947380693,-0.610920109550725,-0.07785094108734933,1400.0,911.529541015625,65.8234289731829,1.5544870443874446,
2023-08-16 13:13:20.810000,-5.975903614457832,1.1927710843373494,7.46987951807229,1.4273451870018392,-5.974862047823421,8.053954629061925,2.0,1.5333333333333332,652.1739130434784,-0.16560806479808798,-0.8516986189615983,0.2424101159606085,1450.5494505494505,-1.0,65.8234289731829,1.5542792028557562,
2023-08-16 13:13:20.818000,-5.975903614457832,1.216867469879518,7.481927710843374,1.4469650521152666,-6.033721643163703,8.159411404046597,2.0,1.5333333333333332,652.1739130434784,0.1409008799021038,-0.465940213274285,-0.064215372064565,1506.9597069597069,-1.0,65.8234289731829,1.5540713726003468,
2023-08-16 13:13:20.826000,-6.0,1.2048192771084338,7.506024096385542,1.4763948497854076,-6.023911710606989,8.208461066830164,2.0,1.5333333333333332,652.1739130434784,0.15430336227492603,-0.6191946856243801,-0.07843365771225438,1567.7655677655678,-1.0,65.8234289731829,1.5538635590284637,
2023-08-16 13:13:20.833000,-6.0120481927710845,1.2048192771084338,7.506024096385542,1.4592274678111588,-6.004291845493562,8.159411404046597,2.0,1.5333333333333332,652.1739130434784,0.2441582658353245,-0.2835499096789236,-0.4144280636326555,1630.03663003663,-1.0,65.8234289731829,1.5536557676299867,
2023-08-16 13:13:20.841000,-6.0,1.1927710843373494,7.493975903614459,1.4273451870018392,-5.996934396076027,8.161863887185776,2.0,1.5333333333333332,652.1739130434784,0.25732766155818504,-0.2673503875065561,-0.3350620593205522,1693.7728937728937,-1.0,65.8234289731829,1.553448003994384,
2023-08-16 13:13:20.849000,-5.987951807228916,1.2048192771084338,7.542168674698796,1.4641324340895157,-5.974862047823421,8.191293684855916,2.0,1.5333333333333332,652.1739130434784,0.08565934386107969,-0.05617388264087252,0.12306975118000109,1750.9157509157508,-1.0,65.8234289731829,1.5532402738267566,
2023-08-16 13:13:20.856000,-5.987951807228916,1.1927710843373494,7.481927710843374,1.4273451870018392,-6.0705088902513795,8.161863887185776,2.0,1.5333333333333332,652.1739130434784,-0.1475438494260236,0.13973544665229368,-0.2144397179651535,1799.2673992673992,-1.0,65.8234289731829,1.5530325829631653,
2023-08-16 13:13:20.864000,-5.987951807228916,1.180722891566265,7.493975903614459,1.4469650521152666,-5.994481912936848,8.208461066830164,2.0,1.5333333333333332,652.1739130434784,0.3990443447351547,0.5646524095332444,-0.15372064565002053,1836.6300366300366,-1.0,65.8234289731829,1.5528249373854737,
2023-08-16 13:13:20.872000,-6.0,1.1927710843373494,7.493975903614459,1.4273451870018392,-5.955242182709994,8.161863887185776,2.0,1.5318681318681318,652.7977044476328,-0.12644950760445228,0.4984558009440009,0.22993998018763467,1861.5384615384614,-1.0,65.8234289731829,1.5526173436937798,
2023-08-16 13:13:20.879000,-6.0,1.1927710843373494,7.506024096385542,1.4690374003678723,-5.999386879215205,8.181483752299203,2.0,1.5318681318681318,652.7977044476328,-0.1276149408542624,0.6770001748149878,-0.15348755900005842,1872.5274725274724,-1.0,65.8234289731829,1.552409808560981,
2023-08-16 13:13:20.887000,-6.024096385542169,1.180722891566265,7.506024096385542,1.4396076026977314,-6.016554261189454,8.179031269160024,2.0,1.5333333333333332,652.1739130434784,0.2530155585338854,1.084552182273761,0.1844880834450208,1867.3992673992673,-1.0,65.8234289731829,1.5522023381868404,
2023-08-16 13:13:20.895000,-6.048192771084338,1.216867469879518,7.493975903614459,1.4175352544451256,-6.00674432863274,8.15205395462906,2.0,1.5318681318681318,652.7977044476328,-0.2814521298292633,0.7593963055765988,0.15337101567507716,1847.6190476190475,-1.0,65.8234289731829,1.551994939261584,
2023-08-16 13:13:20.902000,-6.048192771084338,1.2048192771084338,7.46987951807229,1.4445125689760883,-6.0999386879215205,8.115266707541386,2.0,1.5318681318681318,652.7977044476328,0.1339082804032397,0.9877046792144983,0.20068760561738833,1816.8498168498168,-1.0,65.8234289731829,1.5517876185577597,
2023-08-16 13:13:20.910000,-6.060240963855422,1.216867469879518,7.481927710843374,1.4347026364193745,-5.996934396076027,8.073574494175352,2.0,1.5318681318681318,652.7977044476328,0.011887419148067882,1.0611269739525675,0.2953207855020102,1778.021978021978,-1.0,65.8234289731829,1.5515803824175904,
2023-08-16 13:13:20.918000,-6.0361445783132535,1.1927710843373494,7.493975903614459,1.4862047823421214,-6.08522378908645,8.149601471489882,2.0,1.5318681318681318,652.7977044476328,-0.5993823203775996,1.028494842957869,0.49775654099411454,1734.065934065934,-1.0,65.8234289731829,1.5513732372230542,
2023-08-16 13:13:20.925000,-6.060240963855422,1.2048192771084338,7.46987951807229,1.4150827713059473,-6.082771305947271,8.154506437768239,2.0,1.5318681318681318,652.7977044476328,-0.5953033040032634,0.44647747800244714,-0.06468154536448921,1686.4468864468863,-1.0,65.8234289731829,1.5511661894080329,
2023-08-16 13:13:20.933000,-6.072289156626506,1.2048192771084338,7.46987951807229,1.3832004904966277,-6.068056407112201,8.12262415695892,2.0,1.5318681318681318,652.7977044476328,-0.5296894120389258,0.4906473981702692,0.09335120330983052,1636.6300366300366,-1.0,65.8234289731829,1.550959245928497,
2023-08-16 13:13:20.941000,-6.024096385542169,1.180722891566265,7.433734939759036,1.4469650521152666,-6.048436541998774,8.12262415695892,2.0,1.5304029304029303,653.4226902824319,-0.7998368393450271,0.015849892197425,0.2037177320668957,1585.3479853479853,-1.0,65.8234289731829,1.5507524137500908,
2023-08-16 13:13:20.948000,-6.024096385542169,1.1566265060240966,7.46987951807229,1.4224402207234825,-6.011649294911098,8.085836909871244,2.0,1.5318681318681318,652.7977044476328,-0.6429695239205175,0.27212866383077905,0.24998543208437718,1534.065934065934,-1.0,65.8234289731829,1.5505456994055145,
2023-08-16 13:13:20.956000,-5.987951807228916,1.180722891566265,7.481927710843374,1.4469650521152666,-6.011649294911098,8.181483752299203,2.0,1.5289377289377286,654.0488739817921,-0.4560340306508948,0.4794592389720881,0.7814229939980185,1482.7838827838827,-1.0,65.8234289731829,1.5503391098538888,
2023-08-16 13:13:20.964000,-6.0120481927710845,1.144578313253012,7.481927710843374,1.3635806253832004,-6.065603923973022,8.147148988350704,2.0,1.5304029304029303,653.4226902824319,-0.5299224986888874,0.606724549851408,0.8218635277664473,1435.8974358974358,-1.0,65.8234289731829,1.550132652003879,
2023-08-16 13:13:20.971000,-6.024096385542169,1.1686746987951808,7.481927710843374,1.4003678724708768,-6.004291845493562,8.147148988350704,2.0,1.5304029304029303,653.4226902824319,-0.4933278946448336,0.503583707243168,0.9520424217702929,1393.4065934065934,-1.0,65.8234289731829,1.549926332555569,
2023-08-16 13:13:20.979000,-6.0361445783132535,1.180722891566265,7.445783132530121,1.4837522992029428,-6.00674432863274,8.078479460453709,2.0,1.5304029304029303,653.4226902824319,-0.29159139910261694,0.3404230522696811,1.0808227958743664,1356.0439560439559,-1.0,65.8234289731829,1.5497201580504751,
2023-08-16 13:13:20.987000,-6.048192771084338,1.2048192771084338,7.481927710843374,1.4347026364193745,-5.989576946658492,8.120171673819742,2.0,1.5289377289377286,654.0488739817921,-0.5021851873433946,0.2876289260532598,0.8851465532311634,1326.7399267399267,-1.0,65.8234289731829,1.5495141349560584,
2023-08-16 13:13:20.994000,-6.0361445783132535,1.216867469879518,7.457831325301205,1.5058246474555486,-6.055793991416309,8.085836909871244,2.0,1.5289377289377286,654.0488739817921,-0.14929199930073964,0.46722218984907593,1.0446943651302376,1304.0293040293038,-1.0,65.8234289731829,1.5493082696113487,
2023-08-16 13:13:21.002000,-6.0361445783132535,1.2289156626506024,7.46987951807229,1.5303494788473329,-6.031269160024524,8.127529123237277,2.0,1.5289377289377286,654.0488739817921,0.06456500203950837,0.9053085484528872,0.6697744886661615,1287.179487179487,-1.0,65.8234289731829,1.5491025676800212,
2023-08-16 13:13:21.010000,-6.0120481927710845,1.2409638554216869,7.493975903614459,1.5401594114040464,-6.050889025137952,8.15695892090742,2.0,1.5289377289377286,654.0488739817921,-0.2101276149408543,1.0213857001340243,0.4490414311520307,1273.9926739926739,-1.0,65.8234289731829,1.548897034620959,
2023-08-16 13:13:21.017000,-6.048192771084338,1.216867469879518,7.493975903614459,1.513182096873084,-6.036174126302881,8.164316370324954,2.0,1.5289377289377286,654.0488739817921,-0.20744711846628985,1.0154419905599912,0.4464774780024476,1261.5384615384614,-1.0,65.8234289731829,1.5486916757008655,
2023-08-16 13:13:21.025000,-6.048192771084338,1.216867469879518,7.481927710843374,1.5352544451256898,-6.028816676885346,8.144696505211526,2.0,1.5289377289377286,654.0488739817921,-0.2206165141891504,0.9781481265660505,0.41454460695763673,1253.4798534798533,-1.0,65.8234289731829,1.5484864964648908,
2023-08-16 13:13:21.033000,-6.060240963855422,1.216867469879518,7.46987951807229,1.4396076026977314,-6.0778663396689145,8.147148988350704,2.0,1.5289377289377286,654.0488739817921,-0.568498339257619,0.7431967834042312,0.24369209253540028,1248.3516483516482,-1.0,65.8234289731829,1.5482815022246235,
2023-08-16 13:13:21.040000,-6.072289156626506,1.216867469879518,7.481927710843374,1.4126302881667687,-6.087676272225628,8.115266707541386,2.0,1.5289377289377286,654.0488739817921,-0.36536332381562875,0.32538896334712375,0.4544024241011596,1242.4908424908424,-1.0,65.8234289731829,1.548076698108563,
2023-08-16 13:13:21.048000,-6.072289156626506,1.216867469879518,7.46987951807229,1.3881054567749846,-6.065603923973022,8.10790925812385,2.0,1.5289377289377286,654.0488739817921,-0.30231338500087473,0.6423868072956116,0.35976924421653733,1235.164835164835,-1.0,65.8234289731829,1.5478720895014182,
2023-08-16 13:13:21.056000,-6.048192771084338,1.1927710843373494,7.481927710843374,1.4592274678111588,-6.026364193746168,8.144696505211526,2.0,1.5274725274725274,654.6762589928057,-0.5871452712545893,0.2678165608064794,0.036594604044052945,1229.3040293040292,-1.0,65.8234289731829,1.54766768157065,
2023-08-16 13:13:21.063000,-6.072289156626506,1.2048192771084338,7.493975903614459,1.3832004904966277,-6.00674432863274,8.149601471489882,2.0,1.5274725274725274,654.6762589928057,-0.4310937591049472,0.12738185420430073,-0.20709748849134646,1227.8388278388277,-1.0,65.8234289731829,1.5474634787936092,
2023-08-16 13:13:21.071000,-6.024096385542169,1.1927710843373494,7.481927710843374,1.4126302881667687,-6.092581238503985,8.139791538933169,2.0,1.5274725274725274,654.6762589928057,-0.32154303362274916,-0.3323815628459878,-0.3406561389196437,1231.5018315018315,-1.0,65.8234289731829,1.547259484905972,
2023-08-16 13:13:21.079000,-6.024096385542169,1.1686746987951808,7.481927710843374,1.4248927038626609,-6.00674432863274,8.154506437768239,2.0,1.5274725274725274,654.6762589928057,-0.289260532602995,-0.3615173940912542,0.24112813938581668,1236.6300366300366,-1.0,65.8234289731829,1.5470557038335377,
2023-08-16 13:13:21.086000,-6.060240963855422,1.1927710843373494,7.481927710843374,1.3832004904966277,-6.036174126302881,8.142244022072347,2.0,1.5274725274725274,654.6762589928057,-0.08752403706077655,-0.07062525493852402,-0.110716158732009,1243.2234432234432,-1.0,65.8234289731829,1.5468521396416366,
2023-08-16 13:13:21.094000,-6.0361445783132535,1.180722891566265,7.433734939759036,1.466584917228694,-6.026364193746168,8.080931943592887,2.0,1.5260073260073257,655.3048487758042,-0.2549967950585631,0.005244449624148055,-0.07738476778742512,1252.014652014652,-1.0,65.8234289731829,1.54664879606421,
2023-08-16 13:13:21.102000,-6.0361445783132535,1.1927710843373494,7.457831325301205,1.4101778050275904,-5.967504598405886,8.139791538933169,2.0,1.5274725274725274,654.6762589928057,-0.024357554921041684,-0.22492861721344828,0.18378882349513406,1263.7362637362637,-1.0,65.8234289731829,1.546445676033273,
2023-08-16 13:13:21.109000,-6.048192771084338,1.180722891566265,7.445783132530121,1.4420600858369097,-6.019006744328633,8.093194359288779,2.0,1.5260073260073257,655.3048487758042,-0.19217994289377077,-0.056523512615815036,0.030184721170095224,1276.1904761904761,-1.0,65.8234289731829,1.5462427821220863,
2023-08-16 13:13:21.117000,-6.024096385542169,1.180722891566265,7.493975903614459,1.449417535254445,-6.016554261189454,8.15695892090742,2.0,1.5260073260073257,655.3048487758042,-0.08530971388613719,0.11013344210710395,0.058388205815511886,1290.10989010989,-1.0,65.8234289731829,1.5460401170583404,
2023-08-16 13:13:21.125000,-6.0361445783132535,1.1927710843373494,7.493975903614459,1.4641324340895157,-5.99202942979767,8.15205395462906,2.0,1.5260073260073257,655.3048487758042,-0.04090670706835344,-0.198007109142823,0.01095507254821989,1306.227106227106,-1.0,65.8234289731829,1.5458376831506888,
2023-08-16 13:13:21.132000,-6.024096385542169,1.216867469879518,7.46987951807229,1.4420600858369097,-6.050889025137952,8.16922133660331,2.0,1.5260073260073257,655.3048487758042,-0.1636268282734103,-0.0768020511625205,0.13262630382844792,1320.8791208791208,-1.0,65.8234289731829,1.5456354818198592,
2023-08-16 13:13:21.140000,-6.024096385542169,1.1927710843373494,7.457831325301205,1.491109748620478,-6.065603923973022,8.166768853464133,2.0,1.5260073260073257,655.3048487758042,-0.13227667385350453,0.04405337684284123,-0.1576831186993768,1336.263736263736,-1.0,65.8234289731829,1.5454335136898307,
2023-08-16 13:13:21.147000,-6.0361445783132535,1.1927710843373494,7.46987951807229,1.4224402207234825,-6.019006744328633,8.112814224402207,2.0,1.5260073260073257,655.3048487758042,0.06712895518909198,0.2063982285414606,-0.3692092535400033,1353.113553113553,-1.0,65.8234289731829,1.545231779558363,
2023-08-16 13:13:21.155000,-6.024096385542169,1.180722891566265,7.518072289156627,1.4420600858369097,-5.987124463519313,8.112814224402207,2.0,1.5260073260073257,655.3048487758042,-0.20698094516636475,0.12703222422935648,-0.18308956354524772,1365.5677655677655,-1.0,65.8234289731829,1.545030280350959,
2023-08-16 13:13:21.163000,-6.024096385542169,1.1686746987951808,7.518072289156627,1.3979153893316982,-6.072961373390558,8.134886572654812,2.0,1.5260073260073257,655.3048487758042,-0.033914107569489364,0.2924072023774845,-0.1061709690577477,1377.2893772893772,-1.0,65.8234289731829,1.544829016655148,
2023-08-16 13:13:21.170000,-6.024096385542169,1.180722891566265,7.493975903614459,1.4641324340895157,-6.026364193746168,8.0907418761496,2.0,1.5260073260073257,655.3048487758042,-0.10990035545714054,0.22621059378824096,0.06246722218984897,1385.3479853479853,-1.0,65.8234289731829,1.5446279887484298,
2023-08-16 13:13:21.178000,-6.048192771084338,1.180722891566265,7.481927710843374,1.4224402207234825,-6.021459227467811,8.13733905579399,2.0,1.5260073260073257,655.3048487758042,-0.4139618903327313,0.15954781189907408,0.36652875706543925,1389.0109890109889,-1.0,65.8234289731829,1.5444271966274308,
2023-08-16 13:13:21.186000,-6.048192771084338,1.1927710843373494,7.457831325301205,1.4322501532801961,-6.087676272225628,8.100551808706316,2.0,1.5245421245421245,655.9346468044209,-0.1355398869529749,0.5377309014626191,0.30149758172600627,1387.5457875457876,-1.0,65.8234289731829,1.5442266400384326,
2023-08-16 13:13:21.193000,-6.048192771084338,1.1686746987951808,7.481927710843374,1.4322501532801961,-6.033721643163703,8.164316370324954,2.0,1.5260073260073257,655.3048487758042,-0.19660858924305122,0.34718256511858353,0.34135539886952954,1379.4871794871794,-1.0,65.8234289731829,1.544026318016806,
2023-08-16 13:13:21.201000,-6.0361445783132535,1.1566265060240966,7.493975903614459,1.4347026364193745,-6.0778663396689145,8.176578786020846,2.0,1.5245421245421245,655.9346468044209,-0.012936309072897147,0.4481090845521823,0.3808635860381095,1372.161172161172,-1.0,65.8234289731829,1.5438262293413203,
2023-08-16 13:13:21.209000,-6.0361445783132535,1.180722891566265,7.493975903614459,1.4224402207234825,-6.001839362354383,8.147148988350704,2.0,1.5245421245421245,655.9346468044209,-0.07307266476312506,0.10500553580793673,0.5116251966668606,1365.5677655677655,-1.0,65.8234289731829,1.5436263730595787,
2023-08-16 13:13:21.216000,-6.024096385542169,1.1927710843373494,7.445783132530121,1.496014714898835,-6.011649294911098,8.0907418761496,2.0,1.5245421245421245,655.9346468044209,-0.13379173707825887,-0.02214323174640232,0.5075461802925239,1357.5091575091574,-1.0,65.8234289731829,1.5434267479278427,
2023-08-16 13:13:21.224000,-6.0,1.1927710843373494,7.445783132530121,1.5082771305947271,-6.016554261189454,8.125076640098099,2.0,1.5245421245421245,655.9346468044209,-0.27073014393100553,0.35685566109201033,0.48866616164559196,1347.2527472527472,-1.0,65.8234289731829,1.5432273524143043,
2023-08-16 13:13:21.232000,-6.0,1.216867469879518,7.46987951807229,1.4641324340895157,-6.0410790925812385,8.110361741263029,2.0,1.5245421245421245,655.9346468044209,-0.3143173474739234,0.7364372705553289,0.7293281277314839,1339.194139194139,-1.0,65.8234289731829,1.543028184738172,
2023-08-16 13:13:21.239000,-6.0120481927710845,1.216867469879518,7.481927710843374,1.5156345800122624,-6.026364193746168,8.10790925812385,2.0,1.5245421245421245,655.9346468044209,-0.4188567099819351,0.806945982168872,1.0155585338849715,1331.135531135531,-1.0,65.8234289731829,1.5428292433678013,
2023-08-16 13:13:21.247000,-6.0361445783132535,1.2048192771084338,7.46987951807229,1.4567749846719804,-6.043531575720417,8.125076640098099,2.0,1.5245421245421245,655.9346468044209,-0.5371481848377132,0.953207855020103,0.7778101509236056,1319.4139194139193,-1.0,65.8234289731829,1.5426305265370799,
2023-08-16 13:13:21.255000,-6.048192771084338,1.2048192771084338,7.445783132530121,1.4297976701410178,-6.08522378908645,8.0907418761496,2.0,1.523076923076923,656.5656565656566,-0.609638132975934,1.0082163044111654,0.5566109201095502,1311.3553113553112,-1.0,65.8234289731829,1.5424320323250738,
2023-08-16 13:13:21.262000,-6.048192771084338,1.1927710843373494,7.445783132530121,1.4837522992029428,-6.124463519313305,8.10790925812385,2.0,1.523076923076923,656.5656565656566,-0.6658120156168048,1.228949361925295,0.7513548161529046,1302.5641025641025,-1.0,65.8234289731829,1.542233758174596,
2023-08-16 13:13:21.270000,-6.072289156626506,1.1927710843373494,7.46987951807229,1.4935622317596566,-6.063151440833844,8.127529123237277,2.0,1.523076923076923,656.5656565656566,-0.8738418507080006,1.066837596876639,0.7448283899539656,1296.7032967032967,-1.0,65.8234289731829,1.5420357009020154,
2023-08-16 13:13:21.278000,-6.048192771084338,1.1927710843373494,7.46987951807229,1.4101778050275904,-6.065603923973022,8.134886572654812,2.0,1.523076923076923,656.5656565656566,-0.6374919876464078,0.871860614183323,0.6912184604626767,1287.9120879120878,-1.0,65.8234289731829,1.5418378576211875,
2023-08-16 13:13:21.285000,-6.0843373493975905,1.180722891566265,7.445783132530121,1.4837522992029428,-6.08522378908645,8.105456774984672,2.0,1.523076923076923,656.5656565656566,-0.2342520832119343,1.349571703280695,0.4841209719713302,1281.3186813186812,-1.0,65.8234289731829,1.5416402252967862,
2023-08-16 13:13:21.293000,-6.072289156626506,1.180722891566265,7.445783132530121,1.419987737584304,-6.03862660944206,8.098099325567135,2.0,1.523076923076923,656.5656565656566,-0.2291241769127671,1.3388497173824372,0.47666219917254193,1276.1904761904761,-1.0,65.8234289731829,1.541442800790792,
2023-08-16 13:13:21.301000,-6.0843373493975905,1.1686746987951808,7.457831325301205,1.4469650521152666,-6.1440833844267315,8.093194359288779,2.0,1.523076923076923,656.5656565656566,-0.5295728687139449,1.1125225802692154,0.45253773090146276,1270.3296703296703,-1.0,65.8234289731829,1.541245580909541,
2023-08-16 13:13:21.308000,-6.096385542168675,1.180722891566265,7.457831325301205,1.4224402207234825,-6.112201103617412,8.174126302881668,2.0,1.523076923076923,656.5656565656566,-0.43237573567973814,0.5193170561156105,0.2623390245323697,1267.3992673992673,-1.0,65.8234289731829,1.541048562909265,
2023-08-16 13:13:21.316000,-6.072289156626506,1.1686746987951808,7.445783132530121,1.4224402207234825,-6.1293684855916615,8.068669527896995,2.0,1.523076923076923,656.5656565656566,-0.24171085601072173,0.06911019171376967,0.12050579803041836,1268.131868131868,-1.0,65.8234289731829,1.5408517444771737,
2023-08-16 13:13:21.324000,-6.0843373493975905,1.1927710843373494,7.445783132530121,1.4567749846719804,-6.112201103617412,8.110361741263029,2.0,1.5216117216117215,657.1978815599423,0.02249286172134483,-0.11561097838121367,0.4978730843190958,1268.131868131868,-1.0,65.8234289731829,1.5406551232921375,
2023-08-16 13:13:21.331000,-6.096385542168675,1.1927710843373494,7.433734939759036,1.466584917228694,-6.058246474555487,8.105456774984672,2.0,1.5216117216117215,657.1978815599423,-0.05162869296660949,-0.20814637841617661,0.10990035545714141,1269.5970695970695,-1.0,65.8234289731829,1.5404586965854714,
2023-08-16 13:13:21.339000,-6.072289156626506,1.216867469879518,7.457831325301205,1.525444512568976,-6.063151440833844,8.12262415695892,2.0,1.5216117216117215,657.1978815599423,0.5611561097838124,-0.5295728687139449,0.013752112347765607,1273.9926739926739,-1.0,65.8234289731829,1.5402624611223361,
2023-08-16 13:13:21.347000,-6.072289156626506,1.2048192771084338,7.445783132530121,1.4347026364193745,-6.023911710606989,8.068669527896995,2.0,1.5216117216117215,657.1978815599423,0.45358662082629203,-0.5592914165841155,0.010139269273352732,1277.6556776556777,-1.0,65.8234289731829,1.5400664137077857,
2023-08-16 13:13:21.354000,-6.060240963855422,1.2409638554216869,7.445783132530121,1.5229920294297976,-6.082771305947271,8.117719190680564,2.0,1.52014652014652,657.8313253012049,0.6357438377716917,-0.6651127556669199,0.12936309072897842,1284.2490842490843,-1.0,65.8234289731829,1.5398705516923965,
2023-08-16 13:13:21.362000,-6.048192771084338,1.2650602409638554,7.46987951807229,1.4984671980380133,-6.068056407112201,8.12262415695892,2.0,1.52014652014652,657.8313253012049,0.38587494901229585,-0.9685915739176046,0.1086183788823496,1290.10989010989,-1.0,65.8234289731829,1.5396748724596938,
2023-08-16 13:13:21.370000,-6.060240963855422,1.2650602409638554,7.481927710843374,1.5401594114040464,-6.065603923973022,8.10790925812385,2.0,1.5216117216117215,657.1978815599423,0.49029776819532667,-0.857176155235708,-0.10791911893246328,1295.2380952380952,-1.0,65.8234289731829,1.539479372912605,
2023-08-16 13:13:21.377000,-6.0361445783132535,1.2771084337349399,7.481927710843374,1.5450643776824033,-6.080318822808093,8.127529123237277,2.0,1.5216117216117215,657.1978815599423,0.33389662607074216,-0.7762950876988514,-0.369325796864985,1296.7032967032967,-1.0,65.8234289731829,1.5392840504687795,
2023-08-16 13:13:21.385000,-6.0361445783132535,1.2891566265060241,7.481927710843374,1.5450643776824033,-6.060698957694665,8.129981606376456,2.0,1.52014652014652,657.8313253012049,0.16455917487325872,-0.8912068061301782,-0.3834275391876931,1295.970695970696,-1.0,65.8234289731829,1.539088903176037,
2023-08-16 13:13:21.393000,-6.024096385542169,1.2650602409638554,7.457831325301205,1.542611894543225,-5.994481912936848,8.129981606376456,2.0,1.52014652014652,657.8313253012049,0.34636676184371595,-0.6249053085484532,-0.3088398111998137,1295.2380952380952,-1.0,65.8234289731829,1.5388939288091916,
2023-08-16 13:13:21.400000,-6.0,1.2771084337349399,7.46987951807229,1.5695892090741874,-6.00674432863274,8.098099325567135,2.0,1.52014652014652,657.8313253012049,0.10022725948371375,-0.29939980187634685,-0.6142998659751762,1293.7728937728937,-1.0,65.8234289731829,1.5386991248444828,
2023-08-16 13:13:21.408000,-6.0120481927710845,1.2530120481927711,7.457831325301205,1.4763948497854076,-6.009196811771918,8.18638871857756,2.0,1.52014652014652,657.8313253012049,0.13087815395373276,-0.021443971796515564,-0.5042829671930544,1294.5054945054944,-1.0,65.8234289731829,1.5385044889577895,
2023-08-16 13:13:21.416000,-6.0,1.2048192771084338,7.493975903614459,1.4641324340895157,-6.043531575720417,8.129981606376456,2.0,1.5186813186813188,658.465991316932,0.2541809917836955,0.5280578054891906,-0.6553231163685096,1292.3076923076922,-1.0,65.8234289731829,1.5383100190637433,
2023-08-16 13:13:21.423000,-6.0361445783132535,1.216867469879518,7.457831325301205,1.437155119558553,-6.031269160024524,8.117719190680564,2.0,1.5186813186813188,658.465991316932,-0.31175339432433985,0.5098770467921454,-0.4985723442689821,1290.10989010989,-1.0,65.8234289731829,1.5381157133188785,
2023-08-16 13:13:21.431000,-6.0361445783132535,1.1927710843373494,7.481927710843374,1.449417535254445,-5.977314530962599,8.120171673819742,2.0,1.5186813186813188,658.465991316932,-0.37025814346483255,0.79587436629567,-1.031524969407377,1290.8424908424909,-1.0,65.8234289731829,1.5379215700190931,
2023-08-16 13:13:21.439000,-6.024096385542169,1.1566265060240966,7.481927710843374,1.3169834457388105,-6.060698957694665,8.166768853464133,2.0,1.5186813186813188,658.465991316932,-0.10721985898257609,0.7597459355515412,-0.8562438086358605,1295.970695970696,-1.0,65.8234289731829,1.5377275875995102,
2023-08-16 13:13:21.446000,-6.0361445783132535,1.1325301204819278,7.506024096385542,1.3488657265481299,-6.048436541998774,8.100551808706316,2.0,1.5186813186813188,658.465991316932,0.06165141891498225,0.9823436862653694,-0.4998543208437735,1304.0293040293038,-1.0,65.8234289731829,1.537533764667022,
2023-08-16 13:13:21.454000,-6.060240963855422,1.1204819277108435,7.46987951807229,1.3881054567749846,-6.045984058859595,8.132434089515634,2.0,1.5186813186813188,658.465991316932,-0.10384010255812663,1.1427073014393092,-0.5730435289318803,1306.9597069597069,-1.0,65.8234289731829,1.5373401000308358,
2023-08-16 13:13:21.462000,-6.048192771084338,1.1325301204819278,7.481927710843374,1.4297976701410178,-6.072961373390558,8.159411404046597,2.0,1.5186813186813188,658.465991316932,0.09649787308431831,0.933628576423286,-0.6462327370199871,1306.9597069597069,-1.0,65.8234289731829,1.5371465927311798,
2023-08-16 13:13:21.469000,-6.072289156626506,1.1325301204819278,7.457831325301205,1.356223175965665,-6.1146535867565905,8.098099325567135,2.0,1.5186813186813188,658.465991316932,0.37270555328943533,1.0465590583299336,-0.4895985082454404,1306.227106227106,-1.0,65.8234289731829,1.536953242524185,
2023-08-16 13:13:21.477000,-6.072289156626506,1.108433734939759,7.445783132530121,1.3684855916615573,-6.102391171060699,8.098099325567135,2.0,1.5186813186813188,658.465991316932,0.11246430860672414,0.914282384476429,-0.30359536157566563,1306.9597069597069,-1.0,65.8234289731829,1.5367600498401082,
2023-08-16 13:13:21.485000,-6.072289156626506,1.1204819277108435,7.421686746987953,1.3807480073574494,-6.058246474555487,8.112814224402207,2.0,1.5186813186813188,658.465991316932,0.17434881417166806,0.8297884738651594,-0.011770875823087047,1307.6923076923076,-1.0,65.8234289731829,1.536567015319079,
2023-08-16 13:13:21.492000,-6.096385542168675,1.1204819277108435,7.445783132530121,1.3341508277130594,-6.1440833844267315,8.080931943592887,2.0,1.5186813186813188,658.465991316932,0.08181341413670515,0.5479867140609518,0.11129887535691405,1311.3553113553112,-1.0,65.8234289731829,1.536374139837669,
2023-08-16 13:13:21.500000,-6.072289156626506,1.1204819277108435,7.433734939759036,1.390557939914163,-6.05334150827713,8.085836909871244,2.0,1.5172161172161174,659.1018831482376,0.09789639298409182,0.4354058621292468,0.17085251442223648,1316.4835164835165,-1.0,65.8234289731829,1.5361814245338286,
2023-08-16 13:13:21.508000,-6.072289156626506,1.1566265060240966,7.445783132530121,1.3979153893316982,-6.063151440833844,8.098099325567135,2.0,1.5172161172161174,659.1018831482376,0.0973136763591859,0.6448342171202144,0.39717965153545826,1321.6117216117216,-1.0,65.8234289731829,1.535988870337678,
2023-08-16 13:13:21.515000,-6.048192771084338,1.1566265060240966,7.46987951807229,1.4150827713059473,-6.023911710606989,8.080931943592887,2.0,1.5172161172161174,659.1018831482376,0.14334828972670657,-0.04953091311695096,0.3314492162461394,1327.4725274725274,-1.0,65.8234289731829,1.5357964779215214,
2023-08-16 13:13:21.523000,-6.072289156626506,1.1686746987951808,7.445783132530121,1.4347026364193745,-6.0778663396689145,8.098099325567135,2.0,1.5172161172161174,659.1018831482376,0.38925470543674534,0.19241302954373243,0.464192063399569,1333.3333333333333,-1.0,65.8234289731829,1.5356042486311636,
2023-08-16 13:13:21.530000,-6.096385542168675,1.1927710843373494,7.481927710843374,1.3979153893316982,-6.050889025137952,8.125076640098099,2.0,1.5172161172161174,659.1018831482376,0.022959035021269912,-0.130178894003846,0.9809451663655967,1338.4615384615383,-1.0,65.8234289731829,1.5354121844327715,
2023-08-16 13:13:21.538000,-6.096385542168675,1.180722891566265,7.481927710843374,1.496014714898835,-6.080318822808093,8.10790925812385,2.0,1.5172161172161174,659.1018831482376,-0.09859565293397857,-0.15954781189907408,0.9741856535166948,1342.1245421245421,-1.0,65.8234289731829,1.535220287437375,
2023-08-16 13:13:21.546000,-6.072289156626506,1.2048192771084338,7.46987951807229,1.4812998160637645,-6.1293684855916615,8.17167381974249,2.0,1.5172161172161174,659.1018831482376,-0.09789639298409182,0.07307266476312506,0.4187401666569551,1343.5897435897434,-1.0,65.8234289731829,1.5350285599164066,
2023-08-16 13:13:21.553000,-6.048192771084338,1.1927710843373494,7.46987951807229,1.4518700183936235,-6.097486204782342,8.049049662783569,2.0,1.5172161172161174,659.1018831482376,-0.3713070333896618,-0.1715517743721228,0.600314666977449,1342.8571428571427,-1.0,65.8234289731829,1.5348370043158357,
2023-08-16 13:13:21.561000,-6.0120481927710845,1.2289156626506024,7.457831325301205,1.461679950950337,-5.952789699570815,8.15695892090742,2.0,1.5172161172161174,659.1018831482376,0.1386865567274627,0.24206048598566424,0.6857409241885669,1340.6593406593406,-1.0,65.8234289731829,1.5346456232691723,
2023-08-16 13:13:21.569000,-6.0,1.2409638554216869,7.433734939759036,1.4886572654812997,-6.03862660944206,8.063764561618639,2.0,1.5142857142857142,660.377358490566,0.13996853330225537,0.23809801293630886,0.6771167181399685,1334.7985347985348,-1.0,65.8234289731829,1.5344544196095808,
2023-08-16 13:13:21.576000,-6.0120481927710845,1.2409638554216869,7.433734939759036,1.537706928264868,-5.994481912936848,8.036787247087675,2.0,1.5157509157509157,659.7390043499275,-0.16689004137288066,0.4300448691801179,0.7761785443738713,1326.7399267399267,-1.0,65.8234289731829,1.5342633958539107,
2023-08-16 13:13:21.584000,-6.0120481927710845,1.2771084337349399,7.445783132530121,1.567136725935009,-6.03862660944206,8.07602697731453,2.0,1.5157509157509157,659.7390043499275,-0.33226501952100695,1.1437561913641403,0.5545131402598916,1320.8791208791208,-1.0,65.8234289731829,1.5340725544948701,
2023-08-16 13:13:21.592000,-6.0361445783132535,1.2891566265060241,7.457831325301205,1.5180870631514407,-5.982219497240957,8.068669527896995,2.0,1.5157509157509157,659.7390043499275,-0.28203484645416926,1.4375619136413966,0.5637200629333954,1317.216117216117,-1.0,65.8234289731829,1.5338818985004876,
2023-08-16 13:13:21.599000,-6.048192771084338,1.2650602409638554,7.433734939759036,1.4739423666462292,-6.072961373390558,8.07602697731453,2.0,1.5157509157509157,659.7390043499275,-0.5863294679797216,1.975176271779033,0.7393508536798556,1313.5531135531135,-1.0,65.8234289731829,1.533691430864292,
2023-08-16 13:13:21.607000,-6.072289156626506,1.2409638554216869,7.433734939759036,1.4739423666462292,-6.075413856529736,8.117719190680564,2.0,1.5157509157509157,659.7390043499275,-0.3363440358953449,2.2005710622924064,0.6560223763183961,1312.8205128205127,-1.0,65.8234289731829,1.5335011546125719,
2023-08-16 13:13:21.615000,-6.072289156626506,1.216867469879518,7.409638554216868,1.4420600858369097,-6.0778663396689145,8.06131207847946,2.0,1.5142857142857142,660.377358490566,-0.6681428821164268,2.350329234893071,0.12854728745411126,1315.018315018315,-1.0,65.8234289731829,1.5333110728111292,
2023-08-16 13:13:21.622000,-6.0843373493975905,1.180722891566265,7.421686746987953,1.4322501532801961,-6.0705088902513795,8.053954629061925,2.0,1.5142857142857142,660.377358490566,-0.12644950760445228,1.9617737894062126,-0.22725948371307023,1319.4139194139193,-1.0,65.8234289731829,1.5331211880791553,
2023-08-16 13:13:21.630000,-6.0843373493975905,1.180722891566265,7.409638554216868,1.4322501532801961,-6.1293684855916615,8.026977314530962,2.0,1.5142857142857142,660.377358490566,-0.6735038750655556,2.202552298817086,-1.1456208845638367,1322.3443223443223,-1.0,65.8234289731829,1.5329315029815527,
2023-08-16 13:13:21.638000,-6.072289156626506,1.1927710843373494,7.349397590361447,1.356223175965665,-6.1146535867565905,8.017167381974248,2.0,1.5142857142857142,660.377358490566,-0.5743255055066729,1.7864926286346945,-1.322650195210069,1323.076923076923,-1.0,65.8234289731829,1.5327420204209885,
2023-08-16 13:13:21.645000,-6.096385542168675,1.1686746987951808,7.385542168674699,1.419987737584304,-6.227467811158798,8.034334763948497,2.0,1.5142857142857142,660.377358490566,-0.44566167472757956,1.9037352135656416,-1.695821921799429,1322.3443223443223,-1.0,65.8234289731829,1.5325527431510126,
2023-08-16 13:13:21.653000,-6.144578313253012,1.1566265060240966,7.385542168674699,1.39546290619252,-6.153893316983446,8.039239730226853,2.0,1.5142857142857142,660.377358490566,-0.3491638016432612,2.037876580618845,-0.5690810558825244,1320.14652014652,-1.0,65.8234289731829,1.5323636737815487,
2023-08-16 13:13:21.661000,-6.156626506024097,1.1566265060240966,7.385542168674699,1.419987737584304,-6.171060698957694,8.034334763948497,2.0,1.5128205128205128,661.0169491525423,-0.9990093817376603,2.1223704912301145,1.5271837305518325,1317.9487179487178,919.189453125,65.27490039840637,1.532174814784387,
2023-08-16 13:13:21.668000,-6.1807228915662655,1.144578313253012,7.385542168674699,1.4224402207234825,-6.1661557326793375,8.039239730226853,2.0,1.5128205128205128,661.0169491525423,-0.7603286521764472,1.1355981586154644,0.7638249519258784,1317.9487179487178,-1.0,65.27490039840637,1.531986168006324,
2023-08-16 13:13:21.676000,-6.144578313253012,1.1566265060240966,7.373493975903615,1.3979153893316982,-6.212752912323728,8.103004291845494,2.0,1.5142857142857142,660.377358490566,-0.9203426373754446,0.904259658528058,0.08484354058621296,1328.2051282051282,-1.0,65.27490039840637,1.531797734603395,
2023-08-16 13:13:21.684000,-6.168674698795181,1.180722891566265,7.385542168674699,1.4052728387492335,-6.1587982832618025,8.007357449417535,2.0,1.5128205128205128,661.0169491525423,-1.1551774372122832,0.4124468271079769,0.03764349396888286,1346.5201465201465,-1.0,65.27490039840637,1.5316095159931735,
2023-08-16 13:13:21.691000,-6.168674698795181,1.1566265060240966,7.349397590361447,1.3635806253832004,-6.180870631514408,8.04659717964439,2.0,1.5128205128205128,661.0169491525423,-0.6859740108385295,-0.5143056931414258,-0.560806479808869,1372.8937728937728,-1.0,65.27490039840637,1.5314215138945226,
2023-08-16 13:13:21.699000,-6.156626506024097,1.1566265060240966,7.385542168674699,1.4028203556100551,-6.168608215818516,8.019619865113427,2.0,1.5128205128205128,661.0169491525423,-1.1833809218577012,-0.8363149000640984,-0.7106811957345142,1408.7912087912086,-1.0,65.27490039840637,1.531233729739089,
2023-08-16 13:13:21.707000,-6.156626506024097,1.144578313253012,7.36144578313253,1.361128142244022,-6.229920294297976,8.04659717964439,2.0,1.5128205128205128,661.0169491525423,-0.6838762309888692,-0.7739642211992294,-0.9689412038925469,1455.6776556776556,-1.0,65.27490039840637,1.5310461646458646,
2023-08-16 13:13:21.714000,-6.144578313253012,1.1204819277108435,7.385542168674699,1.419987737584304,-6.171060698957694,8.039239730226853,2.0,1.5128205128205128,661.0169491525423,-0.6633646057922038,-1.136880135190257,0.5161703863411223,1512.087912087912,-1.0,65.27490039840637,1.5308588194313482,
2023-08-16 13:13:21.722000,-6.120481927710844,1.1204819277108435,7.409638554216868,1.3243408951563458,-6.14653586756591,8.105456774984672,2.0,1.511355311355311,661.6577799321377,-0.794126216420954,-1.648971505157042,0.4623273701998717,1577.2893772893772,-1.0,65.27490039840637,1.5306716946208072,
2023-08-16 13:13:21.730000,-6.120481927710844,1.1204819277108435,7.373493975903615,1.390557939914163,-6.141630901287553,8.031882280809318,2.0,1.511355311355311,661.6577799321377,-0.3886719888118412,-1.8671406095215894,-0.13658877687780438,1651.2820512820513,-1.0,65.27490039840637,1.5304847904260945,
2023-08-16 13:13:21.737000,-6.096385542168675,1.1686746987951808,7.421686746987953,1.4028203556100551,-6.112201103617412,8.088289393010422,2.0,1.511355311355311,661.6577799321377,-0.2612901346075404,-1.8417341646757186,-0.24404172251034323,1727.4725274725274,-1.0,65.27490039840637,1.5302981066204562,
2023-08-16 13:13:21.745000,-6.096385542168675,1.1566265060240966,7.397590361445784,1.4224402207234825,-6.08522378908645,8.100551808706316,2.0,1.511355311355311,661.6577799321377,-0.6371423576714635,-2.0268049647456445,0.24369209253539986,1799.2673992673992,-1.0,65.27490039840637,1.5301116425185726,
2023-08-16 13:13:21.753000,-6.096385542168675,1.1686746987951808,7.445783132530121,1.3881054567749846,-6.082771305947271,8.132434089515634,2.0,1.511355311355311,661.6577799321377,-0.5520657304352897,-2.424101159606083,0.1322766738535052,1865.9340659340658,-1.0,65.27490039840637,1.5299253969922606,
2023-08-16 13:13:21.760000,-6.1084337349397595,1.180722891566265,7.409638554216868,1.4028203556100551,-6.124463519313305,8.07602697731453,2.0,1.511355311355311,661.6577799321377,-0.2847153429287337,-2.6353942077967494,0.09871219625895919,1921.6117216117216,-1.0,65.27490039840637,1.52973936848727,
2023-08-16 13:13:21.768000,-6.1084337349397595,1.180722891566265,7.433734939759036,1.390557939914163,-6.126916002452483,8.12262415695892,2.0,1.511355311355311,661.6577799321377,-0.1574500320494138,-2.415243866907522,-0.08589243051104267,1961.9047619047617,-1.0,65.27490039840637,1.5295535550414425,
2023-08-16 13:13:21.776000,-6.0843373493975905,1.1927710843373494,7.457831325301205,1.4469650521152666,-6.104843654199877,8.10790925812385,2.0,1.511355311355311,661.6577799321377,-0.03169978439484827,-2.4590641571004017,-0.05256103956645878,1989.0109890109889,-1.0,65.27490039840637,1.529367954304454,
2023-08-16 13:13:21.783000,-6.060240963855422,1.180722891566265,7.46987951807229,1.4739423666462292,-6.048436541998774,8.13733905579399,2.0,1.511355311355311,661.6577799321377,-0.015616805547461593,-2.3512615814929196,0.20849600839111954,2004.3956043956043,-1.0,65.27490039840637,1.5291825640172723,
2023-08-16 13:13:21.791000,-6.0361445783132535,1.180722891566265,7.481927710843374,1.4812998160637645,-6.104843654199877,8.139791538933169,2.0,1.511355311355311,661.6577799321377,-0.2885612726531082,-1.7283375094691442,0.20674785851640354,2005.128205128205,-1.0,65.27490039840637,1.5289973815106563,
2023-08-16 13:13:21.799000,-6.0361445783132535,1.2048192771084338,7.457831325301205,1.4052728387492335,-6.026364193746168,8.12262415695892,2.0,1.511355311355311,661.6577799321377,-0.4866849251209138,-1.294796340539596,0.2819183031291882,1991.9413919413919,-1.0,65.27490039840637,1.5288124037677953,
2023-08-16 13:13:21.806000,-6.024096385542169,1.1927710843373494,7.46987951807229,1.449417535254445,-5.987124463519313,8.110361741263029,2.0,1.511355311355311,661.6577799321377,-0.35883689761668974,-0.8211642678165602,0.23425208321193386,1965.5677655677655,-1.0,65.27490039840637,1.5286276278774231,
2023-08-16 13:13:21.814000,-6.060240963855422,1.1927710843373494,7.506024096385542,1.4567749846719804,-6.0778663396689145,8.144696505211526,2.0,1.511355311355311,661.6577799321377,-0.5222306392401384,-0.4414661150282625,0.6268865450731308,1927.4725274725274,-1.0,65.27490039840637,1.528443050575759,
2023-08-16 13:13:21.822000,-6.0361445783132535,1.180722891566265,7.506024096385542,1.4518700183936235,-6.063151440833844,8.144696505211526,2.0,1.5098901098901099,662.2998544395924,-0.5934386108035665,-0.5703630324573158,0.30138103840102565,1880.5860805860805,-1.0,65.27490039840637,1.5282586682832744,
2023-08-16 13:13:21.829000,-6.060240963855422,1.180722891566265,7.481927710843374,1.4788473329245861,-6.023911710606989,8.103004291845494,2.0,1.5098901098901099,662.2998544395924,-0.7838704038226213,-0.14579569955130758,0.5103432200920692,1830.03663003663,-1.0,65.27490039840637,1.5280744766510568,
2023-08-16 13:13:21.837000,-6.024096385542169,1.180722891566265,7.46987951807229,1.4543225015328018,-6.0410790925812385,8.147148988350704,2.0,1.5098901098901099,662.2998544395924,-0.7894644834217118,0.04533535341763217,0.549618320610687,1775.091575091575,-1.0,65.27490039840637,1.5278904705300893,
2023-08-16 13:13:21.845000,-6.0120481927710845,1.1686746987951808,7.46987951807229,1.385652973635806,-6.03862660944206,8.100551808706316,2.0,1.5098901098901099,662.2998544395924,-0.7789755841734157,0.03904201386865485,0.540178311287221,1717.9487179487178,-1.0,65.27490039840637,1.5277066449253902,
2023-08-16 13:13:21.852000,-6.024096385542169,1.1686746987951808,7.46987951807229,1.4469650521152666,-6.028816676885346,8.134886572654812,2.0,1.5098901098901099,662.2998544395924,-0.9210418973253314,0.07866674436221562,0.9435347590466756,1660.07326007326,-1.0,65.27490039840637,1.5275229945112978,
2023-08-16 13:13:21.860000,-6.0361445783132535,1.1566265060240966,7.457831325301205,1.4248927038626609,-6.028816676885346,8.115266707541386,2.0,1.5098901098901099,662.2998544395924,-0.7884155934968826,0.6844589476137751,0.6144164093001575,1602.9304029304028,-1.0,65.27490039840637,1.5273395137107195,
2023-08-16 13:13:21.868000,-6.048192771084338,1.1566265060240966,7.46987951807229,1.4150827713059473,-6.001839362354383,8.115266707541386,2.0,1.5084249084249084,662.9431762991744,-1.0401491754559753,0.7374861604801581,0.8347998368393449,1548.7179487179485,-1.0,65.27490039840637,1.5271561971645686,
2023-08-16 13:13:21.875000,-6.060240963855422,1.1325301204819278,7.46987951807229,1.3439607602697732,-6.019006744328633,8.12262415695892,2.0,1.506959706959707,663.5877491492465,-1.1330342054658826,1.0223180467338726,1.0080997610861837,1498.9010989010987,-1.0,65.27490039840637,1.5269730387969844,
2023-08-16 13:13:21.883000,-6.060240963855422,1.1325301204819278,7.481927710843374,1.361128142244022,-6.092581238503985,8.103004291845494,2.0,1.5084249084249084,662.9431762991744,-1.061126973952566,1.4876755433832536,1.1218460462677,1459.3406593406592,-1.0,65.27490039840637,1.526790031760543,
2023-08-16 13:13:21.890000,-6.072289156626506,1.108433734939759,7.421686746987953,1.3464132434089515,-6.065603923973022,8.083384426732065,2.0,1.5084249084249084,662.9431762991744,-1.0660217936017713,1.294330167239671,1.0027387681370548,1428.5714285714284,-1.0,65.27490039840637,1.5266071688377958,
2023-08-16 13:13:21.898000,-6.072289156626506,1.108433734939759,7.433734939759036,1.3464132434089515,-6.080318822808093,8.04659717964439,2.0,1.5084249084249084,662.9431762991744,-1.0831536623739872,1.426140667793252,1.2228891090262806,1408.058608058608,-1.0,65.27490039840637,1.5264244430519078,
2023-08-16 13:13:21.906000,-6.096385542168675,1.108433734939759,7.409638554216868,1.3758430410790925,-6.090128755364806,8.100551808706316,2.0,1.5084249084249084,662.9431762991744,-1.2415360410232497,1.4323174640172485,0.8303711904900647,1393.4065934065934,-1.0,65.27490039840637,1.526241847225597,
2023-08-16 13:13:21.913000,-6.1084337349397595,1.072289156626506,7.421686746987953,1.3218884120171672,-6.08522378908645,8.144696505211526,2.0,1.5084249084249084,662.9431762991744,-1.181749315307966,1.5469960957986137,1.235009614824311,1380.2197802197802,-1.0,65.27490039840637,1.526059374068332,
2023-08-16 13:13:21.921000,-6.096385542168675,1.0843373493975905,7.409638554216868,1.3047210300429184,-6.097486204782342,8.142244022072347,2.0,1.5084249084249084,662.9431762991744,-1.1232445661674733,1.4323174640172485,1.133383835440825,1370.6959706959706,-1.0,65.27490039840637,1.5258770166527715,
2023-08-16 13:13:21.929000,-6.1084337349397595,1.0481927710843375,7.433734939759036,1.3096259963212753,-6.080318822808093,8.078479460453709,2.0,1.5084249084249084,662.9431762991744,-1.4972320960316994,1.3945574267233847,1.6446594021327428,1360.4395604395604,-1.0,65.27490039840637,1.525694767978653,
2023-08-16 13:13:21.936000,-6.1325301204819285,1.0602409638554218,7.433734939759036,1.3464132434089515,-6.207847946045371,8.073574494175352,2.0,1.506959706959707,663.5877491492465,-1.4408251267408652,1.1541285472874538,1.7812481790105472,1350.9157509157508,-1.0,65.27490039840637,1.5255126214878345,
2023-08-16 13:13:21.944000,-6.144578313253012,1.0602409638554218,7.409638554216868,1.361128142244022,-6.1735131820968725,8.012262415695892,2.0,1.506959706959707,663.5877491492465,-1.1858283316823022,0.9005302721286642,1.8567682535982748,1341.3919413919414,-1.0,65.27490039840637,1.5253305701042976,
2023-08-16 13:13:21.952000,-6.168674698795181,1.072289156626506,7.409638554216868,1.314530962599632,-6.104843654199877,8.053954629061925,2.0,1.506959706959707,663.5877491492465,-1.7134199638715695,0.660451022667676,1.6575957112056405,1330.4029304029302,-1.0,65.27490039840637,1.525148605799247,
2023-08-16 13:13:21.959000,-6.1325301204819285,1.072289156626506,7.421686746987953,1.3096259963212753,-6.1440833844267315,8.088289393010422,2.0,1.506959706959707,663.5877491492465,-1.6403472991084442,0.7905133733465411,2.0250568148709283,1320.8791208791208,-1.0,65.27490039840637,1.5249667210523417,
2023-08-16 13:13:21.967000,-6.144578313253012,1.0602409638554218,7.409638554216868,1.3096259963212753,-6.139178418148375,8.058859595340282,2.0,1.506959706959707,663.5877491492465,-1.7953499213332553,0.34100576889458706,2.103607015908164,1317.9487179487178,-1.0,65.27490039840637,1.5247849088372574,
2023-08-16 13:13:21.975000,-6.1325301204819285,1.036144578313253,7.433734939759036,1.3194359288779889,-6.102391171060699,8.093194359288779,2.0,1.5054945054945057,664.2335766423357,-2.010721985898258,0.21653749781481246,1.8611968999475559,1318.6813186813185,-1.0,65.27490039840637,1.524603162186128,
2023-08-16 13:13:21.982000,-6.144578313253012,1.0602409638554218,7.409638554216868,1.3218884120171672,-6.141630901287553,8.073574494175352,2.0,1.506959706959707,663.5877491492465,-1.4912883864576663,0.229706893537673,1.6521181749315306,1320.8791208791208,-1.0,65.27490039840637,1.524421473753367,
2023-08-16 13:13:21.990000,-6.1325301204819285,1.072289156626506,7.409638554216868,1.3292458614347025,-6.168608215818516,8.100551808706316,2.0,1.5054945054945057,664.2335766423357,-2.195559699318222,0.3942660684109317,1.812015616805547,1326.007326007326,-1.0,65.27490039840637,1.5242398362920122,
2023-08-16 13:13:21.998000,-6.144578313253012,1.0602409638554218,7.421686746987953,1.3635806253832004,-6.163703249540159,8.058859595340282,2.0,1.5054945054945057,664.2335766423357,-2.4074354641337923,0.06864401841384458,2.1371714935027093,1335.5311355311355,-1.0,65.27490039840637,1.5240582427408131,
2023-08-16 13:13:22.005000,-6.1325301204819285,1.0481927710843375,7.397590361445784,1.30226854690374,-6.14653586756591,8.039239730226853,2.0,1.5054945054945057,664.2335766423357,-1.897325330691685,-0.2989336285764235,2.7205873783579038,1347.985347985348,-1.0,65.27490039840637,1.5238766857482293,
2023-08-16 13:13:22.013000,-6.120481927710844,1.0602409638554218,7.385542168674699,1.2237890864500305,-6.1955855303494785,8.002452483139178,2.0,1.5054945054945057,664.2335766423357,-2.3664122137404577,-0.2939222656022371,2.7165083619835673,1361.1721611721612,-1.0,65.27490039840637,1.5236951586361187,
2023-08-16 13:13:22.021000,-6.1084337349397595,1.072289156626506,7.373493975903615,1.3758430410790925,-6.1293684855916615,8.04659717964439,2.0,1.5054945054945057,664.2335766423357,-2.055241536041024,-0.21164267816560864,2.756482722452071,1377.2893772893772,-1.0,65.27490039840637,1.5235136553792943,
2023-08-16 13:13:22.028000,-6.072289156626506,1.072289156626506,7.409638554216868,1.3218884120171672,-6.095033721643164,8.02942979767014,2.0,1.5040293040293042,664.8806624452021,-2.341705028844472,-0.05360992949128891,3.0860672454985143,1391.9413919413919,-1.0,65.27490039840637,1.523332170162872,
2023-08-16 13:13:22.036000,-6.096385542168675,1.072289156626506,7.409638554216868,1.3071735131820967,-6.124463519313305,8.034334763948497,2.0,1.5040293040293042,664.8806624452021,-2.595419847328244,-0.27865509002971806,3.580677116718139,1406.5934065934066,-1.0,65.27490039840637,1.5231506973958053,
2023-08-16 13:13:22.044000,-6.1325301204819285,1.0963855421686748,7.409638554216868,1.3366033108522377,-6.095033721643164,8.073574494175352,2.0,1.5040293040293042,664.8806624452021,-2.5138395198415022,0.3054600547753625,3.612027271138045,1420.5128205128203,-1.0,65.27490039840637,1.522969231618161,
2023-08-16 13:13:22.051000,-6.1325301204819285,1.0843373493975905,7.421686746987953,1.3366033108522377,-6.124463519313305,8.017167381974248,2.0,1.5040293040293042,664.8806624452021,-2.843424042887943,-0.1256337043295847,3.8888176679680666,1435.8974358974358,-1.0,65.27490039840637,1.5227877675101942,
2023-08-16 13:13:22.059000,-6.1325301204819285,1.072289156626506,7.445783132530121,1.331698344573881,-6.161250766400981,8.04659717964439,2.0,1.5040293040293042,664.8806624452021,-2.986655789289669,-0.24567332906007885,3.7808985490356037,1449.084249084249,-1.0,65.27490039840637,1.5226062994756218,
2023-08-16 13:13:22.067000,-6.120481927710844,1.108433734939759,7.421686746987953,1.361128142244022,-6.1072961373390555,8.098099325567135,2.0,1.5040293040293042,664.8806624452021,-2.8560107219858963,-0.2607074179826345,3.7627177903385576,1459.3406593406592,-1.0,65.27490039840637,1.5224248217473932,
2023-08-16 13:13:22.074000,-6.156626506024097,1.0963855421686748,7.397590361445784,1.3807480073574494,-6.1367259350091965,8.100551808706316,2.0,1.5040293040293042,664.8806624452021,-3.030359536157566,-0.26140667793252126,4.108968008857293,1466.6666666666665,-1.0,65.27490039840637,1.5222433293699635,
2023-08-16 13:13:22.082000,-6.120481927710844,1.0963855421686748,7.445783132530121,1.390557939914163,-6.151440833844267,8.103004291845494,2.0,1.5040293040293042,664.8806624452021,-3.080240079249461,-0.4030068177845118,3.962706136006059,1472.5274725274724,-1.0,65.27490039840637,1.5220618181620922,
2023-08-16 13:13:22.090000,-6.120481927710844,1.0963855421686748,7.457831325301205,1.3366033108522377,-6.141630901287553,8.088289393010422,2.0,1.5040293040293042,664.8806624452021,-3.25144222364664,-0.6506613833692684,4.06596352193928,1476.1904761904761,-1.0,65.27490039840637,1.521880284256998,
2023-08-16 13:13:22.097000,-6.1084337349397595,1.1325301204819278,7.409638554216868,1.3537706928264868,-6.168608215818516,8.080931943592887,2.0,1.5025641025641026,665.5290102389079,-3.2516753102966014,-0.5278247188392289,4.089155643610512,1475.4578754578754,-1.0,65.27490039840637,1.5216987241331812,
2023-08-16 13:13:22.105000,-6.096385542168675,1.1204819277108435,7.445783132530121,1.331698344573881,-6.1367259350091965,8.083384426732065,2.0,1.5025641025641026,665.5290102389079,-3.3292931647339876,-0.8022842491696281,4.28005360992949,1471.7948717948716,-1.0,65.27490039840637,1.5215171341507696,
2023-08-16 13:13:22.113000,-6.096385542168675,1.108433734939759,7.445783132530121,1.3979153893316982,-6.092581238503985,8.110361741263029,2.0,1.5025641025641026,665.5290102389079,-3.558300798321774,-0.9702231804673381,4.11211467863178,1464.4688644688645,-1.0,65.27490039840637,1.5213355105067177,
2023-08-16 13:13:22.120000,-6.096385542168675,1.144578313253012,7.409638554216868,1.4518700183936235,-6.092581238503985,8.083384426732065,2.0,1.5025641025641026,665.5290102389079,-3.558300798321774,-0.9702231804673381,4.11211467863178,1454.212454212454,-1.0,65.27490039840637,1.5211538497130717,
2023-08-16 13:13:22.128000,-6.0843373493975905,1.144578313253012,7.421686746987953,1.3341508277130594,-6.082771305947271,8.068669527896995,2.0,1.5025641025641026,665.5290102389079,-3.6499038517568883,-0.8480857758871855,4.203717732066894,1441.0256410256409,-1.0,65.27490039840637,1.5209721486155374,
2023-08-16 13:13:22.136000,-6.0843373493975905,1.1204819277108435,7.445783132530121,1.3537706928264868,-6.0999386879215205,8.073574494175352,2.0,1.5025641025641026,665.5290102389079,-3.9705145387797893,-0.6648796690169564,4.066313151914223,1429.3040293040292,-1.0,65.27490039840637,1.520790404868319,
