Shimmer_F5D4_Timestamp_FormattedUnix_CAL,Shimmer_F5D4_Accel_LN_X_CAL,Shimmer_F5D4_Accel_LN_Y_CAL,Shimmer_F5D4_Accel_LN_Z_CAL,Shimmer_F5D4_Accel_WR_X_CAL,Shimmer_F5D4_Accel_WR_Y_CAL,Shimmer_F5D4_Accel_WR_Z_CAL,Shimmer_F5D4_GSR_Range_CAL,Shimmer_F5D4_GSR_Skin_Conductance_CAL,Shimmer_F5D4_GSR_Skin_Resistance_CAL,Shimmer_F5D4_Gyro_X_CAL,Shimmer_F5D4_Gyro_Y_CAL,Shimmer_F5D4_Gyro_Z_CAL,Shimmer_F5D4_PPG_A13_CAL,Shimmer_F5D4_PPG_IBI_CAL,Shimmer_F5D4_PPGtoHR_CAL,Shimmer_F5D4_GSR_Skin_Conductance_LPF_CAL,
yyyy/mm/dd hh:mm:ss.000,m/(s^2),m/(s^2),m/(s^2),m/(s^2),m/(s^2),m/(s^2),no_units,uS,kOhms,deg/s,deg/s,deg/s,mV,ms,BPM,uS,
2023-08-11 18:32:40.500000,-1.072289156626506,-1.144578313253012,-9.879518072289157,-1.1134273451870018,-0.5475168608215818,-9.574494175352545,3.0,0.5112665112665112,1955.9270516717327,-0.015616805547461593,0.29508769885204894,0.1364722335528233,1522.3443223443223,-1.0,53.65060306718332,0.511304596563117,
2023-08-11 18:32:40.508000,-1.0963855421686748,-1.1325301204819278,-9.855421686746988,-1.108522378908645,-0.5328019619865113,-9.518087063151441,3.0,0.5112665112665112,1955.9270516717327,0.2759745935551536,0.0816968708117243,0.11794184488083431,1501.098901098901,-1.0,53.65060306718332,0.5113028457975154,
2023-08-11 18:32:40.516000,-1.0963855421686748,-1.1204819277108435,-9.855421686746988,-1.091354996934396,-0.5278969957081545,-9.542611894543224,3.0,0.5108225108225107,1957.627118644068,-0.1086183788823496,-0.183206106870229,0.4197890565817844,1484.9816849816848,-1.0,53.65060306718332,0.511301101763025,
2023-08-11 18:32:40.523000,-1.0843373493975905,-1.1204819277108435,-9.867469879518072,-1.0987124463519313,-0.5205395462906193,-9.503372164316369,3.0,0.5112665112665112,1955.9270516717327,0.3204941436979199,-0.10791911893246285,-0.013402482372822228,1471.062271062271,-1.0,53.65060306718332,0.5112993662206784,
2023-08-11 18:32:40.531000,-1.072289156626506,-1.1204819277108435,-9.855421686746988,-1.1011649294911097,-0.5156345800122624,-9.525444512568976,3.0,0.5112665112665112,1955.9270516717327,-0.2637375444321432,0.10582133908280432,0.3686265369150982,1457.142857142857,-1.0,53.65060306718332,0.5112976409189969,
2023-08-11 18:32:40.539000,-1.0843373493975905,-1.1204819277108435,-9.831325301204819,-1.0962599632127528,-0.5573267933782955,-9.513182096873084,3.0,0.5112665112665112,1955.9270516717327,0.3182798205232788,0.042654856943067726,0.28856127265310866,1446.153846153846,-1.0,53.65060306718332,0.5112959277582119,
2023-08-11 18:32:40.546000,-1.0963855421686748,-1.144578313253012,-9.855421686746988,-1.108522378908645,-0.5941140404659717,-9.493562231759656,3.0,0.5112665112665112,1955.9270516717327,-0.03414719421945104,-0.06491463201445088,0.48377134199638727,1436.6300366300366,-1.0,53.65060306718332,0.5112942287742428,
2023-08-11 18:32:40.554000,-1.108433734939759,-1.144578313253012,-9.867469879518072,-1.1183323114653587,-0.6039239730226854,-9.518087063151441,3.0,0.5112665112665112,1955.9270516717327,0.26921508070625294,0.36233319736612,0.16234485169861892,1430.03663003663,-1.0,53.65060306718332,0.5112925459845987,
2023-08-11 18:32:40.562000,-1.1204819277108435,-1.1325301204819278,-9.867469879518072,-1.1453096259963211,-0.5499693439607602,-9.547516860821581,3.0,0.5108225108225107,1957.627118644068,0.08391119398636367,-0.022609405046325665,-0.08123069751180009,1430.03663003663,-1.0,53.65060306718332,0.511290881244721,
2023-08-11 18:32:40.569000,-1.1204819277108435,-1.1204819277108435,-9.867469879518072,-1.1109748620478233,-0.6210913549969344,-9.510729613733906,3.0,0.5112665112665112,1955.9270516717327,0.34252083211933965,0.2516170386341119,-0.09381737660975473,1435.164835164835,-1.0,53.65060306718332,0.5112892361140846,
2023-08-11 18:32:40.577000,-1.0963855421686748,-1.144578313253012,-9.879518072289157,-1.1820968730839976,-0.6112814224402207,-9.53525444512569,3.0,0.5112665112665112,1955.9270516717327,0.1712021443971803,0.1117650486568374,-0.12260357788007688,1443.956043956044,-1.0,53.65060306718332,0.5112876122653107,
2023-08-11 18:32:40.585000,-1.0843373493975905,-1.144578313253012,-9.867469879518072,-1.0521152667075413,-0.6235438381361128,-9.554874310239116,3.0,0.5112665112665112,1955.9270516717327,0.18367228017015408,0.2780723734048139,-0.16584115144805095,1455.6776556776556,-1.0,53.65060306718332,0.5112860116165361,
2023-08-11 18:32:40.592000,-1.072289156626506,-1.1204819277108435,-9.831325301204819,-1.103617412630288,-0.5671367259350092,-9.503372164316369,3.0,0.5108225108225107,1957.627118644068,0.060136355690227905,0.30639240137521095,0.1875182098945282,1471.7948717948716,-1.0,53.65060306718332,0.5112844360384771,
2023-08-11 18:32:40.600000,-1.0843373493975905,-1.1204819277108435,-9.855421686746988,-1.0962599632127528,-0.5818516247700797,-9.576946658491723,3.0,0.5112665112665112,1955.9270516717327,0.15267175572519084,0.5492686906357445,-0.2265602237631839,1483.5164835164835,-1.0,53.65060306718332,0.5112828872002535,
2023-08-11 18:32:40.608000,-1.072289156626506,-1.144578313253012,-9.879518072289157,-1.079092581238504,-0.559779276517474,-9.574494175352545,3.0,0.5112665112665112,1955.9270516717327,0.3046442515004949,0.026688421420663622,0.15675077209952792,1490.8424908424906,-1.0,53.65060306718332,0.5112813665532114,
2023-08-11 18:32:40.615000,-1.0602409638554218,-1.1325301204819278,-9.855421686746988,-1.0643776824034334,-0.48375229920294294,-9.56713672593501,3.0,0.5112665112665112,1955.9270516717327,0.10220849600839145,0.48563603519608456,-0.25791037818308965,1495.970695970696,-1.0,53.65060306718332,0.5112798756441947,
2023-08-11 18:32:40.623000,-1.036144578313253,-1.144578313253012,-9.867469879518072,-1.1011649294911097,-0.5352544451256898,-9.603923973022685,3.0,0.5112665112665112,1955.9270516717327,-0.03577880076918622,0.20814637841617661,-0.23914690286113854,1499.6336996336995,-1.0,53.65060306718332,0.5112784159607616,
2023-08-11 18:32:40.631000,-1.0481927710843375,-1.1204819277108435,-9.879518072289157,-1.0839975475168608,-0.554874310239117,-9.572041692213366,3.0,0.5108225108225107,1957.627118644068,-0.17481498747159316,-0.3862245789872384,-0.05337684284132637,1497.4358974358972,-1.0,53.65060306718332,0.511276988936424,
2023-08-11 18:32:40.638000,-1.0481927710843375,-1.1325301204819278,-9.879518072289157,-1.0962599632127528,-0.5229920294297976,-9.518087063151441,3.0,0.5108225108225107,1957.627118644068,-0.28121904317930163,-0.21595478118990652,0.08589243051104267,1494.5054945054944,-1.0,53.65060306718332,0.5112755959245111,
2023-08-11 18:32:40.646000,-1.0481927710843375,-1.144578313253012,-9.867469879518072,-1.1134273451870018,-0.5671367259350092,-9.552421827099938,3.0,0.5112665112665112,1955.9270516717327,-0.17201794767204787,0.18192413029543805,0.055707709340947445,1488.6446886446886,-1.0,53.65060306718332,0.5112742380228894,
2023-08-11 18:32:40.654000,-1.0602409638554218,-1.1325301204819278,-9.903614457831326,-1.1183323114653587,-0.5377069282648681,-9.542611894543224,3.0,0.5112665112665112,1955.9270516717327,-0.003496299749432037,-0.32375735679739026,-0.03589534409416706,1479.8534798534797,-1.0,53.65060306718332,0.5112729163563943,
2023-08-11 18:32:40.661000,-1.0602409638554218,-1.108433734939759,-9.879518072289157,-1.103617412630288,-0.5328019619865113,-9.488657265481299,3.0,0.5112665112665112,1955.9270516717327,-0.27842200337975637,-0.48854961832061067,0.10150923605850469,1470.3296703296703,-1.0,53.65060306718332,0.5112716320931057,
2023-08-11 18:32:40.669000,-1.0481927710843375,-1.1204819277108435,-9.867469879518072,-1.1109748620478233,-0.5793991416309012,-9.530349478847333,3.0,0.5112665112665112,1955.9270516717327,-0.19893945574267316,-0.37958160946331854,0.13216013052852413,1457.8754578754579,-1.0,53.65060306718332,0.5112703863017322,
2023-08-11 18:32:40.677000,-1.0843373493975905,-1.144578313253012,-9.891566265060241,-1.0226854690374003,-0.5328019619865113,-9.540159411404046,3.0,0.5112665112665112,1955.9270516717327,-0.10477244915797505,-0.3019637550259305,-0.05116251966668614,1447.6190476190475,-1.0,53.65060306718332,0.5112691799479985,
2023-08-11 18:32:40.684000,-1.108433734939759,-1.1325301204819278,-9.843373493975903,-1.137952176578786,-0.6137339055793991,-9.488657265481299,3.0,0.5112665112665112,1955.9270516717327,0.41361226035778875,-0.5618553697336991,0.1342579103781831,1436.6300366300366,-1.0,53.65060306718332,0.511268013891321,
2023-08-11 18:32:40.692000,-1.108433734939759,-1.144578313253012,-9.867469879518072,-1.150214592274678,-0.6088289393010423,-9.562231759656651,3.0,0.5112665112665112,1955.9270516717327,-0.2010372355923317,-0.1611794184488075,-0.016782238797272996,1423.4432234432234,-1.0,53.65060306718332,0.5112668887430335,
2023-08-11 18:32:40.700000,-1.0963855421686748,-1.144578313253012,-9.843373493975903,-1.1575720416922133,-0.5843041079092581,-9.559779276517473,3.0,0.5112665112665112,1955.9270516717327,-0.09346774663481136,-0.17761202727113842,0.09078725016024691,1405.128205128205,-1.0,53.65060306718332,0.511265805022822,
2023-08-11 18:32:40.707000,-1.108433734939759,-1.144578313253012,-9.855421686746988,-1.0938074800735744,-0.5769466584917229,-9.491109748620477,3.0,0.5112665112665112,1955.9270516717327,0.015733348872444163,-0.22283083736378978,-0.06304993881475446,1386.080586080586,-1.0,53.65060306718332,0.5112647632839868,
2023-08-11 18:32:40.715000,-1.1204819277108435,-1.144578313253012,-9.867469879518072,-1.0962599632127528,-0.6235438381361128,-9.469037400367872,3.0,0.5112665112665112,1955.9270516717327,-0.19777402249286133,-0.05477536274109902,-0.30592622807528713,1366.3003663003662,-1.0,53.65060306718332,0.5112637639623631,
2023-08-11 18:32:40.723000,-1.0963855421686748,-1.1325301204819278,-9.843373493975903,-1.0987124463519313,-0.6112814224402207,-9.508277130594726,3.0,0.5108225108225107,1957.627118644068,0.04673387331740568,0.24998543208437674,-0.04370374686789829,1345.7875457875457,-1.0,53.65060306718332,0.5112628073749169,
2023-08-11 18:32:40.730000,-1.108433734939759,-1.144578313253012,-9.831325301204819,-1.061925199264255,-0.6039239730226854,-9.557326793378294,3.0,0.5108225108225107,1957.627118644068,-0.19742439251791882,0.21712021443971838,0.002214323174640232,1322.3443223443223,-1.0,53.65060306718332,0.5112618935694457,
2023-08-11 18:32:40.738000,-1.0843373493975905,-1.1566265060240966,-9.843373493975903,-1.1109748620478233,-0.5303494788473329,-9.547516860821581,3.0,0.5108225108225107,1957.627118644068,-0.04323757356797364,0.12272012120505858,-0.05768894586562557,1301.8315018315018,-1.0,53.65060306718332,0.5112610223021069,
2023-08-11 18:32:40.746000,-1.0481927710843375,-1.144578313253012,-9.867469879518072,-1.1134273451870018,-0.5671367259350092,-9.584304107909258,3.0,0.5112665112665112,1955.9270516717327,-0.16385991492337196,0.08997144688537932,-0.043936833517860395,1284.2490842490843,-1.0,53.65060306718332,0.5112601931743026,
2023-08-11 18:32:40.753000,-1.072289156626506,-1.144578313253012,-9.855421686746988,-1.1771919068056407,-0.5573267933782955,-9.54996934396076,3.0,0.5108225108225107,1957.627118644068,-0.1942777227434293,0.10325738593322072,0.1409008799021038,1268.131868131868,-1.0,53.65060306718332,0.5112594057803537,
2023-08-11 18:32:40.761000,-1.0602409638554218,-1.1566265060240966,-9.855421686746988,-1.0889025137952175,-0.5965665236051502,-9.589209074187615,3.0,0.5108225108225107,1957.627118644068,-0.17714585397121335,0.2876289260532598,0.14020161995221703,1254.212454212454,-1.0,53.65060306718332,0.5112586595787261,
2023-08-11 18:32:40.769000,-1.0481927710843375,-1.1325301204819278,-9.867469879518072,-1.1453096259963211,-0.5377069282648681,-9.459227467811159,3.0,0.5112665112665112,1955.9270516717327,-0.34252083211933965,0.19136413961890317,-0.012470135772973802,1243.2234432234432,-1.0,53.65060306718332,0.5112579535932598,
2023-08-11 18:32:40.776000,-1.0481927710843375,-1.1325301204819278,-9.867469879518072,-1.1526670754138564,-0.4886572654812998,-9.54996934396076,3.0,0.5108225108225107,1957.627118644068,-0.3415884855194912,0.1927626595186767,-0.012237049123011694,1232.967032967033,-1.0,53.65060306718332,0.5112572868597378,
2023-08-11 18:32:40.784000,-1.0602409638554218,-1.1325301204819278,-9.867469879518072,-1.0987124463519313,-0.5180870631514408,-9.530349478847333,3.0,0.5103785103785103,1959.3301435406702,0.026105704795757703,-0.06712895518909198,-0.07144105821339074,1226.3736263736264,-1.0,53.65060306718332,0.5112566584257786,
2023-08-11 18:32:40.792000,-1.072289156626506,-1.1325301204819278,-9.855421686746988,-1.1894543225015328,-0.5499693439607602,-9.579399141630901,3.0,0.5108225108225107,1957.627118644068,0.14824310937591037,0.19183031291882827,-0.1017423227084668,1224.1758241758241,-1.0,53.65060306718332,0.5112560668935204,
2023-08-11 18:32:40.799000,-1.036144578313253,-1.108433734939759,-9.903614457831326,-1.0668301655426118,-0.5818516247700797,-9.572041692213366,3.0,0.5108225108225107,1957.627118644068,0.46768836314900103,0.3300506963463676,0.21781947438960425,1224.1758241758241,-1.0,53.65060306718332,0.5112555106865105,
2023-08-11 18:32:40.807000,-1.0963855421686748,-1.144578313253012,-9.891566265060241,-1.1109748620478233,-0.5499693439607602,-9.532801961986511,3.0,0.5108225108225107,1957.627118644068,-0.009206922673503438,-0.022609405046325665,0.18530388671988796,1224.9084249084249,-1.0,53.65060306718332,0.511254988209697,
2023-08-11 18:32:40.815000,-1.0843373493975905,-1.1204819277108435,-9.867469879518072,-1.1232372777437154,-0.5671367259350092,-9.496014714898834,3.0,0.5108225108225107,1957.627118644068,0.06677932521414773,-0.14241594312685812,0.03309830429462134,1227.8388278388277,-1.0,53.65060306718332,0.5112544975731379,
2023-08-11 18:32:40.822000,-1.0843373493975905,-1.144578313253012,-9.843373493975903,-1.1600245248313916,-0.5499693439607602,-9.554874310239116,3.0,0.5108225108225107,1957.627118644068,-0.3292348930715,0.10384010255812663,-0.07412155468795519,1230.03663003663,-1.0,53.65060306718332,0.5112540366139492,
2023-08-11 18:32:40.830000,-1.108433734939759,-1.1325301204819278,-9.855421686746988,-1.1158798283261802,-0.5573267933782955,-9.589209074187615,3.0,0.5108225108225107,1957.627118644068,-0.34391935201911317,-0.033681020919527696,0.07959909096206534,1232.2344322344322,-1.0,53.65060306718332,0.5112536030462308,
2023-08-11 18:32:40.838000,-1.108433734939759,-1.144578313253012,-9.867469879518072,-1.0864500306560392,-0.648068669527897,-9.576946658491723,3.0,0.5108225108225107,1957.627118644068,-0.2075636617912707,-0.18611968999475512,0.001981236524678125,1233.6996336996335,-1.0,53.65060306718332,0.5112531946010264,
2023-08-11 18:32:40.845000,-1.0602409638554218,-1.1325301204819278,-9.867469879518072,-1.1232372777437154,-0.6431637032495401,-9.52053954629062,3.0,0.5112665112665112,1955.9270516717327,-0.008041489423693338,-0.28995979255288173,0.06293339548977318,1236.6300366300366,-1.0,53.65060306718332,0.5112528088689856,
2023-08-11 18:32:40.853000,-1.0843373493975905,-1.1325301204819278,-9.855421686746988,-1.1183323114653587,-0.5401594114040466,-9.542611894543224,3.0,0.5108225108225107,1957.627118644068,0.28121904317930163,0.1250509877046788,0.16887127789755835,1241.0256410256409,-1.0,53.65060306718332,0.5112524434631769,
2023-08-11 18:32:40.860000,-1.0963855421686748,-1.1325301204819278,-9.867469879518072,-1.0717351318209687,-0.5303494788473329,-9.510729613733906,3.0,0.5112665112665112,1955.9270516717327,-0.11735912825592969,0.15465299224986853,-0.03146669774488659,1245.4212454212454,-1.0,53.65060306718332,0.511252095884612,
2023-08-11 18:32:40.868000,-1.108433734939759,-1.1325301204819278,-9.855421686746988,-1.0864500306560392,-0.5131820968730839,-9.537706928264868,3.0,0.5112665112665112,1955.9270516717327,0.08064798088689504,-0.0916030534351145,0.07552007458772783,1246.153846153846,-1.0,53.65060306718332,0.5112517633883555,
2023-08-11 18:32:40.876000,-1.0843373493975905,-1.1325301204819278,-9.843373493975903,-1.079092581238504,-0.5450643776824035,-9.554874310239116,3.0,0.5108225108225107,1957.627118644068,0.23297010663714163,0.13717149350271007,-0.16992016782238803,1248.3516483516482,-1.0,53.65060306718332,0.5112514434361405,
2023-08-11 18:32:40.883000,-1.108433734939759,-1.144578313253012,-9.855421686746988,-1.1477621091354997,-0.5941140404659717,-9.481299816063764,3.0,0.5108225108225107,1957.627118644068,0.10966726880717886,-0.18425499679505827,-0.09125342346017112,1249.8168498168498,-1.0,53.65060306718332,0.5112511332554026,
2023-08-11 18:32:40.891000,-1.072289156626506,-1.1566265060240966,-9.819277108433736,-1.0864500306560392,-0.49356223175965663,-9.476394849785407,3.0,0.5108225108225107,1957.627118644068,0.032049414369792514,0.07365538138803097,0.15127323582541818,1250.5494505494505,-1.0,53.65060306718332,0.5112508298355058,
2023-08-11 18:32:40.899000,-1.0602409638554218,-1.144578313253012,-9.855421686746988,-1.103617412630288,-0.5475168608215818,-9.488657265481299,3.0,0.5112665112665112,1955.9270516717327,-0.06025289901520874,0.08530971388613719,0.08903910028553133,1252.014652014652,-1.0,53.65060306718332,0.5112505302012129,
2023-08-11 18:32:40.906000,-1.0963855421686748,-1.1566265060240966,-9.855421686746988,-1.1600245248313916,-0.5695892090741875,-9.574494175352545,3.0,0.5108225108225107,1957.627118644068,-0.013752112347764738,0.6341122312219566,-0.020628168521647974,1251.2820512820513,-1.0,53.65060306718332,0.5112502314203187,
2023-08-11 18:32:40.914000,-1.072289156626506,-1.108433734939759,-9.867469879518072,-1.091354996934396,-0.5475168608215818,-9.606376456161863,3.0,0.5108225108225107,1957.627118644068,-0.04358720354291789,0.09393391993473643,-0.021443971796515564,1250.5494505494505,-1.0,53.65060306718332,0.5112499303454181,
2023-08-11 18:32:40.922000,-1.072289156626506,-1.1325301204819278,-9.843373493975903,-1.0766400980993256,-0.5818516247700797,-9.493562231759656,3.0,0.5108225108225107,1957.627118644068,0.1381038401025585,0.3379756424450784,0.11712604160596715,1247.6190476190475,-1.0,53.65060306718332,0.5112496234835715,
2023-08-11 18:32:40.929000,-1.072289156626506,-1.1204819277108435,-9.891566265060241,-1.0889025137952175,-0.5009196811771919,-9.586756591048436,3.0,0.5112665112665112,1955.9270516717327,-0.08903910028553089,0.09171959676009533,-0.26758347415651773,1247.6190476190475,-1.0,53.65060306718332,0.5112493074304555,
2023-08-11 18:32:40.937000,-1.0843373493975905,-1.1325301204819278,-9.891566265060241,-1.1183323114653587,-0.5229920294297976,-9.552421827099938,3.0,0.5103785103785103,1959.3301435406702,-0.08857292698560755,0.27410990035545674,-0.3426373754443214,1246.8864468864467,-1.0,53.65060306718332,0.5112489790070677,
2023-08-11 18:32:40.945000,-1.072289156626506,-1.1325301204819278,-9.879518072289157,-1.1011649294911097,-0.5524218270999387,-9.542611894543224,3.0,0.5108225108225107,1957.627118644068,0.050812889691743635,-0.06398228541460245,0.10314084260823944,1249.084249084249,-1.0,53.65060306718332,0.5112486348432027,
2023-08-11 18:32:40.952000,-1.0602409638554218,-1.1204819277108435,-9.891566265060241,-1.079092581238504,-0.5573267933782955,-9.547516860821581,3.0,0.5108225108225107,1957.627118644068,0.06701241186411114,-0.06363265543965994,-0.20255229881708517,1251.2820512820513,-1.0,53.65060306718332,0.5112482713555923,
2023-08-11 18:32:40.960000,-1.072289156626506,-1.1204819277108435,-9.879518072289157,-1.1158798283261802,-0.5499693439607602,-9.572041692213366,3.0,0.5108225108225107,1957.627118644068,-0.14789347940096786,0.21117650486568357,-0.1241186411048308,1254.212454212454,-1.0,53.65060306718332,0.5112478850555664,
2023-08-11 18:32:40.968000,-1.0481927710843375,-1.1204819277108435,-9.867469879518072,-1.0545677498467196,-0.5229920294297976,-9.552421827099938,3.0,0.5108225108225107,1957.627118644068,0.036478060719072974,-0.24893654215954747,-0.1517394091253424,1253.4798534798533,-1.0,53.65060306718332,0.5112474724202029,
2023-08-11 18:32:40.975000,-1.072289156626506,-1.1204819277108435,-9.867469879518072,-1.0839975475168608,-0.5622317596566523,-9.623543838136113,3.0,0.5108225108225107,1957.627118644068,-0.024823728220966765,-0.24555678573509626,-0.16537497814812674,1250.5494505494505,-1.0,53.65060306718332,0.5112470299022923,
2023-08-11 18:32:40.983000,-1.072289156626506,-1.1204819277108435,-9.867469879518072,-1.0766400980993256,-0.5843041079092581,-9.530349478847333,3.0,0.5108225108225107,1957.627118644068,-0.1018588660334472,-0.3652467804906479,-0.010488899248295677,1246.8864468864467,-1.0,53.65060306718332,0.5112465539403499,
2023-08-11 18:32:40.991000,-1.072289156626506,-1.1325301204819278,-9.879518072289157,-1.1134273451870018,-0.559779276517474,-9.545064377682403,3.0,0.5108225108225107,1957.627118644068,0.18914981644426382,-0.08717440708583403,-0.05512499271604239,1243.956043956044,-1.0,53.65060306718332,0.5112460409686379,
2023-08-11 18:32:40.998000,-1.0843373493975905,-1.1325301204819278,-9.879518072289157,-1.091354996934396,-0.5843041079092581,-9.545064377682403,3.0,0.5108225108225107,1957.627118644068,-0.04160596701823846,-0.040440533768428356,0.05116251966668614,1241.7582417582416,-1.0,53.65060306718332,0.5112454874271716,
2023-08-11 18:32:41.006000,-1.108433734939759,-1.1325301204819278,-9.855421686746988,-1.1183323114653587,-0.5622317596566523,-9.56713672593501,3.0,0.5108225108225107,1957.627118644068,0.11164850533185655,-0.20628168521647974,0.05034671639181855,1238.8278388278388,-1.0,53.65060306718332,0.5112448897716736,
2023-08-11 18:32:41.014000,-1.0843373493975905,-1.108433734939759,-9.855421686746988,-1.1158798283261802,-0.5646842427958307,-9.542611894543224,3.0,0.5108225108225107,1957.627118644068,-0.10080997610861794,-0.08379465066138284,-0.27189557718081697,1235.164835164835,-1.0,53.65060306718332,0.5112442444834541,
2023-08-11 18:32:41.021000,-1.072289156626506,-1.108433734939759,-9.855421686746988,-1.1060698957694666,-0.5401594114040466,-9.513182096873084,3.0,0.5108225108225107,1957.627118644068,-0.03927510051861826,-0.020977798496590483,-0.2687489074063283,1232.2344322344322,-1.0,53.65060306718332,0.5112435480791847,
2023-08-11 18:32:41.029000,-1.0843373493975905,-1.1566265060240966,-9.819277108433736,-1.120784794604537,-0.5475168608215818,-9.505824647455547,3.0,0.5108225108225107,1957.627118644068,-0.14509643960142257,-0.03414719421945104,-0.034729910844356525,1230.03663003663,-1.0,53.65060306718332,0.5112427971205376,
2023-08-11 18:32:41.037000,-1.072289156626506,-1.144578313253012,-9.855421686746988,-1.137952176578786,-0.5131820968730839,-9.53525444512569,3.0,0.5108225108225107,1957.627118644068,-0.2977681953266134,0.17819474389604262,0.14870928267583458,1228.5714285714284,-1.0,53.65060306718332,0.5112419882236624,
2023-08-11 18:32:41.044000,-1.072289156626506,-1.144578313253012,-9.891566265060241,-1.0594727161250765,-0.5744941753525444,-9.525444512568976,3.0,0.5108225108225107,1957.627118644068,0.010721985898257782,-0.034613367519376124,-0.31035487442456716,1227.8388278388277,-1.0,53.65060306718332,0.5112411180684827,
2023-08-11 18:32:41.052000,-1.0843373493975905,-1.1204819277108435,-9.855421686746988,-1.0962599632127528,-0.5180870631514408,-9.513182096873084,3.0,0.5108225108225107,1957.627118644068,0.009789639298409356,-0.03239904434473502,-0.3080240079249461,1229.3040293040292,-1.0,53.65060306718332,0.5112401834077774,
2023-08-11 18:32:41.060000,-1.0963855421686748,-1.1204819277108435,-9.855421686746988,-1.0226854690374003,-0.5303494788473329,-9.50091968117719,3.0,0.5108225108225107,1957.627118644068,0.055824252665928276,0.13565643027795574,-0.33611094924538193,1230.7692307692307,-1.0,53.65060306718332,0.5112391810760256,
2023-08-11 18:32:41.067000,-1.072289156626506,-1.1325301204819278,-9.879518072289157,-1.0938074800735744,-0.5131820968730839,-9.525444512568976,3.0,0.5108225108225107,1957.627118644068,-0.034380280869412715,-0.10791911893246285,-0.27119631723093063,1232.967032967033,-1.0,53.65060306718332,0.5112381079980016,
2023-08-11 18:32:41.075000,-1.0602409638554218,-1.1204819277108435,-9.855421686746988,-1.079092581238504,-0.5499693439607602,-9.569589209074188,3.0,0.5108225108225107,1957.627118644068,0.25557951168346904,0.289260532602995,-0.20744711846628985,1235.164835164835,-1.0,53.65060306718332,0.5112369610583355,
2023-08-11 18:32:41.083000,-1.0843373493975905,-1.1325301204819278,-9.843373493975903,-1.103617412630288,-0.5156345800122624,-9.505824647455547,3.0,0.5108225108225107,1957.627118644068,0.1778451139211001,0.05605733931588995,-0.14404754967659245,1233.6996336996335,-1.0,53.65060306718332,0.5112357371299086,
2023-08-11 18:32:41.090000,-1.072289156626506,-1.108433734939759,-9.843373493975903,-1.1600245248313916,-0.6063764561618639,-9.508277130594726,3.0,0.5103785103785103,1959.3301435406702,-0.08309539071149782,0.02365829497115493,-0.037760037293863916,1230.03663003663,-1.0,53.65060306718332,0.5112344333682954,
2023-08-11 18:32:41.098000,-1.0602409638554218,-1.1204819277108435,-9.855421686746988,-1.061925199264255,-0.5941140404659717,-9.52053954629062,3.0,0.5103785103785103,1959.3301435406702,0.03927510051861826,-0.17656313734630918,-0.021560515121496402,1221.9780219780218,-1.0,53.65060306718332,0.5112330471871009,
2023-08-11 18:32:41.106000,-1.072289156626506,-1.1325301204819278,-9.891566265060241,-1.1183323114653587,-0.5475168608215818,-9.525444512568976,3.0,0.5108225108225107,1957.627118644068,0.008391119398635847,-0.23821455626128968,0.26723384418157436,1213.9194139194137,-1.0,53.65060306718332,0.5112315759350731,
2023-08-11 18:32:41.113000,-1.0843373493975905,-1.1325301204819278,-9.855421686746988,-1.0717351318209687,-0.5156345800122624,-9.510729613733906,3.0,0.5108225108225107,1957.627118644068,-0.03834275391876983,0.08379465066138284,0.03507954081929947,1206.5934065934066,-1.0,53.65060306718332,0.5112300170618888,
2023-08-11 18:32:41.121000,-1.0963855421686748,-1.1325301204819278,-9.843373493975903,-1.125689760882894,-0.5622317596566523,-9.508277130594726,3.0,0.5108225108225107,1957.627118644068,0.05244449624147708,0.284482256278772,-0.040906707068352574,1201.4652014652013,-1.0,53.65060306718332,0.511228368293915,
2023-08-11 18:32:41.129000,-1.0843373493975905,-1.1204819277108435,-9.843373493975903,-1.1134273451870018,-0.554874310239117,-9.54996934396076,3.0,0.5108225108225107,1957.627118644068,-0.05372647281626975,0.13239321717848537,0.18926635976924422,1200.7326007326008,-1.0,53.65060306718332,0.5112266273624141,
2023-08-11 18:32:41.136000,-1.0843373493975905,-1.1204819277108435,-9.891566265060241,-1.2188841201716738,-0.5622317596566523,-9.56713672593501,3.0,0.5108225108225107,1957.627118644068,0.053027212866383,0.05454227609113734,0.1743488141716685,1202.9304029304028,1072.3876953125,55.949914627205466,0.5112247920292314,
2023-08-11 18:32:41.144000,-1.0843373493975905,-1.144578313253012,-9.855421686746988,-1.1722869405272838,-0.5377069282648681,-9.540159411404046,3.0,0.5108225108225107,1957.627118644068,0.2946215255521239,-0.15954781189907408,0.02389138162111747,1205.128205128205,-1.0,55.949914627205466,0.5112228602397064,
2023-08-11 18:32:41.152000,-1.0843373493975905,-1.144578313253012,-9.867469879518072,-1.1281422440220723,-0.5033721643163703,-9.53525444512569,3.0,0.5108225108225107,1957.627118644068,0.015500262222480757,-0.05127906299166698,0.0090903793485226,1208.058608058608,-1.0,55.949914627205466,0.5112208301260784,
2023-08-11 18:32:41.159000,-1.0602409638554218,-1.1325301204819278,-9.867469879518072,-1.1183323114653587,-0.554874310239117,-9.537706928264868,3.0,0.5108225108225107,1957.627118644068,-0.12283666453003943,0.3019637550259305,0.1174756715809101,1211.7216117216117,-1.0,55.949914627205466,0.5112187001494375,
2023-08-11 18:32:41.167000,-1.072289156626506,-1.144578313253012,-9.879518072289157,-1.0987124463519313,-0.5818516247700797,-9.56468424279583,3.0,0.5108225108225107,1957.627118644068,-0.18367228017015408,0.009556552648447682,0.09987762950876994,1215.3846153846152,-1.0,55.949914627205466,0.5112164690823304,
2023-08-11 18:32:41.175000,-1.0602409638554218,-1.1325301204819278,-9.867469879518072,-1.1281422440220723,-0.6284488044144696,-9.498467198038012,3.0,0.5108225108225107,1957.627118644068,-1.1654332498083647E-4,-0.023774838296135765,-0.13227667385350497,1219.7802197802198,-1.0,55.949914627205466,0.5112141357247894,
2023-08-11 18:32:41.182000,-1.072289156626506,-1.144578313253012,-9.891566265060241,-1.1158798283261802,-0.5450643776824035,-9.59656652360515,3.0,0.5108225108225107,1957.627118644068,-0.21409008799020968,-0.08554280053609885,0.1558184254996795,1223.4432234432234,-1.0,55.949914627205466,0.5112116990671062,
2023-08-11 18:32:41.190000,-1.0843373493975905,-1.1325301204819278,-9.867469879518072,-1.0815450643776823,-0.554874310239117,-9.53525444512569,3.0,0.5108225108225107,1957.627118644068,0.06316648213973486,-0.20581551191655467,0.01724841209719721,1224.1758241758241,-1.0,55.949914627205466,0.511209158420665,
2023-08-11 18:32:41.198000,-1.072289156626506,-1.1325301204819278,-9.855421686746988,-1.1526670754138564,-0.5377069282648681,-9.547516860821581,3.0,0.5108225108225107,1957.627118644068,-0.05594079599090911,-0.08099761086183756,0.07808402773731143,1221.9780219780218,-1.0,55.949914627205466,0.511206513271631,
2023-08-11 18:32:41.205000,-1.0843373493975905,-1.108433734939759,-9.879518072289157,-1.1575720416922133,-0.559779276517474,-9.532801961986511,3.0,0.5108225108225107,1957.627118644068,0.03869238389371234,-0.3232911834974652,0.018530388671989015,1215.3846153846152,-1.0,55.949914627205466,0.5112037632834887,
2023-08-11 18:32:41.213000,-1.072289156626506,-1.144578313253012,-9.855421686746988,-1.120784794604537,-0.5573267933782955,-9.594114040465971,3.0,0.5108225108225107,1957.627118644068,-0.16071324514888416,0.09125342346017198,-0.04253831361808732,1208.7912087912086,-1.0,55.949914627205466,0.5112009081603908,
2023-08-11 18:32:41.221000,-1.0963855421686748,-1.1325301204819278,-9.831325301204819,-1.1453096259963211,-0.5524218270999387,-9.547516860821581,3.0,0.5108225108225107,1957.627118644068,0.24054542276091162,0.04428646349280291,0.06468154536448921,1205.128205128205,-1.0,55.949914627205466,0.5111979478079368,
2023-08-11 18:32:41.228000,-1.0843373493975905,-1.1566265060240966,-9.855421686746988,-1.1943592887798895,-0.5180870631514408,-9.594114040465971,3.0,0.5108225108225107,1957.627118644068,-0.15605151214964202,0.3491638016432612,0.049181283142008016,1204.3956043956043,-1.0,55.949914627205466,0.5111948823232337,
2023-08-11 18:32:41.236000,-1.0602409638554218,-1.1566265060240966,-9.843373493975903,-1.1526670754138564,-0.4763948497854077,-9.554874310239116,3.0,0.5108225108225107,1957.627118644068,-0.015267175572519083,0.3769011129887541,0.14066779325214168,1206.5934065934066,-1.0,55.949914627205466,0.5111917120056748,
2023-08-11 18:32:41.243000,-1.036144578313253,-1.1325301204819278,-9.879518072289157,-1.103617412630288,-0.5818516247700797,-9.576946658491723,3.0,0.5103785103785103,1959.3301435406702,-0.07400501136297348,0.08402773731134625,0.20057106229240704,1209.5238095238094,-1.0,55.949914627205466,0.5111884374850469,
2023-08-11 18:32:41.251000,-1.072289156626506,-1.144578313253012,-9.867469879518072,-1.1134273451870018,-0.542611894543225,-9.574494175352545,3.0,0.5103785103785103,1959.3301435406702,0.23390245323699005,-0.008158032748674174,0.04673387331740568,1210.989010989011,-1.0,55.949914627205466,0.5111850595619288,
2023-08-11 18:32:41.259000,-1.0843373493975905,-1.1686746987951808,-9.843373493975903,-1.1354996934396075,-0.5450643776824035,-9.545064377682403,3.0,0.5108225108225107,1957.627118644068,-0.16397645824835452,-0.08659169046092811,0.18227376027038059,1210.2564102564102,-1.0,55.949914627205466,0.5111815790264748,
2023-08-11 18:32:41.266000,-1.0963855421686748,-1.1325301204819278,-9.843373493975903,-1.0521152667075413,-0.5793991416309012,-9.515634580012263,3.0,0.5108225108225107,1957.627118644068,-0.29916671522638516,-0.09067070683526607,0.15232212575024745,1206.5934065934066,-1.0,55.949914627205466,0.5111779968164918,
2023-08-11 18:32:41.274000,-1.0963855421686748,-1.1325301204819278,-9.831325301204819,-1.103617412630288,-0.554874310239117,-9.52053954629062,3.0,0.5108225108225107,1957.627118644068,-0.28285064972903684,-0.5345842316881296,0.22830837363789994,1202.9304029304028,-1.0,55.949914627205466,0.511174314185427,
2023-08-11 18:32:41.282000,-1.0843373493975905,-1.1325301204819278,-9.867469879518072,-1.1820968730839976,-0.5941140404659717,-9.574494175352545,3.0,0.5108225108225107,1957.627118644068,-0.0680613017889404,-0.19416117941844846,-0.2611735912825592,1200.7326007326008,-1.0,55.949914627205466,0.5111705325615004,
2023-08-11 18:32:41.289000,-1.0843373493975905,-1.144578313253012,-9.891566265060241,-1.1477621091354997,-0.5769466584917229,-9.557326793378294,3.0,0.5108225108225107,1957.627118644068,-0.05279412621642132,-0.10150923605850469,-0.260357788007692,1198.5347985347985,-1.0,55.949914627205466,0.5111666535451672,
2023-08-11 18:32:41.297000,-1.0843373493975905,-1.144578313253012,-9.867469879518072,-1.079092581238504,-0.5695892090741875,-9.52053954629062,3.0,0.5103785103785103,1959.3301435406702,-0.06969290833867559,-0.010721985898257782,-0.23040615348755888,1197.069597069597,-1.0,55.949914627205466,0.5111626789061721,
2023-08-11 18:32:41.305000,-1.0481927710843375,-1.1325301204819278,-9.855421686746988,-1.120784794604537,-0.5180870631514408,-9.540159411404046,3.0,0.5108225108225107,1957.627118644068,0.5892430511042478,0.5384301614125059,0.02645533477070108,1194.8717948717947,-1.0,55.949914627205466,0.5111586102921657,
2023-08-11 18:32:41.312000,-1.0481927710843375,-1.144578313253012,-9.867469879518072,-1.074187614960147,-0.4763948497854077,-9.542611894543224,3.0,0.5103785103785103,1959.3301435406702,0.11246430860672414,0.3954315016607418,0.15849892197424395,1195.6043956043954,-1.0,55.949914627205466,0.5111544495115332,
2023-08-11 18:32:41.320000,-1.0602409638554218,-1.1325301204819278,-9.867469879518072,-1.0962599632127528,-0.5475168608215818,-9.552421827099938,3.0,0.5108225108225107,1957.627118644068,0.1105996154070273,0.19334537614358085,0.1983567391177668,1200.0,-1.0,55.949914627205466,0.5111501986665662,
2023-08-11 18:32:41.328000,-1.0602409638554218,-1.144578313253012,-9.879518072289157,-1.137952176578786,-0.5475168608215818,-9.545064377682403,3.0,0.5108225108225107,1957.627118644068,0.10896800885729212,0.18949944641920632,0.1954431559932407,1203.6630036630036,-1.0,55.949914627205466,0.5111458599884197,
2023-08-11 18:32:41.335000,-1.0843373493975905,-1.144578313253012,-9.867469879518072,-1.0766400980993256,-0.5205395462906193,-9.554874310239116,3.0,0.5108225108225107,1957.627118644068,0.3676941903152489,0.09568206980945246,0.14602878620127013,1207.3260073260074,-1.0,55.949914627205466,0.5111414359913088,
2023-08-11 18:32:41.343000,-1.072289156626506,-1.1325301204819278,-9.879518072289157,-1.108522378908645,-0.542611894543225,-9.589209074187615,3.0,0.5108225108225107,1957.627118644068,-0.0026804964745644456,0.17329992424683882,0.20534933861663088,1214.6520146520145,-1.0,55.949914627205466,0.5111369293285282,
2023-08-11 18:32:41.351000,-1.0481927710843375,-1.1325301204819278,-9.891566265060241,-1.091354996934396,-0.5278969957081545,-9.545064377682403,3.0,0.5103785103785103,1959.3301435406702,0.3779500029135834,0.06724549851407281,-0.02249286172134483,1224.1758241758241,-1.0,55.949914627205466,0.5111323427869483,
2023-08-11 18:32:41.358000,-1.0481927710843375,-1.144578313253012,-9.891566265060241,-1.0839975475168608,-0.5303494788473329,-9.623543838136113,3.0,0.5108225108225107,1957.627118644068,0.14451372297651666,0.0417225103432193,-0.005594079599090998,1241.0256410256409,-1.0,55.949914627205466,0.5111276791319568,
2023-08-11 18:32:41.366000,-1.0602409638554218,-1.108433734939759,-9.879518072289157,-1.0815450643776823,-0.5278969957081545,-9.527896995708154,3.0,0.5108225108225107,1957.627118644068,0.26536915098187663,-0.3041780782005716,-0.30872326787483245,1266.6666666666665,-1.0,55.949914627205466,0.5111229412288845,
2023-08-11 18:32:41.374000,-1.0602409638554218,-1.1204819277108435,-9.879518072289157,-1.0521152667075413,-0.5303494788473329,-9.503372164316369,3.0,0.5108225108225107,1957.627118644068,-0.10174232270846637,-0.6666278188916724,-0.15383718897500137,1302.5641025641025,-1.0,55.949914627205466,0.5111181321957353,
2023-08-11 18:32:41.381000,-1.036144578313253,-1.108433734939759,-9.879518072289157,-1.079092581238504,-0.559779276517474,-9.510729613733906,3.0,0.5108225108225107,1957.627118644068,0.1119981353068008,-0.49321135131985283,-0.044403006817784606,1355.3113553113553,-1.0,55.949914627205466,0.5111132552578576,
2023-08-11 18:32:41.389000,-1.0843373493975905,-1.1204819277108435,-9.867469879518072,-1.1060698957694666,-0.5965665236051502,-9.557326793378294,3.0,0.5108225108225107,1957.627118644068,0.13973544665229368,-0.35219392809276817,-0.12283666453003898,1427.106227106227,-1.0,55.949914627205466,0.5111083137412044,
2023-08-11 18:32:41.397000,-1.1204819277108435,-1.1204819277108435,-9.855421686746988,-1.0594727161250765,-0.5892090741876149,-9.518087063151441,3.0,0.5103785103785103,1959.3301435406702,-0.5625546296835842,0.12190431793019099,-0.13787075345259597,1516.4835164835163,-1.0,55.949914627205466,0.511103311065466,
2023-08-11 18:32:41.404000,-1.144578313253012,-1.1325301204819278,-9.843373493975903,-1.0643776824034334,-0.6137339055793991,-9.540159411404046,3.0,0.5103785103785103,1959.3301435406702,0.02214323174640232,-0.24858691218460496,-0.15325447235009632,1625.6410256410256,-1.0,55.949914627205466,0.5110982507265401,
2023-08-11 18:32:41.412000,-1.1325301204819278,-1.1686746987951808,-9.831325301204819,-1.1722869405272838,-0.6235438381361128,-9.530349478847333,3.0,0.5108225108225107,1957.627118644068,0.02284249169628734,-0.01957927859681871,-0.3676941903152498,1750.9157509157508,-1.0,55.949914627205466,0.511093136108467,
2023-08-11 18:32:41.420000,-1.1325301204819278,-1.1686746987951808,-9.807228915662652,-1.1330472103004292,-0.6063764561618639,-9.554874310239116,3.0,0.5103785103785103,1959.3301435406702,-0.021560515121496402,-0.21956762426431942,-0.24357554921041902,1884.9816849816848,-1.0,55.949914627205466,0.5110879707737906,
2023-08-11 18:32:41.427000,-1.0843373493975905,-1.1566265060240966,-9.843373493975903,-1.1232372777437154,-0.5744941753525444,-9.478847332924586,3.0,0.5108225108225107,1957.627118644068,-0.5888934211293052,-0.09696404638424339,-0.9145154711263911,2021.9780219780218,-1.0,55.949914627205466,0.5110827583170744,
2023-08-11 18:32:41.435000,-1.072289156626506,-1.144578313253012,-9.819277108433736,-1.1183323114653587,-0.5916615573267934,-9.491109748620477,3.0,0.5108225108225107,1957.627118644068,-0.020628168521647974,-0.5576598100343804,-0.6466989103199112,2156.043956043956,-1.0,55.949914627205466,0.5110775022182181,
2023-08-11 18:32:41.443000,-1.036144578313253,-1.1686746987951808,-9.819277108433736,-1.079092581238504,-0.48129981606376454,-9.525444512568976,3.0,0.5108225108225107,1957.627118644068,0.17551424742147817,-0.3883223588368969,-0.44263154827807216,2278.388278388278,-1.0,55.949914627205466,0.5110722061427839,
2023-08-11 18:32:41.450000,-1.0,-1.144578313253012,-9.819277108433736,-1.0962599632127528,-0.5328019619865113,-9.513182096873084,3.0,0.5108225108225107,1957.627118644068,-0.20826292174115743,0.053959559466231426,-0.19521006934327814,2381.6849816849817,-1.0,55.949914627205466,0.5110668737952132,
2023-08-11 18:32:41.458000,-1.0240963855421688,-1.1566265060240966,-9.867469879518072,-1.1011649294911097,-0.4494175352544451,-9.532801961986511,3.0,0.5108225108225107,1957.627118644068,-0.5709457490822217,-0.05547462269098577,-0.17877746052094853,2464.4688644688645,-1.0,55.949914627205466,0.5110615089108895,
2023-08-11 18:32:41.466000,-1.0602409638554218,-1.1204819277108435,-9.855421686746988,-1.1281422440220723,-0.49356223175965663,-9.54996934396076,3.0,0.5108225108225107,1957.627118644068,0.014334828972670657,0.3270205698968589,0.3573218343919354,2526.007326007326,-1.0,55.949914627205466,0.5110561152483234,
2023-08-11 18:32:41.473000,-1.072289156626506,-1.1204819277108435,-9.867469879518072,-1.1109748620478233,-0.5450643776824035,-9.522992029429798,3.0,0.5108225108225107,1957.627118644068,-0.03309830429462177,0.8872443330808228,0.4618611968999475,2562.6373626373625,-1.0,55.949914627205466,0.5110506965814933,
2023-08-11 18:32:41.481000,-1.0843373493975905,-1.1204819277108435,-9.855421686746988,-1.0766400980993256,-0.5646842427958307,-9.522992029429798,3.0,0.5108225108225107,1957.627118644068,0.1827399335703039,0.6524095332439827,0.35149466814288227,2572.8937728937726,-1.0,55.949914627205466,0.511045256692364,
2023-08-11 18:32:41.489000,-1.0843373493975905,-1.1204819277108435,-9.879518072289157,-1.0839975475168608,-0.5916615573267934,-9.56713672593501,3.0,0.5108225108225107,1957.627118644068,-0.07750131111240552,0.39065322533651886,-0.015267175572519083,2556.043956043956,-1.0,55.949914627205466,0.5110397993636131,
2023-08-11 18:32:41.496000,-1.108433734939759,-1.108433734939759,-9.91566265060241,-1.0545677498467196,-0.5278969957081545,-9.608828939301041,3.0,0.5108225108225107,1957.627118644068,-0.3380921857700592,0.02249286172134483,-0.05920400909037948,2516.4835164835163,-1.0,55.949914627205466,0.5110343283715839,
2023-08-11 18:32:41.504000,-1.108433734939759,-1.0963855421686748,-9.879518072289157,-1.1011649294911097,-0.5867565910484365,-9.601471489883506,3.0,0.5108225108225107,1957.627118644068,-0.10663714235767191,-0.18949944641920632,-0.3476487384185069,2458.6080586080584,-1.0,55.949914627205466,0.5110288474794894,
2023-08-11 18:32:41.512000,-1.0963855421686748,-1.1204819277108435,-9.891566265060241,-1.0962599632127528,-0.5401594114040466,-9.584304107909258,3.0,0.5108225108225107,1957.627118644068,-0.014334828972670657,-0.2929899190023887,-0.05372647281626932,2384.6153846153843,-1.0,55.949914627205466,0.5110233604308855,
2023-08-11 18:32:41.519000,-1.0602409638554218,-1.1204819277108435,-9.867469879518072,-1.150214592274678,-0.5180870631514408,-9.594114040465971,3.0,0.5108225108225107,1957.627118644068,0.2016199522172376,-0.22935726356272876,-0.37282209661441656,2301.098901098901,-1.0,55.949914627205466,0.5110178709434313,
2023-08-11 18:32:41.527000,-1.0481927710843375,-1.1325301204819278,-9.891566265060241,-1.1330472103004292,-0.5180870631514408,-9.515634580012263,3.0,0.5108225108225107,1957.627118644068,-0.09078725016024691,-0.3513781248179006,-0.2596585280578057,2213.186813186813,-1.0,55.949914627205466,0.5110123827029537,
2023-08-11 18:32:41.535000,-1.0481927710843375,-1.144578313253012,-9.843373493975903,-1.108522378908645,-0.5107296137339056,-9.537706928264868,3.0,0.5108225108225107,1957.627118644068,-0.026571878095682785,-0.029135831245264657,0.09370083328477347,2123.809523809524,-1.0,55.949914627205466,0.5110068993578237,
2023-08-11 18:32:41.542000,-1.072289156626506,-1.144578313253012,-9.891566265060241,-1.0766400980993256,-0.5401594114040466,-9.527896995708154,3.0,0.5108225108225107,1957.627118644068,0.002214323174639364,0.10908455218227295,-0.1786609171959677,2041.7582417582416,-1.0,55.949914627205466,0.5110014245136615,
2023-08-11 18:32:41.550000,-1.072289156626506,-1.1566265060240966,-9.843373493975903,-1.1404046597179645,-0.5450643776824035,-9.572041692213366,3.0,0.5103785103785103,1959.3301435406702,-0.4380863586038113,-0.3038284482256273,0.22224812073888472,1962.6373626373625,-1.0,55.949914627205466,0.5109959617283749,
2023-08-11 18:32:41.558000,-1.072289156626506,-1.144578313253012,-9.831325301204819,-1.103617412630288,-0.5990190067443286,-9.48620478234212,3.0,0.5103785103785103,1959.3301435406702,0.11467863178136525,-0.5464716508361974,-0.019579278596818277,1888.6446886446886,-1.0,55.949914627205466,0.5109905144969966,
2023-08-11 18:32:41.565000,-1.0843373493975905,-1.1325301204819278,-9.819277108433736,-1.1232372777437154,-0.6161863887185776,-9.53525444512569,3.0,0.5108225108225107,1957.627118644068,-0.28098595652934,-0.3717732066895869,0.2265602237631839,1823.4432234432234,-1.0,55.949914627205466,0.5109850860664041,
2023-08-11 18:32:41.573000,-1.108433734939759,-1.144578313253012,-9.843373493975903,-1.1134273451870018,-0.5573267933782955,-9.510729613733906,3.0,0.5108225108225107,1957.627118644068,-0.12540061767962304,0.04300448691801197,0.10255812598333439,1766.3003663003662,-1.0,55.949914627205466,0.5109796795901351,
2023-08-11 18:32:41.581000,-1.108433734939759,-1.144578313253012,-9.819277108433736,-1.125689760882894,-0.5328019619865113,-9.508277130594726,3.0,0.5103785103785103,1959.3301435406702,4.661732999250815E-4,-0.2150224345900581,-0.09696404638424339,1717.216117216117,-1.0,55.949914627205466,0.5109742982939068,
2023-08-11 18:32:41.588000,-1.0843373493975905,-1.144578313253012,-9.843373493975903,-1.1158798283261802,-0.5499693439607602,-9.481299816063764,3.0,0.5108225108225107,1957.627118644068,-0.07435464133791772,-0.15150632247538073,-0.1883340131693958,1675.4578754578754,-1.0,55.949914627205466,0.510968945183782,
2023-08-11 18:32:41.596000,-1.072289156626506,-1.144578313253012,-9.855421686746988,-1.0839975475168608,-0.572041692213366,-9.552421827099938,3.0,0.5108225108225107,1957.627118644068,0.11106578870695237,0.40137521123477665,-0.08088106753685671,1643.2234432234432,-1.0,55.949914627205466,0.5109636231701553,
2023-08-11 18:32:41.604000,-1.0602409638554218,-1.144578313253012,-9.843373493975903,-1.1158798283261802,-0.554874310239117,-9.508277130594726,3.0,0.5108225108225107,1957.627118644068,0.11094924538197154,0.40067595128488986,-0.07843365771225438,1613.9194139194137,-1.0,55.949914627205466,0.5109583352236252,
2023-08-11 18:32:41.611000,-1.072289156626506,-1.1325301204819278,-9.879518072289157,-1.125689760882894,-0.5278969957081545,-9.552421827099938,3.0,0.5108225108225107,1957.627118644068,0.35580677116718107,0.3102383310995855,0.11934036478060739,1587.5457875457873,-1.0,55.949914627205466,0.5109530842333555,
2023-08-11 18:32:41.619000,-1.072289156626506,-1.144578313253012,-9.891566265060241,-1.0300429184549356,-0.5475168608215818,-9.542611894543224,3.0,0.5108225108225107,1957.627118644068,0.508361983567391,0.5218810092651941,-0.07843365771225438,1563.3699633699632,-1.0,55.949914627205466,0.5109478730045525,
2023-08-11 18:32:41.626000,-1.0963855421686748,-1.144578313253012,-9.891566265060241,-1.0839975475168608,-0.5205395462906193,-9.559779276517473,3.0,0.5108225108225107,1957.627118644068,0.16968708117242592,0.4911135714701943,0.24124468271079794,1539.194139194139,-1.0,55.949914627205466,0.5109427042563028,
2023-08-11 18:32:41.634000,-1.072289156626506,-1.1204819277108435,-9.867469879518072,-1.0349478847332925,-0.5107296137339056,-9.572041692213366,3.0,0.5108225108225107,1957.627118644068,0.168405104597635,0.22947380688771132,0.07004253831361809,1517.216117216117,-1.0,55.949914627205466,0.510937580619776,
2023-08-11 18:32:41.642000,-1.072289156626506,-1.1204819277108435,-9.879518072289157,-1.1624770079705702,-0.6161863887185776,-9.584304107909258,3.0,0.5108225108225107,1957.627118644068,0.4714177495483947,-0.049997086416876044,0.11526134840626986,1498.9010989010987,-1.0,55.949914627205466,0.5109325046367662,
2023-08-11 18:32:41.649000,-1.072289156626506,-1.1204819277108435,-9.867469879518072,-1.0864500306560392,-0.45922746781115875,-9.56713672593501,3.0,0.5108225108225107,1957.627118644068,-0.12947963405395924,-0.036011887419147896,0.17644659402132748,1482.051282051282,-1.0,55.949914627205466,0.5109274787585858,
2023-08-11 18:32:41.657000,-1.072289156626506,-1.1204819277108435,-9.879518072289157,-1.0987124463519313,-0.5229920294297976,-9.547516860821581,3.0,0.5103785103785103,1959.3301435406702,0.03834275391876983,0.16409300157333537,0.17586387739642198,1465.201465201465,-1.0,55.949914627205466,0.5109225053452823,
2023-08-11 18:32:41.665000,-1.0602409638554218,-1.1325301204819278,-9.891566265060241,-1.1281422440220723,-0.5573267933782955,-9.547516860821581,3.0,0.5103785103785103,1959.3301435406702,-0.03810966726880642,0.17563079074646074,-0.2681661907814228,1450.5494505494505,-1.0,55.949914627205466,0.5109175865158824,
2023-08-11 18:32:41.672000,-1.0602409638554218,-1.1204819277108435,-9.891566265060241,-1.1428571428571428,-0.5793991416309012,-9.59656652360515,3.0,0.5103785103785103,1959.3301435406702,0.17399918419672555,0.13996853330225537,0.19299574616863835,1443.2234432234432,-1.0,55.949914627205466,0.5109127241263569,
2023-08-11 18:32:41.680000,-1.072289156626506,-1.144578313253012,-9.867469879518072,-1.1624770079705702,-0.5744941753525444,-9.572041692213366,3.0,0.5103785103785103,1959.3301435406702,-0.2714294038808923,0.05955363906532199,-0.036128430744129164,1438.8278388278388,-1.0,55.949914627205466,0.5109079199068135,
2023-08-11 18:32:41.688000,-1.072289156626506,-1.1325301204819278,-9.891566265060241,-1.150214592274678,-0.5892090741876149,-9.537706928264868,3.0,0.5103785103785103,1959.3301435406702,0.187984383194452,-0.18763475321950945,0.2541809917836955,1438.095238095238,-1.0,55.949914627205466,0.5109031754600282,
2023-08-11 18:32:41.695000,-1.108433734939759,-1.1566265060240966,-9.891566265060241,-1.1281422440220723,-0.5965665236051502,-9.48620478234212,3.0,0.5108225108225107,1957.627118644068,0.08297884738651524,-0.037993123943825584,0.16199522172367598,1440.2930402930401,-1.0,55.949914627205466,0.5108984922600563,
2023-08-11 18:32:41.703000,-1.072289156626506,-1.1566265060240966,-9.831325301204819,-1.1747394236664623,-0.5524218270999387,-9.569589209074188,3.0,0.5099345099345098,1961.036134087941,0.4016082978847383,0.18984907639414883,-0.05279412621642089,1441.0256410256409,-1.0,55.949914627205466,0.5108938718002112,
2023-08-11 18:32:41.711000,-1.072289156626506,-1.1325301204819278,-9.855421686746988,-1.0864500306560392,-0.5082771305947271,-9.559779276517473,3.0,0.5103785103785103,1959.3301435406702,0.09265194335994377,0.07994872093700829,-0.0971971330342055,1446.8864468864467,-1.0,55.949914627205466,0.5108893154538515,
2023-08-11 18:32:41.718000,-1.0602409638554218,-1.144578313253012,-9.819277108433736,-1.0938074800735744,-0.5401594114040466,-9.530349478847333,3.0,0.5103785103785103,1959.3301435406702,0.04638424334246317,-0.10582133908280432,-0.24928617213449084,1453.4798534798533,-1.0,55.949914627205466,0.5108848244212995,
2023-08-11 18:32:41.726000,-1.0602409638554218,-1.1686746987951808,-9.867469879518072,-1.0177805027590434,-0.5229920294297976,-9.537706928264868,3.0,0.5108225108225107,1957.627118644068,0.04463609346774715,0.13857001340248185,-0.06619660858924312,1460.8058608058607,-1.0,55.949914627205466,0.5108803997398415,
2023-08-11 18:32:41.734000,-1.036144578313253,-1.144578313253012,-9.867469879518072,-1.103617412630288,-0.5793991416309012,-9.508277130594726,3.0,0.5108225108225107,1957.627118644068,-0.016316065497348348,0.2154886078899832,-0.035196084144280736,1470.3296703296703,-1.0,55.949914627205466,0.5108760423146821,
2023-08-11 18:32:41.741000,-1.0481927710843375,-1.144578313253012,-9.879518072289157,-1.1109748620478233,-0.5058246474555487,-9.52053954629062,3.0,0.5108225108225107,1957.627118644068,-0.2160713245148891,-0.013752112347764738,-0.03461336751937525,1480.5860805860805,-1.0,55.949914627205466,0.510871753088699,
2023-08-11 18:32:41.749000,-1.0481927710843375,-1.144578313253012,-9.879518072289157,-1.0472103004291844,-0.5303494788473329,-9.569589209074188,3.0,0.5108225108225107,1957.627118644068,-0.07726822446244384,0.06339956878969827,0.19451080939339183,1487.179487179487,-1.0,55.949914627205466,0.510867532904032,
2023-08-11 18:32:41.757000,-1.072289156626506,-1.1566265060240966,-9.867469879518072,-1.125689760882894,-0.5033721643163703,-9.56713672593501,3.0,0.5103785103785103,1959.3301435406702,-0.2305226968125406,-0.11980653808053073,0.07085834158848568,1490.8424908424906,-1.0,55.949914627205466,0.5108633825026696,
2023-08-11 18:32:41.764000,-1.0843373493975905,-1.1325301204819278,-9.843373493975903,-1.137952176578786,-0.5229920294297976,-9.508277130594726,3.0,0.5103785103785103,1959.3301435406702,-0.2912417691276727,0.1259833343045272,0.3006817784511391,1493.040293040293,-1.0,55.949914627205466,0.510859302378004,
2023-08-11 18:32:41.772000,-1.0481927710843375,-1.1204819277108435,-9.855421686746988,-1.079092581238504,-0.5499693439607602,-9.53525444512569,3.0,0.5103785103785103,1959.3301435406702,-0.10710331565759526,-0.2699143406561397,0.177612027271138,1490.10989010989,-1.0,55.949914627205466,0.5108552927540513,
2023-08-11 18:32:41.780000,-1.0481927710843375,-1.108433734939759,-9.843373493975903,-1.0889025137952175,-0.5058246474555487,-9.522992029429798,3.0,0.5103785103785103,1959.3301435406702,0.16595769477303224,-0.12913000407901673,0.3596527008915565,1482.7838827838827,-1.0,55.949914627205466,0.5108513537238706,
2023-08-11 18:32:41.787000,-1.072289156626506,-1.1325301204819278,-9.855421686746988,-1.091354996934396,-0.48375229920294294,-9.552421827099938,3.0,0.5103785103785103,1959.3301435406702,-0.0363615173940904,0.10220849600839145,0.15861546529922477,1470.3296703296703,-1.0,55.949914627205466,0.5108474852492941,
2023-08-11 18:32:41.795000,-1.072289156626506,-1.108433734939759,-9.843373493975903,-1.1281422440220723,-0.5328019619865113,-9.574494175352545,3.0,0.5103785103785103,1959.3301435406702,0.009906182623390191,-0.18926635976924464,-0.22457898723850578,1456.4102564102564,-1.0,55.949914627205466,0.5108436871607372,
2023-08-11 18:32:41.803000,-1.0843373493975905,-1.1204819277108435,-9.855421686746988,-1.0668301655426118,-0.5769466584917229,-9.572041692213366,3.0,0.5103785103785103,1959.3301435406702,0.2552298817085248,-0.18646931996969937,-0.04020744711846625,1439.5604395604394,-1.0,55.949914627205466,0.5108399591570842,
2023-08-11 18:32:41.810000,-1.0963855421686748,-1.1325301204819278,-9.867469879518072,-1.0962599632127528,-0.5818516247700797,-9.530349478847333,3.0,0.5103785103785103,1959.3301435406702,0.25686148825826,-0.21315774139036126,0.08414428063632665,1421.9780219780218,-1.0,55.949914627205466,0.5108363008056693,
2023-08-11 18:32:41.818000,-1.0843373493975905,-1.1325301204819278,-9.867469879518072,-1.1232372777437154,-0.542611894543225,-9.569589209074188,3.0,0.5103785103785103,1959.3301435406702,-0.12679913757939482,0.07831711438727311,-0.006409882873958589,1402.197802197802,-1.0,55.949914627205466,0.5108327115423542,
2023-08-11 18:32:41.826000,-1.0963855421686748,-1.1325301204819278,-9.879518072289157,-1.0938074800735744,-0.5671367259350092,-9.591661557326793,3.0,0.5103785103785103,1959.3301435406702,0.05792203251558681,0.03076743779499984,-0.03636151739409127,1383.150183150183,-1.0,55.949914627205466,0.5108291906717216,
2023-08-11 18:32:41.833000,-1.0843373493975905,-1.144578313253012,-9.867469879518072,-1.0374003678724708,-0.5965665236051502,-9.56713672593501,3.0,0.5103785103785103,1959.3301435406702,0.07027562496357977,0.07703513781248217,-0.14323174640172487,1364.102564102564,-1.0,55.949914627205466,0.510825737367389,
2023-08-11 18:32:41.841000,-1.072289156626506,-1.1325301204819278,-9.855421686746988,-1.0594727161250765,-0.5475168608215818,-9.547516860821581,3.0,0.5103785103785103,1959.3301435406702,-0.009206922673503438,-0.29030942252782427,-0.29392226560223755,1345.7875457875457,-1.0,55.949914627205466,0.5108223506724644,
2023-08-11 18:32:41.849000,-1.0963855421686748,-1.144578313253012,-9.891566265060241,-1.061925199264255,-0.5818516247700797,-9.493562231759656,3.0,0.5103785103785103,1959.3301435406702,-0.13285939047841044,0.015733348872444163,-0.12341938115494447,1328.2051282051282,-1.0,55.949914627205466,0.5108190295001498,
2023-08-11 18:32:41.856000,-1.0963855421686748,-1.1566265060240966,-9.843373493975903,-1.1305947271612506,-0.5916615573267934,-9.562231759656651,3.0,0.5099345099345098,1961.036134087941,-0.08612551716100478,0.13542334362799405,0.07680205116251963,1309.1575091575091,-1.0,55.949914627205466,0.510815772634515,
2023-08-11 18:32:41.864000,-1.0602409638554218,-1.144578313253012,-9.867469879518072,-1.1428571428571428,-0.5892090741876149,-9.53525444512569,3.0,0.5099345099345098,1961.036134087941,-0.3886719888118412,-0.1548860788998302,-0.013752112347765171,1292.3076923076922,-1.0,55.949914627205466,0.5108125787209046,
2023-08-11 18:32:41.872000,-1.0602409638554218,-1.1566265060240966,-9.867469879518072,-1.1354996934396075,-0.5229920294297976,-9.510729613733906,3.0,0.5103785103785103,1959.3301435406702,-0.12703222422935648,-0.24427480916030533,-0.2883281860031466,1274.7252747252746,-1.0,55.949914627205466,0.5108094460860886,
2023-08-11 18:32:41.879000,-1.036144578313253,-1.1566265060240966,-9.879518072289157,-1.1134273451870018,-0.5278969957081545,-9.576946658491723,3.0,0.5103785103785103,1959.3301435406702,-0.12540061767962304,-0.24322591923547607,-0.2851815162286579,1256.4102564102564,-1.0,55.949914627205466,0.5108063728983666,
2023-08-11 18:32:41.887000,-1.036144578313253,-1.1566265060240966,-9.855421686746988,-1.0864500306560392,-0.5916615573267934,-9.56713672593501,3.0,0.5103785103785103,1959.3301435406702,-0.19893945574267316,-0.011421245848144537,0.03671114736903465,1240.2930402930401,-1.0,55.949914627205466,0.5108033573382637,
2023-08-11 18:32:41.895000,-1.0602409638554218,-1.144578313253012,-9.879518072289157,-1.1158798283261802,-0.5892090741876149,-9.476394849785407,3.0,0.5103785103785103,1959.3301435406702,0.06304993881475403,-0.10442281918303081,0.0971971330342055,1227.106227106227,-1.0,55.949914627205466,0.5108003973223151,
2023-08-11 18:32:41.902000,-1.0481927710843375,-1.1204819277108435,-9.843373493975903,-1.0962599632127528,-0.4984671980380135,-9.542611894543224,3.0,0.5103785103785103,1959.3301435406702,-0.05920400909037948,0.18693549326962272,0.0980129363090731,1219.047619047619,-1.0,55.949914627205466,0.5107974905250121,
2023-08-11 18:32:41.910000,-1.072289156626506,-1.1325301204819278,-9.867469879518072,-1.074187614960147,-0.5867565910484365,-9.545064377682403,3.0,0.5103785103785103,1959.3301435406702,-0.24229357263562765,0.0181807586970452,-0.023774838296136636,1214.6520146520145,-1.0,55.949914627205466,0.5107946345286686,
2023-08-11 18:32:41.918000,-1.0481927710843375,-1.144578313253012,-9.879518072289157,-1.0275904353157572,-0.5818516247700797,-9.594114040465971,3.0,0.5103785103785103,1959.3301435406702,-0.11829147485577812,-0.022959035021269912,-0.008041489423693338,1211.7216117216117,-1.0,55.949914627205466,0.5107918269632674,
2023-08-11 18:32:41.925000,-1.072289156626506,-1.1325301204819278,-9.867469879518072,-1.061925199264255,-0.48375229920294294,-9.53525444512569,3.0,0.5103785103785103,1959.3301435406702,-0.025989161470776866,-0.0067595128489024,0.25185012528407447,1207.3260073260074,-1.0,55.949914627205466,0.510789065348975,
2023-08-11 18:32:41.933000,-1.072289156626506,-1.1204819277108435,-9.879518072289157,-1.125689760882894,-0.5328019619865113,-9.599019006744328,3.0,0.5103785103785103,1959.3301435406702,-0.10092651943359877,-0.01934619194685704,-0.06934327836373178,1202.9304029304028,-1.0,55.949914627205466,0.5107863471094781,
2023-08-11 18:32:41.941000,-1.072289156626506,-1.1325301204819278,-9.891566265060241,-1.1183323114653587,-0.5646842427958307,-9.56713672593501,3.0,0.5103785103785103,1959.3301435406702,-0.13122778392867526,-0.15581842549968036,0.14334828972670569,1199.2673992673992,-1.0,55.949914627205466,0.5107836697034834,
2023-08-11 18:32:41.948000,-1.0963855421686748,-1.1325301204819278,-9.879518072289157,-1.091354996934396,-0.6137339055793991,-9.545064377682403,3.0,0.5103785103785103,1959.3301435406702,-0.008624206048599255,-0.18297302022026732,-0.3484645416933745,1197.069597069597,-1.0,55.949914627205466,0.5107810304798867,
2023-08-11 18:32:41.956000,-1.108433734939759,-1.108433734939759,-9.867469879518072,-1.1134273451870018,-0.5867565910484365,-9.515634580012263,3.0,0.5103785103785103,1959.3301435406702,-0.05384301614125059,-0.25826000815803346,-0.11561097838121324,1198.5347985347985,-1.0,55.949914627205466,0.5107784266826326,
2023-08-11 18:32:41.964000,-1.0843373493975905,-1.1204819277108435,-9.855421686746988,-1.1183323114653587,-0.48129981606376454,-9.515634580012263,3.0,0.5103785103785103,1959.3301435406702,0.17621350737136493,-0.27189557718081736,0.09789639298409182,1200.7326007326008,-1.0,55.949914627205466,0.5107758554559733,
2023-08-11 18:32:41.971000,-1.0843373493975905,-1.1325301204819278,-9.867469879518072,-1.1183323114653587,-0.5818516247700797,-9.525444512568976,3.0,0.5103785103785103,1959.3301435406702,0.2044169920167829,0.0067595128489024,0.09661441640930002,1204.3956043956043,-1.0,55.949914627205466,0.5107733138501267,
2023-08-11 18:32:41.979000,-1.072289156626506,-1.1325301204819278,-9.867469879518072,-1.155119558553035,-0.5573267933782955,-9.503372164316369,3.0,0.5103785103785103,1959.3301435406702,-0.01048889924829611,-0.43773672862886703,0.2783054600547755,1206.5934065934066,-1.0,55.949914627205466,0.5107707988273319,
2023-08-11 18:32:41.987000,-1.0843373493975905,-1.144578313253012,-9.879518072289157,-1.108522378908645,-0.6210913549969344,-9.513182096873084,3.0,0.5103785103785103,1959.3301435406702,0.03531262746926114,0.06771167181399616,-0.06060252899015212,1208.058608058608,-1.0,55.949914627205466,0.5107683072683052,
2023-08-11 18:32:41.994000,-1.0963855421686748,-1.1325301204819278,-9.843373493975903,-1.1428571428571428,-0.5033721643163703,-9.542611894543224,3.0,0.5103785103785103,1959.3301435406702,0.1412505098770463,-0.2407785094108733,-0.0599032690402658,1208.058608058608,-1.0,55.949914627205466,0.510765835979091,
2023-08-11 18:32:42.002000,-1.0843373493975905,-1.144578313253012,-9.855421686746988,-1.0889025137952175,-0.5524218270999387,-9.527896995708154,3.0,0.5103785103785103,1959.3301435406702,0.14171668317697136,0.17271720762193288,0.5358662082629219,1208.058608058608,-1.0,55.949914627205466,0.5107633816982947,
2023-08-11 18:32:42.009000,-1.0843373493975905,-1.144578313253012,-9.843373493975903,-1.0938074800735744,-0.5573267933782955,-9.537706928264868,3.0,0.5099345099345098,1961.036134087941,-0.027504224695531213,0.11013344210710395,-0.09346774663481136,1208.058608058608,-1.0,55.949914627205466,0.5107609411047012,
2023-08-11 18:32:42.017000,-1.0602409638554218,-1.144578313253012,-9.855421686746988,-1.1428571428571428,-0.542611894543225,-9.527896995708154,3.0,0.5103785103785103,1959.3301435406702,0.15686731542450963,0.18413845347007743,-0.03100052444496238,1208.7912087912086,-1.0,55.949914627205466,0.5107585108147111,
2023-08-11 18:32:42.025000,-1.0602409638554218,-1.1566265060240966,-9.867469879518072,-1.1526670754138564,-0.5107296137339056,-9.552421827099938,3.0,0.5103785103785103,1959.3301435406702,0.01759804207214102,0.10582133908280432,0.3644309772157799,1207.3260073260074,-1.0,55.949914627205466,0.5107560873589702,
2023-08-11 18:32:42.032000,-1.0843373493975905,-1.1566265060240966,-9.843373493975903,-1.1943592887798895,-0.5573267933782955,-9.584304107909258,3.0,0.5103785103785103,1959.3301435406702,0.20045451896742578,-0.23098887011246394,0.1308781539537323,1205.8608058608058,-1.0,55.949914627205466,0.5107536672223701,
2023-08-11 18:32:42.040000,-1.072289156626506,-1.144578313253012,-9.831325301204819,-1.1600245248313916,-0.5278969957081545,-9.537706928264868,3.0,0.5103785103785103,1959.3301435406702,0.09102033681020859,-0.0768020511625205,-0.08391119398636454,1203.6630036630036,-1.0,55.949914627205466,0.5107512468632114,
2023-08-11 18:32:42.048000,-1.0602409638554218,-1.144578313253012,-9.879518072289157,-1.091354996934396,-0.542611894543225,-9.576946658491723,3.0,0.5103785103785103,1959.3301435406702,0.04230522696812521,0.0015150632247543454,-0.036128430744129164,1204.3956043956043,-1.0,55.949914627205466,0.5107488227221327,
2023-08-11 18:32:42.055000,-1.0602409638554218,-1.1325301204819278,-9.855421686746988,-1.0962599632127528,-0.5229920294297976,-9.540159411404046,3.0,0.5103785103785103,1959.3301435406702,-0.03426373754443188,-0.30406153487559073,0.023075578346250313,1202.9304029304028,-1.0,55.949914627205466,0.5107463913700788,
2023-08-11 18:32:42.063000,-1.072289156626506,-1.144578313253012,-9.867469879518072,-1.103617412630288,-0.5229920294297976,-9.56468424279583,3.0,0.5103785103785103,1959.3301435406702,0.011887419148067882,-0.14929199930073964,-0.1471942194510811,1203.6630036630036,-1.0,55.949914627205466,0.5107439493586671,
2023-08-11 18:32:42.071000,-1.0963855421686748,-1.1325301204819278,-9.855421686746988,-1.1183323114653587,-0.5475168608215818,-9.56713672593501,3.0,0.5103785103785103,1959.3301435406702,0.11910727813064571,0.08192995746168598,-0.11794184488083431,1205.128205128205,-1.0,55.949914627205466,0.5107414931023186,
2023-08-11 18:32:42.078000,-1.072289156626506,-1.1325301204819278,-9.867469879518072,-1.1158798283261802,-0.554874310239117,-9.552421827099938,3.0,0.5103785103785103,1959.3301435406702,0.2858807761785438,0.09579861313443329,0.07948254763708408,1203.6630036630036,-1.0,55.949914627205466,0.5107390190373227,
2023-08-11 18:32:42.086000,-1.072289156626506,-1.1204819277108435,-9.879518072289157,-1.1526670754138564,-0.5278969957081545,-9.56468424279583,3.0,0.5103785103785103,1959.3301435406702,-0.18763475321950945,-0.16222830837363852,-0.10582133908280389,1200.7326007326008,-1.0,55.949914627205466,0.5107365236318059,
2023-08-11 18:32:42.094000,-1.0843373493975905,-1.1325301204819278,-9.891566265060241,-1.0104230533415082,-0.5475168608215818,-9.608828939301041,3.0,0.5103785103785103,1959.3301435406702,0.08997144688537932,-0.3284190897966324,-0.06025289901520874,1197.069597069597,-1.0,55.949914627205466,0.5107340033958733,
2023-08-11 18:32:42.101000,-1.0843373493975905,-1.1325301204819278,-9.855421686746988,-1.1305947271612506,-0.5352544451256898,-9.545064377682403,3.0,0.5103785103785103,1959.3301435406702,0.1650253481731838,-0.035545714119224546,0.07738476778742512,1196.3369963369962,-1.0,55.949914627205466,0.5107314550306402,
2023-08-11 18:32:42.109000,-1.072289156626506,-1.1204819277108435,-9.867469879518072,-1.1600245248313916,-0.5499693439607602,-9.552421827099938,3.0,0.5103785103785103,1959.3301435406702,0.011421245848144537,-0.06701241186411114,0.22935726356272962,1194.8717948717947,-1.0,55.949914627205466,0.5107288752794981,
2023-08-11 18:32:42.117000,-1.0602409638554218,-1.1204819277108435,-9.867469879518072,-1.103617412630288,-0.5278969957081545,-9.616186388718576,3.0,0.5103785103785103,1959.3301435406702,-0.09544898315948905,-0.25138395198415026,0.45871452712545885,1191.9413919413919,-1.0,55.949914627205466,0.5107262608109711,
2023-08-11 18:32:42.124000,-1.0843373493975905,-1.1325301204819278,-9.879518072289157,-1.179644389944819,-0.5818516247700797,-9.510729613733906,3.0,0.5103785103785103,1959.3301435406702,0.011887419148067882,-0.09603169978439496,0.028086941320435828,1191.2087912087911,-1.0,55.949914627205466,0.5107236083783278,
2023-08-11 18:32:42.132000,-1.0602409638554218,-1.1204819277108435,-9.879518072289157,-1.1109748620478233,-0.5916615573267934,-9.572041692213366,3.0,0.5103785103785103,1959.3301435406702,0.027504224695531213,-0.01666569547229259,0.16502534817318337,1193.4065934065934,-1.0,55.949914627205466,0.5107209149686535,
2023-08-11 18:32:42.140000,-1.0602409638554218,-1.1204819277108435,-9.879518072289157,-1.0962599632127528,-0.5573267933782955,-9.586756591048436,3.0,0.5103785103785103,1959.3301435406702,-0.18681894994464188,0.12202086125517184,-0.4148942369325797,1196.3369963369962,-1.0,55.949914627205466,0.5107181776540156,
2023-08-11 18:32:42.147000,-1.0963855421686748,-1.1325301204819278,-9.831325301204819,-1.1158798283261802,-0.5278969957081545,-9.537706928264868,3.0,0.5103785103785103,1959.3301435406702,0.12038925470543665,-0.351611211467864,-0.08973836023541765,1202.9304029304028,-1.0,55.949914627205466,0.5107153934740807,
2023-08-11 18:32:42.155000,-1.0602409638554218,-1.1204819277108435,-9.867469879518072,-1.1894543225015328,-0.5769466584917229,-9.493562231759656,3.0,0.5103785103785103,1959.3301435406702,0.12178777460521016,-0.3499796049181288,-0.08880601363556921,1208.7912087912086,-1.0,55.949914627205466,0.5107125595953322,
2023-08-11 18:32:42.163000,-1.0481927710843375,-1.1325301204819278,-9.867469879518072,-1.1281422440220723,-0.554874310239117,-9.547516860821581,3.0,0.5099345099345098,1961.036134087941,0.36536332381562875,-0.08799021036070162,0.18681894994464188,1213.9194139194137,-1.0,55.949914627205466,0.5107096733208549,
2023-08-11 18:32:42.170000,-1.0602409638554218,-1.144578313253012,-9.855421686746988,-1.1330472103004292,-0.6088289393010423,-9.522992029429798,3.0,0.5103785103785103,1959.3301435406702,0.3312161295961777,-0.28331682302896016,-0.2105937882407785,1214.6520146520145,-1.0,55.949914627205466,0.5107067320893933,
2023-08-11 18:32:42.178000,-1.072289156626506,-1.1566265060240966,-9.879518072289157,-1.1330472103004292,-0.572041692213366,-9.576946658491723,3.0,0.5103785103785103,1959.3301435406702,0.12889691742905507,-0.3419381154944355,0.17353301089680093,1214.6520146520145,-1.0,55.949914627205466,0.5107037335917683,
2023-08-11 18:32:42.186000,-1.0602409638554218,-1.144578313253012,-9.867469879518072,-1.0839975475168608,-0.5622317596566523,-9.586756591048436,3.0,0.5103785103785103,1959.3301435406702,0.15849892197424306,0.11875764815570147,-0.0271545947205874,1211.7216117216117,-1.0,55.949914627205466,0.5107006756521989,
2023-08-11 18:32:42.193000,-1.0602409638554218,-1.1204819277108435,-9.879518072289157,-1.1698344573881054,-0.554874310239117,-9.515634580012263,3.0,0.5103785103785103,1959.3301435406702,0.2778392867548505,-0.15733348872443298,0.02016199522172376,1205.8608058608058,-1.0,55.949914627205466,0.510697556119672,
2023-08-11 18:32:42.201000,-1.072289156626506,-1.144578313253012,-9.843373493975903,-1.103617412630288,-0.5793991416309012,-9.518087063151441,3.0,0.5103785103785103,1959.3301435406702,0.13880310005244526,-0.0658469786142993,0.2034846454169336,1198.5347985347985,-1.0,55.949914627205466,0.510694373025153,
2023-08-11 18:32:42.209000,-1.0843373493975905,-1.1325301204819278,-9.855421686746988,-1.0668301655426118,-0.5328019619865113,-9.574494175352545,3.0,0.5103785103785103,1959.3301435406702,0.15255521240021,0.11747567158091053,0.20266884214206643,1191.9413919413919,-1.0,55.949914627205466,0.5106911245891371,
2023-08-11 18:32:42.216000,-1.072289156626506,-1.1325301204819278,-9.867469879518072,-1.1600245248313916,-0.5769466584917229,-9.545064377682403,3.0,0.5103785103785103,1959.3301435406702,-0.0010488899248292638,-0.11467863178136525,0.1555853388497174,1187.5457875457876,-1.0,55.949914627205466,0.5106878092288047,
2023-08-11 18:32:42.224000,-1.0843373493975905,-1.144578313253012,-9.867469879518072,-1.0987124463519313,-0.5744941753525444,-9.557326793378294,3.0,0.5103785103785103,1959.3301435406702,-0.15500262222481276,-0.15873200862420647,0.12365246780490657,1183.150183150183,-1.0,55.949914627205466,0.510684425564749,
2023-08-11 18:32:42.232000,-1.0843373493975905,-1.1325301204819278,-9.855421686746988,-1.108522378908645,-0.5965665236051502,-9.525444512568976,3.0,0.5103785103785103,1959.3301435406702,0.06165141891498225,-0.03484645416933779,0.10803566225744411,1180.952380952381,-1.0,55.949914627205466,0.5106809724272462,
2023-08-11 18:32:42.239000,-1.0843373493975905,-1.108433734939759,-9.855421686746988,-1.0938074800735744,-0.5843041079092581,-9.530349478847333,3.0,0.5099345099345098,1961.036134087941,-0.07750131111240552,-0.30650894470019174,-0.1823903035953614,1180.952380952381,-1.0,55.949914627205466,0.510677448862032,
2023-08-11 18:32:42.247000,-1.072289156626506,-1.108433734939759,-9.855421686746988,-1.079092581238504,-0.5769466584917229,-9.540159411404046,3.0,0.5103785103785103,1959.3301435406702,-0.061884505564943924,0.08064798088689504,0.11024998543208435,1180.2197802197802,-1.0,55.949914627205466,0.5106738539862666,
2023-08-11 18:32:42.255000,-1.0963855421686748,-1.1566265060240966,-9.843373493975903,-1.137952176578786,-0.5990190067443286,-9.503372164316369,3.0,0.5103785103785103,1959.3301435406702,0.16689004137288066,-0.36175048074121585,-0.22481207388846788,1183.150183150183,-1.0,55.949914627205466,0.5106701871206645,
2023-08-11 18:32:42.262000,-1.072289156626506,-1.144578313253012,-9.855421686746988,-1.0839975475168608,-0.5622317596566523,-9.559779276517473,3.0,0.5103785103785103,1959.3301435406702,0.2588427247829377,-0.11444554513140184,-0.11572752170619408,1187.5457875457876,1087.70751953125,55.161887660625105,0.5106664480913142,
2023-08-11 18:32:42.270000,-1.072289156626506,-1.1325301204819278,-9.867469879518072,-1.1011649294911097,-0.572041692213366,-9.584304107909258,3.0,0.5103785103785103,1959.3301435406702,0.1333255637783338,-0.006992599498864074,0.100460346133675,1190.4761904761904,-1.0,55.161887660625105,0.5106626370739006,
2023-08-11 18:32:42.278000,-1.0843373493975905,-1.144578313253012,-9.867469879518072,-1.0766400980993256,-0.542611894543225,-9.518087063151441,3.0,0.5103785103785103,1959.3301435406702,0.2366994930365371,-0.2209661441640929,-0.021094341821572188,1189.7435897435896,-1.0,55.161887660625105,0.5106587544484391,
2023-08-11 18:32:42.285000,-1.0843373493975905,-1.144578313253012,-9.867469879518072,-1.091354996934396,-0.554874310239117,-9.505824647455547,3.0,0.5103785103785103,1959.3301435406702,0.09509935318454654,-0.055008449391060685,0.16420954489831577,1187.5457875457876,-1.0,55.161887660625105,0.5106548006637268,
2023-08-11 18:32:42.293000,-1.0843373493975905,-1.1204819277108435,-9.879518072289157,-1.1305947271612506,-0.542611894543225,-9.557326793378294,3.0,0.5103785103785103,1959.3301435406702,-0.07435464133791772,0.05116251966668614,0.08484354058621296,1186.080586080586,-1.0,55.161887660625105,0.5106507763988112,
2023-08-11 18:32:42.301000,-1.0963855421686748,-1.1325301204819278,-9.867469879518072,-1.0594727161250765,-0.5524218270999387,-9.545064377682403,3.0,0.5099345099345098,1961.036134087941,0.1392692733523686,0.0045451896742613,-0.03974127381854204,1183.8827838827838,-1.0,55.161887660625105,0.5106466826920826,
2023-08-11 18:32:42.308000,-1.0963855421686748,-1.144578313253012,-9.867469879518072,-1.1600245248313916,-0.6210913549969344,-9.532801961986511,3.0,0.5099345099345098,1961.036134087941,-0.24427480916030533,0.12691568090437563,0.24905308548452873,1180.2197802197802,-1.0,55.161887660625105,0.5106425205047328,
2023-08-11 18:32:42.316000,-1.0963855421686748,-1.144578313253012,-9.879518072289157,-1.1060698957694666,-0.5646842427958307,-9.59656652360515,3.0,0.5099345099345098,1961.036134087941,-0.10080997610861794,0.2983509119515176,0.18646931996969893,1176.5567765567764,-1.0,55.161887660625105,0.510638290857921,
2023-08-11 18:32:42.324000,-1.0963855421686748,-1.1204819277108435,-9.855421686746988,-1.0987124463519313,-0.5990190067443286,-9.525444512568976,3.0,0.5099345099345098,1961.036134087941,0.17539770409649733,0.13157741390361952,-0.07307266476312549,1176.5567765567764,-1.0,55.161887660625105,0.5106339952352301,
2023-08-11 18:32:42.331000,-1.0843373493975905,-1.1325301204819278,-9.879518072289157,-1.0766400980993256,-0.5180870631514408,-9.510729613733906,3.0,0.5099345099345098,1961.036134087941,-0.22224812073888384,-0.34077268224462365,-0.0860089738360235,1174.3589743589744,-1.0,55.161887660625105,0.5106296352707136,
2023-08-11 18:32:42.339000,-1.0963855421686748,-1.1204819277108435,-9.855421686746988,-1.1600245248313916,-0.572041692213366,-9.530349478847333,3.0,0.5103785103785103,1959.3301435406702,0.054891906066079854,-0.41256337043295777,-0.28203484645416926,1174.3589743589744,-1.0,55.161887660625105,0.5106252126166982,
2023-08-11 18:32:42.347000,-1.0963855421686748,-1.144578313253012,-9.843373493975903,-1.049662783568363,-0.5769466584917229,-9.547516860821581,3.0,0.5103785103785103,1959.3301435406702,-0.2482372822096607,-0.33179884622108186,-0.04941436979197012,1175.8241758241757,-1.0,55.161887660625105,0.51062072923656,
2023-08-11 18:32:42.354000,-1.072289156626506,-1.144578313253012,-9.819277108433736,-1.137952176578786,-0.5793991416309012,-9.518087063151441,3.0,0.5099345099345098,1961.036134087941,-0.1548860788998302,-0.14416409300157415,-0.3066254880251735,1178.7545787545787,-1.0,55.161887660625105,0.5106161874197769,
2023-08-11 18:32:42.362000,-1.0843373493975905,-1.144578313253012,-9.867469879518072,-1.1281422440220723,-0.6382587369711833,-9.50091968117719,3.0,0.5099345099345098,1961.036134087941,-0.22725948371307023,0.4534700775013112,0.07761785443738722,1183.150183150183,-1.0,55.161887660625105,0.5106115894877785,
2023-08-11 18:32:42.370000,-1.0481927710843375,-1.144578313253012,-9.867469879518072,-1.2458614347026364,-0.559779276517474,-9.574494175352545,3.0,0.5103785103785103,1959.3301435406702,-0.056523512615815036,0.29823436862653674,-0.19742439251791838,1183.8827838827838,-1.0,55.161887660625105,0.5106069377652176,
2023-08-11 18:32:42.377000,-1.0481927710843375,-1.180722891566265,-9.867469879518072,-1.0962599632127528,-0.5401594114040466,-9.557326793378294,3.0,0.5099345099345098,1961.036134087941,-0.25254938523396037,0.2941553522522005,-0.33529514597051435,1183.150183150183,-1.0,55.161887660625105,0.510602234858761,
2023-08-11 18:32:42.385000,-1.0602409638554218,-1.1566265060240966,-9.867469879518072,-1.150214592274678,-0.559779276517474,-9.562231759656651,3.0,0.5103785103785103,1959.3301435406702,0.0692267350387505,0.2872792960783173,0.12446827107977373,1182.4175824175823,-1.0,55.161887660625105,0.5105974833808234,
2023-08-11 18:32:42.392000,-1.0602409638554218,-1.1325301204819278,-9.879518072289157,-1.1894543225015328,-0.5965665236051502,-9.586756591048436,3.0,0.5099345099345098,1961.036134087941,-0.43424042887943676,0.06794475846395957,0.16933745119748256,1181.6849816849815,-1.0,55.161887660625105,0.510592686088154,
2023-08-11 18:32:42.400000,-1.0963855421686748,-1.1566265060240966,-9.843373493975903,-1.1600245248313916,-0.6210913549969344,-9.522992029429798,3.0,0.5103785103785103,1959.3301435406702,-0.01759804207214102,0.06503117533943172,0.12167123128022846,1180.2197802197802,-1.0,55.161887660625105,0.5105878458705784,
2023-08-11 18:32:42.408000,-1.0843373493975905,-1.1204819277108435,-9.843373493975903,-1.0987124463519313,-0.5941140404659717,-9.559779276517473,3.0,0.5103785103785103,1959.3301435406702,-0.2659518676067826,0.035196084144280305,0.2116426781656082,1179.4871794871794,-1.0,55.161887660625105,0.5105829656005065,
2023-08-11 18:32:42.415000,-1.0963855421686748,-1.1325301204819278,-9.867469879518072,-1.120784794604537,-0.6112814224402207,-9.574494175352545,3.0,0.5099345099345098,1961.036134087941,-0.3095390711497005,0.20127032224229335,0.1786609171959677,1181.6849816849815,-1.0,55.161887660625105,0.5105780485679314,
2023-08-11 18:32:42.423000,-1.072289156626506,-1.1325301204819278,-9.867469879518072,-1.120784794604537,-0.5695892090741875,-9.574494175352545,3.0,0.5099345099345098,1961.036134087941,-0.4901812248703459,0.21513897791504066,-0.20686440184138435,1183.8827838827838,-1.0,55.161887660625105,0.5105730981596684,
2023-08-11 18:32:42.431000,-1.0602409638554218,-1.144578313253012,-9.879518072289157,-1.1428571428571428,-0.5107296137339056,-9.542611894543224,3.0,0.5103785103785103,1959.3301435406702,-0.486568381795933,0.212108851465532,-0.20686440184138435,1187.5457875457876,-1.0,55.161887660625105,0.5105681176770425,
2023-08-11 18:32:42.438000,-1.0602409638554218,-1.1566265060240966,-9.903614457831326,-1.1109748620478233,-0.5229920294297976,-9.56713672593501,3.0,0.5099345099345098,1961.036134087941,0.01654915214731002,-0.2022026688421418,0.07808402773731143,1190.4761904761904,-1.0,55.161887660625105,0.5105631104721133,
2023-08-11 18:32:42.446000,-1.0602409638554218,-1.144578313253012,-9.843373493975903,-1.1698344573881054,-0.5303494788473329,-9.547516860821581,3.0,0.5103785103785103,1959.3301435406702,0.12318629450498193,0.3297010663714234,0.28646349280344974,1190.4761904761904,-1.0,55.161887660625105,0.5105580799659526,
2023-08-11 18:32:42.454000,-1.036144578313253,-1.144578313253012,-9.843373493975903,-1.1477621091354997,-0.5646842427958307,-9.540159411404046,3.0,0.5099345099345098,1961.036134087941,0.27632422353009783,0.20231921216712262,0.14358137637666823,1191.2087912087911,-1.0,55.161887660625105,0.5105530297528916,
2023-08-11 18:32:42.461000,-1.0481927710843375,-1.144578313253012,-9.831325301204819,-1.079092581238504,-0.5401594114040466,-9.54996934396076,3.0,0.5099345099345098,1961.036134087941,0.37958160946331854,-0.0734222947380693,0.03414719421945104,1194.8717948717947,-1.0,55.161887660625105,0.5105479634489952,
2023-08-11 18:32:42.469000,-1.072289156626506,-1.1325301204819278,-9.843373493975903,-1.1404046597179645,-0.5744941753525444,-9.515634580012263,3.0,0.5094905094905093,1962.745098039216,0.021210885146553893,-0.07307266476312506,0.07831711438727354,1197.8021978021977,-1.0,55.161887660625105,0.5105428843806593,
2023-08-11 18:32:42.477000,-1.072289156626506,-1.1325301204819278,-9.843373493975903,-1.091354996934396,-0.5646842427958307,-9.589209074187615,3.0,0.5099345099345098,1961.036134087941,0.2348347998368385,-0.14614532952625184,-0.05698968591573925,1200.7326007326008,-1.0,55.161887660625105,0.5105377958583319,
2023-08-11 18:32:42.484000,-1.0481927710843375,-1.1325301204819278,-9.879518072289157,-1.155119558553035,-0.4984671980380135,-9.613733905579398,3.0,0.5099345099345098,1961.036134087941,0.24800419555969905,-0.4127964570829212,-0.15989744187401658,1200.0,-1.0,55.161887660625105,0.5105327012587836,
2023-08-11 18:32:42.492000,-1.0481927710843375,-1.144578313253012,-9.891566265060241,-1.1354996934396075,-0.5377069282648681,-9.530349478847333,3.0,0.5099345099345098,1961.036134087941,0.644368043820291,0.16059670182390334,-0.4154769535574852,1203.6630036630036,-1.0,55.161887660625105,0.510527603893759,
2023-08-11 18:32:42.500000,-1.072289156626506,-1.1325301204819278,-9.879518072289157,-1.091354996934396,-0.5990190067443286,-9.54996934396076,3.0,0.5099345099345098,1961.036134087941,0.4555678573509697,-0.21886836431443438,-0.2291241769127675,1215.3846153846152,-1.0,55.161887660625105,0.5105225070068834,
2023-08-11 18:32:42.507000,-1.0602409638554218,-1.1204819277108435,-9.855421686746988,-1.1060698957694666,-0.5744941753525444,-9.562231759656651,3.0,0.5099345099345098,1961.036134087941,0.2051162519666679,-0.04859856651710253,-0.04451955014276544,1241.7582417582416,-1.0,55.161887660625105,0.5105174137602309,
2023-08-11 18:32:42.515000,-1.0963855421686748,-1.1204819277108435,-9.843373493975903,-1.0864500306560392,-0.6014714898835071,-9.496014714898834,3.0,0.5099345099345098,1961.036134087941,-0.026455334770700212,-0.2934560923023138,-0.03146669774488659,1287.9120879120878,-1.0,55.161887660625105,0.5105123272211687,
2023-08-11 18:32:42.523000,-1.0963855421686748,-1.108433734939759,-9.831325301204819,-1.103617412630288,-0.6014714898835071,-9.542611894543224,3.0,0.5103785103785103,1959.3301435406702,0.14136705320202714,-0.09451663655964061,0.09055416351028481,1355.3113553113553,-1.0,55.161887660625105,0.5105072503495529,
2023-08-11 18:32:42.530000,-1.1204819277108435,-1.1204819277108435,-9.867469879518072,-1.0423053341508277,-0.5965665236051502,-9.503372164316369,3.0,0.5099345099345098,1961.036134087941,0.004195559699318791,0.07283957811316338,-0.08088106753685671,1449.084249084249,-1.0,55.161887660625105,0.5105021861346399,
2023-08-11 18:32:42.538000,-1.1566265060240966,-1.1325301204819278,-9.855421686746988,-1.0300429184549356,-0.6358062538320048,-9.552421827099938,3.0,0.5099345099345098,1961.036134087941,-0.1341413670532014,0.23798146961132802,-0.021210885146553025,1561.9047619047617,-1.0,55.161887660625105,0.5104971374557783,
2023-08-11 18:32:42.546000,-1.1204819277108435,-1.1325301204819278,-9.867469879518072,-1.108522378908645,-0.6088289393010423,-9.530349478847333,3.0,0.5099345099345098,1961.036134087941,-0.05722277256570179,0.022609405046325665,-0.3715401200396248,1689.3772893772893,-1.0,55.161887660625105,0.5104921069121386,
2023-08-11 18:32:42.553000,-1.0963855421686748,-1.1566265060240966,-9.867469879518072,-1.120784794604537,-0.5499693439607602,-9.525444512568976,3.0,0.5099345099345098,1961.036134087941,-0.07225686148825747,-0.052677582891440485,-0.46174465357496663,1825.6410256410254,-1.0,55.161887660625105,0.5104870969509391,
2023-08-11 18:32:42.561000,-1.072289156626506,-1.1566265060240966,-9.831325301204819,-1.1134273451870018,-0.5475168608215818,-9.569589209074188,3.0,0.5103785103785103,1959.3301435406702,-0.10582133908280432,-0.2373987529864221,-0.5940213274284716,1964.102564102564,-1.0,55.161887660625105,0.5104821098576,
2023-08-11 18:32:42.569000,-1.0240963855421688,-1.1686746987951808,-9.831325301204819,-1.155119558553035,-0.5695892090741875,-9.547516860821581,3.0,0.5103785103785103,1959.3301435406702,-0.10442281918303081,-0.4989219742439259,-0.5439076976866152,2094.5054945054944,-1.0,55.161887660625105,0.5104771478959238,
2023-08-11 18:32:42.576000,-1.0120481927710845,-1.1566265060240966,-9.867469879518072,-1.103617412630288,-0.4984671980380135,-9.56468424279583,3.0,0.5099345099345098,1961.036134087941,0.04661732999242484,-0.054891906066079854,-0.37014160013985214,2212.454212454212,-1.0,55.161887660625105,0.5104722133216424,
2023-08-11 18:32:42.584000,-1.0,-1.1204819277108435,-9.843373493975903,-1.1109748620478233,-0.4886572654812998,-9.508277130594726,3.0,0.5103785103785103,1959.3301435406702,0.029718547870170576,0.053027212866383,-0.18332265019521027,2315.0183150183148,-1.0,55.161887660625105,0.5104673080885672,
2023-08-11 18:32:42.592000,-1.0120481927710845,-1.1204819277108435,-9.831325301204819,-1.1330472103004292,-0.5401594114040466,-9.599019006744328,3.0,0.5103785103785103,1959.3301435406702,-0.15407027562496434,0.14288211642678147,0.1685216479226154,2400.7326007326005,-1.0,55.161887660625105,0.5104624339712647,
2023-08-11 18:32:42.599000,-1.0240963855421688,-1.1204819277108435,-9.855421686746988,-1.0864500306560392,-0.5401594114040466,-9.525444512568976,3.0,0.5099345099345098,1961.036134087941,0.05990326904026623,0.23250393333721828,0.27271138045568455,2465.201465201465,-1.0,55.161887660625105,0.5104575927203404,
2023-08-11 18:32:42.607000,-1.0843373493975905,-1.1325301204819278,-9.843373493975903,-1.1232372777437154,-0.5818516247700797,-9.58185162477008,3.0,0.5103785103785103,1959.3301435406702,-0.10803566225744368,0.41722510343220165,0.40743546413379184,2504.7619047619046,-1.0,55.161887660625105,0.5104527857716804,
2023-08-11 18:32:42.615000,-1.1204819277108435,-1.108433734939759,-9.891566265060241,-1.1060698957694666,-0.5941140404659717,-9.56713672593501,3.0,0.5103785103785103,1959.3301435406702,-0.09148651011013366,0.21886836431443438,0.6632480624672221,2517.2161172161173,-1.0,55.161887660625105,0.5104480143722924,
2023-08-11 18:32:42.622000,-1.1204819277108435,-1.1204819277108435,-9.91566265060241,-1.108522378908645,-0.5867565910484365,-9.621091354996933,3.0,0.5099345099345098,1961.036134087941,-0.05792203251558681,0.3419381154944355,0.09416700658469768,2503.296703296703,-1.0,55.161887660625105,0.5104432797388186,
2023-08-11 18:32:42.630000,-1.1204819277108435,-1.1204819277108435,-9.927710843373495,-1.1011649294911097,-0.5916615573267934,-9.576946658491723,3.0,0.5099345099345098,1961.036134087941,0.35825418099178385,-0.0075753161237682555,0.07750131111240595,2468.131868131868,-1.0,55.161887660625105,0.5104385829087943,
2023-08-11 18:32:42.638000,-1.0963855421686748,-1.1204819277108435,-9.903614457831326,-1.1354996934396075,-0.5818516247700797,-9.584304107909258,3.0,0.5099345099345098,1961.036134087941,-0.07097488491346653,-0.24777110890973736,-0.08927218693549344,2413.186813186813,-1.0,55.161887660625105,0.5104339247001016,
2023-08-11 18:32:42.645000,-1.0843373493975905,-1.108433734939759,-9.927710843373495,-1.0472103004291844,-0.5843041079092581,-9.61128142244022,3.0,0.5103785103785103,1959.3301435406702,0.4190897966318985,-0.5796864984558001,-0.17970980712079695,2342.8571428571427,-1.0,55.161887660625105,0.5104293055641553,
2023-08-11 18:32:42.653000,-1.0602409638554218,-1.1204819277108435,-9.867469879518072,-1.103617412630288,-0.542611894543225,-9.584304107909258,3.0,0.5103785103785103,1959.3301435406702,0.0680613017889404,-0.23937998951110154,-0.17749548394615716,2260.8058608058604,-1.0,55.161887660625105,0.5104247257588054,
2023-08-11 18:32:42.661000,-1.072289156626506,-1.1204819277108435,-9.855421686746988,-1.0987124463519313,-0.5867565910484365,-9.576946658491723,3.0,0.5103785103785103,1959.3301435406702,0.06631315191422439,0.006876056173883237,-0.2511508653341881,2172.8937728937726,-1.0,55.161887660625105,0.5104201855221783,
2023-08-11 18:32:42.668000,-1.0602409638554218,-1.1566265060240966,-9.867469879518072,-1.1060698957694666,-0.5254445125689761,-9.532801961986511,3.0,0.5103785103785103,1959.3301435406702,0.03531262746926114,-0.31210302429928405,-0.21735330108968004,2086.4468864468863,-1.0,55.161887660625105,0.5104156849392021,
2023-08-11 18:32:42.676000,-1.0602409638554218,-1.144578313253012,-9.843373493975903,-1.1919068056407112,-0.5278969957081545,-9.53525444512569,3.0,0.5103785103785103,1959.3301435406702,-0.25557951168346904,-0.4300448691801179,0.026571878095681917,1998.5347985347985,-1.0,55.161887660625105,0.5104112239479648,
2023-08-11 18:32:42.684000,-1.0602409638554218,-1.1566265060240966,-9.855421686746988,-1.1183323114653587,-0.5033721643163703,-9.552421827099938,3.0,0.5099345099345098,1961.036134087941,-0.038808927218693175,-0.6999592098362559,-0.18588660334479346,1914.2857142857142,-1.0,55.161887660625105,0.5104068023471188,
2023-08-11 18:32:42.691000,-1.0963855421686748,-1.144578313253012,-9.831325301204819,-1.1060698957694666,-0.5475168608215818,-9.50091968117719,3.0,0.5099345099345098,1961.036134087941,-0.20872909504108078,-0.6172134490997023,-0.19998834566750198,1834.4322344322343,-1.0,55.161887660625105,0.5104024196549978,
2023-08-11 18:32:42.699000,-1.072289156626506,-1.1566265060240966,-9.843373493975903,-1.1109748620478233,-0.6088289393010423,-9.542611894543224,3.0,0.5099345099345098,1961.036134087941,-0.09906182623390192,-0.3842433424625607,-0.21175922149058904,1762.6373626373625,-1.0,55.161887660625105,0.5103980750971112,
2023-08-11 18:32:42.707000,-1.0843373493975905,-1.1566265060240966,-9.867469879518072,-1.108522378908645,-0.5941140404659717,-9.496014714898834,3.0,0.5099345099345098,1961.036134087941,-0.09789639298409182,-0.3808635860381095,-0.20884563836606249,1697.4358974358972,-1.0,55.161887660625105,0.5103937677534719,
2023-08-11 18:32:42.714000,-1.0843373493975905,-1.1566265060240966,-9.855421686746988,-1.1453096259963211,-0.5328019619865113,-9.493562231759656,3.0,0.5099345099345098,1961.036134087941,-0.10955072548219803,-0.20779674844123236,0.12831420080414915,1644.6886446886447,-1.0,55.161887660625105,0.5103894965678389,
2023-08-11 18:32:42.722000,-1.072289156626506,-1.144578313253012,-9.843373493975903,-1.1575720416922133,-0.572041692213366,-9.503372164316369,3.0,0.5099345099345098,1961.036134087941,-0.0012819765747909368,-0.2200337975642445,-0.010721985898257782,1598.5347985347985,-1.0,55.161887660625105,0.5103852603575537,
2023-08-11 18:32:42.730000,-1.0602409638554218,-1.1686746987951808,-9.855421686746988,-1.1747394236664623,-0.5352544451256898,-9.537706928264868,3.0,0.5099345099345098,1961.036134087941,-0.07738476778742467,-0.17248412097197122,-0.05827166249053105,1558.974358974359,-1.0,55.161887660625105,0.5103810578239132,
2023-08-11 18:32:42.737000,-1.0602409638554218,-1.1686746987951808,-9.867469879518072,-1.0987124463519313,-0.572041692213366,-9.522992029429798,3.0,0.5099345099345098,1961.036134087941,-0.18343919352019067,-0.0012819765747909368,-0.027737311345492885,1526.007326007326,-1.0,55.161887660625105,0.5103768875630208,
2023-08-11 18:32:42.745000,-1.0963855421686748,-1.1566265060240966,-9.819277108433736,-1.1747394236664623,-0.5131820968730839,-9.537706928264868,3.0,0.5099345099345098,1961.036134087941,0.04673387331740568,0.2760911368801344,0.4302779558300796,1501.8315018315018,-1.0,55.161887660625105,0.5103727480770387,
2023-08-11 18:32:42.752000,-1.072289156626506,-1.144578313253012,-9.855421686746988,-1.1673819742489269,-0.6039239730226854,-9.491109748620477,3.0,0.5099345099345098,1961.036134087941,0.07517044461278531,0.2595419847328244,-0.16863819124759624,1484.9816849816848,-1.0,55.161887660625105,0.5103686377857829,
2023-08-11 18:32:42.760000,-1.1204819277108435,-1.1325301204819278,-9.831325301204819,-1.1354996934396075,-0.5573267933782955,-9.537706928264868,3.0,0.5099345099345098,1961.036134087941,0.10442281918303081,0.07575316123768949,0.20057106229240704,1471.062271062271,-1.0,55.161887660625105,0.5103645550385848,
2023-08-11 18:32:42.768000,-1.0843373493975905,-1.1325301204819278,-9.867469879518072,-1.0864500306560392,-0.5450643776824035,-9.557326793378294,3.0,0.5099345099345098,1961.036134087941,0.04067362041839003,-0.24544024241011544,-0.16677349804789937,1455.6776556776556,-1.0,55.161887660625105,0.5103604981263536,
2023-08-11 18:32:42.775000,-1.0963855421686748,-1.1325301204819278,-9.879518072289157,-1.1060698957694666,-0.5573267933782955,-9.53525444512569,3.0,0.5094905094905093,1962.745098039216,-0.252083211934037,-0.10430627585804997,-0.14789347940096742,1441.0256410256409,-1.0,55.161887660625105,0.5103564652937603,
2023-08-11 18:32:42.783000,-1.0843373493975905,-1.144578313253012,-9.879518072289157,-1.1477621091354997,-0.5695892090741875,-9.562231759656651,3.0,0.5099345099345098,1961.036134087941,0.17633005069634577,-0.013052852397879719,0.16001398519899784,1427.8388278388277,-1.0,55.161887660625105,0.5103524547409377,
2023-08-11 18:32:42.791000,-1.108433734939759,-1.1325301204819278,-9.867469879518072,-1.044757817290006,-0.5377069282648681,-9.56713672593501,3.0,0.5099345099345098,1961.036134087941,0.008158032748674174,-0.18099178369558963,0.19217994289377077,1413.9194139194137,-1.0,55.161887660625105,0.5103484647427399,
2023-08-11 18:32:42.798000,-1.0963855421686748,-1.1566265060240966,-9.867469879518072,-1.1060698957694666,-0.5646842427958307,-9.621091354996933,3.0,0.5099345099345098,1961.036134087941,-0.29765165200163085,-0.055824252665928276,0.03939164384359866,1402.9304029304028,-1.0,55.161887660625105,0.5103444935330744,
2023-08-11 18:32:42.806000,-1.072289156626506,-1.1566265060240966,-9.855421686746988,-1.1649294911097485,-0.5941140404659717,-9.589209074187615,3.0,0.5099345099345098,1961.036134087941,-0.020628168521647974,0.1272653108793199,0.20546588194161172,1394.139194139194,-1.0,55.161887660625105,0.5103405391994301,
2023-08-11 18:32:42.814000,-1.0843373493975905,-1.1566265060240966,-9.843373493975903,-1.091354996934396,-0.5695892090741875,-9.510729613733906,3.0,0.5099345099345098,1961.036134087941,-0.15605151214964202,0.04941436979197012,-0.28483188625371497,1388.278388278388,-1.0,55.161887660625105,0.5103365998433492,
2023-08-11 18:32:42.821000,-1.0963855421686748,-1.1566265060240966,-9.855421686746988,-1.1109748620478233,-0.5793991416309012,-9.547516860821581,3.0,0.5099345099345098,1961.036134087941,-0.16828856127265243,0.0787832876871982,0.160829788473865,1386.8131868131868,-1.0,55.161887660625105,0.5103326735913302,
2023-08-11 18:32:42.829000,-1.0843373493975905,-1.1566265060240966,-9.855421686746988,-1.0766400980993256,-0.5695892090741875,-9.525444512568976,3.0,0.5099345099345098,1961.036134087941,-0.030650894470019004,0.0643319153895467,0.02225977507138272,1391.9413919413919,-1.0,55.161887660625105,0.5103287586053932,
2023-08-11 18:32:42.837000,-1.0602409638554218,-1.1566265060240966,-9.867469879518072,-1.0987124463519313,-0.5229920294297976,-9.574494175352545,3.0,0.5099345099345098,1961.036134087941,-0.1827399335703039,-0.011421245848144537,0.05244449624147795,1401.4652014652013,-1.0,55.161887660625105,0.5103248532320027,
2023-08-11 18:32:42.844000,-1.0481927710843375,-1.144578313253012,-9.867469879518072,-1.1870018393623543,-0.5278969957081545,-9.498467198038012,3.0,0.5099345099345098,1961.036134087941,-0.028203484645416232,-0.009906182623390191,-0.0710914282384478,1411.7216117216117,-1.0,55.161887660625105,0.5103209558526697,
2023-08-11 18:32:42.852000,-1.0481927710843375,-1.144578313253012,-9.855421686746988,-1.0864500306560392,-0.5769466584917229,-9.54996934396076,3.0,0.5099345099345098,1961.036134087941,0.03298176096964094,-0.10279121263329563,0.003612843074412873,1423.4432234432234,-1.0,55.161887660625105,0.5103170649043257,
2023-08-11 18:32:42.860000,-1.0602409638554218,-1.144578313253012,-9.843373493975903,-1.074187614960147,-0.542611894543225,-9.56468424279583,3.0,0.5099345099345098,1961.036134087941,-0.21257502476545706,0.26536915098187663,-0.07365538138803097,1432.9670329670328,-1.0,55.161887660625105,0.5103131788779918,
2023-08-11 18:32:42.867000,-1.072289156626506,-1.1204819277108435,-9.891566265060241,-1.0987124463519313,-0.542611894543225,-9.572041692213366,3.0,0.5099345099345098,1961.036134087941,0.23110541343744478,-0.05535807936600493,-0.3320319328710449,1435.8974358974358,-1.0,55.161887660625105,0.5103092961990868,
2023-08-11 18:32:42.875000,-1.0602409638554218,-1.144578313253012,-9.879518072289157,-1.1183323114653587,-0.5573267933782955,-9.542611894543224,3.0,0.5099345099345098,1961.036134087941,-0.01794767204708353,-0.03997436046850501,0.05209486626653457,1438.095238095238,-1.0,55.161887660625105,0.5103054153838374,
2023-08-11 18:32:42.883000,-1.0602409638554218,-1.108433734939759,-9.867469879518072,-1.103617412630288,-0.5254445125689761,-9.542611894543224,3.0,0.5099345099345098,1961.036134087941,0.01165433249810621,-0.010139269273351865,-0.10314084260823944,1439.5604395604394,-1.0,55.161887660625105,0.5103015350457409,
2023-08-11 18:32:42.890000,-1.072289156626506,-1.1325301204819278,-9.867469879518072,-1.120784794604537,-0.5058246474555487,-9.52053954629062,3.0,0.5099345099345098,1961.036134087941,-0.020045451896742058,-0.17901054717091022,0.10920109550725465,1438.8278388278388,-1.0,55.161887660625105,0.5102976540401128,
2023-08-11 18:32:42.898000,-1.0602409638554218,-1.108433734939759,-9.891566265060241,-1.1330472103004292,-0.5229920294297976,-9.510729613733906,3.0,0.5099345099345098,1961.036134087941,0.1769127673212517,-0.05477536274109902,-0.013519025697803066,1437.3626373626373,-1.0,55.161887660625105,0.5102937713100615,
2023-08-11 18:32:42.906000,-1.0602409638554218,-1.1204819277108435,-9.891566265060241,-1.091354996934396,-0.5499693439607602,-9.53525444512569,3.0,0.5099345099345098,1961.036134087941,0.1911310529689415,-0.3138511741739983,0.017831128722102258,1435.164835164835,-1.0,55.161887660625105,0.5102898857632714,
2023-08-11 18:32:42.913000,-1.072289156626506,-1.1204819277108435,-9.903614457831326,-1.0889025137952175,-0.5744941753525444,-9.576946658491723,3.0,0.5099345099345098,1961.036134087941,-0.3147835207738485,-0.003845929724374546,0.03368102091952683,1430.03663003663,-1.0,55.161887660625105,0.5102859964247779,
2023-08-11 18:32:42.921000,-1.0602409638554218,-1.1204819277108435,-9.879518072289157,-1.091354996934396,-0.5965665236051502,-9.56468424279583,3.0,0.5099345099345098,1961.036134087941,0.14358137637666823,-0.2776062001048888,0.01794767204708353,1422.7106227106226,-1.0,55.161887660625105,0.5102821024397214,
2023-08-11 18:32:42.929000,-1.0963855421686748,-1.1325301204819278,-9.867469879518072,-1.0521152667075413,-0.5450643776824035,-9.616186388718576,3.0,0.5094905094905093,1962.745098039216,-0.2097779849659118,-0.16793893129770993,-0.21129304819066483,1411.7216117216117,-1.0,55.161887660625105,0.5102782030753752,
2023-08-11 18:32:42.936000,-1.0843373493975905,-1.1204819277108435,-9.879518072289157,-1.1011649294911097,-0.5131820968730839,-9.547516860821581,3.0,0.5094905094905093,1962.745098039216,-0.1628110249985427,-0.1505739758755323,-0.03985781714352331,1398.5347985347985,-1.0,55.161887660625105,0.5102742977119056,
2023-08-11 18:32:42.944000,-1.0843373493975905,-1.1204819277108435,-9.879518072289157,-1.1232372777437154,-0.554874310239117,-9.608828939301041,3.0,0.5099345099345098,1961.036134087941,-0.2541809917836955,0.019229648621874467,-0.08589243051104267,1379.4871794871794,-1.0,55.161887660625105,0.5102703858007087,
2023-08-11 18:32:42.952000,-1.0963855421686748,-1.144578313253012,-9.879518072289157,-1.1232372777437154,-0.559779276517474,-9.518087063151441,3.0,0.5099345099345098,1961.036134087941,0.37247246663947364,-0.19497698269331604,0.03799312394382602,1360.4395604395604,-1.0,55.161887660625105,0.5102664668639119,
2023-08-11 18:32:42.959000,-1.072289156626506,-1.144578313253012,-9.867469879518072,-1.150214592274678,-0.5450643776824035,-9.537706928264868,3.0,0.5099345099345098,1961.036134087941,-0.22609405046326014,0.20290192879202854,0.0961482431093758,1341.3919413919414,-1.0,55.161887660625105,0.510262540673813,
2023-08-11 18:32:42.967000,-1.0843373493975905,-1.1325301204819278,-9.843373493975903,-1.0766400980993256,-0.559779276517474,-9.513182096873084,3.0,0.5099345099345098,1961.036134087941,-0.16397645824835452,-0.04405337684284123,-0.0428879435930307,1322.3443223443223,-1.0,55.161887660625105,0.5102586071020834,
2023-08-11 18:32:42.975000,-1.072289156626506,-1.144578313253012,-9.867469879518072,-1.0570202329858982,-0.554874310239117,-9.601471489883506,3.0,0.5099345099345098,1961.036134087941,-0.10057688945865627,-0.3808635860381095,0.08029835091195167,1306.9597069597069,-1.0,55.161887660625105,0.510254665989318,
2023-08-11 18:32:42.982000,-1.0963855421686748,-1.144578313253012,-9.891566265060241,-1.120784794604537,-0.5916615573267934,-9.52053954629062,3.0,0.5099345099345098,1961.036134087941,-0.09847910960899774,-0.3771341996387158,0.0804148942369325,1290.8424908424909,-1.0,55.161887660625105,0.5102507172907211,
2023-08-11 18:32:42.990000,-1.0963855421686748,-1.144578313253012,-9.879518072289157,-1.1820968730839976,-0.5524218270999387,-9.525444512568976,3.0,0.5099345099345098,1961.036134087941,0.1157275217061945,0.08123069751179923,0.051395606316648246,1278.3882783882782,-1.0,55.161887660625105,0.5102467610719541,
2023-08-11 18:32:42.998000,-1.0843373493975905,-1.1686746987951808,-9.843373493975903,-1.150214592274678,-0.5818516247700797,-9.532801961986511,3.0,0.5099345099345098,1961.036134087941,0.008041489423693338,0.3109375910494722,0.06584697861429974,1268.131868131868,-1.0,55.161887660625105,0.5102427975044889,
2023-08-11 18:32:43.005000,-1.0602409638554218,-1.144578313253012,-9.855421686746988,-1.120784794604537,-0.5769466584917229,-9.510729613733906,3.0,0.5099345099345098,1961.036134087941,-0.09801293630907265,-0.18099178369558963,0.1717848610220849,1256.4102564102564,-1.0,55.161887660625105,0.5102388268605164,
2023-08-11 18:32:43.013000,-1.0602409638554218,-1.1566265060240966,-9.843373493975903,-1.1183323114653587,-0.5843041079092581,-9.53525444512569,3.0,0.5099345099345098,1961.036134087941,0.11735912825592969,-0.13169395722860036,-0.25289901520890373,1243.956043956044,-1.0,55.161887660625105,0.5102348495074522,
2023-08-11 18:32:43.021000,-1.0843373493975905,-1.144578313253012,-9.879518072289157,-1.120784794604537,-0.5377069282648681,-9.510729613733906,3.0,0.5099345099345098,1961.036134087941,0.02447409824602252,0.26793310413146026,-0.09894528290892152,1233.6996336996335,-1.0,55.161887660625105,0.5102308659021004,
2023-08-11 18:32:43.028000,-1.072289156626506,-1.144578313253012,-9.867469879518072,-1.091354996934396,-0.5499693439607602,-9.532801961986511,3.0,0.5099345099345098,1961.036134087941,-0.02051162519666714,-0.08297884738651524,0.1306450673037702,1222.7106227106226,-1.0,55.161887660625105,0.5102268765845203,
2023-08-11 18:32:43.036000,-1.0843373493975905,-1.144578313253012,-9.843373493975903,-1.1526670754138564,-0.5278969957081545,-9.552421827099938,3.0,0.5099345099345098,1961.036134087941,-0.23413553988695346,0.02622224812073854,0.117242584930948,1213.9194139194137,-1.0,55.161887660625105,0.5102228821716521,
2023-08-11 18:32:43.044000,-1.072289156626506,-1.1325301204819278,-9.855421686746988,-1.1011649294911097,-0.5377069282648681,-9.503372164316369,3.0,0.5099345099345098,1961.036134087941,0.05908746576539864,0.10150923605850469,-0.11153196200687615,1208.7912087912086,-1.0,55.161887660625105,0.5102188833507616,
2023-08-11 18:32:43.051000,-1.0843373493975905,-1.1325301204819278,-9.855421686746988,-1.1011649294911097,-0.6039239730226854,-9.557326793378294,3.0,0.5099345099345098,1961.036134087941,-0.09346774663481136,0.07050871161354318,-0.34018996561971904,1205.8608058608058,-1.0,55.161887660625105,0.5102148808727487,
2023-08-11 18:32:43.059000,-1.0602409638554218,-1.144578313253012,-9.879518072289157,-1.1698344573881054,-0.542611894543225,-9.53525444512569,3.0,0.5099345099345098,1961.036134087941,-0.26047433133267284,-0.06654623856418607,0.028669657945341313,1203.6630036630036,-1.0,55.161887660625105,0.5102108755453804,
2023-08-11 18:32:43.067000,-1.0963855421686748,-1.1325301204819278,-9.855421686746988,-1.108522378908645,-0.559779276517474,-9.586756591048436,3.0,0.5099345099345098,1961.036134087941,0.16863819124759666,0.1309946972787136,0.31886253714818474,1201.4652014652013,-1.0,55.161887660625105,0.5102068682265001,
2023-08-11 18:32:43.074000,-1.0843373493975905,-1.1566265060240966,-9.843373493975903,-1.1232372777437154,-0.6014714898835071,-9.557326793378294,3.0,0.5099345099345098,1961.036134087941,0.09102033681020859,-0.14509643960142257,-0.020395081871685868,1200.0,-1.0,55.161887660625105,0.5102028598172683,
2023-08-11 18:32:43.082000,-1.0963855421686748,-1.1566265060240966,-9.843373493975903,-1.125689760882894,-0.5793991416309012,-9.532801961986511,3.0,0.5094905094905093,1962.745098039216,-0.015733348872444163,-0.3715401200396252,-0.17364955422178174,1194.1391941391942,-1.0,55.161887660625105,0.5101988512554829,
2023-08-11 18:32:43.090000,-1.0963855421686748,-1.1566265060240966,-9.855421686746988,-1.1330472103004292,-0.542611894543225,-9.53525444512569,3.0,0.5094905094905093,1962.745098039216,-0.059320552415360314,-0.27550842025523026,0.01165433249810621,1188.278388278388,-1.0,55.161887660625105,0.5101948434984854,
2023-08-11 18:32:43.097000,-1.0963855421686748,-1.1686746987951808,-9.831325301204819,-1.1600245248313916,-0.5916615573267934,-9.488657265481299,3.0,0.5099345099345098,1961.036134087941,-0.014567915622632328,-0.18215721694539974,0.026222248120738974,1182.4175824175823,-1.0,55.161887660625105,0.5101908374745381,
2023-08-11 18:32:43.105000,-1.0843373493975905,-1.1566265060240966,-9.819277108433736,-1.1134273451870018,-0.5990190067443286,-9.508277130594726,3.0,0.5099345099345098,1961.036134087941,-0.029135831245264657,-0.2739933570304759,0.22422935726356286,1177.2893772893772,-1.0,55.161887660625105,0.5101868340762932,
2023-08-11 18:32:43.113000,-1.0963855421686748,-1.1325301204819278,-9.855421686746988,-1.1232372777437154,-0.554874310239117,-9.473942366646229,3.0,0.5099345099345098,1961.036134087941,-0.08880601363556921,-0.3171143872734687,-0.15838237864926266,1175.0915750915751,-1.0,55.161887660625105,0.5101828341964013,
2023-08-11 18:32:43.120000,-1.108433734939759,-1.1204819277108435,-9.807228915662652,-1.137952176578786,-0.5695892090741875,-9.466584917228694,3.0,0.5099345099345098,1961.036134087941,-0.011770875823087047,-0.14637841617621353,0.1195734514305695,1177.2893772893772,-1.0,55.161887660625105,0.5101788388704844,
2023-08-11 18:32:43.128000,-1.0843373493975905,-1.1325301204819278,-9.831325301204819,-1.0570202329858982,-0.6137339055793991,-9.525444512568976,3.0,0.5099345099345098,1961.036134087941,0.18600314666977427,-0.10046034613367542,0.24450789581026744,1182.4175824175823,-1.0,55.161887660625105,0.5101748491120502,
2023-08-11 18:32:43.135000,-1.0843373493975905,-1.108433734939759,-9.855421686746988,-1.0938074800735744,-0.6112814224402207,-9.554874310239116,3.0,0.5099345099345098,1961.036134087941,0.6578870695180941,-0.08426082396130792,0.22784220033797573,1187.5457875457876,-1.0,55.161887660625105,0.5101708657793358,
2023-08-11 18:32:43.143000,-1.1204819277108435,-1.072289156626506,-9.831325301204819,-1.0472103004291844,-0.5646842427958307,-9.513182096873084,3.0,0.5099345099345098,1961.036134087941,0.6071907231513313,-0.052327952916496244,0.19707476254297543,1195.6043956043954,-1.0,55.161887660625105,0.5101668897193063,
2023-08-11 18:32:43.151000,-1.0843373493975905,-1.0963855421686748,-9.867469879518072,-1.0643776824034334,-0.5475168608215818,-9.576946658491723,3.0,0.5099345099345098,1961.036134087941,0.37200629333954854,0.08729095041081487,0.0857758871860614,1200.7326007326008,-1.0,55.161887660625105,0.5101629217628476,
2023-08-11 18:32:43.158000,-1.0963855421686748,-1.072289156626506,-9.867469879518072,-1.015328019619865,-0.5229920294297976,-9.594114040465971,3.0,0.5094905094905093,1962.745098039216,0.7057863760853099,0.5581259833343036,0.26781656080647986,1203.6630036630036,-1.0,55.161887660625105,0.5101589627204741,
2023-08-11 18:32:43.166000,-1.0963855421686748,-1.0843373493975905,-9.903614457831326,-1.0839975475168608,-0.5941140404659717,-9.569589209074188,3.0,0.5099345099345098,1961.036134087941,0.6247887652234723,0.6436687838704043,-0.16222830837363808,1205.128205128205,-1.0,55.161887660625105,0.5101550132292882,
2023-08-11 18:32:43.174000,-1.072289156626506,-1.0602409638554218,-9.903614457831326,-1.0766400980993256,-0.6014714898835071,-9.537706928264868,3.0,0.5094905094905093,1962.745098039216,0.6378416176213503,0.39461569838587424,-0.022026688421420616,1204.3956043956043,-1.0,55.161887660625105,0.5101510738772189,
2023-08-11 18:32:43.181000,-1.0963855421686748,-1.072289156626506,-9.927710843373495,-1.0692826486817903,-0.5892090741876149,-9.576946658491723,3.0,0.5099345099345098,1961.036134087941,0.513140259891614,0.3596527008915556,-0.038575840568731506,1201.4652014652013,-1.0,55.161887660625105,0.5101471452100765,
2023-08-11 18:32:43.189000,-1.0602409638554218,-1.0843373493975905,-9.91566265060241,-1.0692826486817903,-0.5180870631514408,-9.613733905579398,3.0,0.5094905094905093,1962.745098039216,0.5557951168346835,0.6756016549152142,0.1616455917487326,1201.4652014652013,-1.0,55.161887660625105,0.5101432277180442,
2023-08-11 18:32:43.197000,-1.0481927710843375,-1.108433734939759,-9.93975903614458,-1.0079705702023298,-0.5131820968730839,-9.603923973022685,3.0,0.5094905094905093,1962.745098039216,0.7357380106054421,0.36664530039041965,0.19089796631897896,1204.3956043956043,-1.0,55.161887660625105,0.5101393219825167,
2023-08-11 18:32:43.204000,-1.0481927710843375,-1.0843373493975905,-9.963855421686748,-1.0864500306560392,-0.5843041079092581,-9.687308399754752,3.0,0.5099345099345098,1961.036134087941,0.3961307616106286,0.28692966610337306,-0.06980945166365599,1205.8608058608058,-1.0,55.161887660625105,0.5101354284939776,
2023-08-11 18:32:43.212000,-1.0120481927710845,-1.108433734939759,-9.93975903614458,-1.1354996934396075,-0.49356223175965663,-9.576946658491723,3.0,0.5094905094905093,1962.745098039216,0.21071033156576022,0.19322883281860004,0.11561097838121324,1208.7912087912086,-1.0,55.161887660625105,0.5101315477898805,
2023-08-11 18:32:43.220000,-1.0,-1.1204819277108435,-9.93975903614458,-1.1453096259963211,-0.4984671980380135,-9.652973635806253,3.0,0.5099345099345098,1961.036134087941,0.21001107161587346,-0.24951925878445338,-0.24998543208437718,1213.1868131868132,-1.0,55.161887660625105,0.5101276803266107,
2023-08-11 18:32:43.227000,-1.0240963855421688,-1.1325301204819278,-9.91566265060241,-1.1232372777437154,-0.5254445125689761,-9.613733905579398,3.0,0.5099345099345098,1961.036134087941,-0.3567391177670295,-0.5074296369675426,0.1502243459005885,1219.047619047619,-1.0,55.161887660625105,0.5101238264694754,
2023-08-11 18:32:43.235000,-1.0,-1.144578313253012,-9.91566265060241,-1.1453096259963211,-0.4984671980380135,-9.625996321275291,3.0,0.509046509046509,1964.4570431748803,-0.06538080531437596,-0.5652351261581486,0.30289610162577935,1222.7106227106226,-1.0,55.161887660625105,0.5101199865146469,
2023-08-11 18:32:43.243000,-1.036144578313253,-1.1566265060240966,-9.91566265060241,-1.1232372777437154,-0.5131820968730839,-9.635806253832005,3.0,0.5094905094905093,1962.745098039216,-0.04941436979197012,-0.5300390420138683,0.19474389604335393,1226.3736263736264,-1.0,55.161887660625105,0.510116160551708,
2023-08-11 18:32:43.250000,-1.0481927710843375,-1.180722891566265,-9.91566265060241,-1.1330472103004292,-0.5671367259350092,-9.562231759656651,3.0,0.5094905094905093,1962.745098039216,-0.15675077209952878,-0.5887768778043244,0.03939164384359866,1229.3040293040292,-1.0,55.161887660625105,0.5101123485401083,
2023-08-11 18:32:43.258000,-1.0602409638554218,-1.1927710843373494,-9.879518072289157,-1.2458614347026364,-0.5793991416309012,-9.522992029429798,3.0,0.5094905094905093,1962.745098039216,-0.1562845987996037,-0.5830662548802513,0.04009090379348541,1231.5018315018315,-1.0,55.161887660625105,0.5101085503313,
2023-08-11 18:32:43.266000,-1.0481927710843375,-1.2048192771084338,-9.831325301204819,-1.2385039852851012,-0.5475168608215818,-9.532801961986511,3.0,0.5094905094905093,1962.745098039216,-0.15407027562496434,-0.748674319678341,0.22143231746401712,1232.967032967033,-1.0,55.161887660625105,0.5101047655417241,
2023-08-11 18:32:43.273000,-1.072289156626506,-1.216867469879518,-9.819277108433736,-1.2213366033108521,-0.5916615573267934,-9.537706928264868,3.0,0.5094905094905093,1962.745098039216,-0.2885612726531082,-0.8347998368393458,0.18845055649437661,1230.7692307692307,-1.0,55.161887660625105,0.5101009935746018,
2023-08-11 18:32:43.281000,-1.0843373493975905,-1.2530120481927711,-9.807228915662652,-1.2630288166768853,-0.5769466584917229,-9.530349478847333,3.0,0.5094905094905093,1962.745098039216,-0.22446244391352496,-0.4919293747450619,0.3405395955946624,1226.3736263736264,-1.0,55.161887660625105,0.5100972337695464,
2023-08-11 18:32:43.289000,-1.108433734939759,-1.2289156626506024,-9.819277108433736,-1.2115266707541386,-0.6333537706928265,-9.473942366646229,3.0,0.5094905094905093,1962.745098039216,-0.1752811607715165,-0.5349338616630739,-0.013285939047840959,1221.245421245421,-1.0,55.161887660625105,0.5100934854032889,
2023-08-11 18:32:43.296000,-1.1325301204819278,-1.2530120481927711,-9.795180722891567,-1.1771919068056407,-0.5695892090741875,-9.42489270386266,3.0,0.5094905094905093,1962.745098039216,-0.34123885554454875,-0.4236349863061598,-0.05768894586562557,1215.3846153846152,-1.0,55.161887660625105,0.5100897478295512,
2023-08-11 18:32:43.304000,-1.1204819277108435,-1.2289156626506024,-9.771084337349398,-1.2409564684242795,-0.6407112201103617,-9.37829552421827,3.0,0.5094905094905093,1962.745098039216,-0.2781889167297947,-0.31233611094924574,0.0045451896742613,1210.2564102564102,-1.0,55.161887660625105,0.5100860204601781,
2023-08-11 18:32:43.312000,-1.1325301204819278,-1.2289156626506024,-9.74698795180723,-1.2017167381974247,-0.6112814224402207,-9.45677498467198,3.0,0.5094905094905093,1962.745098039216,-0.18343919352019067,-0.21746984441466088,0.15698385874949003,1207.3260073260074,-1.0,55.161887660625105,0.5100823026190365,
2023-08-11 18:32:43.319000,-1.144578313253012,-1.2530120481927711,-9.783132530120483,-1.2507664009809931,-0.5990190067443286,-9.451870018393622,3.0,0.5094905094905093,1962.745098039216,-0.27550842025523026,-0.4429811782530151,-0.04067362041839047,1204.3956043956043,-1.0,55.161887660625105,0.5100785935453778,
2023-08-11 18:32:43.327000,-1.144578313253012,-1.2530120481927711,-9.795180722891567,-1.2385039852851012,-0.6210913549969344,-9.449417535254444,3.0,0.5094905094905093,1962.745098039216,-0.19789056581784217,0.05209486626653457,0.17493153079657356,1202.9304029304028,-1.0,55.161887660625105,0.5100748923973529,
2023-08-11 18:32:43.335000,-1.1325301204819278,-1.2650602409638554,-9.771084337349398,-1.2752912323727774,-0.6210913549969344,-9.42489270386266,3.0,0.5094905094905093,1962.745098039216,-0.1798263504457778,0.1604801584989225,0.05104597634170487,1201.4652014652013,-1.0,55.161887660625105,0.5100711982556682,
2023-08-11 18:32:43.342000,-1.1325301204819278,-1.216867469879518,-9.795180722891567,-1.2188841201716738,-0.660331085223789,-9.527896995708154,3.0,0.5094905094905093,1962.745098039216,0.12516753102965963,0.5545131402598908,0.12644950760445187,1198.5347985347985,-1.0,55.161887660625105,0.5100675101273656,
2023-08-11 18:32:43.350000,-1.180722891566265,-1.2048192771084338,-9.831325301204819,-1.1992642550582464,-0.660331085223789,-9.56468424279583,3.0,0.5094905094905093,1962.745098039216,-0.3944991550608934,0.7464599965036999,0.7951751063457841,1195.6043956043954,-1.0,55.161887660625105,0.5100638269497163,
2023-08-11 18:32:43.358000,-1.1686746987951808,-1.2048192771084338,-9.843373493975903,-1.1894543225015328,-0.6750459840588595,-9.542611894543224,3.0,0.5094905094905093,1962.745098039216,-0.40871744070858324,1.2122836664530041,0.43762018530388663,1193.4065934065934,-1.0,55.161887660625105,0.5100601475942097,
2023-08-11 18:32:43.365000,-1.1566265060240966,-1.1927710843373494,-9.819277108433736,-1.1232372777437154,-0.6358062538320048,-9.545064377682403,3.0,0.5094905094905093,1962.745098039216,-0.5442573276615581,1.1262746926169802,0.29450498222714305,1191.2087912087911,-1.0,55.161887660625105,0.510056470870632,
2023-08-11 18:32:43.373000,-1.144578313253012,-1.1686746987951808,-9.879518072289157,-1.1354996934396075,-0.6112814224402207,-9.52053954629062,3.0,0.5094905094905093,1962.745098039216,-0.45032340772682167,1.366004312103024,0.18588660334479346,1191.9413919413919,-1.0,55.161887660625105,0.5100527955312144,
2023-08-11 18:32:43.381000,-1.108433734939759,-1.1686746987951808,-9.891566265060241,-1.125689760882894,-0.6161863887185776,-9.56713672593501,3.0,0.5094905094905093,1962.745098039216,-0.17260066429695206,1.0836198356739124,0.1065205990326902,1192.6739926739926,-1.0,55.161887660625105,0.5100491202748461,
2023-08-11 18:32:43.388000,-1.1325301204819278,-1.1686746987951808,-9.891566265060241,-1.0766400980993256,-0.5377069282648681,-9.559779276517473,3.0,0.5094905094905093,1962.745098039216,-0.05116251966668614,1.337684284132627,0.11829147485577769,1194.8717948717947,-1.0,55.161887660625105,0.5100454437513402,
2023-08-11 18:32:43.396000,-1.0963855421686748,-1.1204819277108435,-9.903614457831326,-1.1183323114653587,-0.5818516247700797,-9.58185162477008,3.0,0.5094905094905093,1962.745098039216,-0.019812365246780383,1.3760270380513953,0.10290775595827734,1197.069597069597,1126.007080078125,53.28563297829092,0.5100417647044848,
2023-08-11 18:32:43.404000,-1.0481927710843375,-1.1325301204819278,-9.879518072289157,-1.1109748620478233,-0.45432250153280196,-9.56468424279583,3.0,0.5094905094905093,1962.745098039216,-0.4658236699493042,0.8933045859798385,-0.14101742322708463,1196.3369963369962,-1.0,53.28563297829092,0.5100380819560041,
2023-08-11 18:32:43.411000,-1.0240963855421688,-1.1566265060240966,-9.903614457831326,-1.150214592274678,-0.5499693439607602,-9.608828939301041,3.0,0.5094905094905093,1962.745098039216,-0.2793543499796048,0.5210652059903266,-0.07808402773731143,1197.069597069597,-1.0,53.28563297829092,0.5100343941231755,
2023-08-11 18:32:43.419000,-1.0,-1.144578313253012,-9.903614457831326,-1.1158798283261802,-0.4396076026977314,-9.594114040465971,3.0,0.5094905094905093,1962.745098039216,-0.6304993881475437,0.41093176388322433,-0.36606258376551465,1197.069597069597,-1.0,53.28563297829092,0.5100306996446887,
2023-08-11 18:32:43.427000,-1.0240963855421688,-1.144578313253012,-9.91566265060241,-1.091354996934396,-0.41508277130594723,-9.54996934396076,3.0,0.5094905094905093,1962.745098039216,-0.5212982926402882,0.6387739642211987,-0.16351028494842945,1196.3369963369962,-1.0,53.28563297829092,0.5100269969339322,
2023-08-11 18:32:43.434000,-1.0,-1.1686746987951808,-9.927710843373495,-1.1870018393623543,-0.48129981606376454,-9.625996321275291,3.0,0.5094905094905093,1962.745098039216,-0.7807237340481318,0.559641046559058,0.37049123011479507,1195.6043956043954,-1.0,53.28563297829092,0.5100232843829874,
2023-08-11 18:32:43.442000,-0.963855421686747,-1.1686746987951808,-9.927710843373495,-1.1698344573881054,-0.44206008583690987,-9.608828939301041,3.0,0.5094905094905093,1962.745098039216,-1.114503816793893,0.618495425674495,-0.41256337043295865,1196.3369963369962,-1.0,53.28563297829092,0.51001956036663,
2023-08-11 18:32:43.450000,-1.0,-1.180722891566265,-9.903614457831326,-1.1354996934396075,-0.5107296137339056,-9.623543838136113,3.0,0.5094905094905093,1962.745098039216,-0.9685915739176046,0.10885146553231127,-0.011887419148068318,1192.6739926739926,-1.0,53.28563297829092,0.5100158232463321,
2023-08-11 18:32:43.457000,-1.0120481927710845,-1.1686746987951808,-9.903614457831326,-1.1919068056407112,-0.4494175352544451,-9.61128142244022,3.0,0.5094905094905093,1962.745098039216,-0.9145154711263906,-0.36233319736612,0.43319153895460616,1191.2087912087911,-1.0,53.28563297829092,0.5100120713742717,
