Shimmer_F5D4_Timestamp_FormattedUnix_CAL,Shimmer_F5D4_Accel_LN_X_CAL,Shimmer_F5D4_Accel_LN_Y_CAL,Shimmer_F5D4_Accel_LN_Z_CAL,Shimmer_F5D4_Accel_WR_X_CAL,Shimmer_F5D4_Accel_WR_Y_CAL,Shimmer_F5D4_Accel_WR_Z_CAL,Shimmer_F5D4_GSR_Range_CAL,Shimmer_F5D4_GSR_Skin_Conductance_CAL,Shimmer_F5D4_GSR_Skin_Resistance_CAL,Shimmer_F5D4_Gyro_X_CAL,Shimmer_F5D4_Gyro_Y_CAL,Shimmer_F5D4_Gyro_Z_CAL,Shimmer_F5D4_PPG_A13_CAL,Shimmer_F5D4_PPG_IBI_CAL,Shimmer_F5D4_PPGtoHR_CAL,Shimmer_F5D4_GSR_Skin_Conductance_LPF_CAL,
yyyy/mm/dd hh:mm:ss.000,m/(s^2),m/(s^2),m/(s^2),m/(s^2),m/(s^2),m/(s^2),no_units,uS,kOhms,deg/s,deg/s,deg/s,mV,ms,BPM,uS,
2023-08-12 15:02:08.685000,-6.518072289156627,0.08433734939759037,-7.445783132530121,0.11771919068056406,-6.27161250766401,-7.1514408338442665,3.0,0.6511266511266511,1535.799522673031,0.1934619194685617,-0.28261756307907515,-0.23541751646174483,1989.7435897435896,-1.0,68.71042147200671,0.6516088803083134,
2023-08-12 15:02:08.693000,-6.518072289156627,0.07228915662650603,-7.433734939759036,0.18638871857755976,-6.264255058246475,-7.13182096873084,3.0,0.6511266511266511,1535.799522673031,0.19299574616863835,-0.27865509002971806,-0.23308664996212333,1986.080586080586,-1.0,68.71042147200671,0.6516051546023479,
2023-08-12 15:02:08.701000,-6.530120481927711,0.07228915662650603,-7.445783132530121,0.18638871857755976,-6.220110361741263,-7.198038013488657,3.0,0.6511266511266511,1535.799522673031,0.06852747508886375,-0.15208903910028493,0.09230231338500082,1972.161172161172,-1.0,68.71042147200671,0.6516013830898925,
2023-08-12 15:02:08.708000,-6.530120481927711,0.07228915662650603,-7.445783132530121,0.19619865113427343,-6.259350091968117,-7.168608215818516,3.0,0.6511266511266511,1535.799522673031,-0.11642678165608127,-0.10255812598333396,-0.24124468271079794,1947.2527472527472,-1.0,68.71042147200671,0.6515975659208706,
2023-08-12 15:02:08.716000,-6.55421686746988,0.07228915662650603,-7.421686746987953,0.12507664009809932,-6.291232372777436,-7.1514408338442665,3.0,0.6511266511266511,1535.799522673031,0.2815686731542459,-0.5115086533418806,0.06561389196433763,1917.216117216117,-1.0,68.71042147200671,0.6515937033360194,
2023-08-12 15:02:08.724000,-6.518072289156627,0.08433734939759037,-7.421686746987953,0.18393623543838136,-6.274064990803188,-7.1514408338442665,3.0,0.6511266511266511,1535.799522673031,-0.06992599498863726,-0.47153429287337556,0.004195559699318357,1882.7838827838827,-1.0,68.71042147200671,0.6515897956642637,
2023-08-12 15:02:08.731000,-6.542168674698796,0.08433734939759037,-7.421686746987953,0.18884120171673818,-6.259350091968117,-7.1661557326793375,3.0,0.6515706515706515,1534.7529812606474,0.2510343220092077,-0.18821746984441537,-0.2559291416584115,1849.084249084249,-1.0,68.71042147200671,0.6515858433199545,
2023-08-12 15:02:08.739000,-6.542168674698796,0.04819277108433735,-7.421686746987953,0.1618638871857756,-6.237277743715512,-7.13182096873084,3.0,0.6511266511266511,1535.799522673031,0.11258085193170499,0.061418332265018846,-0.14847619602587248,1814.6520146520145,-1.0,68.71042147200671,0.6515818469492946,
2023-08-12 15:02:08.747000,-6.506024096385542,0.08433734939759037,-7.433734939759036,0.11771919068056406,-6.25444512568976,-7.185775597792765,3.0,0.6511266511266511,1535.799522673031,0.08414428063632708,0.12586679097954637,-0.3636151739409127,1780.2197802197802,-1.0,68.71042147200671,0.6515778072999571,
2023-08-12 15:02:08.754000,-6.518072289156627,0.07228915662650603,-7.433734939759036,0.18393623543838136,-6.264255058246475,-7.237277743715511,3.0,0.6511266511266511,1535.799522673031,-0.050812889691743635,0.18751820989452864,-0.3610512207913291,1747.985347985348,-1.0,68.71042147200671,0.6515737250591285,
2023-08-12 15:02:08.762000,-6.542168674698796,0.060240963855421686,-7.433734939759036,0.12507664009809932,-6.220110361741263,-7.198038013488657,3.0,0.6511266511266511,1535.799522673031,0.028553114620360476,0.42806363265544023,0.053027212866383,1717.9487179487178,-1.0,68.71042147200671,0.6515696009893739,
2023-08-12 15:02:08.770000,-6.542168674698796,0.060240963855421686,-7.421686746987953,0.18638871857755976,-6.310852237890864,-7.1808706315144075,3.0,0.6511266511266511,1535.799522673031,-0.07971563428704662,0.25557951168346904,-0.2047666219917254,1689.3772893772893,-1.0,68.71042147200671,0.6515654359257251,
2023-08-12 15:02:08.777000,-6.530120481927711,0.060240963855421686,-7.421686746987953,0.18393623543838136,-6.242182709993869,-7.1587982832618025,3.0,0.6511266511266511,1535.799522673031,-0.016316065497348348,0.22189849076394133,-0.12575024765456555,1661.5384615384614,-1.0,68.71042147200671,0.6515612307727575,
2023-08-12 15:02:08.785000,-6.578313253012048,0.0963855421686747,-7.421686746987953,0.13979153893316984,-6.328019619865113,-7.2029429797670135,3.0,0.6506826506826506,1536.8474923234392,-0.0597867257152854,-0.1290134607540359,-0.30639240137521134,1632.9670329670328,-1.0,68.71042147200671,0.6515569866404168,
2023-08-12 15:02:08.793000,-6.578313253012048,0.060240963855421686,-7.433734939759036,0.07602697731453095,-6.281422440220723,-7.1735131820968725,3.0,0.6506826506826506,1536.8474923234392,0.18646931996969937,0.025173358195909275,-0.5781714352310471,1608.058608058608,-1.0,68.71042147200671,0.6515527046714478,
2023-08-12 15:02:08.800000,-6.55421686746988,0.060240963855421686,-7.445783132530121,0.1103617412630288,-6.298589822194972,-7.175965665236051,3.0,0.6511266511266511,1535.799522673031,0.20033797564244493,0.3331973661208554,-0.1931122894936192,1586.080586080586,-1.0,68.71042147200671,0.6515483858686599,
2023-08-12 15:02:08.808000,-6.55421686746988,0.08433734939759037,-7.433734939759036,0.19865113427345185,-6.278969957081545,-7.183323114653587,3.0,0.6511266511266511,1535.799522673031,0.10687022900763359,0.25289901520890457,-0.23576714643668778,1566.3003663003662,-1.0,68.71042147200671,0.6515440312408158,
2023-08-12 15:02:08.815000,-6.542168674698796,0.07228915662650603,-7.433734939759036,0.07847946045370938,-6.256897608828939,-7.1735131820968725,3.0,0.6511266511266511,1535.799522673031,-0.04953091311695096,0.46663947322417176,-0.13891964337742566,1546.5201465201465,-1.0,68.71042147200671,0.6515396418411653,
2023-08-12 15:02:08.823000,-6.542168674698796,0.060240963855421686,-7.445783132530121,0.07357449417535254,-6.1931330472103,-7.122011036174126,3.0,0.6511266511266511,1535.799522673031,0.11665986830604294,0.2237631839636382,-0.10465590583299335,1526.7399267399267,-1.0,68.71042147200671,0.6515352187743478,
2023-08-12 15:02:08.831000,-6.530120481927711,0.04819277108433735,-7.421686746987953,0.13979153893316984,-6.242182709993869,-7.1587982832618025,3.0,0.6511266511266511,1535.799522673031,-0.00827457607365501,-0.06398228541460245,-0.3169978439484879,1505.4945054945053,-1.0,68.71042147200671,0.651530763192861,
2023-08-12 15:02:08.838000,-6.542168674698796,0.060240963855421686,-7.409638554216868,0.11526670754138564,-6.256897608828939,-7.2029429797670135,3.0,0.6511266511266511,1535.799522673031,0.17260066429695206,-0.24439135248528618,-0.1144455451314027,1484.2490842490843,-1.0,68.71042147200671,0.6515262762936493,
2023-08-12 15:02:08.846000,-6.55421686746988,0.07228915662650603,-7.421686746987953,0.1912936848559166,-6.308399754751686,-7.168608215818516,3.0,0.6511266511266511,1535.799522673031,0.260357788007692,0.07412155468795606,0.08507662723617508,1463.7362637362637,-1.0,68.71042147200671,0.651521759314836,
2023-08-12 15:02:08.854000,-6.566265060240964,0.04819277108433735,-7.433734939759036,0.1226241569589209,-6.293684855916616,-7.1735131820968725,3.0,0.6511266511266511,1535.799522673031,-0.049880543091895206,0.10360701590816322,0.08612551716100478,1444.6886446886447,-1.0,68.71042147200671,0.6515172135326094,
2023-08-12 15:02:08.861000,-6.542168674698796,0.07228915662650603,-7.397590361445784,0.16922133660331085,-6.276517473942366,-7.163703249540159,3.0,0.6511266511266511,1535.799522673031,0.2843657129537912,0.49927160421886846,-0.06736204183905366,1427.106227106227,-1.0,68.71042147200671,0.6515126402582749,
2023-08-12 15:02:08.869000,-6.566265060240964,0.060240963855421686,-7.433734939759036,0.08338442673206621,-6.2323727774371545,-7.198038013488657,3.0,0.6511266511266511,1535.799522673031,0.3107045043995106,0.35755492104189707,-0.17388264087174385,1412.4542124542124,-1.0,68.71042147200671,0.6515080408354892,
2023-08-12 15:02:08.877000,-6.55421686746988,0.04819277108433735,-7.421686746987953,0.1520539546290619,-6.247087676272225,-7.102391171060699,3.0,0.6511266511266511,1535.799522673031,-0.2710797739059498,-0.07179068818833412,0.07004253831361809,1398.5347985347985,-1.0,68.71042147200671,0.651503416776421,
2023-08-12 15:02:08.884000,-6.55421686746988,0.03614457831325302,-7.433734939759036,0.1103617412630288,-6.296137339055794,-7.1808706315144075,3.0,0.6511266511266511,1535.799522673031,-0.08624206048598561,0.15675077209952878,0.13099469727871316,1388.278388278388,-1.0,68.71042147200671,0.6514987696002416,
2023-08-12 15:02:08.892000,-6.542168674698796,0.07228915662650603,-7.433734939759036,0.1079092581238504,-6.242182709993869,-7.20784794604537,3.0,0.6511266511266511,1535.799522673031,0.47736145912242955,0.3659460404405329,0.08612551716100478,1380.952380952381,-1.0,68.71042147200671,0.65149410070331,
2023-08-12 15:02:08.900000,-6.55421686746988,0.060240963855421686,-7.433734939759036,0.07112201103617412,-6.274064990803188,-7.225015328019619,3.0,0.6511266511266511,1535.799522673031,0.2576772915331276,0.08635860381096644,0.0857758871860614,1377.2893772893772,-1.0,68.71042147200671,0.6514894115062798,
2023-08-12 15:02:08.907000,-6.55421686746988,0.04819277108433735,-7.445783132530121,0.134886572654813,-6.251992642550582,-7.205395462906192,3.0,0.6511266511266511,1535.799522673031,-0.21677058446477412,-0.06654623856418607,-0.204416992016782,1375.8241758241757,-1.0,68.71042147200671,0.6514847035908556,
2023-08-12 15:02:08.915000,-6.530120481927711,0.04819277108433735,-7.421686746987953,0.07112201103617412,-6.28632740649908,-7.217657878602084,3.0,0.6511266511266511,1535.799522673031,-0.11013344210710395,0.17586387739642242,-0.018996561971913226,1375.091575091575,-1.0,68.71042147200671,0.6514799785388684,
2023-08-12 15:02:08.923000,-6.55421686746988,0.024096385542168676,-7.433734939759036,0.12507664009809932,-6.215205395462906,-7.1661557326793375,3.0,0.6511266511266511,1535.799522673031,-0.020278538546705464,-0.07260649146320171,0.6209428354990969,1376.5567765567764,-1.0,68.71042147200671,0.6514752378030692,
2023-08-12 15:02:08.930000,-6.542168674698796,0.04819277108433735,-7.421686746987953,0.13733905579399142,-6.242182709993869,-7.1735131820968725,3.0,0.6511266511266511,1535.799522673031,-0.022725948371306502,0.15383718897500093,0.17399918419672514,1381.6849816849815,-1.0,68.71042147200671,0.6514704828548229,
2023-08-12 15:02:08.938000,-6.542168674698796,0.03614457831325302,-7.457831325301205,0.1079092581238504,-6.269160024524831,-7.198038013488657,3.0,0.6506826506826506,1536.8474923234392,-0.07214031816327662,0.11945690810558822,-0.1474273061010432,1388.278388278388,-1.0,68.71042147200671,0.6514657151826972,
2023-08-12 15:02:08.946000,-6.530120481927711,0.060240963855421686,-7.433734939759036,0.07112201103617412,-6.237277743715512,-7.161250766400981,3.0,0.6506826506826506,1536.8474923234392,0.184954256744945,0.2075636617912707,-0.11596060835615618,1394.8717948717947,-1.0,68.71042147200671,0.6514609364194431,
2023-08-12 15:02:08.953000,-6.530120481927711,0.03614457831325302,-7.457831325301205,0.15450643776824033,-6.283874923359901,-7.175965665236051,3.0,0.6511266511266511,1535.799522673031,0.2722452071557599,0.11386282850649766,-0.04032399044344752,1401.4652014652013,-1.0,68.71042147200671,0.6514561481395568,
2023-08-12 15:02:08.961000,-6.518072289156627,0.03614457831325302,-7.421686746987953,0.12752912323727775,-6.28632740649908,-7.200490496627835,3.0,0.6506826506826506,1536.8474923234392,0.2673503875065561,-0.08764058038575911,-0.025173358195909275,1406.5934065934066,-1.0,68.71042147200671,0.6514513518691513,
2023-08-12 15:02:08.969000,-6.55421686746988,0.060240963855421686,-7.481927710843374,0.12998160637645614,-6.249540159411404,-7.178418148375229,3.0,0.6511266511266511,1535.799522673031,0.26257211118233137,-0.08612551716100478,-0.026688421420663185,1411.7216117216117,-1.0,68.71042147200671,0.6514465491061381,
2023-08-12 15:02:08.976000,-6.542168674698796,0.060240963855421686,-7.421686746987953,0.12507664009809932,-6.23973022685469,-7.190680564071122,3.0,0.6511266511266511,1535.799522673031,-0.15197249577530408,-0.052327952916496244,-0.02797039799545499,1416.117216117216,-1.0,68.71042147200671,0.6514417411699155,
2023-08-12 15:02:08.984000,-6.542168674698796,0.04819277108433735,-7.445783132530121,0.1103617412630288,-6.261802575107295,-7.198038013488657,3.0,0.6511266511266511,1535.799522673031,0.20080414894237003,-0.022259775071383155,0.21607132451488822,1419.047619047619,-1.0,68.71042147200671,0.6514369295191732,
2023-08-12 15:02:08.992000,-6.518072289156627,0.04819277108433735,-7.445783132530121,0.13733905579399142,-6.205395462906192,-7.200490496627835,3.0,0.6511266511266511,1535.799522673031,0.2308723267874831,-0.14789347940096786,-0.10640405570770937,1417.5824175824175,-1.0,68.71042147200671,0.6514321156015037,
2023-08-12 15:02:08.999000,-6.518072289156627,0.060240963855421686,-7.397590361445784,0.14224402207234824,-6.222562844880441,-7.1735131820968725,3.0,0.6511266511266511,1535.799522673031,0.014218285647689819,-0.05605733931588995,-0.04253831361808732,1413.1868131868132,-1.0,68.71042147200671,0.651427300862912,
2023-08-12 15:02:09.007000,-6.542168674698796,0.060240963855421686,-7.421686746987953,0.1520539546290619,-6.2323727774371545,-7.168608215818516,3.0,0.6511266511266511,1535.799522673031,0.19765747916788048,-0.1003438028086946,0.09789639298409182,1405.8608058608058,-1.0,68.71042147200671,0.6514224868750544,
2023-08-12 15:02:09.015000,-6.542168674698796,0.060240963855421686,-7.409638554216868,0.18148375229920294,-6.180870631514408,-7.161250766400981,3.0,0.6511266511266511,1535.799522673031,0.15197249577530408,-0.01957927859681871,0.005477536274109728,1400.0,-1.0,68.71042147200671,0.6514176750469991,
2023-08-12 15:02:09.022000,-6.530120481927711,0.08433734939759037,-7.433734939759036,0.12998160637645614,-6.242182709993869,-7.185775597792765,3.0,0.6511266511266511,1535.799522673031,-0.10756948895752033,-0.15756657537439464,-0.1769127673212517,1395.6043956043954,-1.0,68.71042147200671,0.6514128667841107,
2023-08-12 15:02:09.030000,-6.530120481927711,0.0963855421686747,-7.46987951807229,0.13979153893316984,-6.237277743715512,-7.185775597792765,3.0,0.6511266511266511,1535.799522673031,0.1988229124176906,-0.08111415418681839,0.026804964745644023,1392.6739926739926,-1.0,68.71042147200671,0.6514080636153895,
2023-08-12 15:02:09.038000,-6.55421686746988,0.0963855421686747,-7.457831325301205,0.17903126916002451,-6.266707541385653,-7.227467811158798,3.0,0.6511266511266511,1535.799522673031,0.13705495017772923,0.2699143406561397,-0.09603169978439496,1391.2087912087911,-1.0,68.71042147200671,0.6514032670440678,
2023-08-12 15:02:09.045000,-6.566265060240964,0.0963855421686747,-7.433734939759036,0.17167381974248927,-6.28632740649908,-7.148988350705088,3.0,0.6511266511266511,1535.799522673031,-0.03100052444496325,0.2690985373812721,-0.18693549326962314,1390.4761904761904,-1.0,68.71042147200671,0.6513984785474578,
2023-08-12 15:02:09.053000,-6.566265060240964,0.0963855421686747,-7.421686746987953,0.11771919068056406,-6.308399754751686,-7.153893316983446,3.0,0.6511266511266511,1535.799522673031,-0.028553114620360476,0.16397645824835452,-0.0327486743196784,1389.0109890109889,-1.0,68.71042147200671,0.6513936994380207,
2023-08-12 15:02:09.061000,-6.55421686746988,0.08433734939759037,-7.445783132530121,0.16676885346413242,-6.269160024524831,-7.163703249540159,3.0,0.6511266511266511,1535.799522673031,-0.2251617038634117,-0.2172367577646992,-0.33797564244507877,1385.3479853479853,-1.0,68.71042147200671,0.6513889310222738,
2023-08-12 15:02:09.068000,-6.530120481927711,0.07228915662650603,-7.421686746987953,0.1618638871857756,-6.217657878602084,-7.1293684855916615,3.0,0.6511266511266511,1535.799522673031,-0.2505681487092827,-0.12411864110483035,-0.1984732824427481,1379.4871794871794,-1.0,68.71042147200671,0.6513841745893989,
2023-08-12 15:02:09.076000,-6.542168674698796,0.08433734939759037,-7.421686746987953,0.13979153893316984,-6.23973022685469,-7.1514408338442665,3.0,0.6511266511266511,1535.799522673031,0.04428646349280291,-0.033681020919527696,-0.1661907814229939,1372.161172161172,-1.0,68.71042147200671,0.651379431282238,
2023-08-12 15:02:09.084000,-6.530120481927711,0.08433734939759037,-7.433734939759036,0.17412630288166767,-6.25444512568976,-7.190680564071122,3.0,0.6506826506826506,1536.8474923234392,-0.04556844006759558,0.07528698793776616,-0.1956762426432028,1364.8351648351647,-1.0,68.71042147200671,0.651374702383911,
2023-08-12 15:02:09.091000,-6.518072289156627,0.10843373493975904,-7.397590361445784,0.16922133660331085,-6.278969957081545,-7.2323727774371545,3.0,0.6506826506826506,1536.8474923234392,0.40090903793485155,0.04580152671755725,-0.20884563836606249,1355.3113553113553,-1.0,68.71042147200671,0.6513699891468911,
2023-08-12 15:02:09.099000,-6.542168674698796,0.07228915662650603,-7.445783132530121,0.1520539546290619,-6.256897608828939,-7.205395462906192,3.0,0.6506826506826506,1536.8474923234392,0.2767903968300212,0.047433133267292434,-0.11607715168113746,1346.5201465201465,-1.0,68.71042147200671,0.6513652927607974,
2023-08-12 15:02:09.107000,-6.578313253012048,0.07228915662650603,-7.46987951807229,0.18393623543838136,-6.27161250766401,-7.200490496627835,3.0,0.6506826506826506,1536.8474923234392,0.29030942252782427,0.20208612551716096,0.17516461744653566,1339.9267399267399,-1.0,68.71042147200671,0.6513606143305152,
2023-08-12 15:02:09.114000,-6.566265060240964,0.07228915662650603,-7.457831325301205,0.134886572654813,-6.269160024524831,-7.190680564071122,3.0,0.6511266511266511,1535.799522673031,0.2743429870054184,0.06304993881475403,0.17283375094691458,1336.263736263736,-1.0,68.71042147200671,0.6513559547468704,
2023-08-12 15:02:09.122000,-6.566265060240964,0.07228915662650603,-7.433734939759036,0.18638871857755976,-6.269160024524831,-7.178418148375229,3.0,0.6511266511266511,1535.799522673031,0.1517394091253424,0.38389371248761645,-0.2713128605559115,1335.5311355311355,-1.0,68.71042147200671,0.6513513149830994,
2023-08-12 15:02:09.130000,-6.55421686746988,0.07228915662650603,-7.397590361445784,0.12507664009809932,-6.225015328019619,-7.188228080931943,3.0,0.6506826506826506,1536.8474923234392,0.02925237457024723,-0.0779674844123306,-0.10279121263329649,1334.065934065934,-1.0,68.71042147200671,0.6513466961144173,
2023-08-12 15:02:09.137000,-6.530120481927711,0.060240963855421686,-7.397590361445784,0.12752912323727775,-6.237277743715512,-7.175965665236051,3.0,0.6511266511266511,1535.799522673031,0.31664821397354537,-0.15640114212458453,-0.19404463609346762,1332.6007326007325,-1.0,68.71042147200671,0.6513420990291714,
2023-08-12 15:02:09.145000,-6.542168674698796,0.060240963855421686,-7.409638554216868,0.14714898835070508,-6.225015328019619,-7.14653586756591,3.0,0.6511266511266511,1535.799522673031,0.342287745469378,-0.18845055649437706,-0.2235300973136765,1331.135531135531,-1.0,68.71042147200671,0.6513375244167411,
2023-08-12 15:02:09.153000,-6.518072289156627,0.060240963855421686,-7.445783132530121,0.17167381974248927,-6.220110361741263,-7.148988350705088,3.0,0.6511266511266511,1535.799522673031,0.21851873433949015,-0.02167705844647724,-0.06677932521414817,1330.4029304029302,-1.0,68.71042147200671,0.6513329730848704,
2023-08-12 15:02:09.160000,-6.530120481927711,0.04819277108433735,-7.457831325301205,0.14224402207234824,-6.247087676272225,-7.1735131820968725,3.0,0.6506826506826506,1536.8474923234392,0.2478876522347182,0.31152030767437816,-0.05360992949128848,1331.135531135531,-1.0,68.71042147200671,0.6513284459476674,
2023-08-12 15:02:09.168000,-6.518072289156627,0.060240963855421686,-7.433734939759036,0.0809319435928878,-6.249540159411404,-7.119558553034947,3.0,0.6511266511266511,1535.799522673031,0.1537206456500201,0.42864634928034445,-0.20511625196666877,1331.135531135531,-1.0,68.71042147200671,0.6513239437264277,
2023-08-12 15:02:09.175000,-6.530120481927711,0.060240963855421686,-7.433734939759036,0.14469650521152666,-6.276517473942366,-7.1955855303494785,3.0,0.6506826506826506,1536.8474923234392,0.4429811782530151,0.8215138977915044,-0.219451080939339,1331.8681318681317,-1.0,68.71042147200671,0.6513194669377984,
2023-08-12 15:02:09.183000,-6.55421686746988,0.04819277108433735,-7.421686746987953,0.0956468424279583,-6.264255058246475,-7.161250766400981,3.0,0.6506826506826506,1536.8474923234392,0.361633937416235,0.2971854787017075,-0.4943767845696638,1333.3333333333333,-1.0,68.71042147200671,0.651315016062157,
2023-08-12 15:02:09.191000,-6.566265060240964,0.04819277108433735,-7.433734939759036,0.17167381974248927,-6.249540159411404,-7.119558553034947,3.0,0.6511266511266511,1535.799522673031,0.42048831653167024,0.4936775246197779,-0.12470135772973584,1335.5311355311355,-1.0,68.71042147200671,0.6513105915101296,
2023-08-12 15:02:09.198000,-6.530120481927711,0.04819277108433735,-7.433734939759036,0.12998160637645614,-6.222562844880441,-7.148988350705088,3.0,0.6506826506826506,1536.8474923234392,0.2793543499796048,0.06118524561505717,-0.26373754443214276,1339.194139194139,-1.0,68.71042147200671,0.6513061936207749,
2023-08-12 15:02:09.206000,-6.530120481927711,0.03614457831325302,-7.445783132530121,0.06621704475781728,-6.222562844880441,-7.156345800122624,3.0,0.6506826506826506,1536.8474923234392,0.3976458248353829,0.45673329060078155,-0.2448575257852104,1342.8571428571427,-1.0,68.71042147200671,0.6513018226914409,
2023-08-12 15:02:09.214000,-6.530120481927711,0.04819277108433735,-7.457831325301205,0.1103617412630288,-6.207847946045371,-7.20784794604537,3.0,0.6511266511266511,1535.799522673031,0.3643144338907995,0.8334013169395723,-0.04451955014276544,1347.2527472527472,-1.0,68.71042147200671,0.6512974789445746,
2023-08-12 15:02:09.221000,-6.566265060240964,0.04819277108433735,-7.433734939759036,0.13733905579399142,-6.237277743715512,-7.227467811158798,3.0,0.6511266511266511,1535.799522673031,0.6364430977215785,0.7933104131460864,-0.16560806479808884,1353.113553113553,-1.0,68.71042147200671,0.6512931626649916,
2023-08-12 15:02:09.229000,-6.55421686746988,0.03614457831325302,-7.433734939759036,0.1103617412630288,-6.256897608828939,-7.139178418148375,3.0,0.6506826506826506,1536.8474923234392,0.4207214031816319,0.05291066954140216,-0.271545947205874,1357.5091575091574,-1.0,68.71042147200671,0.6512888740815498,
2023-08-12 15:02:09.237000,-6.566265060240964,0.024096385542168676,-7.445783132530121,0.12017167381974249,-6.276517473942366,-7.220110361741263,3.0,0.6511266511266511,1535.799522673031,0.23355282326204754,0.053143756191363835,0.12540061767962216,1361.1721611721612,-1.0,68.71042147200671,0.6512846130997519,
2023-08-12 15:02:09.244000,-6.566265060240964,0.024096385542168676,-7.46987951807229,0.11281422440220723,-6.276517473942366,-7.301042305334151,3.0,0.6502386502386502,1537.8968931375896,0.23157158673736986,0.05407610279121226,0.12598333430452766,1364.102564102564,-1.0,68.71042147200671,0.6512803795776763,
2023-08-12 15:02:09.252000,-6.566265060240964,0.012048192771084338,-7.481927710843374,0.05885959534028203,-6.28632740649908,-7.28632740649908,3.0,0.6506826506826506,1536.8474923234392,0.3513781248179006,-0.13029543732882684,0.2487034555095858,1364.102564102564,-1.0,68.71042147200671,0.6512761733247413,
2023-08-12 15:02:09.260000,-6.578313253012048,0.03614457831325302,-7.493975903614459,0.11526670754138564,-6.266707541385653,-7.276517473942366,3.0,0.6506826506826506,1536.8474923234392,0.07552007458772783,0.08659169046092811,0.1088514655323117,1362.6373626373625,-1.0,68.71042147200671,0.651271994048071,
2023-08-12 15:02:09.267000,-6.530120481927711,0.04819277108433735,-7.46987951807229,0.10545677498467197,-6.330472103004292,-7.215205395462906,3.0,0.6506826506826506,1536.8474923234392,0.07855020103723478,0.39554804498572266,0.24427480916030533,1360.4395604395604,-1.0,68.71042147200671,0.6512678415009273,
2023-08-12 15:02:09.275000,-6.542168674698796,0.03614457831325302,-7.457831325301205,0.16676885346413242,-6.342734518700183,-7.200490496627835,3.0,0.6511266511266511,1535.799522673031,-0.029951634520132248,0.08787366703572079,0.014917545597575707,1358.974358974359,-1.0,68.71042147200671,0.6512637152051759,
2023-08-12 15:02:09.283000,-6.518072289156627,0.03614457831325302,-7.457831325301205,0.13733905579399142,-6.217657878602084,-7.1661557326793375,3.0,0.6511266511266511,1535.799522673031,-0.07307266476312506,-0.21735330108968004,0.25721111823320336,1361.1721611721612,-1.0,68.71042147200671,0.6512596147597877,
2023-08-12 15:02:09.290000,-6.530120481927711,0.03614457831325302,-7.433734939759036,0.11771919068056406,-6.308399754751686,-7.198038013488657,3.0,0.6506826506826506,1536.8474923234392,-0.13262630382844878,-0.12190431793019099,0.2545306217586389,1364.102564102564,-1.0,68.71042147200671,0.6512555398517956,
2023-08-12 15:02:09.298000,-6.530120481927711,0.024096385542168676,-7.433734939759036,0.11281422440220723,-6.227467811158798,-7.23973022685469,3.0,0.6511266511266511,1535.799522673031,-0.0844939106112696,0.01619952217236751,0.3290018064215375,1367.7655677655678,-1.0,68.71042147200671,0.6512514898415858,
2023-08-12 15:02:09.306000,-6.518072289156627,0.04819277108433735,-7.46987951807229,0.13979153893316984,-6.227467811158798,-7.215205395462906,3.0,0.6506826506826506,1536.8474923234392,-0.09708058970922423,-0.07412155468795606,0.25161703863411233,1369.9633699633698,-1.0,68.71042147200671,0.6512474640409005,
2023-08-12 15:02:09.313000,-6.506024096385542,0.03614457831325302,-7.46987951807229,0.09074187614960147,-6.180870631514408,-7.153893316983446,3.0,0.6511266511266511,1535.799522673031,-0.2938057222772563,-0.0090903793485226,0.14451372297651666,1369.230769230769,-1.0,68.71042147200671,0.6512434617243159,
2023-08-12 15:02:09.321000,-6.506024096385542,0.04819277108433735,-7.457831325301205,0.13979153893316984,-6.234825260576333,-7.1808706315144075,3.0,0.6511266511266511,1535.799522673031,-0.2883281860031466,0.22154886078899882,0.15873200862420606,1368.4981684981683,-1.0,68.71042147200671,0.651239482258855,
2023-08-12 15:02:09.329000,-6.518072289156627,0.04819277108433735,-7.421686746987953,0.17903126916002451,-6.205395462906192,-7.2323727774371545,3.0,0.6506826506826506,1536.8474923234392,-0.4828389953965393,0.29473806887710474,0.14346483305168697,1366.3003663003662,-1.0,68.71042147200671,0.6512355251065338,
2023-08-12 15:02:09.336000,-6.518072289156627,0.04819277108433735,-7.457831325301205,0.09074187614960147,-6.288779889638258,-7.188228080931943,3.0,0.6511266511266511,1535.799522673031,-0.26583532428180173,0.001398519899773509,-0.2671173008565935,1361.1721611721612,-1.0,68.71042147200671,0.6512315894118009,
2023-08-12 15:02:09.344000,-6.506024096385542,0.060240963855421686,-7.433734939759036,0.1079092581238504,-6.269160024524831,-7.163703249540159,3.0,0.6511266511266511,1535.799522673031,-0.19975525901753902,0.18670240661966103,-0.2771400268049646,1353.8461538461538,-1.0,68.71042147200671,0.65122767428168,
2023-08-12 15:02:09.352000,-6.506024096385542,0.060240963855421686,-7.445783132530121,0.21091354996934394,-6.242182709993869,-7.1955855303494785,3.0,0.6506826506826506,1536.8474923234392,-0.10687022900763359,0.1741157275217064,-0.2584930948079947,1345.7875457875457,-1.0,68.71042147200671,0.651223778948665,
2023-08-12 15:02:09.359000,-6.506024096385542,0.08433734939759037,-7.433734939759036,0.1079092581238504,-6.225015328019619,-7.1955855303494785,3.0,0.6511266511266511,1535.799522673031,-0.28867781597808906,0.3431035487442456,-0.3609346774663483,1336.263736263736,-1.0,68.71042147200671,0.6512199026256977,
2023-08-12 15:02:09.367000,-6.518072289156627,0.060240963855421686,-7.445783132530121,0.13733905579399142,-6.222562844880441,-7.188228080931943,3.0,0.6506826506826506,1536.8474923234392,-0.33296427947089374,0.1443971796515358,-0.2364664063865741,1329.6703296703297,-1.0,68.71042147200671,0.6512160446179797,
2023-08-12 15:02:09.375000,-6.530120481927711,0.0963855421686747,-7.46987951807229,0.15941140404659718,-6.207847946045371,-7.212752912323728,3.0,0.6506826506826506,1536.8474923234392,-0.07015908163859894,-0.11526134840626943,-0.06724549851407281,1325.2747252747251,-1.0,68.71042147200671,0.6512122041898575,
2023-08-12 15:02:09.382000,-6.55421686746988,0.08433734939759037,-7.46987951807229,0.07357449417535254,-6.251992642550582,-7.220110361741263,3.0,0.6506826506826506,1536.8474923234392,0.11456208845638441,-0.05326029951634467,-0.41734164675718205,1323.076923076923,-1.0,68.71042147200671,0.6512083804108024,
2023-08-12 15:02:09.390000,-6.566265060240964,0.04819277108433735,-7.433734939759036,0.13733905579399142,-6.291232372777436,-7.1661557326793375,3.0,0.6506826506826506,1536.8474923234392,-0.14579569955130758,-0.28098595652934,0.13822038342753934,1320.8791208791208,-1.0,68.71042147200671,0.6512045722992934,
2023-08-12 15:02:09.398000,-6.542168674698796,0.04819277108433735,-7.445783132530121,0.15941140404659718,-6.308399754751686,-7.161250766400981,3.0,0.6506826506826506,1536.8474923234392,-0.40289027445953096,-0.06468154536448921,-0.10698677233261486,1321.6117216117216,-1.0,68.71042147200671,0.6512007788279642,
2023-08-12 15:02:09.405000,-6.55421686746988,0.04819277108433735,-7.481927710843374,0.14714898835070508,-6.229920294297976,-7.225015328019619,3.0,0.6506826506826506,1536.8474923234392,-0.07971563428704662,-0.2449740691101921,9.323465998484274E-4,1324.5421245421244,-1.0,68.71042147200671,0.6511969990674815,
2023-08-12 15:02:09.413000,-6.530120481927711,0.060240963855421686,-7.433734939759036,0.18884120171673818,-6.215205395462906,-7.139178418148375,3.0,0.6506826506826506,1536.8474923234392,-0.21770293106462255,-0.10582133908280432,-0.07493735796282278,1327.4725274725274,-1.0,68.71042147200671,0.651193232171262,
2023-08-12 15:02:09.421000,-6.530120481927711,0.024096385542168676,-7.433734939759036,0.10300429184549356,-6.27161250766401,-7.212752912323728,3.0,0.6506826506826506,1536.8474923234392,-0.4617446535749662,-0.28914398927801416,-0.2103607015908164,1329.6703296703297,-1.0,68.71042147200671,0.6511894770937616,
2023-08-12 15:02:09.428000,-6.530120481927711,0.03614457831325302,-7.445783132530121,0.11526670754138564,-6.298589822194972,-7.2029429797670135,3.0,0.6506826506826506,1536.8474923234392,-0.15430336227492603,-0.27259483713070415,0.0980129363090731,1334.065934065934,-1.0,68.71042147200671,0.6511857326169205,
2023-08-12 15:02:09.436000,-6.55421686746988,0.03614457831325302,-7.433734939759036,0.12017167381974249,-6.2323727774371545,-7.2029429797670135,3.0,0.6506826506826506,1536.8474923234392,-0.6134840627003086,0.03333139094458345,0.17749548394615716,1338.4615384615383,-1.0,68.71042147200671,0.651181997503918,
2023-08-12 15:02:09.444000,-6.55421686746988,0.04819277108433735,-7.421686746987953,0.12017167381974249,-6.296137339055794,-7.178418148375229,3.0,0.6506826506826506,1536.8474923234392,0.0779674844123306,-0.5312044752636784,0.6803799312394381,1340.6593406593406,-1.0,68.71042147200671,0.651178270503533,
2023-08-12 15:02:09.451000,-6.530120481927711,0.060240963855421686,-7.46987951807229,0.1103617412630288,-6.278969957081545,-7.1587982832618025,3.0,0.6506826506826506,1536.8474923234392,0.18378882349513492,-0.40545422760911287,0.4139618903327313,1344.3223443223442,-1.0,68.71042147200671,0.6511745503543697,
2023-08-12 15:02:09.459000,-6.55421686746988,0.04819277108433735,-7.457831325301205,0.11526670754138564,-6.244635193133047,-7.205395462906192,3.0,0.6506826506826506,1536.8474923234392,-0.016898782122254267,-0.3862245789872384,0.25721111823320336,1347.985347985348,-1.0,68.71042147200671,0.6511708356502108,
2023-08-12 15:02:09.467000,-6.542168674698796,0.060240963855421686,-7.445783132530121,0.06866952789699571,-6.283874923359901,-7.175965665236051,3.0,0.6506826506826506,1536.8474923234392,0.04195559699318271,-0.2900763358778626,0.39146902861138644,1350.9157509157508,-1.0,68.71042147200671,0.6511671250031004,
2023-08-12 15:02:09.474000,-6.55421686746988,0.07228915662650603,-7.457831325301205,0.11771919068056406,-6.190680564071122,-7.178418148375229,3.0,0.6506826506826506,1536.8474923234392,0.11549443505623284,-0.48680146844589467,-0.038342753918769394,1350.18315018315,873.22998046875,68.71042147200671,0.6511634171747642,
2023-08-12 15:02:09.482000,-6.530120481927711,0.060240963855421686,-7.433734939759036,0.13733905579399142,-6.222562844880441,-7.102391171060699,3.0,0.6506826506826506,1536.8474923234392,0.446594021327428,-0.14940854262572048,-0.1907814229939981,1345.054945054945,-1.0,68.71042147200671,0.6511597109311631,
2023-08-12 15:02:09.490000,-6.518072289156627,0.060240963855421686,-7.397590361445784,0.164316370324954,-6.310852237890864,-7.217657878602084,3.0,0.6506826506826506,1536.8474923234392,0.1341413670532014,-0.6498455800944007,-0.14369791970164908,1339.9267399267399,-1.0,68.71042147200671,0.6511560049074318,
2023-08-12 15:02:09.497000,-6.530120481927711,0.03614457831325302,-7.433734939759036,0.10545677498467197,-6.269160024524831,-7.163703249540159,3.0,0.6506826506826506,1536.8474923234392,0.08600897383602393,-0.3714235767146444,0.20861255171610038,1335.5311355311355,-1.0,68.71042147200671,0.651152297770526,
2023-08-12 15:02:09.505000,-6.542168674698796,0.060240963855421686,-7.421686746987953,0.15941140404659718,-6.207847946045371,-7.200490496627835,3.0,0.6506826506826506,1536.8474923234392,0.2515004953091311,-0.09673095973428172,-0.050113629741856444,1332.6007326007325,-1.0,68.71042147200671,0.6511485883501907,
2023-08-12 15:02:09.513000,-6.506024096385542,0.08433734939759037,-7.445783132530121,0.20110361741263028,-6.227467811158798,-7.163703249540159,3.0,0.6506826506826506,1536.8474923234392,-0.28483188625371453,-0.2234135539886957,-0.11153196200687615,1331.135531135531,-1.0,68.71042147200671,0.6511448754930326,
2023-08-12 15:02:09.520000,-6.542168674698796,0.07228915662650603,-7.445783132530121,0.17412630288166767,-6.23973022685469,-7.198038013488657,3.0,0.6506826506826506,1536.8474923234392,-0.28401608297884695,-0.22469553056348662,-0.10745294563253907,1333.3333333333333,-1.0,68.71042147200671,0.6511411580657255,
2023-08-12 15:02:09.528000,-6.530120481927711,0.060240963855421686,-7.433734939759036,0.12752912323727775,-6.320662170447577,-7.1735131820968725,3.0,0.6506826506826506,1536.8474923234392,-0.35860381096672633,-0.21280811141541875,-0.12120505798030425,1339.9267399267399,-1.0,68.71042147200671,0.6511374349580249,
2023-08-12 15:02:09.536000,-6.55421686746988,0.07228915662650603,-7.445783132530121,0.11281422440220723,-6.278969957081545,-7.163703249540159,3.0,0.6506826506826506,1536.8474923234392,-0.23471825651185765,-0.07272303478818254,0.04999708641687561,1350.9157509157508,-1.0,68.71042147200671,0.6511337050856117,
2023-08-12 15:02:09.543000,-6.566265060240964,0.04819277108433735,-7.421686746987953,0.0809319435928878,-6.303494788473329,-7.175965665236051,3.0,0.6506826506826506,1536.8474923234392,-0.4639589767496073,-0.12085542800536173,-0.04125633704329595,1372.161172161172,-1.0,68.71042147200671,0.6511299673927506,
2023-08-12 15:02:09.551000,-6.566265060240964,0.060240963855421686,-7.421686746987953,0.07602697731453095,-6.298589822194972,-7.198038013488657,3.0,0.6502386502386502,1537.8968931375896,-0.2787716333546989,-0.32107686032282584,0.005127906299166785,1400.0,-1.0,68.71042147200671,0.6511262208547749,
2023-08-12 15:02:09.558000,-6.578313253012048,0.060240963855421686,-7.433734939759036,0.15695892090741875,-6.269160024524831,-7.227467811158798,3.0,0.6506826506826506,1536.8474923234392,-0.46104539362507946,-0.5960025639531502,0.1605967018239029,1435.8974358974358,-1.0,68.71042147200671,0.6511224644698456,
2023-08-12 15:02:09.566000,-6.55421686746988,0.04819277108433735,-7.445783132530121,0.07602697731453095,-6.234825260576333,-7.1808706315144075,3.0,0.6506826506826506,1536.8474923234392,-0.29252374570246537,-0.2583765514830143,0.2671173008565935,1478.3882783882782,-1.0,68.71042147200671,0.6511186973681251,
2023-08-12 15:02:09.574000,-6.530120481927711,0.03614457831325302,-7.433734939759036,0.11281422440220723,-6.298589822194972,-7.148988350705088,3.0,0.6506826506826506,1536.8474923234392,-0.4289959792552887,-0.46862070974884945,0.1765631373463083,1523.0769230769229,-1.0,68.71042147200671,0.6511149186859367,
2023-08-12 15:02:09.581000,-6.530120481927711,0.03614457831325302,-7.409638554216868,0.06621704475781728,-6.23973022685469,-7.109748620478234,3.0,0.6506826506826506,1536.8474923234392,-0.13857001340248185,-0.4779441757473337,-0.008041489423693338,1571.4285714285713,-1.0,68.71042147200671,0.6511111274501155,
2023-08-12 15:02:09.589000,-6.530120481927711,0.03614457831325302,-7.385542168674699,0.09809932556713671,-6.291232372777436,-7.153893316983446,3.0,0.6506826506826506,1536.8474923234392,-0.43039449915506045,-0.6546238564186238,0.32643785327195385,1619.047619047619,-1.0,68.71042147200671,0.6511073227283729,
2023-08-12 15:02:09.597000,-6.542168674698796,0.03614457831325302,-7.445783132530121,0.14714898835070508,-6.237277743715512,-7.126916002452483,3.0,0.6511266511266511,1535.799522673031,-0.4928617213449103,-0.6648796690169564,0.49239554804498564,1669.5970695970695,-1.0,68.71042147200671,0.6511035034914899,
2023-08-12 15:02:09.604000,-6.518072289156627,0.03614457831325302,-7.433734939759036,0.029429797670141016,-6.249540159411404,-7.1587982832618025,3.0,0.6506826506826506,1536.8474923234392,-0.18646931996969937,-0.7034555095856879,0.1689878212225396,1720.8791208791208,-1.0,68.71042147200671,0.651099668922552,
2023-08-12 15:02:09.612000,-6.566265060240964,0.04819277108433735,-7.409638554216868,0.13733905579399142,-6.251992642550582,-7.122011036174126,3.0,0.6506826506826506,1536.8474923234392,-0.24893654215954747,0.0476662199172541,0.06083561564011423,1772.8937728937728,-1.0,68.71042147200671,0.651095818417856,
2023-08-12 15:02:09.620000,-6.55421686746988,0.03614457831325302,-7.421686746987953,0.12017167381974249,-6.298589822194972,-7.139178418148375,3.0,0.6506826506826506,1536.8474923234392,-0.5529980770351381,0.031117067769944086,0.19707476254297543,1823.4432234432234,-1.0,68.71042147200671,0.6510919512794867,
2023-08-12 15:02:09.627000,-6.55421686746988,0.060240963855421686,-7.433734939759036,0.13243408951563457,-6.249540159411404,-7.14653586756591,3.0,0.6506826506826506,1536.8474923234392,-0.5809684750305928,-0.3978789114853446,0.10232503933337228,1867.3992673992673,-1.0,68.71042147200671,0.6510880668549953,
2023-08-12 15:02:09.635000,-6.590361445783133,0.04819277108433735,-7.421686746987953,0.11526670754138564,-6.310852237890864,-7.171060698957694,3.0,0.6506826506826506,1536.8474923234392,-0.28692966610337306,-0.044752636792727986,0.02552298817085265,1904.0293040293038,-1.0,68.71042147200671,0.6510841645382389,
2023-08-12 15:02:09.643000,-6.590361445783133,0.04819277108433735,-7.445783132530121,0.10545677498467197,-6.325567136725935,-7.097486204782342,3.0,0.6506826506826506,1536.8474923234392,-0.04160596701823846,0.060952158965095496,-0.24637258900996428,1930.4029304029302,-1.0,68.71042147200671,0.6510802437701697,
2023-08-12 15:02:09.650000,-6.566265060240964,0.04819277108433735,-7.385542168674699,0.09074187614960147,-6.266707541385653,-7.141630901287553,3.0,0.6506826506826506,1536.8474923234392,0.18728512324456695,0.11922382145562654,-0.41093176388322344,1944.3223443223442,-1.0,68.71042147200671,0.6510763040395626,
2023-08-12 15:02:09.658000,-6.566265060240964,0.04819277108433735,-7.409638554216868,0.19619865113427343,-6.345187001839362,-7.14653586756591,3.0,0.6506826506826506,1536.8474923234392,0.1851873433949067,-0.15756657537439464,-0.07062525493852358,1945.7875457875457,-1.0,68.71042147200671,0.6510723448837065,
2023-08-12 15:02:09.666000,-6.590361445783133,0.04819277108433735,-7.409638554216868,0.13243408951563457,-6.274064990803188,-7.097486204782342,3.0,0.6506826506826506,1536.8474923234392,-0.3350620593205522,-0.3401899656197195,-0.130178894003846,1932.6007326007325,-1.0,68.71042147200671,0.6510683658890535,
2023-08-12 15:02:09.673000,-6.578313253012048,0.060240963855421686,-7.433734939759036,0.12507664009809932,-6.234825260576333,-7.1587982832618025,3.0,0.6511266511266511,1535.799522673031,-0.07272303478818254,-0.4758463958976752,0.13192704387856202,1909.8901098901097,-1.0,68.71042147200671,0.6510643666918549,
2023-08-12 15:02:09.681000,-6.55421686746988,0.0963855421686747,-7.445783132530121,0.1226241569589209,-6.293684855916616,-7.168608215818516,3.0,0.6506826506826506,1536.8474923234392,0.04894819649204678,-0.2924072023774845,0.05559116601596661,1879.8534798534797,-1.0,68.71042147200671,0.651060347128064,
2023-08-12 15:02:09.689000,-6.542168674698796,0.08433734939759037,-7.409638554216868,0.12998160637645614,-6.222562844880441,-7.185775597792765,3.0,0.6506826506826506,1536.8474923234392,-0.08927218693549256,-0.16863819124759666,0.22387972728861946,1845.4212454212452,-1.0,68.71042147200671,0.6510563071065238,
2023-08-12 15:02:09.696000,-6.530120481927711,0.08433734939759037,-7.421686746987953,0.1912936848559166,-6.251992642550582,-7.210300429184549,3.0,0.6506826506826506,1536.8474923234392,-0.0417225103432193,-0.09300157333488801,-0.09952799953382657,1807.3260073260071,-1.0,68.71042147200671,0.6510522464506335,
2023-08-12 15:02:09.704000,-6.542168674698796,0.0963855421686747,-7.397590361445784,0.14469650521152666,-6.23973022685469,-7.117106069895769,3.0,0.6502386502386502,1537.8968931375896,0.11234776528174331,0.25686148825826,-0.06934327836373178,1764.8351648351647,-1.0,68.71042147200671,0.6510481651766379,
2023-08-12 15:02:09.712000,-6.55421686746988,0.08433734939759037,-7.409638554216868,0.1496014714898835,-6.278969957081545,-7.104843654199877,3.0,0.6506826506826506,1536.8474923234392,0.03531262746926114,0.04009090379348585,-0.2964862187518212,1723.0769230769229,-1.0,68.71042147200671,0.6510440633247456,
2023-08-12 15:02:09.719000,-6.542168674698796,0.08433734939759037,-7.385542168674699,0.18148375229920294,-6.281422440220723,-7.13182096873084,3.0,0.6506826506826506,1536.8474923234392,-0.16467571819823956,0.19171376959384567,0.07097488491346653,1684.249084249084,-1.0,68.71042147200671,0.6510399409393499,
2023-08-12 15:02:09.727000,-6.542168674698796,0.060240963855421686,-7.421686746987953,0.134886572654813,-6.200490496627835,-7.1587982832618025,3.0,0.6506826506826506,1536.8474923234392,-0.3143173474739234,-0.3174640172484112,0.2852980595536392,1649.084249084249,-1.0,68.71042147200671,0.6510357980911157,
2023-08-12 15:02:09.735000,-6.542168674698796,0.07228915662650603,-7.421686746987953,0.15450643776824033,-6.244635193133047,-7.220110361741263,3.0,0.6511266511266511,1535.799522673031,-0.06852747508886375,-0.08973836023541765,0.2685158207563662,1616.117216117216,-1.0,68.71042147200671,0.6510316347601326,
2023-08-12 15:02:09.742000,-6.530120481927711,0.08433734939759037,-7.421686746987953,0.17167381974248927,-6.320662170447577,-7.178418148375229,3.0,0.6506826506826506,1536.8474923234392,-0.11223122195676248,-0.060136355690227905,0.4788765223471826,1589.0109890109889,-1.0,68.71042147200671,0.6510274511345375,
2023-08-12 15:02:09.750000,-6.55421686746988,0.0963855421686747,-7.421686746987953,0.19619865113427343,-6.256897608828939,-7.168608215818516,3.0,0.6506826506826506,1536.8474923234392,0.19451080939339271,-0.1968416758930129,0.16933745119748256,1565.5677655677655,-1.0,68.71042147200671,0.6510232474831521,
2023-08-12 15:02:09.758000,-6.55421686746988,0.060240963855421686,-7.445783132530121,0.1765787860208461,-6.276517473942366,-7.153893316983446,3.0,0.6506826506826506,1536.8474923234392,0.04067362041839003,-0.08775712371073996,0.07423809801293646,1543.5897435897434,-1.0,68.71042147200671,0.6510190241353726,
2023-08-12 15:02:09.765000,-6.542168674698796,0.060240963855421686,-7.421686746987953,0.14469650521152666,-6.293684855916616,-7.161250766400981,3.0,0.6506826506826506,1536.8474923234392,-0.05197832294155373,0.24998543208437674,0.08670823378590982,1520.8791208791208,-1.0,68.71042147200671,0.6510147814610807,
2023-08-12 15:02:09.773000,-6.530120481927711,0.04819277108433735,-7.385542168674699,0.12998160637645614,-6.220110361741263,-7.1367259350091965,3.0,0.6506826506826506,1536.8474923234392,-0.15861546529922566,0.08321193403647865,0.07167414486335284,1498.9010989010987,-1.0,68.71042147200671,0.6510105197433418,
2023-08-12 15:02:09.781000,-6.530120481927711,0.04819277108433735,-7.385542168674699,0.15695892090741875,-6.23973022685469,-7.1293684855916615,3.0,0.6506826506826506,1536.8474923234392,0.16222830837363852,0.5271254588893421,-0.17423227084668724,1476.923076923077,-1.0,68.71042147200671,0.6510062393278375,
2023-08-12 15:02:09.788000,-6.518072289156627,0.03614457831325302,-7.409638554216868,0.08828939301042305,-6.220110361741263,-7.178418148375229,3.0,0.6506826506826506,1536.8474923234392,0.5574267233844187,0.646815453644892,0.025056814870928437,1456.4102564102564,-1.0,68.71042147200671,0.6510019406230239,
2023-08-12 15:02:09.796000,-6.518072289156627,0.04819277108433735,-7.397590361445784,0.0809319435928878,-6.256897608828939,-7.178418148375229,3.0,0.6506826506826506,1536.8474923234392,0.5522988170852514,0.6407552007458764,0.022959035021269045,1435.164835164835,-1.0,68.71042147200671,0.6509976241003059,
2023-08-12 15:02:09.804000,-6.542168674698796,0.060240963855421686,-7.421686746987953,0.17903126916002451,-6.281422440220723,-7.200490496627835,3.0,0.6506826506826506,1536.8474923234392,0.10628751238272767,0.3915855719363673,-0.2407785094108733,1415.3846153846152,-1.0,68.71042147200671,0.6509932902942335,
2023-08-12 15:02:09.811000,-6.566265060240964,0.04819277108433735,-7.433734939759036,0.0809319435928878,-6.269160024524831,-7.225015328019619,3.0,0.6506826506826506,1536.8474923234392,-0.16828856127265243,0.5740924188567095,-0.02633879144571981,1394.8717948717947,-1.0,68.71042147200671,0.6509889398027092,
2023-08-12 15:02:09.819000,-6.578313253012048,0.04819277108433735,-7.445783132530121,0.0809319435928878,-6.269160024524831,-7.259350091968117,3.0,0.6506826506826506,1536.8474923234392,-0.10558825243284264,0.5408775712371069,-0.24136122603577878,1372.8937728937728,-1.0,68.71042147200671,0.6509845732872069,
2023-08-12 15:02:09.827000,-6.578313253012048,0.07228915662650603,-7.445783132530121,0.16676885346413242,-6.33292458614347,-7.217657878602084,3.0,0.6506826506826506,1536.8474923234392,0.3066254880251726,0.5247945923897203,-0.19451080939339183,1350.18315018315,-1.0,68.71042147200671,0.6509801916117435,
2023-08-12 15:02:09.834000,-6.578313253012048,0.07228915662650603,-7.433734939759036,0.10300429184549356,-6.298589822194972,-7.215205395462906,3.0,0.6506826506826506,1536.8474923234392,0.12155468795524675,0.33902453236990937,-0.14777693607598616,1331.8681318681317,-1.0,68.71042147200671,0.6509757956839664,
2023-08-12 15:02:09.842000,-6.542168674698796,0.060240963855421686,-7.433734939759036,0.08828939301042305,-6.301042305334151,-7.183323114653587,3.0,0.6502386502386502,1537.8968931375896,-0.0019812365246776914,0.16770584464774824,-0.2709632305809685,1317.9487179487178,-1.0,68.71042147200671,0.6509713863277536,
2023-08-12 15:02:09.850000,-6.55421686746988,0.060240963855421686,-7.433734939759036,0.15695892090741875,-6.207847946045371,-7.134273451870018,3.0,0.6506826506826506,1536.8474923234392,0.1210885146553234,-0.08006526426198912,-0.300099061826234,1310.6227106227104,-1.0,68.71042147200671,0.6509669642831971,
2023-08-12 15:02:09.857000,-6.566265060240964,0.060240963855421686,-7.46987951807229,0.1618638871857756,-6.190680564071122,-7.175965665236051,3.0,0.6502386502386502,1537.8968931375896,0.10652059903269108,0.3634986306159319,-0.26641804090670723,1307.6923076923076,-1.0,68.71042147200671,0.6509625303339865,
2023-08-12 15:02:09.865000,-6.542168674698796,0.04819277108433735,-7.433734939759036,0.14224402207234824,-6.247087676272225,-7.198038013488657,3.0,0.6502386502386502,1537.8968931375896,0.028669657945341313,0.6207097488491343,0.07237340481323917,1308.4249084249084,-1.0,68.71042147200671,0.6509580855944737,
2023-08-12 15:02:09.873000,-6.542168674698796,0.060240963855421686,-7.445783132530121,0.1226241569589209,-6.276517473942366,-7.13182096873084,3.0,0.6506826506826506,1536.8474923234392,0.10663714235767191,0.43622166540411444,-0.08111415418681882,1311.3553113553112,-1.0,68.71042147200671,0.6509536311692271,
2023-08-12 15:02:09.880000,-6.542168674698796,0.03614457831325302,-7.421686746987953,0.0956468424279583,-6.264255058246475,-7.153893316983446,3.0,0.6506826506826506,1536.8474923234392,-0.16689004137288066,0.5879610745294568,-0.03577880076918579,1316.4835164835165,-1.0,68.71042147200671,0.6509491681634262,
2023-08-12 15:02:09.888000,-6.55421686746988,0.04819277108433735,-7.421686746987953,0.1618638871857756,-6.313304721030042,-7.1931330472103,3.0,0.6506826506826506,1536.8474923234392,-0.07633587786259542,0.17038634112231268,0.3622166540411396,1322.3443223443223,-1.0,68.71042147200671,0.6509446978526467,
2023-08-12 15:02:09.896000,-6.55421686746988,0.03614457831325302,-7.481927710843374,0.13243408951563457,-6.291232372777436,-7.1661557326793375,3.0,0.6506826506826506,1536.8474923234392,0.39659693491055364,0.4599965037002502,0.13169395722859992,1328.937728937729,-1.0,68.71042147200671,0.6509402215439791,
2023-08-12 15:02:09.903000,-6.55421686746988,0.04819277108433735,-7.433734939759036,0.13733905579399142,-6.291232372777436,-7.20784794604537,3.0,0.6506826506826506,1536.8474923234392,-0.061068702290076333,0.41314608705786365,0.02470718489598506,1336.263736263736,-1.0,68.71042147200671,0.650935740575646,
2023-08-12 15:02:09.911000,-6.55421686746988,0.04819277108433735,-7.457831325301205,0.13243408951563457,-6.305947271612507,-7.2029429797670135,3.0,0.6506826506826506,1536.8474923234392,-0.028320027970398804,0.4714177495483947,-0.050929433016724035,1345.054945054945,-1.0,68.71042147200671,0.6509312561776271,
2023-08-12 15:02:09.919000,-6.566265060240964,0.060240963855421686,-7.457831325301205,0.09074187614960147,-6.2323727774371545,-7.23973022685469,3.0,0.6506826506826506,1536.8474923234392,0.06165141891498225,0.05477536274109902,-0.09766330633412972,1354.5787545787546,-1.0,68.71042147200671,0.6509267694911647,
2023-08-12 15:02:09.926000,-6.55421686746988,0.03614457831325302,-7.433734939759036,0.134886572654813,-6.296137339055794,-7.249540159411404,3.0,0.6506826506826506,1536.8474923234392,0.060136355690227905,0.25383136180875304,0.42223646640638673,1364.102564102564,-1.0,68.71042147200671,0.6509222817156473,
2023-08-12 15:02:09.934000,-6.530120481927711,0.03614457831325302,-7.46987951807229,0.0809319435928878,-6.229920294297976,-7.210300429184549,3.0,0.6506826506826506,1536.8474923234392,0.0745877279878794,0.15943126857409323,0.17970980712079695,1370.6959706959706,-1.0,68.71042147200671,0.650917794106164,
2023-08-12 15:02:09.941000,-6.55421686746988,0.04819277108433735,-7.433734939759036,0.056407112201103615,-6.269160024524831,-7.205395462906192,3.0,0.6506826506826506,1536.8474923234392,-0.29275683235242705,-0.23786492628634717,0.1494085426257209,1375.8241758241757,-1.0,68.71042147200671,0.6509133081097814,
2023-08-12 15:02:09.949000,-6.530120481927711,0.04819277108433735,-7.421686746987953,0.07847946045370938,-6.229920294297976,-7.1293684855916615,3.0,0.6506826506826506,1536.8474923234392,-0.03169978439484827,0.1157275217061945,0.05582425266592871,1377.2893772893772,-1.0,68.71042147200671,0.6509088253426715,
2023-08-12 15:02:09.957000,-6.518072289156627,0.03614457831325302,-7.433734939759036,0.13243408951563457,-6.291232372777436,-7.156345800122624,3.0,0.6506826506826506,1536.8474923234392,-0.24392517918536283,0.024590641571003356,0.10057688945865627,1375.091575091575,-1.0,68.71042147200671,0.6509043473008608,
2023-08-12 15:02:09.964000,-6.55421686746988,0.024096385542168676,-7.445783132530121,0.09319435928877988,-6.210300429184549,-7.156345800122624,3.0,0.6506826506826506,1536.8474923234392,0.034729910844356955,0.009789639298409356,0.008158032748674174,1369.9633699633698,-1.0,68.71042147200671,0.650899875517949,
2023-08-12 15:02:09.972000,-6.55421686746988,0.04819277108433735,-7.445783132530121,0.06866952789699571,-6.259350091968117,-7.205395462906192,3.0,0.6502386502386502,1537.8968931375896,-0.11619369500611786,0.17679622399627085,-0.022376318396363993,1362.6373626373625,-1.0,68.71042147200671,0.6508954116911106,
2023-08-12 15:02:09.980000,-6.542168674698796,0.04819277108433735,-7.433734939759036,0.1226241569589209,-6.259350091968117,-7.198038013488657,3.0,0.6506826506826506,1536.8474923234392,-0.09801293630907265,0.3883223588368969,0.05419264611619353,1353.8461538461538,-1.0,68.71042147200671,0.6508909572421465,
2023-08-12 15:02:09.987000,-6.542168674698796,0.04819277108433735,-7.433734939759036,0.19374616799509503,-6.278969957081545,-7.190680564071122,3.0,0.6502386502386502,1537.8968931375896,0.06957636501369302,0.5831827982052321,-0.037760037293863916,1344.3223443223442,-1.0,68.71042147200671,0.650886513602238,
2023-08-12 15:02:09.995000,-6.530120481927711,0.07228915662650603,-7.421686746987953,0.18148375229920294,-6.313304721030042,-7.227467811158798,3.0,0.6506826506826506,1536.8474923234392,-0.036244974069109565,0.19660858924305122,-0.1882174698444145,1333.3333333333333,-1.0,68.71042147200671,0.6508820823472249,
2023-08-12 15:02:10.003000,-6.55421686746988,0.07228915662650603,-7.445783132530121,0.14469650521152666,-6.23973022685469,-7.217657878602084,3.0,0.6502386502386502,1537.8968931375896,0.16432608822329706,0.22422935726356327,-0.47736145912242867,1326.007326007326,-1.0,68.71042147200671,0.6508776648961002,
2023-08-12 15:02:10.010000,-6.55421686746988,0.04819277108433735,-7.445783132530121,0.17903126916002451,-6.303494788473329,-7.20784794604537,3.0,0.6497946497946498,1538.9477280491972,0.010605442573276946,-0.3889050754618028,-0.3668783870403822,1319.4139194139193,-1.0,68.71042147200671,0.6508732626774947,
2023-08-12 15:02:10.018000,-6.55421686746988,0.04819277108433735,-7.433734939759036,0.17903126916002451,-6.251992642550582,-7.163703249540159,3.0,0.6502386502386502,1537.8968931375896,-0.003146669774489527,0.26944816735621463,-0.27142940388089276,1317.216117216117,-1.0,68.71042147200671,0.6508688770835065,
2023-08-12 15:02:10.026000,-6.566265060240964,0.060240963855421686,-7.445783132530121,0.10545677498467197,-6.2323727774371545,-7.102391171060699,3.0,0.6502386502386502,1537.8968931375896,-0.09346774663481136,0.1905483363440356,-0.009440009323465979,1318.6813186813185,-1.0,68.71042147200671,0.6508645094232248,
2023-08-12 15:02:10.033000,-6.566265060240964,0.07228915662650603,-7.409638554216868,0.13979153893316984,-6.229920294297976,-7.242182709993869,3.0,0.6506826506826506,1536.8474923234392,-0.26140667793252126,0.03484645416933779,0.3713070333896627,1322.3443223443223,-1.0,68.71042147200671,0.6508601609495388,
2023-08-12 15:02:10.041000,-6.542168674698796,0.07228915662650603,-7.409638554216868,0.12752912323727775,-6.283874923359901,-7.163703249540159,3.0,0.6506826506826506,1536.8474923234392,-0.2883281860031466,0.2778392867548505,-0.16537497814812674,1326.7399267399267,-1.0,68.71042147200671,0.6508558330138143,
2023-08-12 15:02:10.049000,-6.542168674698796,0.03614457831325302,-7.397590361445784,0.12017167381974249,-6.251992642550582,-7.1440833844267315,3.0,0.6506826506826506,1536.8474923234392,-0.04067362041839003,0.2010372355923317,0.0644484587145271,1328.2051282051282,-1.0,68.71042147200671,0.6508515270823775,
2023-08-12 15:02:10.056000,-6.542168674698796,0.060240963855421686,-7.397590361445784,0.09809932556713671,-6.296137339055794,-7.14653586756591,3.0,0.6502386502386502,1537.8968931375896,-0.025173358195909275,0.04848202319212169,0.2612901346075404,1330.4029304029302,-1.0,68.71042147200671,0.650847244593861,
2023-08-12 15:02:10.064000,-6.518072289156627,0.07228915662650603,-7.397590361445784,0.13243408951563457,-6.205395462906192,-7.1931330472103,3.0,0.6502386502386502,1537.8968931375896,-0.04032399044344752,0.18635277664471853,0.06083561564011423,1333.3333333333333,-1.0,68.71042147200671,0.6508429866672826,
2023-08-12 15:02:10.072000,-6.530120481927711,0.060240963855421686,-7.421686746987953,0.17903126916002451,-6.251992642550582,-7.1931330472103,3.0,0.6502386502386502,1537.8968931375896,-0.04160596701823846,0.1828564768952865,0.05803857584056894,1335.5311355311355,-1.0,68.71042147200671,0.6508387540967234,
2023-08-12 15:02:10.079000,-6.55421686746988,0.08433734939759037,-7.409638554216868,0.134886572654813,-6.291232372777436,-7.153893316983446,3.0,0.6506826506826506,1536.8474923234392,0.06374919876464077,0.5617388264087165,-0.03531262746926157,1339.9267399267399,-1.0,68.71042147200671,0.6508345477713914,
2023-08-12 15:02:10.087000,-6.566265060240964,0.08433734939759037,-7.457831325301205,0.17167381974248927,-6.291232372777436,-7.242182709993869,3.0,0.6502386502386502,1537.8968931375896,-0.0737719247130118,0.06817784511392125,0.4524211875764815,1342.8571428571427,-1.0,68.71042147200671,0.6508303687979329,
2023-08-12 15:02:10.095000,-6.542168674698796,0.07228915662650603,-7.421686746987953,0.16922133660331085,-6.220110361741263,-7.234825260576333,3.0,0.6502386502386502,1537.8968931375896,0.018064215372064367,-0.146028786201271,0.23390245323699094,1345.7875457875457,-1.0,68.71042147200671,0.6508262182185844,
2023-08-12 15:02:10.102000,-6.55421686746988,0.07228915662650603,-7.445783132530121,0.06621704475781728,-6.283874923359901,-7.198038013488657,3.0,0.6502386502386502,1537.8968931375896,-0.009556552648447682,-0.022959035021269912,0.4291125225802691,1348.7179487179487,-1.0,68.71042147200671,0.6508220968471062,
2023-08-12 15:02:10.110000,-6.55421686746988,0.060240963855421686,-7.409638554216868,0.12017167381974249,-6.249540159411404,-7.168608215818516,3.0,0.6502386502386502,1537.8968931375896,-0.022609405046325665,-0.14509643960142257,0.012819765747916744,1345.7875457875457,-1.0,68.71042147200671,0.6508180052638732,
2023-08-12 15:02:10.118000,-6.542168674698796,0.04819277108433735,-7.409638554216868,0.08583690987124463,-6.288779889638258,-7.104843654199877,3.0,0.6506826506826506,1536.8474923234392,-0.035429170794241974,0.33028378299632927,0.04463609346774672,1342.8571428571427,-1.0,68.71042147200671,0.6508139439701739,
2023-08-12 15:02:10.125000,-6.493975903614458,0.04819277108433735,-7.409638554216868,0.10300429184549356,-6.237277743715512,-7.1146535867565905,3.0,0.6502386502386502,1537.8968931375896,0.07388846803799265,-0.13029543732882684,0.3510284948429577,1339.194139194139,-1.0,68.71042147200671,0.6508099136603911,
2023-08-12 15:02:10.133000,-6.530120481927711,0.04819277108433735,-7.433734939759036,0.0956468424279583,-6.23973022685469,-7.220110361741263,3.0,0.6506826506826506,1536.8474923234392,0.10512207913291756,-0.0658469786142993,0.3921682885612728,1338.4615384615383,-1.0,68.71042147200671,0.6508059149409109,
2023-08-12 15:02:10.141000,-6.506024096385542,0.060240963855421686,-7.481927710843374,0.10055180870631514,-6.281422440220723,-7.156345800122624,3.0,0.6502386502386502,1537.8968931375896,-0.21595478118990652,-0.005360992949128891,0.2968358487267641,1339.9267399267399,-1.0,68.71042147200671,0.6508019481775256,
2023-08-12 15:02:10.148000,-6.530120481927711,0.060240963855421686,-7.421686746987953,0.1496014714898835,-6.293684855916616,-7.200490496627835,3.0,0.6502386502386502,1537.8968931375896,-0.0896218169104368,0.22201503408892218,0.003030126449507389,1341.3919413919414,-1.0,68.71042147200671,0.6507980136621028,
2023-08-12 15:02:10.156000,-6.542168674698796,0.060240963855421686,-7.433734939759036,0.13979153893316984,-6.25444512568976,-7.190680564071122,3.0,0.6506826506826506,1536.8474923234392,-0.009789639298409356,0.5848144047549673,0.0928850300099063,1342.8571428571427,-1.0,68.71042147200671,0.650794111577712,
2023-08-12 15:02:10.164000,-6.566265060240964,0.07228915662650603,-7.445783132530121,0.15450643776824033,-6.293684855916616,-7.1735131820968725,3.0,0.6497946497946498,1538.9477280491972,0.09906182623390192,0.24380863586038026,0.061068702290076333,1340.6593406593406,-1.0,68.71042147200671,0.6507902421344813,
2023-08-12 15:02:10.171000,-6.542168674698796,0.060240963855421686,-7.433734939759036,0.1618638871857756,-6.2323727774371545,-7.0999386879215205,3.0,0.6502386502386502,1537.8968931375896,0.10046034613367542,0.1827399335703039,0.12120505798030425,1340.6593406593406,-1.0,68.71042147200671,0.6507864054290561,
2023-08-12 15:02:10.179000,-6.542168674698796,0.060240963855421686,-7.445783132530121,0.11771919068056406,-6.320662170447577,-7.14653586756591,3.0,0.6502386502386502,1537.8968931375896,0.04009090379348585,0.107802575607482,0.1339082804032397,1340.6593406593406,-1.0,68.71042147200671,0.6507826012516913,
2023-08-12 15:02:10.187000,-6.530120481927711,0.07228915662650603,-7.421686746987953,0.1912936848559166,-6.247087676272225,-7.188228080931943,3.0,0.6502386502386502,1537.8968931375896,0.11980653808053073,-0.22306392401375144,-0.08262921741157274,1342.1245421245421,-1.0,68.71042147200671,0.650778829254612,
2023-08-12 15:02:10.194000,-6.518072289156627,0.08433734939759037,-7.421686746987953,0.11281422440220723,-6.340282035561005,-7.234825260576333,3.0,0.6502386502386502,1537.8968931375896,0.03041780782005733,-0.17364955422178133,-0.009556552648447248,1341.3919413919414,-1.0,68.71042147200671,0.6507750888220886,
2023-08-12 15:02:10.202000,-6.530120481927711,0.07228915662650603,-7.433734939759036,0.14714898835070508,-6.25444512568976,-7.215205395462906,3.0,0.6502386502386502,1537.8968931375896,0.0643319153895467,-0.16887127789755835,-0.1174756715809101,1339.194139194139,-1.0,68.71042147200671,0.6507713790895,
2023-08-12 15:02:10.210000,-6.55421686746988,0.07228915662650603,-7.397590361445784,0.09809932556713671,-6.25444512568976,-7.210300429184549,3.0,0.6502386502386502,1537.8968931375896,-0.2541809917836955,0.031117067769944086,0.23238739001223702,1338.4615384615383,-1.0,68.71042147200671,0.6507676990904422,
2023-08-12 15:02:10.217000,-6.542168674698796,0.04819277108433735,-7.397590361445784,0.12017167381974249,-6.261802575107295,-7.119558553034947,3.0,0.6502386502386502,1537.8968931375896,-0.09603169978439496,0.12575024765456555,0.19800710914282388,1339.194139194139,-1.0,68.71042147200671,0.6507640477551953,
2023-08-12 15:02:10.225000,-6.542168674698796,0.024096385542168676,-7.409638554216868,0.11771919068056406,-6.237277743715512,-7.1955855303494785,3.0,0.6502386502386502,1537.8968931375896,0.4729328127731491,-0.06747858516403449,-0.09416700658469768,1340.6593406593406,-1.0,68.71042147200671,0.6507604240486127,
2023-08-12 15:02:10.233000,-6.566265060240964,0.060240963855421686,-7.397590361445784,0.19374616799509503,-6.281422440220723,-7.163703249540159,3.0,0.6506826506826506,1536.8474923234392,0.18472117009498334,0.2291241769127671,-0.4308606724549851,1339.194139194139,-1.0,68.71042147200671,0.6507568269495786,
2023-08-12 15:02:10.240000,-6.578313253012048,0.060240963855421686,-7.433734939759036,0.0956468424279583,-6.288779889638258,-7.139178418148375,3.0,0.6502386502386502,1537.8968931375896,0.12609987762950806,0.24310937591049522,-0.18565351669483135,1338.4615384615383,-1.0,68.71042147200671,0.6507532554528421,
2023-08-12 15:02:10.248000,-6.566265060240964,0.07228915662650603,-7.433734939759036,0.12998160637645614,-6.288779889638258,-7.1661557326793375,3.0,0.6502386502386502,1537.8968931375896,-0.08612551716100478,0.30277955830079806,0.06071907231513295,1337.7289377289376,-1.0,68.71042147200671,0.6507497084439567,
2023-08-12 15:02:10.256000,-6.566265060240964,0.07228915662650603,-7.457831325301205,0.13733905579399142,-6.261802575107295,-7.1514408338442665,3.0,0.6502386502386502,1537.8968931375896,-0.1287803741040725,0.34671639181865843,-0.030650894470019438,1338.4615384615383,-1.0,68.71042147200671,0.6507461845432179,
2023-08-12 15:02:10.263000,-6.542168674698796,0.060240963855421686,-7.421686746987953,0.14469650521152666,-6.281422440220723,-7.2029429797670135,3.0,0.6502386502386502,1537.8968931375896,0.1962589592681087,0.236233319736612,-0.36466406386574196,1338.4615384615383,-1.0,68.71042147200671,0.6507426822479904,
2023-08-12 15:02:10.271000,-6.566265060240964,0.060240963855421686,-7.409638554216868,0.17412630288166767,-6.318209687308399,-7.148988350705088,3.0,0.6502386502386502,1537.8968931375896,-0.0023308664996219363,0.46407552007458813,-0.315482780723734,1336.263736263736,-1.0,68.71042147200671,0.6507391997980567,
2023-08-12 15:02:10.279000,-6.55421686746988,0.03614457831325302,-7.421686746987953,0.07112201103617412,-6.296137339055794,-7.168608215818516,3.0,0.6502386502386502,1537.8968931375896,0.12120505798030425,-0.07085834158848568,0.08554280053609929,1334.7985347985348,-1.0,68.71042147200671,0.6507357353393417,
2023-08-12 15:02:10.286000,-6.566265060240964,0.0,-7.421686746987953,0.11771919068056406,-6.301042305334151,-7.1587982832618025,3.0,0.6502386502386502,1537.8968931375896,0.02925237457024723,0.3272536565468206,-0.06782821513897787,1335.5311355311355,-1.0,68.71042147200671,0.6507322870566286,
2023-08-12 15:02:10.294000,-6.55421686746988,0.0,-7.457831325301205,0.09074187614960147,-6.25444512568976,-7.1661557326793375,3.0,0.6502386502386502,1537.8968931375896,-0.01654915214731002,0.414661150282618,-0.3097721577996621,1338.4615384615383,-1.0,68.71042147200671,0.6507288530300517,
2023-08-12 15:02:10.302000,-6.55421686746988,0.024096385542168676,-7.433734939759036,0.08338442673206621,-6.244635193133047,-7.215205395462906,3.0,0.6502386502386502,1537.8968931375896,0.12073888468037916,0.6089388730260473,-0.10710331565759569,1339.194139194139,-1.0,68.71042147200671,0.6507254312413557,
2023-08-12 15:02:10.309000,-6.566265060240964,0.024096385542168676,-7.481927710843374,0.05150214592274678,-6.27161250766401,-7.217657878602084,3.0,0.6502386502386502,1537.8968931375896,-0.4144280636326546,0.25313210185886625,0.0793660043121028,1340.6593406593406,-1.0,68.71042147200671,0.6507220195806186,
2023-08-12 15:02:10.317000,-6.55421686746988,0.024096385542168676,-7.46987951807229,0.14469650521152666,-6.256897608828939,-7.175965665236051,3.0,0.6497946497946498,1538.9477280491972,-0.3654798671406096,0.464192063399569,0.14171668317697095,1339.9267399267399,-1.0,68.71042147200671,0.6507186158534097,
2023-08-12 15:02:10.324000,-6.566265060240964,0.024096385542168676,-7.457831325301205,0.03188228080931944,-6.269160024524831,-7.227467811158798,3.0,0.6497946497946498,1538.9477280491972,-0.08938873026047514,0.35347590466756085,0.4317930190548335,1339.194139194139,-1.0,68.71042147200671,0.6507152177778213,
2023-08-12 15:02:10.332000,-6.55421686746988,0.012048192771084338,-7.46987951807229,0.06376456161863887,-6.318209687308399,-7.215205395462906,3.0,0.6502386502386502,1537.8968931375896,-0.090204533535341,0.29112522580269184,-0.10465590583299335,1336.9963369963368,-1.0,68.71042147200671,0.6507118229501838,
2023-08-12 15:02:10.340000,-6.542168674698796,0.03614457831325302,-7.445783132530121,0.06131207847946045,-6.274064990803188,-7.227467811158798,3.0,0.6502386502386502,1537.8968931375896,-0.2146728046151156,-0.13658877687780416,0.04988054309189434,1334.065934065934,-1.0,68.71042147200671,0.6507084288530124,
2023-08-12 15:02:10.347000,-6.542168674698796,0.07228915662650603,-7.457831325301205,0.14714898835070508,-6.220110361741263,-7.188228080931943,3.0,0.6502386502386502,1537.8968931375896,-0.18390536682011577,-0.34951343161820375,0.20010488899248283,1332.6007326007325,-1.0,68.71042147200671,0.6507050329051662,
2023-08-12 15:02:10.355000,-6.530120481927711,0.04819277108433735,-7.46987951807229,0.13733905579399142,-6.229920294297976,-7.168608215818516,3.0,0.6502386502386502,1537.8968931375896,-0.18343919352019067,-0.34566750189382917,0.1963755025930891,1333.3333333333333,-1.0,68.71042147200671,0.6507016324806199,
2023-08-12 15:02:10.363000,-6.493975903614458,0.07228915662650603,-7.493975903614459,0.18638871857755976,-6.188228080931943,-7.227467811158798,3.0,0.6502386502386502,1537.8968931375896,-0.18227376027038059,-0.9220907872501607,0.48283899539653885,1333.3333333333333,-1.0,68.71042147200671,0.6506982249169851,
2023-08-12 15:02:10.370000,-6.493975903614458,0.0963855421686747,-7.493975903614459,0.18638871857755976,-6.225015328019619,-7.222562844880441,3.0,0.6502386502386502,1537.8968931375896,0.01596643552240584,-0.3019637550259305,0.7510051861779616,1336.9963369963368,-1.0,68.71042147200671,0.650694807524308,
2023-08-12 15:02:10.378000,-6.506024096385542,0.10843373493975904,-7.46987951807229,0.19865113427345185,-6.291232372777436,-7.20784794604537,3.0,0.6502386502386502,1537.8968931375896,-0.06246722218984984,-0.008624206048599255,0.16304411164850524,1340.6593406593406,-1.0,68.71042147200671,0.6506913775941138,
2023-08-12 15:02:10.386000,-6.506024096385542,0.0963855421686747,-7.445783132530121,0.1496014714898835,-6.25444512568976,-7.1587982832618025,3.0,0.6502386502386502,1537.8968931375896,-0.16887127789755835,-0.34543441524386753,0.298350911951518,1343.5897435897434,-1.0,68.71042147200671,0.650687932408667,
2023-08-12 15:02:10.393000,-6.493975903614458,0.08433734939759037,-7.433734939759036,0.1520539546290619,-6.200490496627835,-7.1808706315144075,3.0,0.6502386502386502,1537.8968931375896,-0.31886253714818474,-0.5876114445545126,0.10931763883223593,1342.8571428571427,-1.0,68.71042147200671,0.6506844692504249,
2023-08-12 15:02:10.401000,-6.493975903614458,0.0963855421686747,-7.421686746987953,0.1912936848559166,-6.217657878602084,-7.119558553034947,3.0,0.6502386502386502,1537.8968931375896,-0.026921508070625294,-0.47852689237223967,0.17015325447235016,1341.3919413919414,-1.0,68.71042147200671,0.6506809854116441,
2023-08-12 15:02:10.409000,-6.481927710843374,0.10843373493975904,-7.409638554216868,0.19865113427345185,-6.1955855303494785,-7.1146535867565905,3.0,0.6502386502386502,1537.8968931375896,-0.3193287104481098,0.028320027970398804,0.15232212575024745,1339.194139194139,-1.0,68.71042147200671,0.6506774782041159,
2023-08-12 15:02:10.416000,-6.457831325301205,0.0963855421686747,-7.409638554216868,0.1765787860208461,-6.1735131820968725,-7.168608215818516,3.0,0.6502386502386502,1537.8968931375896,0.03414719421945104,-0.27923780665462394,-0.18518734339490714,1339.9267399267399,-1.0,68.71042147200671,0.6506739449689923,
2023-08-12 15:02:10.424000,-6.493975903614458,0.08433734939759037,-7.421686746987953,0.19374616799509503,-6.200490496627835,-7.134273451870018,3.0,0.6502386502386502,1537.8968931375896,-0.3947322417108568,0.05780548919060597,-0.12376901112988742,1343.5897435897434,-1.0,68.71042147200671,0.6506703830866655,
2023-08-12 15:02:10.432000,-6.493975903614458,0.0963855421686747,-7.409638554216868,0.16676885346413242,-6.278969957081545,-7.2323727774371545,3.0,0.6502386502386502,1537.8968931375896,0.048015849892196615,0.16187867839869427,-0.3844764291125224,1352.3809523809523,-1.0,68.71042147200671,0.6506667899866743,
2023-08-12 15:02:10.439000,-6.542168674698796,0.08433734939759037,-7.409638554216868,0.1496014714898835,-6.296137339055794,-7.14653586756591,3.0,0.6502386502386502,1537.8968931375896,-0.10570479575782349,0.24998543208437674,-0.2744595303304001,1371.4285714285713,949.8291015625,63.169258450070686,0.6506631631575903,
2023-08-12 15:02:10.447000,-6.578313253012048,0.07228915662650603,-7.433734939759036,0.19619865113427343,-6.251992642550582,-7.178418148375229,3.0,0.6502386502386502,1537.8968931375896,-0.2312219567624256,0.1412505098770463,-0.347881825068469,1400.7326007326005,-1.0,63.169258450070686,0.6506595001568533,
2023-08-12 15:02:10.455000,-6.55421686746988,0.060240963855421686,-7.421686746987953,0.13243408951563457,-6.249540159411404,-7.1514408338442665,3.0,0.6502386502386502,1537.8968931375896,0.33646057922032574,0.7007750131111234,-0.5390128780374105,1439.5604395604394,-1.0,63.169258450070686,0.6506557986205208,
2023-08-12 15:02:10.462000,-6.578313253012048,0.060240963855421686,-7.421686746987953,0.16676885346413242,-6.34763948497854,-7.134273451870018,3.0,0.6502386502386502,1537.8968931375896,0.28995979255288173,0.21875182098945356,-0.7306101043062758,1484.9816849816848,-1.0,63.169258450070686,0.6506520562728851,
2023-08-12 15:02:10.470000,-6.590361445783133,0.060240963855421686,-7.421686746987953,0.18148375229920294,-6.288779889638258,-7.2323727774371545,3.0,0.6493506493506493,1540.0,0.7003088398112002,0.24427480916030533,0.009440009323465979,1531.135531135531,-1.0,63.169258450070686,0.6506482709359264,
2023-08-12 15:02:10.478000,-6.566265060240964,0.07228915662650603,-7.457831325301205,0.164316370324954,-6.269160024524831,-7.20784794604537,3.0,0.6502386502386502,1537.8968931375896,0.6346949478468625,0.025989161470776866,0.14952508595070219,1582.4175824175823,-1.0,63.169258450070686,0.6506444403787299,
2023-08-12 15:02:10.485000,-6.542168674698796,0.08433734939759037,-7.445783132530121,0.17167381974248927,-6.323114653586757,-7.153893316983446,3.0,0.6497946497946498,1538.9477280491972,0.3258551366470488,0.2200337975642445,0.13262630382844834,1633.6996336996335,-1.0,63.169258450070686,0.650640562560953,
2023-08-12 15:02:10.493000,-6.55421686746988,0.08433734939759037,-7.421686746987953,0.19374616799509503,-6.305947271612507,-7.1367259350091965,3.0,0.6502386502386502,1537.8968931375896,0.4799254122720114,0.0029135831245261186,0.05360992949128848,1687.179487179487,-1.0,63.169258450070686,0.6506366355233999,
2023-08-12 15:02:10.501000,-6.542168674698796,0.0963855421686747,-7.385542168674699,0.18148375229920294,-6.222562844880441,-7.095033721643163,3.0,0.6502386502386502,1537.8968931375896,0.12668259425441397,-0.07901637433715986,0.2045335353417633,1742.124542124542,-1.0,63.169258450070686,0.6506326574062268,
2023-08-12 15:02:10.508000,-6.530120481927711,0.10843373493975904,-7.433734939759036,0.1618638871857756,-6.259350091968117,-7.161250766400981,3.0,0.6502386502386502,1537.8968931375896,0.7834042305226963,-0.2346017131868768,0.21956762426432028,1794.8717948717947,-1.0,63.169258450070686,0.6506286266053737,
2023-08-12 15:02:10.516000,-6.542168674698796,0.12048192771084337,-7.421686746987953,0.21091354996934394,-6.2323727774371545,-7.168608215818516,3.0,0.6502386502386502,1537.8968931375896,0.5814346483305161,0.2695647106811954,0.5073130936425618,1844.6886446886447,-1.0,63.169258450070686,0.650624541512988,
2023-08-12 15:02:10.524000,-6.506024096385542,0.12048192771084337,-7.409638554216868,0.15695892090741875,-6.198038013488657,-7.212752912323728,3.0,0.6502386502386502,1537.8968931375896,0.544840044286464,0.448342171202144,0.3648971505157041,1887.9120879120878,-1.0,63.169258450070686,0.6506204006729313,
2023-08-12 15:02:10.531000,-6.530120481927711,0.13253012048192772,-7.433734939759036,0.15695892090741875,-6.249540159411404,-7.200490496627835,3.0,0.6502386502386502,1537.8968931375896,0.6764174581900818,0.7020569896859161,0.2540644484587147,1920.8791208791208,-1.0,63.169258450070686,0.6506162027866015,
2023-08-12 15:02:10.539000,-6.530120481927711,0.0963855421686747,-7.433734939759036,0.21336603310852237,-6.256897608828939,-7.175965665236051,3.0,0.6502386502386502,1537.8968931375896,0.5162869296661036,0.7248994813822035,-0.02400792494609874,1940.6593406593406,-1.0,63.169258450070686,0.6506119467183417,
2023-08-12 15:02:10.547000,-6.530120481927711,0.08433734939759037,-7.433734939759036,0.13243408951563457,-6.23973022685469,-7.190680564071122,3.0,0.6502386502386502,1537.8968931375896,0.7399335703047609,0.47374861604801666,-0.054425732766155636,1948.7179487179485,-1.0,63.169258450070686,0.6506076315004181,
2023-08-12 15:02:10.554000,-6.542168674698796,0.08433734939759037,-7.445783132530121,0.2035561005518087,-6.261802575107295,-7.178418148375229,3.0,0.6502386502386502,1537.8968931375896,0.2425266592855893,0.2699143406561397,-0.20744711846628985,1945.7875457875457,-1.0,63.169258450070686,0.6506032563375567,
2023-08-12 15:02:10.562000,-6.542168674698796,0.08433734939759037,-7.445783132530121,0.14469650521152666,-6.242182709993869,-7.14653586756591,3.0,0.6502386502386502,1537.8968931375896,0.7273468912068063,0.3714235767146444,-0.06887710506380756,1932.6007326007325,-1.0,63.169258450070686,0.6505988206110188,
2023-08-12 15:02:10.570000,-6.530120481927711,0.08433734939759037,-7.421686746987953,0.15450643776824033,-6.256897608828939,-7.1931330472103,3.0,0.6502386502386502,1537.8968931375896,0.5200163160654973,-0.0643319153895467,-0.18973253306916843,1913.5531135531135,-1.0,63.169258450070686,0.6505943238822046,
2023-08-12 15:02:10.577000,-6.530120481927711,0.07228915662650603,-7.445783132530121,0.17412630288166767,-6.249540159411404,-7.1514408338442665,3.0,0.6502386502386502,1537.8968931375896,0.4528873608764053,0.2690985373812721,-0.1409008799021038,1888.6446886446886,-1.0,63.169258450070686,0.6505897658957775,
2023-08-12 15:02:10.585000,-6.542168674698796,0.03614457831325302,-7.457831325301205,0.16676885346413242,-6.28632740649908,-7.225015328019619,3.0,0.6502386502386502,1537.8968931375896,0.2783054600547755,0.0181807586970452,-0.2152555212400211,1857.8754578754576,-1.0,63.169258450070686,0.6505851465822894,
2023-08-12 15:02:10.593000,-6.542168674698796,0.03614457831325302,-7.481927710843374,0.1079092581238504,-6.1955855303494785,-7.220110361741263,3.0,0.6502386502386502,1537.8968931375896,-0.04545189674261474,0.16595769477303224,0.06071907231513295,1824.1758241758241,-1.0,63.169258450070686,0.6505804660603063,
2023-08-12 15:02:10.600000,-6.542168674698796,0.0,-7.457831325301205,0.06866952789699571,-6.283874923359901,-7.1367259350091965,3.0,0.6502386502386502,1537.8968931375896,-0.13996853330225537,0.08216304411164765,-0.2887943593030708,1789.7435897435896,-1.0,63.169258450070686,0.6505757246380273,
2023-08-12 15:02:10.608000,-6.578313253012048,-0.024096385542168676,-7.433734939759036,0.07847946045370938,-6.318209687308399,-7.183323114653587,3.0,0.6502386502386502,1537.8968931375896,-0.47852689237223967,0.6095215896509533,0.17481498747159271,1755.311355311355,-1.0,63.169258450070686,0.650570922814382,
2023-08-12 15:02:10.616000,-6.602409638554217,-0.04819277108433735,-7.445783132530121,0.01226241569589209,-6.325567136725935,-7.198038013488657,3.0,0.6502386502386502,1537.8968931375896,-0.17096905774721688,-0.16525843482314548,0.3118699376493211,1725.2747252747251,-1.0,63.169258450070686,0.6505660612796158,
2023-08-12 15:02:10.623000,-6.566265060240964,-0.04819277108433735,-7.457831325301205,0.007357449417535254,-6.28632740649908,-7.227467811158798,3.0,0.6497946497946498,1538.9477280491972,-0.8738418507080006,-0.11934036478060739,0.3554571411922381,1695.970695970696,-1.0,63.169258450070686,0.6505611410540935,
2023-08-12 15:02:10.631000,-6.590361445783133,-0.060240963855421686,-7.493975903614459,0.04904966278356836,-6.325567136725935,-7.259350091968117,3.0,0.6497946497946498,1538.9477280491972,-0.8713944408833979,-0.1196899947555499,0.3539420779674842,1669.5970695970695,-1.0,63.169258450070686,0.6505561633181666,
2023-08-12 15:02:10.639000,-6.590361445783133,-0.060240963855421686,-7.493975903614459,0.01226241569589209,-6.269160024524831,-7.25444512568976,3.0,0.6502386502386502,1537.8968931375896,-0.792844239846163,-0.3675776469902681,0.5349338616630734,1644.6886446886447,-1.0,63.169258450070686,0.6505511292413111,
2023-08-12 15:02:10.646000,-6.578313253012048,-0.08433734939759037,-7.481927710843374,0.017167381974248927,-6.281422440220723,-7.242182709993869,3.0,0.6502386502386502,1537.8968931375896,-1.0027387681370556,-0.19870636909270975,0.7292115844065031,1620.5128205128203,-1.0,63.169258450070686,0.6505460402680798,
2023-08-12 15:02:10.654000,-6.566265060240964,-0.07228915662650603,-7.506024096385542,-0.002452483139178418,-6.296137339055794,-7.212752912323728,3.0,0.6502386502386502,1537.8968931375896,-0.9801293630907283,-0.854728745411107,0.7824718839228483,1596.3369963369962,-1.0,63.169258450070686,0.6505408979982332,
2023-08-12 15:02:10.662000,-6.578313253012048,-0.08433734939759037,-7.481927710843374,0.017167381974248927,-6.278969957081545,-7.256897608828939,3.0,0.6502386502386502,1537.8968931375896,-0.9100868247771102,-0.9098537381271485,0.6202435755492106,1569.9633699633698,-1.0,63.169258450070686,0.6505357040661797,
2023-08-12 15:02:10.669000,-6.542168674698796,-0.07228915662650603,-7.481927710843374,-0.007357449417535254,-6.315757204169221,-7.183323114653587,3.0,0.6497946497946498,1538.9477280491972,-1.4053959559466234,-0.9513431618204061,0.8586912184604628,1541.3919413919414,-1.0,63.169258450070686,0.6505304604248475,
2023-08-12 15:02:10.677000,-6.542168674698796,-0.07228915662650603,-7.46987951807229,-0.0269773145309626,-6.25444512568976,-7.1735131820968725,3.0,0.6502386502386502,1537.8968931375896,-1.503875065555621,-0.9328127731484185,1.003204941436979,1512.8205128205127,-1.0,63.169258450070686,0.6505251690326366,
2023-08-12 15:02:10.685000,-6.530120481927711,-0.04819277108433735,-7.457831325301205,0.09809932556713671,-6.244635193133047,-7.200490496627835,3.0,0.6502386502386502,1537.8968931375896,-1.29421362391469,-0.5795699551308192,1.0874657653982869,1487.9120879120878,-1.0,63.169258450070686,0.6505198318481515,
2023-08-12 15:02:10.692000,-6.530120481927711,-0.024096385542168676,-7.481927710843374,0.04904966278356836,-6.247087676272225,-7.171060698957694,3.0,0.6502386502386502,1537.8968931375896,-1.3752112347765275,-0.8535633121612951,0.9567041547695359,1467.3992673992673,-1.0,63.169258450070686,0.6505144511327583,
2023-08-12 15:02:10.700000,-6.530120481927711,-0.024096385542168676,-7.46987951807229,0.09809932556713671,-6.247087676272225,-7.161250766400981,3.0,0.6497946497946498,1538.9477280491972,-1.2275508420255232,-1.2924654740399741,0.9960957986131346,1449.084249084249,-1.0,63.169258450070686,0.6505090294443246,
2023-08-12 15:02:10.707000,-6.530120481927711,0.0,-7.445783132530121,0.09809932556713671,-6.283874923359901,-7.148988350705088,3.0,0.6497946497946498,1538.9477280491972,-1.5386049763999763,-1.4525960025639524,0.9868888759396307,1432.9670329670328,-1.0,63.169258450070686,0.6505035693221927,
2023-08-12 15:02:10.715000,-6.542168674698796,0.024096385542168676,-7.445783132530121,0.13979153893316984,-6.227467811158798,-7.148988350705088,3.0,0.6502386502386502,1537.8968931375896,-1.2048248936542167,-1.379756424450789,0.8405104597634172,1418.3150183150183,-1.0,63.169258450070686,0.6504980732695055,
2023-08-12 15:02:10.723000,-6.542168674698796,0.04819277108433735,-7.445783132530121,0.18884120171673818,-6.264255058246475,-7.205395462906192,3.0,0.6497946497946498,1538.9477280491972,-1.3168230289610157,-1.2174115727521713,0.47969232562205016,1406.5934065934066,-1.0,63.169258450070686,0.6504925441610522,
2023-08-12 15:02:10.730000,-6.530120481927711,0.03614457831325302,-7.445783132530121,0.1226241569589209,-6.234825260576333,-7.171060698957694,3.0,0.6497946497946498,1538.9477280491972,-1.688945865625547,-1.3756774080764527,0.5670998193578459,1395.6043956043954,-1.0,63.169258450070686,0.6504869848195513,
2023-08-12 15:02:10.738000,-6.530120481927711,0.07228915662650603,-7.421686746987953,0.12752912323727775,-6.266707541385653,-7.1514408338442665,3.0,0.6497946497946498,1538.9477280491972,-1.4791678806596351,-1.3533010896800888,0.4722335528232619,1385.3479853479853,-1.0,63.169258450070686,0.6504813980069797,
2023-08-12 15:02:10.746000,-6.530120481927711,0.08433734939759037,-7.445783132530121,0.19619865113427343,-6.251992642550582,-7.1955855303494785,3.0,0.6497946497946498,1538.9477280491972,-1.482780723734048,-1.0086824777110888,0.4084843540586211,1378.021978021978,-1.0,63.169258450070686,0.6504757866817009,
2023-08-12 15:02:10.753000,-6.55421686746988,0.10843373493975904,-7.445783132530121,0.19619865113427343,-6.249540159411404,-7.163703249540159,3.0,0.6502386502386502,1537.8968931375896,-1.8835732183439187,-0.8343336635394207,0.36210011071615905,1372.161172161172,-1.0,63.169258450070686,0.6504701537008678,
2023-08-12 15:02:10.761000,-6.55421686746988,0.0963855421686747,-7.421686746987953,0.1496014714898835,-6.264255058246475,-7.134273451870018,3.0,0.6502386502386502,1537.8968931375896,-1.7750713827865516,-0.70811724258493,0.22213157741390366,1367.7655677655678,-1.0,63.169258450070686,0.6504645019800658,
2023-08-12 15:02:10.769000,-6.578313253012048,0.0963855421686747,-7.421686746987953,0.17167381974248927,-6.274064990803188,-7.168608215818516,3.0,0.6502386502386502,1537.8968931375896,-1.6989685915739179,-0.6888875939630557,0.09777984965911055,1367.032967032967,-1.0,63.169258450070686,0.6504588347914927,
2023-08-12 15:02:10.776000,-6.578313253012048,0.10843373493975904,-7.385542168674699,0.14714898835070508,-6.33292458614347,-7.178418148375229,3.0,0.6493506493506493,1540.0,-1.975176271779033,-0.7130120622341356,0.2034846454169336,1367.032967032967,-1.0,63.169258450070686,0.6504531554558547,
2023-08-12 15:02:10.784000,-6.578313253012048,0.10843373493975904,-7.433734939759036,0.16676885346413242,-6.269160024524831,-7.14653586756591,3.0,0.6497946497946498,1538.9477280491972,-1.547695355748499,-0.7992541227201212,0.12505098770467943,1367.7655677655678,-1.0,63.169258450070686,0.6504474671835153,
2023-08-12 15:02:10.792000,-6.590361445783133,0.10843373493975904,-7.421686746987953,0.19619865113427343,-6.244635193133047,-7.1661557326793375,3.0,0.6497946497946498,1538.9477280491972,-1.5025930889808283,-1.079890449274517,0.16747275799778527,1367.7655677655678,-1.0,63.169258450070686,0.6504417731396075,
2023-08-12 15:02:10.799000,-6.578313253012048,0.10843373493975904,-7.421686746987953,0.2035561005518087,-6.27161250766401,-7.175965665236051,3.0,0.6497946497946498,1538.9477280491972,-1.179884622108269,-1.2657770526193104,0.623273701998718,1367.032967032967,-1.0,63.169258450070686,0.6504360764543774,
2023-08-12 15:02:10.807000,-6.578313253012048,0.12048192771084337,-7.445783132530121,0.25015328019619865,-6.367259350091968,-7.14653586756591,3.0,0.6502386502386502,1537.8968931375896,-1.0427131286055589,-1.2058737835790458,0.6328302546471648,1367.7655677655678,-1.0,63.169258450070686,0.6504303802227477,
2023-08-12 15:02:10.815000,-6.578313253012048,0.14457831325301207,-7.409638554216868,0.23789086450030655,-6.259350091968117,-7.171060698957694,3.0,0.6497946497946498,1538.9477280491972,-1.1388613717149347,-0.9191772041256328,0.7013577297360294,1368.4981684981683,-1.0,63.169258450070686,0.6504246875037883,
2023-08-12 15:02:10.822000,-6.578313253012048,0.16867469879518074,-7.409638554216868,0.30656039239730226,-6.276517473942366,-7.161250766400981,3.0,0.6502386502386502,1537.8968931375896,-1.0530854845288742,-1.0148592739350852,0.5877279878794943,1369.9633699633698,-1.0,63.169258450070686,0.6504190012025497,
2023-08-12 15:02:10.830000,-6.542168674698796,0.21686746987951808,-7.397590361445784,0.31882280809319435,-6.281422440220723,-7.134273451870018,3.0,0.6497946497946498,1538.9477280491972,-1.01322766738535,-1.0488899248295553,0.8854961832061068,1370.6959706959706,-1.0,63.169258450070686,0.6504133243360649,
2023-08-12 15:02:10.838000,-6.518072289156627,0.20481927710843376,-7.409638554216868,0.27713059472716123,-6.227467811158798,-7.063151440833844,3.0,0.6497946497946498,1538.9477280491972,-1.214731076277607,-1.3574966493794074,0.7538022259775073,1369.230769230769,-1.0,63.169258450070686,0.6504076598736094,
2023-08-12 15:02:10.845000,-6.493975903614458,0.22891566265060243,-7.36144578313253,0.2795830778663397,-6.1293684855916615,-7.134273451870018,3.0,0.6497946497946498,1538.9477280491972,-0.5610395664588298,-1.2681079191189324,0.7455276499038519,1364.102564102564,-1.0,63.169258450070686,0.6504020105772929,
2023-08-12 15:02:10.853000,-6.493975903614458,0.2530120481927711,-7.373493975903615,0.3041079092581238,-6.200490496627835,-7.1440833844267315,3.0,0.6497946497946498,1538.9477280491972,-0.7223355282326199,-0.6462327370199878,0.15616805547462242,1355.3113553113553,-1.0,63.169258450070686,0.650396379119741,
2023-08-12 15:02:10.861000,-6.506024096385542,0.24096385542168675,-7.409638554216868,0.3531575720416922,-6.1587982832618025,-7.05334150827713,3.0,0.6497946497946498,1538.9477280491972,-0.4997377775187918,-0.6568381795932631,0.2122253947905137,1347.2527472527472,-1.0,63.169258450070686,0.650390767945684,
2023-08-12 15:02:10.868000,-6.481927710843374,0.2530120481927711,-7.397590361445784,0.3629675045984059,-6.161250766400981,-7.1587982832618025,3.0,0.6502386502386502,1537.8968931375896,-0.5231629858399868,-0.5570770934094744,-0.022026688421420183,1337.7289377289376,-1.0,63.169258450070686,0.650385179549493,
2023-08-12 15:02:10.876000,-6.493975903614458,0.26506024096385544,-7.385542168674699,0.34334763948497854,-6.200490496627835,-7.087676272225628,3.0,0.6497946497946498,1538.9477280491972,-0.012586679097954637,-0.3491638016432612,-0.08402773731134537,1329.6703296703297,-1.0,63.169258450070686,0.6503796164553788,
2023-08-12 15:02:10.884000,-6.481927710843374,0.27710843373493976,-7.385542168674699,0.3727774371551195,-6.1735131820968725,-7.0778663396689145,3.0,0.6497946497946498,1538.9477280491972,-0.14649495950119434,-0.20523279529165048,-0.6200104888992485,1324.5421245421244,-1.0,63.169258450070686,0.6503740809529722,
2023-08-12 15:02:10.891000,-6.493975903614458,0.2530120481927711,-7.349397590361447,0.3703249540159411,-6.207847946045371,-7.102391171060699,3.0,0.6497946497946498,1538.9477280491972,0.29870054192646184,-0.15278829905017166,-1.0752287162752756,1320.8791208791208,-1.0,63.169258450070686,0.6503685752174839,
2023-08-12 15:02:10.899000,-6.530120481927711,0.2530120481927711,-7.373493975903615,0.3629675045984059,-6.283874923359901,-7.090128755364806,3.0,0.6497946497946498,1538.9477280491972,0.451139211001691,0.09463317988462319,-0.9895693724141947,1317.216117216117,-1.0,63.169258450070686,0.6503631012812295,
2023-08-12 15:02:10.907000,-6.542168674698796,0.24096385542168675,-7.373493975903615,0.3408951563458001,-6.229920294297976,-7.095033721643163,3.0,0.6497946497946498,1538.9477280491972,0.4533535341763286,0.0981294796340535,-0.9825767729153315,1314.2857142857142,-1.0,63.169258450070686,0.6503576610373791,
2023-08-12 15:02:10.914000,-6.55421686746988,0.22891566265060243,-7.397590361445784,0.33108522378908645,-6.242182709993869,-7.117106069895769,3.0,0.6497946497946498,1538.9477280491972,0.4673387331740585,0.19287920284365753,-1.5565526484470604,1312.087912087912,-1.0,63.169258450070686,0.6503522563620194,
2023-08-12 15:02:10.922000,-6.55421686746988,0.24096385542168675,-7.409638554216868,0.37522992029429797,-6.256897608828939,-7.139178418148375,3.0,0.6497946497946498,1538.9477280491972,0.7562496358021092,0.4095332439834508,-1.1037818308956353,1312.087912087912,-1.0,63.169258450070686,0.6503468889600784,
2023-08-12 15:02:10.930000,-6.578313253012048,0.21686746987951808,-7.373493975903615,0.3408951563458001,-6.328019619865113,-7.1367259350091965,3.0,0.6493506493506493,1540.0,0.5092943301672395,0.9572868713944409,-0.9753510867665053,1312.8205128205127,-1.0,63.169258450070686,0.6503415603611344,
2023-08-12 15:02:10.937000,-6.590361445783133,0.1927710843373494,-7.36144578313253,0.23053341508277128,-6.276517473942366,-7.0999386879215205,3.0,0.6497946497946498,1538.9477280491972,0.8443563894877935,0.647398170269798,-1.103432200920692,1315.7509157509157,-1.0,63.169258450070686,0.6503362717665544,
2023-08-12 15:02:10.945000,-6.614457831325302,0.18072289156626506,-7.36144578313253,0.24770079705702022,-6.283874923359901,-7.082771305947271,3.0,0.6497946497946498,1538.9477280491972,0.7647572985257277,0.46127848027504287,-0.7285123244566171,1318.6813186813185,-1.0,63.169258450070686,0.6503310241739749,
2023-08-12 15:02:10.953000,-6.578313253012048,0.16867469879518074,-7.373493975903615,0.1912936848559166,-6.323114653586757,-7.08522378908645,3.0,0.6497946497946498,1538.9477280491972,0.7287454111065781,0.6552065730435297,-1.1199813530680032,1320.8791208791208,-1.0,63.169258450070686,0.6503258185339611,
2023-08-12 15:02:10.960000,-6.614457831325302,0.13253012048192772,-7.373493975903615,0.2599632127529123,-6.391784181483752,-7.126916002452483,3.0,0.6497946497946498,1538.9477280491972,1.2140318163277202,0.5296894120389258,-0.608356156401142,1323.076923076923,-1.0,63.169258450070686,0.6503206556094644,
2023-08-12 15:02:10.968000,-6.602409638554217,0.14457831325301207,-7.36144578313253,0.2158185162477008,-6.330472103004292,-7.161250766400981,3.0,0.6497946497946498,1538.9477280491972,1.3580793660043116,0.4044053376842836,-0.7719829846745527,1326.007326007326,-1.0,63.169258450070686,0.6503155359747156,
2023-08-12 15:02:10.976000,-6.590361445783133,0.13253012048192772,-7.397590361445784,0.20110361741263028,-6.335377069282648,-7.124463519313304,3.0,0.6497946497946498,1538.9477280491972,1.4267233844181562,0.7226851582075642,-0.6449507604451956,1328.937728937729,-1.0,63.169258450070686,0.6503104600148231,
2023-08-12 15:02:10.983000,-6.590361445783133,0.12048192771084337,-7.36144578313253,0.16922133660331085,-6.325567136725935,-7.072961373390558,3.0,0.6497946497946498,1538.9477280491972,1.4630849018122485,0.5359827515879031,-0.549618320610687,1328.937728937729,-1.0,63.169258450070686,0.6503054279260776,
2023-08-12 15:02:10.991000,-6.578313253012048,0.0963855421686747,-7.421686746987953,0.15941140404659718,-6.301042305334151,-7.1367259350091965,3.0,0.6497946497946498,1538.9477280491972,1.4686789814113408,0.7492570363032451,-0.34753219509352606,1329.6703296703297,-1.0,63.169258450070686,0.6503004397169744,
2023-08-12 15:02:10.999000,-6.566265060240964,0.08433734939759037,-7.373493975903615,0.15695892090741875,-6.269160024524831,-7.124463519313304,3.0,0.6497946497946498,1538.9477280491972,1.6586446011304703,1.084552182273761,-0.2239962706136003,1328.937728937729,-1.0,63.169258450070686,0.6502954952099528,
2023-08-12 15:02:11.006000,-6.566265060240964,0.07228915662650603,-7.385542168674699,0.11526670754138564,-6.367259350091968,-7.185775597792765,3.0,0.6497946497946498,1538.9477280491972,1.6630732474797507,0.6204766621991726,0.004312103024299194,1326.007326007326,-1.0,63.169258450070686,0.6502905940438469,
2023-08-12 15:02:11.014000,-6.566265060240964,0.060240963855421686,-7.36144578313253,0.13979153893316984,-6.25444512568976,-7.153893316983446,3.0,0.6497946497946498,1538.9477280491972,1.821572169453994,1.1066954140201615,-0.3514946681428821,1321.6117216117216,-1.0,63.169258450070686,0.6502857356770564,
2023-08-12 15:02:11.022000,-6.566265060240964,0.03614457831325302,-7.433734939759036,0.09319435928877988,-6.291232372777436,-7.14653586756591,3.0,0.6497946497946498,1538.9477280491972,1.41273818542043,1.2181108327020562,0.013752112347765171,1317.9487179487178,-1.0,63.169258450070686,0.650280919391413,
2023-08-12 15:02:11.029000,-6.55421686746988,0.03614457831325302,-7.397590361445784,0.1765787860208461,-6.296137339055794,-7.185775597792765,3.0,0.6497946497946498,1538.9477280491972,1.6938406852747507,0.8755900005827166,-0.09638132975933812,1314.2857142857142,-1.0,63.169258450070686,0.650276144296749,
2023-08-12 15:02:11.037000,-6.530120481927711,0.03614457831325302,-7.409638554216868,0.12507664009809932,-6.249540159411404,-7.200490496627835,3.0,0.6497946497946498,1538.9477280491972,1.39187693024882,1.2678748324689706,0.05582425266592871,1312.087912087912,-1.0,63.169258450070686,0.6502714093361397,
2023-08-12 15:02:11.045000,-6.530120481927711,0.024096385542168676,-7.433734939759036,0.13243408951563457,-6.276517473942366,-7.1367259350091965,3.0,0.6497946497946498,1538.9477280491972,1.5030592622807517,1.4269564710681197,-0.18716857991958502,1314.2857142857142,-1.0,63.169258450070686,0.6502667132918131,
2023-08-12 15:02:11.052000,-6.542168674698796,0.012048192771084338,-7.421686746987953,0.11526670754138564,-6.291232372777436,-7.14653586756591,3.0,0.6497946497946498,1538.9477280491972,1.6741448633529512,0.8995979255288158,-0.3407726822446243,1317.216117216117,-1.0,63.169258450070686,0.6502620547917014,
2023-08-12 15:02:11.060000,-6.530120481927711,0.0,-7.46987951807229,0.06866952789699571,-6.249540159411404,-7.161250766400981,3.0,0.6497946497946498,1538.9477280491972,1.280811141541868,1.1847794417574729,-0.12505098770467943,1320.14652014652,-1.0,63.169258450070686,0.6502574323166157,
2023-08-12 15:02:11.067000,-6.542168674698796,0.012048192771084338,-7.457831325301205,0.0809319435928878,-6.291232372777436,-7.222562844880441,3.0,0.6497946497946498,1538.9477280491972,1.2263854087757131,1.1459705145387797,-0.24532369908513504,1323.076923076923,-1.0,63.169258450070686,0.6502528442080098,
2023-08-12 15:02:11.075000,-6.566265060240964,0.0,-7.481927710843374,0.01226241569589209,-6.305947271612507,-7.178418148375229,3.0,0.6497946497946498,1538.9477280491972,1.1721927626595183,1.2763824951925873,-0.22877454693782415,1325.2747252747251,-1.0,63.169258450070686,0.6502482886763182,
2023-08-12 15:02:11.083000,-6.55421686746988,-0.024096385542168676,-7.506024096385542,0.10055180870631514,-6.237277743715512,-7.25444512568976,3.0,0.6493506493506493,1540.0,1.1336169220907868,1.2530738301963749,-0.18180758697045635,1328.2051282051282,-1.0,63.169258450070686,0.6502437638098246,
2023-08-12 15:02:11.090000,-6.578313253012048,-0.012048192771084338,-7.481927710843374,0.10545677498467197,-6.283874923359901,-7.168608215818516,3.0,0.6497946497946498,1538.9477280491972,0.9586853912942145,0.6068410931763888,-0.4412330283782999,1331.8681318681317,-1.0,63.169258450070686,0.6502392675734847,
2023-08-12 15:02:11.098000,-6.578313253012048,0.0,-7.46987951807229,0.08583690987124463,-6.305947271612507,-7.25444512568976,3.0,0.6497946497946498,1538.9477280491972,0.6465823669949304,0.49612493444438066,-0.1605967018239029,1334.065934065934,-1.0,63.169258450070686,0.6502347977870522,
2023-08-12 15:02:11.106000,-6.55421686746988,0.012048192771084338,-7.506024096385542,0.10545677498467197,-6.259350091968117,-7.185775597792765,3.0,0.6497946497946498,1538.9477280491972,0.5359827515879031,0.2013868655672742,-0.08216304411164853,1336.263736263736,-1.0,63.169258450070686,0.6502303521666639,
2023-08-12 15:02:11.113000,-6.542168674698796,0.024096385542168676,-7.457831325301205,0.08583690987124463,-6.244635193133047,-7.291232372777436,3.0,0.6497946497946498,1538.9477280491972,0.4412330283783008,0.5357496649379414,-0.18600314666977427,1337.7289377289376,-1.0,63.169258450070686,0.6502259283456476,
2023-08-12 15:02:11.121000,-6.55421686746988,0.024096385542168676,-7.481927710843374,0.10055180870631514,-6.27161250766401,-7.148988350705088,3.0,0.6497946497946498,1538.9477280491972,0.6524095332439827,-0.11048307208204645,-0.2769069401550029,1336.9963369963368,-1.0,63.169258450070686,0.6502215238851392,
2023-08-12 15:02:11.129000,-6.542168674698796,0.0,-7.46987951807229,0.10055180870631514,-6.256897608828939,-7.1514408338442665,3.0,0.6497946497946498,1538.9477280491972,0.15954781189907233,0.060952158965095496,-0.16840510459763414,1334.065934065934,-1.0,63.169258450070686,0.6502171362850113,
2023-08-12 15:02:11.136000,-6.542168674698796,0.0,-7.445783132530121,0.06866952789699571,-6.28632740649908,-7.1931330472103,3.0,0.6497946497946498,1538.9477280491972,0.1903152496940739,0.1818075869704555,-0.07365538138803097,1331.8681318681317,-1.0,63.169258450070686,0.6502127628563216,
2023-08-12 15:02:11.144000,-6.566265060240964,0.012048192771084338,-7.481927710843374,0.13243408951563457,-6.303494788473329,-7.222562844880441,3.0,0.6497946497946498,1538.9477280491972,-0.16059670182390334,0.012120505798031292,-0.05559116601596661,1328.937728937729,-1.0,63.169258450070686,0.6502084008918707,
2023-08-12 15:02:11.152000,-6.55421686746988,0.0,-7.457831325301205,0.07847946045370938,-6.269160024524831,-7.1955855303494785,3.0,0.6497946497946498,1538.9477280491972,-0.41967251325680266,0.05792203251558854,-0.31315191422411287,1325.2747252747251,-1.0,63.169258450070686,0.6502040478054261,
2023-08-12 15:02:11.159000,-6.602409638554217,0.0,-7.445783132530121,0.08583690987124463,-6.303494788473329,-7.14653586756591,3.0,0.6497946497946498,1538.9477280491972,-0.4468271079773914,-0.03228250101975418,0.05500844939106112,1323.076923076923,-1.0,63.169258450070686,0.6501997009943766,
2023-08-12 15:02:11.167000,-6.578313253012048,0.024096385542168676,-7.457831325301205,0.08828939301042305,-6.301042305334151,-7.126916002452483,3.0,0.6497946497946498,1538.9477280491972,-0.4884330749956298,-0.42433424625604654,-0.22015034088922575,1321.6117216117216,-1.0,63.169258450070686,0.6501953578517724,
2023-08-12 15:02:11.175000,-6.542168674698796,0.060240963855421686,-7.445783132530121,0.13979153893316984,-6.242182709993869,-7.183323114653587,3.0,0.6497946497946498,1538.9477280491972,-0.2387972728861956,-0.1899656197191314,0.08670823378591026,1321.6117216117216,-1.0,63.169258450070686,0.6501910157784063,
2023-08-12 15:02:11.182000,-6.530120481927711,0.060240963855421686,-7.481927710843374,0.11526670754138564,-6.276517473942366,-7.185775597792765,3.0,0.6497946497946498,1538.9477280491972,-0.23530097313676357,-0.18681894994464188,0.08635860381096688,1322.3443223443223,-1.0,63.169258450070686,0.6501866721948936,
2023-08-12 15:02:11.190000,-6.530120481927711,0.060240963855421686,-7.433734939759036,0.12017167381974249,-6.301042305334151,-7.183323114653587,3.0,0.6493506493506493,1540.0,-0.49181283142008103,-0.35219392809276817,0.05559116601596661,1323.076923076923,-1.0,63.169258450070686,0.650182324553694,
2023-08-12 15:02:11.198000,-6.530120481927711,0.08433734939759037,-7.397590361445784,0.11281422440220723,-6.298589822194972,-7.1661557326793375,3.0,0.6497946497946498,1538.9477280491972,-0.5472874541110668,2.3308664996167294E-4,-0.25138395198415026,1323.8095238095236,-1.0,63.169258450070686,0.6501779702017345,
2023-08-12 15:02:11.205000,-6.530120481927711,0.060240963855421686,-7.445783132530121,0.19374616799509503,-6.259350091968117,-7.1955855303494785,3.0,0.6497946497946498,1538.9477280491972,-0.32818600314667074,0.106054425732766,-0.2959035021269157,1322.3443223443223,-1.0,63.169258450070686,0.6501736065195929,
2023-08-12 15:02:11.213000,-6.542168674698796,0.060240963855421686,-7.457831325301205,0.18884120171673818,-6.291232372777436,-7.14653586756591,3.0,0.6497946497946498,1538.9477280491972,-0.5990326904026572,-0.26222248120738884,0.05605733931589039,1320.14652014652,-1.0,63.169258450070686,0.6501692309532466,
2023-08-12 15:02:11.221000,-6.578313253012048,0.060240963855421686,-7.421686746987953,0.19619865113427343,-6.278969957081545,-7.188228080931943,3.0,0.6493506493506493,1540.0,-0.1984732824427481,-0.21397354466522883,0.2858807761785447,1319.4139194139193,-1.0,63.169258450070686,0.6501648410455788,
2023-08-12 15:02:11.228000,-6.542168674698796,0.0963855421686747,-7.457831325301205,0.2035561005518087,-6.237277743715512,-7.2029429797670135,3.0,0.6493506493506493,1540.0,-0.6547403997436045,-0.3333139094458362,0.08624206048598561,1320.14652014652,-1.0,63.169258450070686,0.6501604344255401,
2023-08-12 15:02:11.236000,-6.55421686746988,0.10843373493975904,-7.433734939759036,0.18148375229920294,-6.301042305334151,-7.1808706315144075,3.0,0.6493506493506493,1540.0,-0.4161762135073706,0.050579803041780225,-0.08356156401142116,1321.6117216117216,-1.0,63.169258450070686,0.6501560086476833,
2023-08-12 15:02:11.244000,-6.55421686746988,0.0963855421686747,-7.46987951807229,0.1618638871857756,-6.242182709993869,-7.163703249540159,3.0,0.6493506493506493,1540.0,-0.7769943476487381,-0.19217994289377077,-0.05617388264087209,1321.6117216117216,-1.0,63.169258450070686,0.6501515614783111,
2023-08-12 15:02:11.251000,-6.530120481927711,0.12048192771084337,-7.421686746987953,0.18148375229920294,-6.222562844880441,-7.161250766400981,3.0,0.6493506493506493,1540.0,-0.6316648213973538,0.04032399044344752,-0.08822329701066374,1319.4139194139193,-1.0,63.169258450070686,0.65014709074439,
2023-08-12 15:02:11.259000,-6.542168674698796,0.10843373493975904,-7.373493975903615,0.17903126916002451,-6.220110361741263,-7.139178418148375,3.0,0.6493506493506493,1540.0,-0.6416875473457265,-0.01853038867198945,-0.22504516053843,1316.4835164835165,-1.0,63.169258450070686,0.6501425942133554,
2023-08-12 15:02:11.267000,-6.542168674698796,0.10843373493975904,-7.397590361445784,0.22317596566523604,-6.23973022685469,-7.141630901287553,3.0,0.6493506493506493,1540.0,-0.5603403065089447,0.030301264495076495,-0.16304411164850569,1315.7509157509157,-1.0,63.169258450070686,0.6501380697489632,
2023-08-12 15:02:11.274000,-6.55421686746988,0.0963855421686747,-7.421686746987953,0.20110361741263028,-6.288779889638258,-7.171060698957694,3.0,0.6497946497946498,1538.9477280491972,-0.629800128197657,-0.42584930948079913,0.0791329176621407,1316.4835164835165,-1.0,63.169258450070686,0.6501335151784199,
2023-08-12 15:02:11.282000,-6.55421686746988,0.10843373493975904,-7.397590361445784,0.20600858369098712,-6.288779889638258,-7.1440833844267315,3.0,0.6497946497946498,1538.9477280491972,-0.6238564186236238,-0.3882058155119161,0.04498572344268966,1318.6813186813185,-1.0,63.169258450070686,0.6501289286059861,
2023-08-12 15:02:11.290000,-6.55421686746988,0.13253012048192772,-7.421686746987953,0.22317596566523604,-6.249540159411404,-7.090128755364806,3.0,0.6497946497946498,1538.9477280491972,-0.47957578229706893,-0.415943126857409,0.0599032690402658,1318.6813186813185,-1.0,63.169258450070686,0.6501243085669378,
2023-08-12 15:02:11.297000,-6.542168674698796,0.14457831325301207,-7.421686746987953,0.21827099938687922,-6.28632740649908,-7.175965665236051,3.0,0.6497946497946498,1538.9477280491972,-0.2912417691276727,-0.3640813472408378,-0.2776062001048888,1318.6813186813185,-1.0,63.169258450070686,0.6501196537451638,
2023-08-12 15:02:11.305000,-6.530120481927711,0.1566265060240964,-7.421686746987953,0.22317596566523604,-6.220110361741263,-7.168608215818516,3.0,0.6493506493506493,1540.0,-0.0893887302604734,-0.8767554338325267,0.2252782471883921,1319.4139194139193,-1.0,63.169258450070686,0.6501149629782766,
2023-08-12 15:02:11.313000,-6.542168674698796,0.16867469879518074,-7.433734939759036,0.2844880441446965,-6.27161250766401,-7.163703249540159,3.0,0.6493506493506493,1540.0,-0.26968125400617626,-0.4679214497989627,-0.12913000407901631,1319.4139194139193,-1.0,63.169258450070686,0.650110235112877,
2023-08-12 15:02:11.320000,-6.530120481927711,0.1927710843373494,-7.433734939759036,0.24034334763948498,-6.23973022685469,-7.1587982832618025,3.0,0.6493506493506493,1540.0,-0.2541809917836955,-0.35487442456733265,0.024357554921041684,1319.4139194139193,-1.0,63.169258450070686,0.6501054689866966,
2023-08-12 15:02:11.328000,-6.542168674698796,0.1927710843373494,-7.445783132530121,0.21336603310852237,-6.244635193133047,-7.1072961373390555,3.0,0.6493506493506493,1540.0,-0.3147835207738485,-0.45475205407610214,-0.17399918419672514,1319.4139194139193,-1.0,63.169258450070686,0.6501006635691189,
2023-08-12 15:02:11.336000,-6.530120481927711,0.16867469879518074,-7.409638554216868,0.2452483139178418,-6.215205395462906,-7.1293684855916615,3.0,0.6493506493506493,1540.0,-0.1438144630266299,-0.4324922790047207,0.13519025697803194,1320.8791208791208,965.14892578125,62.16657180800607,0.6500958179622056,
2023-08-12 15:02:11.343000,-6.566265060240964,0.1566265060240964,-7.373493975903615,0.23053341508277128,-6.283874923359901,-7.14653586756591,3.0,0.6493506493506493,1540.0,-0.09626478643435664,-0.5940213274284707,-0.004778276324223841,1324.5421245421244,-1.0,62.16657180800607,0.6500909314010003,
2023-08-12 15:02:11.351000,-6.590361445783133,0.16867469879518074,-7.409638554216868,0.25260576333537704,-6.269160024524831,-7.175965665236051,3.0,0.6493506493506493,1540.0,-0.1874016665695478,-0.6659285589417875,0.010139269273352298,1330.4029304029302,-1.0,62.16657180800607,0.650086003253102,
2023-08-12 15:02:11.359000,-6.590361445783133,0.16867469879518074,-7.409638554216868,0.2869405272838749,-6.340282035561005,-7.1587982832618025,3.0,0.6497946497946498,1538.9477280491972,-0.23180467338733154,-0.6625488025173363,-0.660917195967601,1340.6593406593406,-1.0,62.16657180800607,0.6500810330175462,
2023-08-12 15:02:11.366000,-6.63855421686747,0.1927710843373494,-7.385542168674699,0.24034334763948498,-6.342734518700183,-7.102391171060699,3.0,0.6497946497946498,1538.9477280491972,-0.016316065497348348,-0.6286346949478469,-0.7314259075811433,1356.7765567765566,-1.0,62.16657180800607,0.6500760204722932,
2023-08-12 15:02:11.374000,-6.614457831325302,0.16867469879518074,-7.397590361445784,0.21091354996934394,-6.34763948497854,-7.148988350705088,3.0,0.6497946497946498,1538.9477280491972,-0.3062758580502301,-0.8283899539653858,-0.997610861837888,1382.4175824175823,-1.0,62.16657180800607,0.6500709656936473,
2023-08-12 15:02:11.382000,-6.626506024096386,0.14457831325301207,-7.409638554216868,0.19865113427345185,-6.340282035561005,-7.126916002452483,3.0,0.6497946497946498,1538.9477280491972,-0.4093001573334891,-0.9761668900413729,-0.9084552182273763,1416.117216117216,-1.0,62.16657180800607,0.6500658690548637,
2023-08-12 15:02:11.389000,-6.626506024096386,0.13253012048192772,-7.409638554216868,0.22562844880441446,-6.313304721030042,-7.161250766400981,3.0,0.6489066489066488,1541.053711939788,-0.2067478585164031,-1.532777810150924,-0.6716391818658584,1453.4798534798533,-1.0,62.16657180800607,0.650060731065217,
2023-08-12 15:02:11.397000,-6.590361445783133,0.13253012048192772,-7.421686746987953,0.17412630288166767,-6.2323727774371545,-7.1735131820968725,3.0,0.6493506493506493,1540.0,-0.31186993764932064,-1.3853505040498812,-0.37445370316415133,1498.168498168498,-1.0,62.16657180800607,0.6500555520803675,
2023-08-12 15:02:11.405000,-6.55421686746988,0.12048192771084337,-7.421686746987953,0.2207234825260576,-6.278969957081545,-7.122011036174126,3.0,0.6493506493506493,1540.0,-0.32573859332206795,-1.8362566284016089,-0.3709574034147193,1549.4505494505493,-1.0,62.16657180800607,0.6500503325340891,
2023-08-12 15:02:11.412000,-6.55421686746988,0.13253012048192772,-7.421686746987953,0.2452483139178418,-6.288779889638258,-7.163703249540159,3.0,0.6497946497946498,1538.9477280491972,-0.6426198939455751,-1.2446827107977392,-0.5960025639531493,1609.5238095238094,-1.0,62.16657180800607,0.6500450729444709,
2023-08-12 15:02:11.420000,-6.530120481927711,0.12048192771084337,-7.421686746987953,0.22562844880441446,-6.261802575107295,-7.1367259350091965,3.0,0.6497946497946498,1538.9477280491972,-0.5165200163160653,-1.5544548685974011,-0.42246955305634837,1675.4578754578754,-1.0,62.16657180800607,0.650039773940544,
2023-08-12 15:02:11.428000,-6.55421686746988,0.13253012048192772,-7.421686746987953,0.26241569589209074,-6.244635193133047,-7.126916002452483,3.0,0.6497946497946498,1538.9477280491972,-0.6482139735446656,-1.4824310937591054,-0.06957636501369388,1743.5897435897434,-1.0,62.16657180800607,0.6500344364272298,
2023-08-12 15:02:11.435000,-6.55421686746988,0.1566265060240964,-7.421686746987953,0.2207234825260576,-6.23973022685469,-7.119558553034947,3.0,0.6497946497946498,1538.9477280491972,-0.36990851348989,-1.7747217528116075,-0.421187576481557,1813.9194139194137,-1.0,62.16657180800607,0.6500290614416759,
2023-08-12 15:02:11.443000,-6.542168674698796,0.18072289156626506,-7.457831325301205,0.24770079705702022,-6.266707541385653,-7.161250766400981,3.0,0.6497946497946498,1538.9477280491972,-0.18192413029543805,-1.6363848260590872,-0.31408426082396135,1879.120879120879,-1.0,62.16657180800607,0.6500236501482016,
2023-08-12 15:02:11.450000,-6.506024096385542,0.21686746987951808,-7.46987951807229,0.3384426732066217,-6.227467811158798,-7.227467811158798,3.0,0.6497946497946498,1538.9477280491972,-0.1339082804032397,-1.956296253132101,-0.8024007924946099,1935.5311355311353,-1.0,62.16657180800607,0.6500182038331375,
2023-08-12 15:02:11.458000,-6.46987951807229,0.26506024096385544,-7.542168674698796,0.4071122011036174,-6.168608215818516,-7.274064990803188,3.0,0.6493506493506493,1540.0,-0.1329759338033913,-1.938581667734981,-0.7990210360701587,1980.21978021978,-1.0,62.16657180800607,0.6500127238996157,
2023-08-12 15:02:11.466000,-6.506024096385542,0.22891566265060243,-7.530120481927711,0.3678724708767627,-6.200490496627835,-7.2323727774371545,3.0,0.6493506493506493,1540.0,-1.1048307208204646,-1.9623565060311168,-0.7513548161529046,2014.6520146520145,-1.0,62.16657180800607,0.6500072117130461,
2023-08-12 15:02:11.473000,-6.518072289156627,0.24096385542168675,-7.445783132530121,0.2844880441446965,-6.247087676272225,-7.156345800122624,3.0,0.6497946497946498,1538.9477280491972,-1.5046908688304867,-2.90542509177787,-0.6750189382903091,2034.4322344322343,-1.0,62.16657180800607,0.6500016685740315,
2023-08-12 15:02:11.481000,-6.506024096385542,0.21686746987951808,-7.36144578313253,0.31882280809319435,-6.175965665236051,-7.065603923973022,3.0,0.6497946497946498,1538.9477280491972,-1.3791737078258848,-3.672979430103141,-1.4333663539420778,2038.0952380952378,-1.0,62.16657180800607,0.6499960959995775,
2023-08-12 15:02:11.489000,-6.481927710843374,0.2530120481927711,-7.36144578313253,0.3408951563458001,-6.180870631514408,-7.08522378908645,3.0,0.6493506493506493,1540.0,-1.0717324165258446,-3.5048074121554693,-1.3146087057863756,2027.106227106227,-1.0,62.16657180800607,0.6499904957380437,
2023-08-12 15:02:11.496000,-6.493975903614458,0.27710843373493976,-7.409638554216868,0.3948497854077253,-6.200490496627835,-7.1514408338442665,3.0,0.6497946497946498,1538.9477280491972,-0.600897383602354,-3.198764640755201,-1.4257910378183083,2002.9304029304028,-1.0,62.16657180800607,0.6499848694758116,
2023-08-12 15:02:11.504000,-6.457831325301205,0.28915662650602414,-7.46987951807229,0.43408951563458,-6.183323114653587,-7.256897608828939,3.0,0.6497946497946498,1538.9477280491972,-0.34613367519375254,-2.8201153778917307,-2.1167764116310237,1971.4285714285713,-1.0,62.16657180800607,0.6499792189595925,
2023-08-12 15:02:11.512000,-6.46987951807229,0.28915662650602414,-7.493975903614459,0.3654199877375843,-6.171060698957694,-7.276517473942366,3.0,0.6493506493506493,1540.0,-0.614999125925063,-2.8416758930132273,-2.0378765806188452,1935.5311355311353,-1.0,62.16657180800607,0.6499735462892093,
2023-08-12 15:02:11.519000,-6.55421686746988,0.1927710843373494,-7.409638554216868,0.25015328019619865,-6.328019619865113,-7.109748620478234,3.0,0.6497946497946498,1538.9477280491972,-1.2279004720004656,-3.21519724957753,-1.760853097138861,1895.970695970696,-1.0,62.16657180800607,0.649967853465569,
2023-08-12 15:02:11.527000,-6.590361445783133,0.16867469879518074,-7.36144578313253,0.2158185162477008,-6.389331698344574,-7.095033721643163,3.0,0.6493506493506493,1540.0,-1.2726531087931936,-2.574208962181692,-2.140085076627236,1854.212454212454,-1.0,62.16657180800607,0.6499621425246261,
2023-08-12 15:02:11.535000,-6.590361445783133,0.14457831325301207,-7.337349397590362,0.23543838136112813,-6.310852237890864,-7.050889025137952,3.0,0.6493506493506493,1540.0,-0.23320319328710504,-1.5090029718547864,-2.318862537148184,1811.7216117216117,-1.0,62.16657180800607,0.6499564155326966,
2023-08-12 15:02:11.542000,-6.650602409638554,0.10843373493975904,-7.325301204819278,0.19374616799509503,-6.396689147762109,-6.972409564684242,3.0,0.6489066489066488,1541.053711939788,-0.4829555387215201,-1.274168172017948,-2.283200279703979,1771.4285714285713,-1.0,62.16657180800607,0.6499506744325921,
2023-08-12 15:02:11.550000,-6.662650602409639,0.08433734939759037,-7.313253012048193,0.2158185162477008,-6.4408338442673205,-7.00674432863274,3.0,0.6493506493506493,1540.0,-0.47235009614824314,-1.7582891439892783,-2.158149291999302,1736.263736263736,-1.0,62.16657180800607,0.6499449212948175,
2023-08-12 15:02:11.558000,-6.662650602409639,0.12048192771084337,-7.349397590361447,0.22562844880441446,-6.399141630901287,-7.1367259350091965,3.0,0.6493506493506493,1540.0,0.16595769477303224,-2.713711322184021,-1.728803682769068,1704.7619047619046,-1.0,62.16657180800607,0.6499391581321085,
2023-08-12 15:02:11.565000,-6.698795180722892,0.1566265060240964,-7.409638554216868,0.26486817903126914,-6.450643776824034,-7.1440833844267315,3.0,0.6493506493506493,1540.0,-0.10500553580793673,-1.8005943709574017,-1.5175106345784053,1676.1904761904761,-1.0,62.16657180800607,0.6499333869262888,
2023-08-12 15:02:11.573000,-6.771084337349398,0.16867469879518074,-7.349397590361447,0.2673206621704476,-6.458001226241569,-7.063151440833844,3.0,0.6497946497946498,1538.9477280491972,-0.7060194627352715,-1.351436396480392,-1.2608822329701053,1649.8168498168498,-1.0,62.16657180800607,0.64992760949523,
2023-08-12 15:02:11.581000,-6.771084337349398,0.16867469879518074,-7.313253012048193,0.2599632127529123,-6.4702636419374615,-7.016554261189454,3.0,0.6493506493506493,1540.0,0.16176213507371343,-1.1836140085076645,-0.8085775887186064,1621.9780219780218,-1.0,62.16657180800607,0.6499218276577293,
2023-08-12 15:02:11.588000,-6.807228915662651,0.13253012048192772,-7.289156626506024,0.21336603310852237,-6.5144083384426725,-7.0410790925812385,3.0,0.6497946497946498,1538.9477280491972,0.45766563720062997,-0.9533243983450855,-0.9089213915272988,1593.4065934065934,-1.0,62.16657180800607,0.6499160432493586,
2023-08-12 15:02:11.596000,-6.795180722891566,0.12048192771084337,-7.228915662650603,0.19865113427345185,-6.4702636419374615,-6.979767014101777,3.0,0.6493506493506493,1540.0,0.29205757240254027,-1.276149408542624,0.059670182390304125,1566.3003663003662,-1.0,62.16657180800607,0.6499102582458356,
2023-08-12 15:02:11.604000,-6.795180722891566,0.14457831325301207,-7.2771084337349405,0.24770079705702022,-6.546290619251992,-7.014101778050276,3.0,0.6493506493506493,1540.0,0.9191772041256328,-1.396771749898024,0.16805547462268988,1542.8571428571427,-1.0,62.16657180800607,0.6499044747487386,
2023-08-12 15:02:11.611000,-6.759036144578314,0.18072289156626506,-7.228915662650603,0.2158185162477008,-6.556100551808706,-7.00674432863274,3.0,0.6493506493506493,1540.0,1.1744070858341593,-1.1199813530680045,0.9294330167239673,1520.8791208791208,-1.0,62.16657180800607,0.6498986946736722,
2023-08-12 15:02:11.619000,-6.783132530120482,0.20481927710843376,-7.240963855421687,0.3041079092581238,-6.5070508890251375,-6.94543225015328,3.0,0.6497946497946498,1538.9477280491972,0.7686032282501022,-0.7342229473806878,1.1235941961424156,1501.8315018315018,-1.0,62.16657180800607,0.6498929197469965,
2023-08-12 15:02:11.627000,-6.746987951807229,0.1927710843373494,-7.240963855421687,0.30901287553648066,-6.4702636419374615,-7.004291845493562,3.0,0.6493506493506493,1540.0,1.2231221956762426,-0.49449332789464373,1.2256861488258255,1484.9816849816848,-1.0,62.16657180800607,0.6498871518111351,
2023-08-12 15:02:11.634000,-6.759036144578314,0.16867469879518074,-7.2048192771084345,0.24034334763948498,-6.4996934396076025,-6.955242182709993,3.0,0.6497946497946498,1538.9477280491972,1.3787075345259596,-0.37829963288852586,1.3883806304993869,1469.5970695970695,-1.0,62.16657180800607,0.6498813928218247,
2023-08-12 15:02:11.642000,-6.72289156626506,0.14457831325301207,-7.1807228915662655,0.2158185162477008,-6.4849785407725316,-6.987124463519313,3.0,0.6493506493506493,1540.0,1.4566750189382902,-0.11024998543208478,1.3818542043004483,1453.4798534798533,-1.0,62.16657180800607,0.6498756446866049,
2023-08-12 15:02:11.650000,-6.72289156626506,0.10843373493975904,-7.168674698795181,0.19865113427345185,-6.467811158798283,-6.8988350705088894,3.0,0.6493506493506493,1540.0,1.8551366470485406,0.6577705261931115,1.7126041605967017,1437.3626373626373,-1.0,62.16657180800607,0.6498699092739528,
2023-08-12 15:02:11.657000,-6.674698795180723,0.060240963855421686,-7.168674698795181,0.12752912323727775,-6.421213979153893,-6.933169834457388,3.0,0.6493506493506493,1540.0,2.111415418681895,0.2914748557776344,2.0575724025406443,1423.4432234432234,-1.0,62.16657180800607,0.6498641881135884,
2023-08-12 15:02:11.665000,-6.650602409638554,0.03614457831325302,-7.19277108433735,0.03923973022685469,-6.350091968117719,-6.923359901900674,3.0,0.6493506493506493,1540.0,2.38098012936309,1.113804556844008,2.01864693199697,1410.2564102564102,-1.0,62.16657180800607,0.649858482692714,
2023-08-12 15:02:11.673000,-6.614457831325302,0.0,-7.216867469879518,0.06866952789699571,-6.340282035561005,-6.938074800735745,3.0,0.6497946497946498,1538.9477280491972,2.6335295145970523,1.1049472641454454,2.60474331332673,1399.2673992673992,-1.0,62.16657180800607,0.6498527944434417,
