Shimmer_F5D4_Timestamp_FormattedUnix_CAL,Shimmer_F5D4_Accel_LN_X_CAL,Shimmer_F5D4_Accel_LN_Y_CAL,Shimmer_F5D4_Accel_LN_Z_CAL,Shimmer_F5D4_Accel_WR_X_CAL,Shimmer_F5D4_Accel_WR_Y_CAL,Shimmer_F5D4_Accel_WR_Z_CAL,Shimmer_F5D4_GSR_Range_CAL,Shimmer_F5D4_GSR_Skin_Conductance_CAL,Shimmer_F5D4_GSR_Skin_Resistance_CAL,Shimmer_F5D4_Gyro_X_CAL,Shimmer_F5D4_Gyro_Y_CAL,Shimmer_F5D4_Gyro_Z_CAL,Shimmer_F5D4_PPG_A13_CAL,Shimmer_F5D4_PPG_IBI_CAL,Shimmer_F5D4_PPGtoHR_CAL,Shimmer_F5D4_GSR_Skin_Conductance_LPF_CAL,
yyyy/mm/dd hh:mm:ss.000,m/(s^2),m/(s^2),m/(s^2),m/(s^2),m/(s^2),m/(s^2),no_units,uS,kOhms,deg/s,deg/s,deg/s,mV,ms,BPM,uS,
2023-08-15 13:59:24.554000,-8.433734939759036,-0.3253012048192771,-5.0843373493975905,-0.23053341508277128,-8.329245861434702,-4.721030042918454,2.0,1.7443223443223446,573.2885342293154,-0.15337101567507758,-0.18903327311928123,0.09696404638424339,1761.172161172161,-1.0,75.31719276739197,1.749957417037281,
2023-08-15 13:59:24.561000,-8.421686746987952,-0.3253012048192771,-5.072289156626506,-0.20600858369098712,-8.307173513182097,-4.738197424892704,2.0,1.7443223443223446,573.2885342293154,-0.36711147369034475,0.007342229473806583,0.003496299749432037,1710.6227106227104,-1.0,75.31719276739197,1.7498735593309096,
2023-08-15 13:59:24.569000,-8.421686746987952,-0.3373493975903615,-5.072289156626506,-0.2722256284488044,-8.275291232372776,-4.716125076640098,2.0,1.7443223443223446,573.2885342293154,-0.4282967193054019,-0.3468329351436393,-0.241827399335703,1658.6080586080584,-1.0,75.31719276739197,1.749790360689668,
2023-08-15 13:59:24.577000,-8.44578313253012,-0.3132530120481928,-5.0602409638554215,-0.27713059472716123,-8.28755364806867,-4.6621704475781724,2.0,1.7443223443223446,573.2885342293154,-0.18297302022026732,-0.5446069576365006,0.03542917079424284,1605.128205128205,-1.0,75.31719276739197,1.7497078242184905,
2023-08-15 13:59:24.584000,-8.421686746987952,-0.3373493975903615,-5.072289156626506,-0.2550582464745555,-8.25567136725935,-4.69650521152667,2.0,1.7443223443223446,573.2885342293154,-0.35102849484295806,-0.34217120214439717,0.06677932521414817,1553.8461538461538,-1.0,75.31719276739197,1.7496259535052079,
2023-08-15 13:59:24.592000,-8.409638554216867,-0.3132530120481928,-5.048192771084338,-0.23789086450030655,-8.218884120171673,-4.711220110361741,2.0,1.7443223443223446,573.2885342293154,-0.21094341821572188,-0.04720004661733076,-0.3129188275741508,1505.4945054945053,-1.0,75.31719276739197,1.7495447525462349,
2023-08-15 13:59:24.600000,-8.3855421686747,-0.27710843373493976,-5.0602409638554215,-0.1912936848559166,-8.187001839362354,-4.716125076640098,2.0,1.7443223443223446,573.2885342293154,-0.17854437387098687,-0.5019521006934329,-0.23285356331216123,1460.07326007326,-1.0,75.31719276739197,1.7494642252505408,
2023-08-15 13:59:24.607000,-8.361445783132531,-0.3132530120481928,-5.0602409638554215,-0.22317596566523604,-8.201716738197424,-4.671980380134887,2.0,1.7443223443223446,573.2885342293154,0.08076452421187588,-0.21886836431443438,-0.045218810092651766,1415.3846153846152,-1.0,75.31719276739197,1.7493843754351535,
2023-08-15 13:59:24.615000,-8.361445783132531,-0.30120481927710846,-5.072289156626506,-0.2035561005518087,-8.196811771919068,-4.6817903126916,2.0,1.7443223443223446,573.2885342293154,0.08123069751179923,0.030301264495076495,-0.30336227492570356,1374.3589743589744,-1.0,75.31719276739197,1.7493052068196833,
2023-08-15 13:59:24.623000,-8.373493975903616,-0.3132530120481928,-5.048192771084338,-0.22562844880441446,-8.196811771919068,-4.721030042918454,2.0,1.7443223443223446,573.2885342293154,0.002447409824602773,-0.13379173707825887,-0.04207214031816311,1334.7985347985348,-1.0,75.31719276739197,1.7492267230200251,
2023-08-15 13:59:24.630000,-8.421686746987952,-0.30120481927710846,-5.0602409638554215,-0.2207234825260576,-8.191906805640711,-4.74310239117106,2.0,1.7443223443223446,573.2885342293154,0.03274867431967753,0.14672804615115603,0.17236757764699037,1300.3663003663003,-1.0,75.31719276739197,1.749148927541366,
2023-08-15 13:59:24.638000,-8.433734939759036,-0.3132530120481928,-5.0602409638554215,-0.23543838136112813,-8.27038626609442,-4.718577559779276,2.0,1.7443223443223446,573.2885342293154,0.2481207388846799,0.42678165608064755,0.1890332731192821,1271.7948717948716,-1.0,75.31719276739197,1.7490718237706688,
2023-08-15 13:59:24.646000,-8.457831325301205,-0.30120481927710846,-5.072289156626506,-0.22317596566523604,-8.250766400980993,-4.733292458614347,2.0,1.742857142857143,573.7704918032787,-0.09230231338500125,0.06048598566517042,0.053143756191364265,1249.084249084249,-1.0,75.31719276739197,1.748995414968777,
2023-08-15 13:59:24.653000,-8.457831325301205,-0.30120481927710846,-5.0843373493975905,-0.18884120171673818,-8.290006131207848,-4.777437155119558,2.0,1.7443223443223446,573.2885342293154,-0.4103490472583184,0.03123361109492492,-0.17481498747159271,1232.2344322344322,-1.0,75.31719276739197,1.7489197042275073,
2023-08-15 13:59:24.661000,-8.457831325301205,-0.3132530120481928,-5.072289156626506,-0.2452483139178418,-8.294911097486205,-4.748007357449417,2.0,1.742857142857143,573.7704918032787,0.03764349396888308,0.21933453761435773,0.10139269273352386,1219.7802197802198,-1.0,75.31719276739197,1.7488446948146847,
2023-08-15 13:59:24.669000,-8.433734939759036,-0.3253012048192771,-5.0843373493975905,-0.18884120171673818,-8.27038626609442,-4.674432863274065,2.0,1.7443223443223446,573.2885342293154,0.11339665520657258,-0.010605442573276946,0.17819474389604348,1212.4542124542124,-1.0,75.31719276739197,1.7487703897094835,
2023-08-15 13:59:24.676000,-8.421686746987952,-0.3132530120481928,-5.0361445783132535,-0.18393623543838136,-8.329245861434702,-4.708767627222563,2.0,1.7443223443223446,573.2885342293154,-0.1942777227434293,0.22178194743896051,-0.2040673620418391,1210.2564102564102,-1.0,75.31719276739197,1.748696791560184,
2023-08-15 13:59:24.684000,-8.397590361445783,-0.3373493975903615,-5.0602409638554215,-0.21091354996934394,-8.189454322501533,-4.762722256284488,2.0,1.7443223443223446,573.2885342293154,-0.17936017714585445,-0.037060777343977155,-0.048365479867140425,1210.989010989011,-1.0,75.31719276739197,1.7486239032035489,
2023-08-15 13:59:24.692000,-8.3855421686747,-0.3132530120481928,-5.072289156626506,-0.22317596566523604,-8.201716738197424,-4.694052728387492,2.0,1.7443223443223446,573.2885342293154,-0.011887419148067882,-0.1259833343045272,-0.1075694889575199,1214.6520146520145,-1.0,75.31719276739197,1.7485517272011362,
2023-08-15 13:59:24.699000,-8.3855421686747,-0.3132530120481928,-5.072289156626506,-0.2918454935622317,-8.22378908645003,-4.706315144083384,2.0,1.7443223443223446,573.2885342293154,0.44577821805256035,0.04603461336751892,-0.06165141891498182,1224.1758241758241,-1.0,75.31719276739197,1.7484802658335323,
2023-08-15 13:59:24.707000,-8.409638554216867,-0.3132530120481928,-5.0602409638554215,-0.24770079705702022,-8.275291232372776,-4.686695278969957,2.0,1.7443223443223446,573.2885342293154,-0.18530388671988754,0.14136705320202714,-0.13822038342753934,1238.8278388278388,-1.0,75.31719276739197,1.7484095210948356,
2023-08-15 13:59:24.715000,-8.409638554216867,-0.3253012048192771,-5.096385542168675,-0.24034334763948498,-8.206621704475781,-4.770079705702023,2.0,1.7443223443223446,573.2885342293154,0.10337392925820155,-0.20814637841617661,0.26024124468271076,1257.142857142857,-1.0,75.31719276739197,1.748339494687503,
2023-08-15 13:59:24.722000,-8.397590361445783,-0.3253012048192771,-5.0602409638554215,-0.24279583077866337,-8.248313917841815,-4.721030042918454,2.0,1.7443223443223446,573.2885342293154,-0.06491463201445088,0.2682827341064045,-0.141367053202028,1276.1904761904761,-1.0,75.31719276739197,1.7482701884756122,
2023-08-15 13:59:24.730000,-8.421686746987952,-0.3253012048192771,-5.0843373493975905,-0.2575107296137339,-8.248313917841815,-4.782342121397915,2.0,1.742857142857143,573.7704918032787,-0.08076452421187588,-0.02540644484587095,-0.07843365771225438,1299.6336996336995,-1.0,75.31719276739197,1.7482016044136712,
2023-08-15 13:59:24.738000,-8.397590361445783,-0.3373493975903615,-5.072289156626506,-0.2820355610055181,-8.341508277130595,-4.787247087676272,2.0,1.7443223443223446,573.2885342293154,0.19544315599324114,-0.08752403706077655,0.28692966610337395,1321.6117216117216,-1.0,75.31719276739197,1.7481337431045663,
2023-08-15 13:59:24.745000,-8.421686746987952,-0.3493975903614458,-5.096385542168675,-0.21336603310852237,-8.248313917841815,-4.757817290006131,2.0,1.7443223443223446,573.2885342293154,0.08694132043587237,-0.08892255696055006,0.07179068818833412,1343.5897435897434,-1.0,75.31719276739197,1.748066604746627,
2023-08-15 13:59:24.753000,-8.433734939759036,-0.3373493975903615,-5.072289156626506,-0.3114653586756591,-8.236051502145923,-4.789699570815451,2.0,1.7443223443223446,573.2885342293154,0.05430918944117393,-0.20954489831594839,-0.08402773731134537,1363.3699633699632,-1.0,75.31719276739197,1.7480001900811164,
2023-08-15 13:59:24.761000,-8.409638554216867,-0.3373493975903615,-5.072289156626506,-0.2820355610055181,-8.294911097486205,-4.698957694665849,2.0,1.742857142857143,573.7704918032787,-0.055008449391060685,-0.23972961948604404,0.12936309072897842,1381.6849816849815,-1.0,75.31719276739197,1.7479344994441322,
2023-08-15 13:59:24.768000,-8.433734939759036,-0.3493975903614458,-5.0602409638554215,-0.2599632127529123,-8.297363580625383,-4.765174739423666,2.0,1.7443223443223446,573.2885342293154,-0.009206922673503438,-0.28401608297884695,-0.13169395722859992,1396.3369963369962,-1.0,75.31719276739197,1.74786953227707,
2023-08-15 13:59:24.776000,-8.409638554216867,-0.3614457831325301,-5.096385542168675,-0.2599632127529123,-8.280196198651133,-4.740649908031882,2.0,1.7443223443223446,573.2885342293154,-0.146028786201271,-0.2681661907814237,-0.03927510051861782,1408.7912087912086,-1.0,75.31719276739197,1.74780528755102,
2023-08-15 13:59:24.784000,-8.409638554216867,-0.3373493975903615,-5.048192771084338,-0.34334763948497854,-8.280196198651133,-4.74310239117106,2.0,1.742857142857143,573.7704918032787,-0.14707767612610026,-0.26536915098187663,-0.03880892721869361,1415.3846153846152,-1.0,75.31719276739197,1.7477417642960829,
2023-08-15 13:59:24.791000,-8.409638554216867,-0.3253012048192771,-5.0602409638554215,-0.25260576333537704,-8.231146535867566,-4.718577559779276,2.0,1.742857142857143,573.7704918032787,0.15500262222481276,-0.5542800536099292,0.06689586853912943,1419.7802197802198,-1.0,75.31719276739197,1.7476789606560423,
2023-08-15 13:59:24.799000,-8.421686746987952,-0.3373493975903615,-5.0361445783132535,-0.2795830778663397,-8.258123850398528,-4.723482526057633,2.0,1.742857142857143,573.7704918032787,-0.06153487559000141,-0.01538371889749992,-0.13262630382844834,1418.3150183150183,-1.0,75.31719276739197,1.7476168738225113,
2023-08-15 13:59:24.807000,-8.433734939759036,-0.3373493975903615,-5.048192771084338,-0.22317596566523604,-8.280196198651133,-4.721030042918454,2.0,1.742857142857143,573.7704918032787,0.013402482372822228,-0.1713186877221611,-0.13157741390361866,1414.6520146520145,-1.0,75.31719276739197,1.7475555004947958,
2023-08-15 13:59:24.814000,-8.421686746987952,-0.3253012048192771,-5.072289156626506,-0.2869405272838749,-8.243408951563458,-4.667075413856529,2.0,1.742857142857143,573.7704918032787,0.013402482372822228,-0.1100168987821231,-0.19276265951867624,1407.3260073260071,-1.0,75.31719276739197,1.7474948373404413,
2023-08-15 13:59:24.822000,-8.421686746987952,-0.3493975903614458,-5.0361445783132535,-0.2599632127529123,-8.30226854690374,-4.713672593500919,2.0,1.742857142857143,573.7704918032787,-0.2918244857525786,-0.14241594312685812,0.0532602995163451,1397.8021978021977,-1.0,75.31719276739197,1.7474348809314606,
2023-08-15 13:59:24.830000,-8.433734939759036,-0.3493975903614458,-5.048192771084338,-0.25260576333537704,-8.267933782955241,-4.721030042918454,2.0,1.742857142857143,573.7704918032787,-0.5186177961657238,-0.05174523629159206,-0.09952799953382657,1385.3479853479853,-1.0,75.31719276739197,1.7473756272603163,
2023-08-15 13:59:24.837000,-8.409638554216867,-0.3253012048192771,-5.024096385542169,-0.2673206621704476,-8.294911097486205,-4.765174739423666,2.0,1.7443223443223446,573.2885342293154,0.09474972320960402,0.2971854787017075,-0.14264902977681937,1372.8937728937728,-1.0,75.31719276739197,1.7473170717489248,
2023-08-15 13:59:24.845000,-8.409638554216867,-0.3253012048192771,-5.0602409638554215,-0.2869405272838749,-8.27038626609442,-4.706315144083384,2.0,1.742857142857143,573.7704918032787,-0.0587378357904544,-0.2387972728861956,0.012586679097954637,1361.1721611721612,-1.0,75.31719276739197,1.747259209750742,
2023-08-15 13:59:24.853000,-8.409638554216867,-0.3253012048192771,-5.048192771084338,-0.20846106683016552,-8.272838749233598,-4.72838749233599,2.0,1.7443223443223446,573.2885342293154,-0.19486043936833522,0.083678107336402,-0.004778276324223407,1351.6483516483515,-1.0,75.31719276739197,1.7472020361402185,
2023-08-15 13:59:24.860000,-8.421686746987952,-0.3373493975903615,-5.0602409638554215,-0.20846106683016552,-8.272838749233598,-4.6695278969957075,2.0,1.742857142857143,573.7704918032787,0.005244449624148055,0.13169395722860036,0.010022725948371463,1341.3919413919414,-1.0,75.31719276739197,1.7471455452915257,
2023-08-15 13:59:24.868000,-8.409638554216867,-0.3373493975903615,-5.0361445783132535,-0.29675045984058857,-8.211526670754138,-4.72838749233599,2.0,1.742857142857143,573.7704918032787,0.05116251966668614,-0.020161995221722892,0.14556261290134592,1331.8681318681317,-1.0,75.31719276739197,1.7470897311277958,
2023-08-15 13:59:24.875000,-8.3855421686747,-0.3373493975903615,-5.072289156626506,-0.25260576333537704,-8.25567136725935,-4.757817290006131,2.0,1.742857142857143,573.7704918032787,-0.12947963405395924,0.09102033681020859,0.46349280344968224,1324.5421245421244,-1.0,75.31719276739197,1.7470345866092332,
2023-08-15 13:59:24.883000,-8.421686746987952,-0.3373493975903615,-5.0602409638554215,-0.2550582464745555,-8.294911097486205,-4.745554874310239,2.0,1.742857142857143,573.7704918032787,0.007691859448750828,0.13693840685274666,0.09335120330983052,1317.216117216117,-1.0,75.31719276739197,1.7469801042050441,
2023-08-15 13:59:24.891000,-8.421686746987952,-0.3373493975903615,-5.048192771084338,-0.299202942979767,-8.265481299816063,-4.730839975475169,2.0,1.742857142857143,573.7704918032787,-0.08379465066138284,-0.09265194335994377,-0.12108851465532297,1312.087912087912,-1.0,75.31719276739197,1.746926275908371,
2023-08-15 13:59:24.898000,-8.433734939759036,-0.3132530120481928,-5.072289156626506,-0.2795830778663397,-8.24095646842428,-4.735744941753525,2.0,1.742857142857143,573.7704918032787,-0.16013052852397824,-0.09125342346017198,-0.1499912592506264,1308.4249084249084,-1.0,75.31719276739197,1.7468730937100425,
2023-08-15 13:59:24.906000,-8.421686746987952,-0.3132530120481928,-5.0602409638554215,-0.22317596566523604,-8.280196198651133,-4.723482526057633,2.0,1.742857142857143,573.7704918032787,-0.14416409300157415,0.01666569547229259,-0.0428879435930307,1303.2967032967033,-1.0,75.31719276739197,1.746820549548211,
2023-08-15 13:59:24.914000,-8.421686746987952,-0.3373493975903615,-5.0843373493975905,-0.2550582464745555,-8.258123850398528,-4.679337829552422,2.0,1.742857142857143,573.7704918032787,-0.12668259425441397,-0.24380863586038026,-0.07377192471301224,1297.4358974358975,-1.0,75.31719276739197,1.7467686348379126,
2023-08-15 13:59:24.921000,-8.421686746987952,-0.3253012048192771,-5.072289156626506,-0.2550582464745555,-8.272838749233598,-4.745554874310239,2.0,1.742857142857143,573.7704918032787,-0.09288503000990543,-0.22621059378824096,-0.011188159198181996,1290.8424908424909,-1.0,75.31719276739197,1.746717340493768,
2023-08-15 13:59:24.929000,-8.421686746987952,-0.3253012048192771,-5.024096385542169,-0.24279583077866337,-8.248313917841815,-4.703862660944206,2.0,1.742857142857143,573.7704918032787,-0.030068177845113085,0.23518442981178272,-0.2093118116659867,1284.2490842490843,-1.0,75.31719276739197,1.7466666569531606,
2023-08-15 13:59:24.937000,-8.409638554216867,-0.3253012048192771,-5.0120481927710845,-0.2795830778663397,-8.243408951563458,-4.664622930717351,2.0,1.742857142857143,573.7704918032787,-0.05850474914049272,-0.05605733931588995,-0.25161703863411233,1279.120879120879,-1.0,75.31719276739197,1.7466165741999622,
2023-08-15 13:59:24.944000,-8.433734939759036,-0.3253012048192771,-5.024096385542169,-0.2207234825260576,-8.177191906805641,-4.691600245248313,2.0,1.742857142857143,573.7704918032787,-0.026455334770700212,0.006409882873958155,0.01025581259833357,1277.6556776556777,-1.0,75.31719276739197,1.7465670817888337,
2023-08-15 13:59:24.952000,-8.397590361445783,-0.30120481927710846,-5.0361445783132535,-0.25260576333537704,-8.263028816676885,-4.659717964438994,2.0,1.7413919413919414,574.2532604122844,-0.026804964745644456,0.022959035021269912,0.08833984033564457,1276.923076923077,-1.0,75.31719276739197,1.7465181688701323,
2023-08-15 13:59:24.960000,-8.397590361445783,-0.3132530120481928,-5.024096385542169,-0.299202942979767,-8.221336603310851,-4.730839975475169,2.0,1.7413919413919414,574.2532604122844,0.29427189557718136,0.19008216304411224,-0.019229648621875334,1273.9926739926739,-1.0,75.31719276739197,1.746469824180682,
2023-08-15 13:59:24.967000,-8.409638554216867,-0.3373493975903615,-5.024096385542169,-0.22808093194359289,-8.236051502145923,-4.801961986511342,2.0,1.742857142857143,573.7704918032787,0.09381737660975387,0.187984383194452,0.25569605500844944,1272.5274725274724,-1.0,75.31719276739197,1.7464220359305762,
2023-08-15 13:59:24.975000,-8.409638554216867,-0.3132530120481928,-5.0602409638554215,-0.22808093194359289,-8.277743715511955,-4.689147762109135,2.0,1.742857142857143,573.7704918032787,0.36664530039041965,0.20301847211700938,0.1773789406211759,1273.260073260073,-1.0,75.31719276739197,1.7463747918288568,
2023-08-15 13:59:24.983000,-8.433734939759036,-0.3253012048192771,-5.048192771084338,-0.30656039239730226,-8.236051502145923,-4.691600245248313,2.0,1.742857142857143,573.7704918032787,0.11910727813064571,0.6260707417982633,0.12936309072897842,1275.4578754578754,-1.0,75.31719276739197,1.7463280792481226,
2023-08-15 13:59:24.990000,-8.421686746987952,-0.3373493975903615,-5.048192771084338,-0.23543838136112813,-8.25567136725935,-4.689147762109135,2.0,1.742857142857143,573.7704918032787,0.13216013052852368,0.8315366237398754,0.06724549851407281,1277.6556776556777,-1.0,75.31719276739197,1.7462818852852808,
2023-08-15 13:59:24.998000,-8.433734939759036,-0.3132530120481928,-5.0361445783132535,-0.2207234825260576,-8.258123850398528,-4.667075413856529,2.0,1.742857142857143,573.7704918032787,0.45183847095157603,0.5940213274284707,0.1882174698444145,1278.3882783882782,-1.0,75.31719276739197,1.7462361967883553,
2023-08-15 13:59:25.006000,-8.421686746987952,-0.3253012048192771,-5.0361445783132535,-0.27467811158798283,-8.250766400980993,-4.740649908031882,2.0,1.742857142857143,573.7704918032787,0.37200629333954854,0.663947322417108,0.06351611211467867,1280.5860805860805,-1.0,75.31719276739197,1.7461910008420527,
2023-08-15 13:59:25.013000,-8.409638554216867,-0.3373493975903615,-5.096385542168675,-0.1765787860208461,-8.285101164929491,-4.733292458614347,2.0,1.742857142857143,573.7704918032787,0.2918244857525786,0.5347007750131104,0.4129130004079016,1281.3186813186812,-1.0,75.31719276739197,1.7461462842712405,
2023-08-15 13:59:25.021000,-8.421686746987952,-0.3373493975903615,-5.072289156626506,-0.29675045984058857,-8.25567136725935,-4.738197424892704,2.0,1.742857142857143,573.7704918032787,0.06071907231513382,0.6371423576714635,0.08985490356039848,1281.3186813186812,-1.0,75.31719276739197,1.7461020337072337,
2023-08-15 13:59:25.029000,-8.433734939759036,-0.3373493975903615,-5.0843373493975905,-0.24034334763948498,-8.27038626609442,-4.797057020232986,2.0,1.742857142857143,573.7704918032787,0.028436571295379638,0.3752695064390189,-0.017364955422178044,1283.5164835164835,-1.0,75.31719276739197,1.7460582355851715,
2023-08-15 13:59:25.036000,-8.433734939759036,-0.3132530120481928,-5.096385542168675,-0.25015328019619865,-8.248313917841815,-4.809319435928877,2.0,1.742857142857143,573.7704918032787,0.16712312802284232,0.24765456558475654,-0.07959909096206534,1287.179487179487,-1.0,75.31719276739197,1.7460148762115497,
2023-08-15 13:59:25.044000,-8.397590361445783,-0.30120481927710846,-5.096385542168675,-0.2550582464745555,-8.312078479460453,-4.762722256284488,2.0,1.742857142857143,573.7704918032787,-0.0017481498747160184,0.17038634112231268,0.36326554396596933,1289.3772893772893,-1.0,75.31719276739197,1.7459719422207245,
2023-08-15 13:59:25.052000,-8.421686746987952,-0.30120481927710846,-5.0602409638554215,-0.18884120171673818,-8.221336603310851,-4.738197424892704,2.0,1.742857142857143,573.7704918032787,0.060602528990151255,0.27748965677990794,-0.007575316123769124,1293.040293040293,-1.0,75.31719276739197,1.7459294201185525,
2023-08-15 13:59:25.059000,-8.397590361445783,-0.3253012048192771,-5.0602409638554215,-0.26486817903126914,-8.20907418761496,-4.694052728387492,2.0,1.742857142857143,573.7704918032787,0.06130178894003801,0.2778392867548505,-0.008041489423693338,1297.4358974358975,-1.0,75.31719276739197,1.7458872963189902,
2023-08-15 13:59:25.067000,-8.397590361445783,-0.3132530120481928,-5.072289156626506,-0.21827099938687922,-8.250766400980993,-4.765174739423666,2.0,1.7413919413919414,574.2532604122844,0.031816327719829104,0.03309830429462177,0.20814637841617617,1299.6336996336995,-1.0,75.31719276739197,1.745845557180934,
2023-08-15 13:59:25.075000,-8.421686746987952,-0.3253012048192771,-5.048192771084338,-0.22808093194359289,-8.233599019006745,-4.735744941753525,2.0,1.742857142857143,573.7704918032787,0.07715168113746301,-0.28669657945341137,0.17749548394615716,1300.3663003663003,-1.0,75.31719276739197,1.7458041885526228,
2023-08-15 13:59:25.082000,-8.421686746987952,-0.3373493975903615,-5.0602409638554215,-0.2722256284488044,-8.231146535867566,-4.738197424892704,2.0,1.742857142857143,573.7704918032787,-0.15558533884971695,-0.14614532952625184,0.3287687197715749,1296.7032967032967,-1.0,75.31719276739197,1.745763176229372,
2023-08-15 13:59:25.090000,-8.409638554216867,-0.3132530120481928,-5.0602409638554215,-0.23053341508277128,-8.231146535867566,-4.721030042918454,2.0,1.7413919413919414,574.2532604122844,0.10628751238272767,0.3443855253190365,-0.1467280461511569,1292.3076923076922,-1.0,75.31719276739197,1.745722506515484,
2023-08-15 13:59:25.098000,-8.421686746987952,-0.3493975903614458,-5.072289156626506,-0.16676885346413242,-8.326793378295523,-4.733292458614347,2.0,1.742857142857143,573.7704918032787,-0.13915273002738776,0.24928617213449172,-0.008041489423693338,1290.10989010989,-1.0,75.31719276739197,1.7456821657684929,
2023-08-15 13:59:25.105000,-8.433734939759036,-0.3253012048192771,-5.072289156626506,-0.2599632127529123,-8.263028816676885,-4.787247087676272,2.0,1.7413919413919414,574.2532604122844,0.19707476254297457,-0.2708466872559881,0.08519317056115591,1287.9120879120878,-1.0,75.31719276739197,1.745642140331526,
2023-08-15 13:59:25.113000,-8.397590361445783,-0.3253012048192771,-5.072289156626506,-0.24034334763948498,-8.280196198651133,-4.679337829552422,2.0,1.7413919413919414,574.2532604122844,-0.03169978439484827,0.0067595128489024,-0.26641804090670723,1284.9816849816848,-1.0,75.31719276739197,1.7456024166389286,
2023-08-15 13:59:25.121000,-8.409638554216867,-0.3373493975903615,-5.0602409638554215,-0.2844880441446965,-8.260576333537706,-4.716125076640098,2.0,1.7413919413919414,574.2532604122844,-0.048831653167064205,-0.14940854262572048,-0.20208612551716096,1283.5164835164835,-1.0,75.31719276739197,1.7455629811474116,
2023-08-15 13:59:25.128000,-8.397590361445783,-0.3253012048192771,-5.0843373493975905,-0.27467811158798283,-8.216431637032494,-4.718577559779276,2.0,1.7413919413919414,574.2532604122844,-0.2767903968300212,-0.1503408892255689,-0.01794767204708353,1282.051282051282,-1.0,75.31719276739197,1.7455238203357306,
2023-08-15 13:59:25.136000,-8.3855421686747,-0.3253012048192771,-5.0602409638554215,-0.22562844880441446,-8.238503985285101,-4.716125076640098,2.0,1.7413919413919414,574.2532604122844,-0.12330283782996276,0.07855020103723478,-0.0804148942369325,1283.5164835164835,-1.0,75.31719276739197,1.7454849207378258,
2023-08-15 13:59:25.144000,-8.3855421686747,-0.3373493975903615,-5.0602409638554215,-0.2329858982219497,-8.231146535867566,-4.718577559779276,2.0,1.7413919413919414,574.2532604122844,-5.82716624905918E-4,0.12330283782996276,-0.12400209777984952,1284.9816849816848,-1.0,75.31719276739197,1.745446268974601,
2023-08-15 13:59:25.151000,-8.397590361445783,-0.3373493975903615,-5.0361445783132535,-0.2452483139178418,-8.213979153893316,-4.716125076640098,2.0,1.7413919413919414,574.2532604122844,0.24357554921041857,-0.04615115669249976,-0.002097779849658962,1287.9120879120878,-1.0,75.31719276739197,1.745407851326436,
2023-08-15 13:59:25.159000,-8.421686746987952,-0.3253012048192771,-5.0602409638554215,-0.2599632127529123,-8.280196198651133,-4.708767627222563,2.0,1.7413919413919414,574.2532604122844,0.010721985898257782,0.19719130586795713,-0.07924946098712198,1288.6446886446886,-1.0,75.31719276739197,1.745369654287321,
2023-08-15 13:59:25.167000,-8.433734939759036,-0.3373493975903615,-5.072289156626506,-0.2452483139178418,-8.22378908645003,-4.691600245248313,2.0,1.7413919413919414,574.2532604122844,0.025173358195909275,0.3908863119864805,0.24031233611094907,1287.179487179487,-1.0,75.31719276739197,1.7453316650135942,
2023-08-15 13:59:25.174000,-8.421686746987952,-0.3493975903614458,-5.0361445783132535,-0.21827099938687922,-8.290006131207848,-4.738197424892704,2.0,1.7413919413919414,574.2532604122844,0.30138103840102626,0.49321135131985283,0.05477536274109902,1283.5164835164835,-1.0,75.31719276739197,1.7452938708581633,
2023-08-15 13:59:25.182000,-8.44578313253012,-0.3132530120481928,-5.072289156626506,-0.2918454935622317,-8.314530962599632,-4.770079705702023,2.0,1.7413919413919414,574.2532604122844,0.1157275217061945,0.18635277664471853,-0.23611677641163117,1282.051282051282,-1.0,75.31719276739197,1.7452562593960212,
2023-08-15 13:59:25.190000,-8.397590361445783,-0.3132530120481928,-5.096385542168675,-0.18638871857755976,-8.206621704475781,-4.738197424892704,2.0,1.7413919413919414,574.2532604122844,0.099527999533827,0.2478876522347182,-0.2487034555095858,1283.5164835164835,-1.0,75.31719276739197,1.745218818448416,
2023-08-15 13:59:25.197000,-8.397590361445783,-0.3253012048192771,-5.1084337349397595,-0.25015328019619865,-8.236051502145923,-4.752912323727774,2.0,1.7413919413919414,574.2532604122844,0.17423227084668724,0.09370083328477302,0.0588543791154361,1282.051282051282,-1.0,75.31719276739197,1.7451815361056917,
2023-08-15 13:59:25.205000,-8.3855421686747,-0.3132530120481928,-5.1084337349397595,-0.17167381974248927,-8.294911097486205,-4.755364806866953,2.0,1.7413919413919414,574.2532604122844,0.1885670998193579,-0.1960258726181453,-0.155235708874774,1282.7838827838827,-1.0,75.31719276739197,1.7451444007488102,
2023-08-15 13:59:25.213000,-8.3855421686747,-0.3253012048192771,-5.0843373493975905,-0.20846106683016552,-8.27038626609442,-4.794604537093807,2.0,1.7413919413919414,574.2532604122844,0.0045451896742613,-0.4679214497989627,0.04580152671755725,1284.9816849816848,-1.0,75.31719276739197,1.7451074010696137,
2023-08-15 13:59:25.220000,-8.409638554216867,-0.3132530120481928,-5.120481927710844,-0.24279583077866337,-8.272838749233598,-4.797057020232986,2.0,1.7413919413919414,574.2532604122844,0.12714876755433904,-0.4613950236000237,0.10966726880717886,1290.8424908424909,-1.0,75.31719276739197,1.7450705260898318,
2023-08-15 13:59:25.228000,-8.373493975903616,-0.3253012048192771,-5.0843373493975905,-0.269773145309626,-8.260576333537706,-4.703862660944206,2.0,1.7413919413919414,574.2532604122844,0.17248412097197122,-0.19451080939339271,0.07924946098712198,1298.168498168498,-1.0,75.31719276739197,1.7450337651788992,
2023-08-15 13:59:25.235000,-8.3855421686747,-0.30120481927710846,-5.072289156626506,-0.19865113427345185,-8.309625996321275,-4.799509503372164,2.0,1.7413919413919414,574.2532604122844,0.2475380222597757,-0.2368160363615179,-0.015383718897500353,1309.89010989011,-1.0,75.31719276739197,1.7449971085284761,
2023-08-15 13:59:25.243000,-8.433734939759036,-0.3253012048192771,-5.048192771084338,-0.2869405272838749,-8.216431637032494,-4.733292458614347,2.0,1.7413919413919414,574.2532604122844,-0.12073888468037916,-0.2787716333546989,-0.002447409824602339,1327.4725274725274,-1.0,75.31719276739197,1.7449605471007499,
2023-08-15 13:59:25.251000,-8.421686746987952,-0.3132530120481928,-5.0361445783132535,-0.20846106683016552,-8.304721030042918,-4.676885346413243,2.0,1.7413919413919414,574.2532604122844,0.0017481498747160184,0.01619952217236751,-0.060952158965095066,1351.6483516483515,-1.0,75.31719276739197,1.7449240721545207,
2023-08-15 13:59:25.258000,-8.457831325301205,-0.3253012048192771,-5.0361445783132535,-0.2207234825260576,-8.294911097486205,-4.716125076640098,2.0,1.73992673992674,574.7368421052631,-0.3028961016257789,-0.2263271371132218,-0.4714177495483947,1382.4175824175823,-1.0,75.31719276739197,1.7448876752623081,
2023-08-15 13:59:25.266000,-8.433734939759036,-0.3373493975903615,-5.048192771084338,-0.20846106683016552,-8.277743715511955,-4.730839975475169,2.0,1.7413919413919414,574.2532604122844,-0.39146902861138644,-0.0874074937357957,-0.052327952916496674,1423.4432234432234,-1.0,75.31719276739197,1.7448513482910328,
2023-08-15 13:59:25.274000,-8.397590361445783,-0.3253012048192771,-5.0843373493975905,-0.24034334763948498,-8.309625996321275,-4.679337829552422,2.0,1.7413919413919414,574.2532604122844,-0.6161645591748731,-0.10349047258318238,-0.23355282326204754,1472.5274725274724,-1.0,75.31719276739197,1.7448150833112923,
2023-08-15 13:59:25.281000,-8.3855421686747,-0.3493975903614458,-5.072289156626506,-0.2550582464745555,-8.280196198651133,-4.770079705702023,2.0,1.7413919413919414,574.2532604122844,-0.3969465648854962,-0.5630208029835092,-0.15745003204941424,1525.2747252747251,-1.0,75.31719276739197,1.7447788727131603,
2023-08-15 13:59:25.289000,-8.373493975903616,-0.3373493975903615,-5.072289156626506,-0.2550582464745555,-8.22624156958921,-4.797057020232986,2.0,1.7413919413919414,574.2532604122844,-0.5469378241361226,-0.18145795699551298,-0.24928617213449084,1583.8827838827838,888.5498046875,67.52575903283417,1.744742709250721,
2023-08-15 13:59:25.297000,-8.397590361445783,-0.3614457831325301,-5.1084337349397595,-0.24770079705702022,-8.204169221336603,-4.733292458614347,2.0,1.7413919413919414,574.2532604122844,-0.6824777110890975,-0.13705495017772923,-0.14194976982693305,1641.7582417582416,-1.0,67.52575903283417,1.7447065860505007,
2023-08-15 13:59:25.304000,-8.3855421686747,-0.3614457831325301,-5.0843373493975905,-0.26486817903126914,-8.24095646842428,-4.782342121397915,2.0,1.7413919413919414,574.2532604122844,-0.6923838937124877,0.30441116485053327,-0.3414719421945108,1697.4358974358972,-1.0,67.52575903283417,1.744670496618671,
2023-08-15 13:59:25.312000,-8.397590361445783,-0.3614457831325301,-5.1084337349397595,-0.25015328019619865,-8.285101164929491,-4.772532188841201,2.0,1.7413919413919414,574.2532604122844,-0.9776819532661273,0.22586096381329673,-0.3230580968475031,1746.5201465201465,-1.0,67.52575903283417,1.7446344348471425,
2023-08-15 13:59:25.320000,-8.421686746987952,-0.3614457831325301,-5.096385542168675,-0.3016554261189454,-8.250766400980993,-4.784794604537094,2.0,1.73992673992674,574.7368421052631,-1.3799895111007523,0.14905891265077795,-0.5795699551308197,1789.0109890109889,-1.0,67.52575903283417,1.7445983950186312,
2023-08-15 13:59:25.327000,-8.44578313253012,-0.3734939759036145,-5.1084337349397595,-0.3261802575107296,-8.277743715511955,-4.777437155119558,2.0,1.7413919413919414,574.2532604122844,-1.4757881242351838,-0.2019695821921801,-0.8031000524444962,1822.7106227106226,-1.0,67.52575903283417,1.7445623713181544,
2023-08-15 13:59:25.335000,-8.457831325301205,-0.3734939759036145,-5.1084337349397595,-0.3408951563458001,-8.314530962599632,-4.828939301042305,2.0,1.7413919413919414,574.2532604122844,-1.4611036652875706,-0.19754093584289967,-0.7963405395955947,1845.4212454212452,-1.0,67.52575903283417,1.7445263582568575,
2023-08-15 13:59:25.343000,-8.457831325301205,-0.3855421686746988,-5.120481927710844,-0.3359901900674433,-8.324340895156345,-4.799509503372164,2.0,1.7413919413919414,574.2532604122844,-1.8446477478002445,-0.1960258726181453,-0.8060136355690227,1857.142857142857,-1.0,67.52575903283417,1.744490351657036,
2023-08-15 13:59:25.350000,-8.44578313253012,-0.3855421686746988,-5.096385542168675,-0.33108522378908645,-8.250766400980993,-4.733292458614347,2.0,1.7413919413919414,574.2532604122844,-1.569372414194976,-0.45253773090146276,-0.9530913116951226,1863.003663003663,-1.0,67.52575903283417,1.7444543481284414,
2023-08-15 13:59:25.358000,-8.433734939759036,-0.3614457831325301,-5.132530120481928,-0.27713059472716123,-8.19435928877989,-4.767627222562845,2.0,1.7413919413919414,574.2532604122844,-1.6438435988578746,-0.01876347532195112,-1.2218402191014508,1861.5384615384614,-1.0,67.52575903283417,1.7444183441230001,
2023-08-15 13:59:25.366000,-8.397590361445783,-0.3373493975903615,-5.0602409638554215,-0.2452483139178418,-8.31698344573881,-4.765174739423666,2.0,1.7413919413919414,574.2532604122844,-1.9778567682535977,-0.4119806538080536,-1.2436338208729094,1846.8864468864467,-1.0,67.52575903283417,1.7443823364641793,
2023-08-15 13:59:25.373000,-8.409638554216867,-0.3373493975903615,-5.0843373493975905,-0.23543838136112813,-8.218884120171673,-4.708767627222563,2.0,1.7413919413919414,574.2532604122844,-1.837305518326438,0.018646931996970283,-1.3710156750772098,1822.7106227106226,-1.0,67.52575903283417,1.7443463223135578,
2023-08-15 13:59:25.381000,-8.3855421686747,-0.3614457831325301,-5.0602409638554215,-0.2550582464745555,-8.218884120171673,-4.789699570815451,2.0,1.73992673992674,574.7368421052631,-2.5221140959151556,-0.25534642503350563,-1.543499796049181,1789.0109890109889,-1.0,67.52575903283417,1.7443102992064337,
2023-08-15 13:59:25.389000,-8.373493975903616,-0.3855421686746988,-5.120481927710844,-0.2893930104230533,-8.236051502145923,-4.74310239117106,2.0,1.73992673992674,574.7368421052631,-2.6673270788415593,-0.8191830312918824,-1.4092418856709983,1747.2527472527472,-1.0,67.52575903283417,1.7442742649827272,
2023-08-15 13:59:25.396000,-8.397590361445783,-0.4096385542168675,-5.096385542168675,-0.3359901900674433,-8.245861434702636,-4.72838749233599,2.0,1.73992673992674,574.7368421052631,-2.3997436046850416,-0.3090728978497754,-1.1075112172950294,1699.6336996336995,-1.0,67.52575903283417,1.7442382172245925,
2023-08-15 13:59:25.404000,-8.397590361445783,-0.3253012048192771,-5.0602409638554215,-0.24034334763948498,-8.258123850398528,-4.787247087676272,2.0,1.7413919413919414,574.2532604122844,-2.1785443738709867,-0.9187110308257095,-1.3385000874074935,1651.2820512820513,-1.0,67.52575903283417,1.7442021537106815,
2023-08-15 13:59:25.412000,-8.3855421686747,-0.3253012048192771,-5.048192771084338,-0.2820355610055181,-8.22624156958921,-4.74310239117106,2.0,1.73992673992674,574.7368421052631,-2.6945982168871287,-0.881883340131694,-1.9359011712604157,1599.2673992673992,-1.0,67.52575903283417,1.7441660729041593,
2023-08-15 13:59:25.419000,-8.397590361445783,-0.3734939759036145,-5.024096385542169,-0.33353770692826484,-8.250766400980993,-4.706315144083384,2.0,1.73992673992674,574.7368421052631,-2.7167414486335293,-0.29753510867665,-1.8269331624031238,1547.2527472527472,-1.0,67.52575903283417,1.7441299739845135,
2023-08-15 13:59:25.427000,-8.409638554216867,-0.3493975903614458,-5.0120481927710845,-0.299202942979767,-8.304721030042918,-4.664622930717351,2.0,1.73992673992674,574.7368421052631,-2.510692850067011,-0.022259775071383155,-1.5852223063924016,1498.168498168498,-1.0,67.52575903283417,1.7440938562494153,
2023-08-15 13:59:25.435000,-8.421686746987952,-0.3373493975903615,-5.024096385542169,-0.2550582464745555,-8.204169221336603,-4.69650521152667,2.0,1.73992673992674,574.7368421052631,-2.5398286813122777,0.08158032748674347,-1.8015267175572518,1454.212454212454,-1.0,67.52575903283417,1.7440577186198751,
2023-08-15 13:59:25.442000,-8.361445783132531,-0.3132530120481928,-4.975903614457832,-0.17903126916002451,-8.196811771919068,-4.6106683016554255,2.0,1.73992673992674,574.7368421052631,-2.457082920575724,0.07586970456267034,-1.8355573684517221,1418.3150183150183,-1.0,67.52575903283417,1.7440215597040742,
2023-08-15 13:59:25.450000,-8.361445783132531,-0.30120481927710846,-4.963855421686747,-0.26486817903126914,-8.24095646842428,-4.6621704475781724,2.0,1.73992673992674,574.7368421052631,-1.9184196725132583,-0.08204650078666682,-1.7753044694365123,1384.6153846153845,-1.0,67.52575903283417,1.7439853782812056,
2023-08-15 13:59:25.458000,-8.373493975903616,-0.28915662650602414,-4.9879518072289155,-0.2575107296137339,-8.243408951563458,-4.721030042918454,2.0,1.73992673992674,574.7368421052631,-1.7803158324106996,0.17458190082162975,-1.7298525726938985,1353.8461538461538,-1.0,67.52575903283417,1.7439491732922947,
2023-08-15 13:59:25.465000,-8.397590361445783,-0.3253012048192771,-5.0120481927710845,-0.24770079705702022,-8.221336603310851,-4.671980380134887,2.0,1.73992673992674,574.7368421052631,-1.6892954956004893,-0.5023017306683754,-0.8916729794301033,1324.5421245421244,-1.0,67.52575903283417,1.743912943830824,
2023-08-15 13:59:25.473000,-8.409638554216867,-0.3373493975903615,-5.024096385542169,-0.23053341508277128,-8.238503985285101,-4.703862660944206,2.0,1.73992673992674,574.7368421052631,-1.8561855369733682,0.1883340131693962,-1.4933861663073253,1295.970695970696,-1.0,67.52575903283417,1.7438766891332813,
2023-08-15 13:59:25.481000,-8.397590361445783,-0.3614457831325301,-5.0602409638554215,-0.2795830778663397,-8.243408951563458,-4.706315144083384,2.0,1.73992673992674,574.7368421052631,-2.3123361109492455,1.2575024765456555,-1.356680846104539,1269.5970695970695,-1.0,67.52575903283417,1.74384040856976,
2023-08-15 13:59:25.488000,-8.373493975903616,-0.3253012048192771,-5.0602409638554215,-0.29429797670141017,-8.211526670754138,-4.799509503372164,2.0,1.73992673992674,574.7368421052631,-1.9869471476021219,1.3269622982343694,-1.1744070858341593,1249.8168498168498,-1.0,67.52575903283417,1.7438041020926374,
2023-08-15 13:59:25.496000,-8.46987951807229,-0.3253012048192771,-5.048192771084338,-0.24034334763948498,-8.290006131207848,-4.701410177805028,2.0,1.73992673992674,574.7368421052631,-2.1964920459180703,1.3041198065380804,-1.0100809976108613,1235.164835164835,-1.0,67.52575903283417,1.7437677697025473,
2023-08-15 13:59:25.504000,-8.457831325301205,-0.3373493975903615,-5.0,-0.24770079705702022,-8.267933782955241,-4.703862660944206,2.0,1.73992673992674,574.7368421052631,-2.0386923838937103,1.325447235009615,-1.427306101043063,1223.4432234432234,-1.0,67.52575903283417,1.7437314110187985,
2023-08-15 13:59:25.511000,-8.421686746987952,-0.3132530120481928,-5.0361445783132535,-0.21827099938687922,-8.228694052728388,-4.748007357449417,2.0,1.73992673992674,574.7368421052631,-1.653516694831305,1.4987471592564539,-1.7970980712079723,1214.6520146520145,-1.0,67.52575903283417,1.7436950262213444,
2023-08-15 13:59:25.519000,-8.421686746987952,-0.3253012048192771,-5.0602409638554215,-0.24770079705702022,-8.236051502145923,-4.703862660944206,2.0,1.73992673992674,574.7368421052631,-1.7138861371714926,0.9378241361226031,-1.55328943534759,1208.058608058608,-1.0,67.52575903283417,1.7436586155177378,
2023-08-15 13:59:25.527000,-8.433734939759036,-0.3373493975903615,-5.072289156626506,-0.2599632127529123,-8.28755364806867,-4.755364806866953,2.0,1.73992673992674,574.7368421052631,-1.4983975292815113,0.5528815337101574,-1.0654390769768662,1203.6630036630036,-1.0,67.52575903283417,1.7436221791727144,
2023-08-15 13:59:25.534000,-8.421686746987952,-0.3373493975903615,-5.0602409638554215,-0.2722256284488044,-8.267933782955241,-4.752912323727774,2.0,1.73992673992674,574.7368421052631,-1.5743837771691642,0.8276906940155009,-1.1001689878212233,1200.0,-1.0,67.52575903283417,1.7435857179266496,
2023-08-15 13:59:25.542000,-8.3855421686747,-0.3493975903614458,-5.072289156626506,-0.2329858982219497,-8.267933782955241,-4.706315144083384,2.0,1.73992673992674,574.7368421052631,-1.3767262980012802,1.0208029835091201,-1.2727696521181748,1200.0,-1.0,67.52575903283417,1.7435492325011601,
2023-08-15 13:59:25.550000,-8.397590361445783,-0.3373493975903615,-5.0361445783132535,-0.2550582464745555,-8.275291232372776,-4.689147762109135,2.0,1.7384615384615385,575.221238938053,-1.1649670765106943,1.0281452129829267,-0.8613717149350268,1203.6630036630036,-1.0,67.52575903283417,1.7435127235977521,
2023-08-15 13:59:25.557000,-8.3855421686747,-0.3493975903614458,-5.072289156626506,-0.2820355610055181,-8.211526670754138,-4.679337829552422,2.0,1.7384615384615385,575.221238938053,-1.2916496707651082,0.7739642211992311,-1.0051861779616575,1210.989010989011,-1.0,67.52575903283417,1.7434761914042547,
2023-08-15 13:59:25.565000,-8.373493975903616,-0.3614457831325301,-5.024096385542169,-0.2575107296137339,-8.238503985285101,-4.708767627222563,2.0,1.736996336996337,575.7064529734289,-1.2787133616922093,0.812306975118001,-1.2992249868888759,1218.3150183150183,-1.0,67.52575903283417,1.7434396355222535,
2023-08-15 13:59:25.573000,-8.397590361445783,-0.3253012048192771,-5.072289156626506,-0.25015328019619865,-8.20907418761496,-4.716125076640098,2.0,1.7384615384615385,575.221238938053,-0.839927743138513,1.0960899714468846,-0.721403181632772,1228.5714285714284,-1.0,67.52575903283417,1.7434030553848237,
2023-08-15 13:59:25.580000,-8.409638554216867,-0.3493975903614458,-5.0602409638554215,-0.2158185162477008,-8.25567136725935,-4.782342121397915,2.0,1.7384615384615385,575.221238938053,-0.6186119689994776,1.2375735679738942,-0.8520482489365416,1241.7582417582416,-1.0,67.52575903283417,1.743366450604452,
2023-08-15 13:59:25.588000,-8.3855421686747,-0.3493975903614458,-5.072289156626506,-0.2844880441446965,-8.238503985285101,-4.784794604537094,2.0,1.7384615384615385,575.221238938053,-0.5802692150807077,0.8572926985606906,-0.32305809684750264,1258.6080586080586,-1.0,67.52575903283417,1.7433298205461216,
2023-08-15 13:59:25.596000,-8.409638554216867,-0.3614457831325301,-5.144578313253012,-0.34580012262415694,-8.280196198651133,-4.797057020232986,2.0,1.7384615384615385,575.221238938053,-0.7419148068294386,0.7255987413320902,-0.2252782471883921,1279.120879120879,-1.0,67.52575903283417,1.743293163934786,
2023-08-15 13:59:25.603000,-8.421686746987952,-0.39759036144578314,-5.168674698795181,-0.3261802575107296,-8.206621704475781,-4.8412017167381975,2.0,1.7384615384615385,575.221238938053,-0.6416875473457265,0.5665171027329413,-0.08530971388613631,1302.5641025641025,-1.0,67.52575903283417,1.743256479341536,
2023-08-15 13:59:25.611000,-8.349397590361447,-0.4096385542168675,-5.120481927710844,-0.34825260576333533,-8.236051502145923,-4.757817290006131,2.0,1.7384615384615385,575.221238938053,-0.3129188275741517,0.40510459763417034,-0.5870287279296076,1326.7399267399267,-1.0,67.52575903283417,1.743219765177552,
2023-08-15 13:59:25.618000,-8.337349397590362,-0.39759036144578314,-5.120481927710844,-0.30656039239730226,-8.169834457388106,-4.738197424892704,2.0,1.7384615384615385,575.221238938053,-0.3052269681253991,0.3996270613600606,-0.5796864984558001,1350.18315018315,-1.0,67.52575903283417,1.7431830196886235,
2023-08-15 13:59:25.626000,-8.361445783132531,-0.3855421686746988,-5.1084337349397595,-0.2918454935622317,-8.204169221336603,-4.76026977314531,2.0,1.7384615384615385,575.221238938053,-0.20593205524153552,0.22807528698793783,-0.46745527649903806,1370.6959706959706,-1.0,67.52575903283417,1.7431462409503449,
2023-08-15 13:59:25.634000,-8.421686746987952,-0.42168674698795183,-5.168674698795181,-0.328632740649908,-8.297363580625383,-4.772532188841201,2.0,1.7384615384615385,575.221238938053,-0.13845347007749928,-0.3404230522696811,-0.369325796864985,1384.6153846153845,-1.0,67.52575903283417,1.7431094268640996,
2023-08-15 13:59:25.641000,-8.433734939759036,-0.39759036144578314,-5.1084337349397595,-0.3359901900674433,-8.258123850398528,-4.833844267320662,2.0,1.7384615384615385,575.221238938053,-0.4070858341588463,-0.7498397529281511,-0.4687372530738303,1395.6043956043954,-1.0,67.52575903283417,1.7430725751539302,
2023-08-15 13:59:25.649000,-8.46987951807229,-0.4096385542168675,-5.0843373493975905,-0.3041079092581238,-8.27038626609442,-4.799509503372164,2.0,1.7384615384615385,575.221238938053,-0.5651185828331695,-1.0013402482372822,-0.24660567565992642,1402.9304029304028,-1.0,67.52575903283417,1.7430356833644076,
2023-08-15 13:59:25.657000,-8.481927710843374,-0.3734939759036145,-5.024096385542169,-0.2673206621704476,-8.282648681790313,-4.750459840588595,2.0,1.7384615384615385,575.221238938053,0.13052852397879025,-0.7803741040731893,-0.22562787716333504,1408.058608058608,-1.0,67.52575903283417,1.74299874885958,
2023-08-15 13:59:25.664000,-8.46987951807229,-0.3373493975903615,-5.0361445783132535,-0.269773145309626,-8.275291232372776,-4.716125076640098,2.0,1.7384615384615385,575.221238938053,0.17726239729619592,-0.8055474622690986,-0.6492628634694957,1409.5238095238094,-1.0,67.52575903283417,1.7429617692809813,
2023-08-15 13:59:25.672000,-8.481927710843374,-0.30120481927710846,-5.024096385542169,-0.2673206621704476,-8.343960760269773,-4.703862660944206,2.0,1.7384615384615385,575.221238938053,0.05908746576539864,-0.9664937940679443,-0.3652467804906479,1408.058608058608,-1.0,67.52575903283417,1.7429247420238947,
2023-08-15 13:59:25.680000,-8.481927710843374,-0.30120481927710846,-5.024096385542169,-0.269773145309626,-8.297363580625383,-4.723482526057633,2.0,1.7384615384615385,575.221238938053,-0.05757240254064256,-1.3263795816094635,-0.6628984324922788,1404.3956043956043,-1.0,67.52575903283417,1.7428876642768287,
2023-08-15 13:59:25.687000,-8.44578313253012,-0.3253012048192771,-5.048192771084338,-0.2207234825260576,-8.275291232372776,-4.721030042918454,2.0,1.7384615384615385,575.221238938053,0.20604859856651808,-1.1473690344385532,-0.6252549385233961,1399.2673992673992,-1.0,67.52575903283417,1.7428505329925503,
2023-08-15 13:59:25.695000,-8.409638554216867,-0.30120481927710846,-5.072289156626506,-0.21336603310852237,-8.204169221336603,-4.718577559779276,2.0,1.7384615384615385,575.221238938053,-0.2344851698618977,-1.0937591049472644,-0.556144746809626,1391.2087912087911,-1.0,67.52575903283417,1.7428133449297802,
2023-08-15 13:59:25.703000,-8.421686746987952,-0.26506024096385544,-5.096385542168675,-0.17167381974248927,-8.218884120171673,-4.770079705702023,2.0,1.7384615384615385,575.221238938053,0.2456733290600771,-1.0106637142357664,-0.45743255055066656,1378.021978021978,-1.0,67.52575903283417,1.742776097084434,
2023-08-15 13:59:25.710000,-8.397590361445783,-0.26506024096385544,-5.0602409638554215,-0.18638871857755976,-8.201716738197424,-4.708767627222563,2.0,1.7384615384615385,575.221238938053,0.17609696404638236,-0.6673270788415592,-0.4964745644193236,1364.8351648351647,-1.0,67.52575903283417,1.7427387857507703,
2023-08-15 13:59:25.718000,-8.421686746987952,-0.27710843373493976,-5.0843373493975905,-0.2158185162477008,-8.27038626609442,-4.740649908031882,2.0,1.7355311355311358,576.1924862811312,-0.06561389196433763,-0.5701299458073541,-0.18460462677000208,1350.18315018315,-1.0,67.52575903283417,1.7427014066013031,
2023-08-15 13:59:25.726000,-8.397590361445783,-0.28915662650602414,-5.0843373493975905,-0.18393623543838136,-8.231146535867566,-4.716125076640098,2.0,1.736996336996337,575.7064529734289,-0.21164267816560864,-0.5068469203426367,-0.17737894062117546,1335.5311355311355,-1.0,67.52575903283417,1.74266395466138,
2023-08-15 13:59:25.733000,-8.397590361445783,-0.30120481927710846,-5.072289156626506,-0.328632740649908,-8.20907418761496,-4.689147762109135,2.0,1.736996336996337,575.7064529734289,0.1307616106287519,-0.34881417166831696,-0.4632597167997201,1324.5421245421244,-1.0,67.52575903283417,1.742626424601279,
2023-08-15 13:59:25.741000,-8.409638554216867,-0.3132530120481928,-5.072289156626506,-0.22562844880441446,-8.277743715511955,-4.723482526057633,2.0,1.736996336996337,575.7064529734289,0.012470135772973802,-0.11782530155585304,-0.15104014917545652,1313.5531135531135,-1.0,67.52575903283417,1.7425888112374077,
2023-08-15 13:59:25.749000,-8.397590361445783,-0.3132530120481928,-5.072289156626506,-0.20110361741263028,-8.275291232372776,-4.718577559779276,2.0,1.736996336996337,575.7064529734289,0.09568206980945246,-0.37760037293863913,0.008973836023540897,1301.8315018315018,-1.0,67.52575903283417,1.7425511090858041,
2023-08-15 13:59:25.756000,-8.421686746987952,-0.3253012048192771,-5.096385542168675,-0.23053341508277128,-8.27038626609442,-4.77498467198038,2.0,1.736996336996337,575.7064529734289,0.1774954839461576,-0.16211176504865768,-0.13915273002738865,1293.7728937728937,-1.0,67.52575903283417,1.742513312374031,
2023-08-15 13:59:25.764000,-8.421686746987952,-0.3253012048192771,-5.0602409638554215,-0.3016554261189454,-8.346413243408952,-4.703862660944206,2.0,1.736996336996337,575.7064529734289,-0.138453470077501,-0.4682710797739052,-0.3636151739409136,1287.9120879120878,-1.0,67.52575903283417,1.7424754150536579,
2023-08-15 13:59:25.772000,-8.421686746987952,-0.3132530120481928,-5.0120481927710845,-0.26486817903126914,-8.277743715511955,-4.723482526057633,2.0,1.736996336996337,575.7064529734289,0.5853971213798714,-0.48225627877163335,-0.06561389196433763,1284.9816849816848,-1.0,67.52575903283417,1.742437410813358,
2023-08-15 13:59:25.779000,-8.421686746987952,-0.30120481927710846,-5.0361445783132535,-0.2329858982219497,-8.267933782955241,-4.657265481299816,2.0,1.736996336996337,575.7064529734289,0.4644251500495324,-0.3896043354116896,0.289260532602995,1285.7142857142856,-1.0,67.52575903283417,1.7423992930926733,
2023-08-15 13:59:25.787000,-8.421686746987952,-0.3132530120481928,-5.024096385542169,-0.15450643776824033,-8.27038626609442,-4.6621704475781724,2.0,1.736996336996337,575.7064529734289,0.29753510867665,-0.2822679331041309,0.36734456034030727,1287.9120879120878,-1.0,67.52575903283417,1.7423610550964908,
2023-08-15 13:59:25.795000,-8.409638554216867,-0.3373493975903615,-5.0361445783132535,-0.2795830778663397,-8.243408951563458,-4.725935009196811,2.0,1.736996336996337,575.7064529734289,0.3151331507487893,0.14486335295145916,0.06316648213973573,1288.6446886446886,-1.0,67.52575903283417,1.742322689810271,
2023-08-15 13:59:25.802000,-8.397590361445783,-0.3493975903614458,-5.0602409638554215,-0.27713059472716123,-8.196811771919068,-4.748007357449417,2.0,1.736996336996337,575.7064529734289,0.16700658469785976,0.9176621409008802,-0.36000233086649985,1291.5750915750914,-1.0,67.52575903283417,1.742284190016073,
2023-08-15 13:59:25.810000,-8.361445783132531,-0.3253012048192771,-5.0602409638554215,-0.23543838136112813,-8.22378908645003,-4.748007357449417,2.0,1.736996336996337,575.7064529734289,-0.027387681370550376,0.8641687547345721,-0.36920925354000284,1297.4358974358975,-1.0,67.52575903283417,1.742245548309422,
2023-08-15 13:59:25.818000,-8.373493975903616,-0.3493975903614458,-5.1084337349397595,-0.21336603310852237,-8.25567136725935,-4.789699570815451,2.0,1.736996336996337,575.7064529734289,-0.29602004545189564,1.2373404813239326,-0.05768894586562513,1304.7619047619046,-1.0,67.52575903283417,1.7422067571170554,
2023-08-15 13:59:25.825000,-8.409638554216867,-0.3493975903614458,-5.096385542168675,-0.2893930104230533,-8.258123850398528,-4.748007357449417,2.0,1.736996336996337,575.7064529734289,0.07866674436221562,0.9668434240428886,-0.00850766272361755,1313.5531135531135,-1.0,67.52575903283417,1.7421678087155754,
2023-08-15 13:59:25.833000,-8.44578313253012,-0.3734939759036145,-5.1084337349397595,-0.3359901900674433,-8.312078479460453,-4.718577559779276,2.0,1.736996336996337,575.7064529734289,0.14288211642678322,0.6675601654915209,0.24066196608589333,1320.8791208791208,-1.0,67.52575903283417,1.7421286952510573,
2023-08-15 13:59:25.841000,-8.44578313253012,-0.3734939759036145,-5.072289156626506,-0.3408951563458001,-8.275291232372776,-4.708767627222563,2.0,1.7355311355311358,576.1924862811312,0.1896159897441889,-0.14789347940096786,0.4409999417283365,1328.937728937729,-1.0,67.52575903283417,1.7420894087596288,
2023-08-15 13:59:25.848000,-8.433734939759036,-0.3734939759036145,-5.0843373493975905,-0.2599632127529123,-8.290006131207848,-4.745554874310239,2.0,1.7355311355311358,576.1924862811312,0.4086008973836024,-0.11479517510634608,0.21199230814055028,1336.9963369963368,-1.0,67.52575903283417,1.7420499406963796,
2023-08-15 13:59:25.856000,-8.3855421686747,-0.3734939759036145,-5.1084337349397595,-0.34580012262415694,-8.272838749233598,-4.772532188841201,2.0,1.736996336996337,575.7064529734289,0.33471242934560974,-0.14707767612610026,-0.0904376201853044,1347.2527472527472,-1.0,67.52575903283417,1.7420102818857643,
2023-08-15 13:59:25.864000,-8.361445783132531,-0.3734939759036145,-5.0843373493975905,-0.3139178418148375,-8.172286940527284,-4.713672593500919,2.0,1.7355311355311358,576.1924862811312,0.5046325971679974,0.3576714643668779,0.2811024998543217,1358.974358974359,-1.0,67.52575903283417,1.7419704234902094,
2023-08-15 13:59:25.871000,-8.349397590361447,-0.3855421686746988,-5.1084337349397595,-0.3041079092581238,-8.201716738197424,-4.797057020232986,2.0,1.7340659340659341,576.6793409378961,0.07936600431210411,0.18716857991958438,0.14614532952625184,1372.161172161172,-1.0,67.52575903283417,1.7419303566081117,
2023-08-15 13:59:25.879000,-8.3855421686747,-0.3614457831325301,-5.096385542168675,-0.30901287553648066,-8.27038626609442,-4.767627222562845,2.0,1.7355311355311358,576.1924862811312,0.695880193461918,0.4137288036827696,0.33389662607074216,1385.3479853479853,-1.0,67.52575903283417,1.7418900717334995,
2023-08-15 13:59:25.887000,-8.3855421686747,-0.3493975903614458,-5.1084337349397595,-0.3016554261189454,-8.248313917841815,-4.787247087676272,2.0,1.7355311355311358,576.1924862811312,0.3445020686440191,0.5324864518384711,0.24788765223471734,1395.6043956043954,-1.0,67.52575903283417,1.741849559587168,
2023-08-15 13:59:25.894000,-8.397590361445783,-0.3373493975903615,-5.1084337349397595,-0.25015328019619865,-8.243408951563458,-4.740649908031882,2.0,1.7355311355311358,576.1924862811312,0.3479983683934511,0.5285239787891157,0.2513839519841507,1403.6630036630036,-1.0,67.52575903283417,1.741808811173318,
2023-08-15 13:59:25.902000,-8.433734939759036,-0.3253012048192771,-5.120481927710844,-0.2844880441446965,-8.231146535867566,-4.738197424892704,2.0,1.7355311355311358,576.1924862811312,0.3507954081929964,0.21746984441466088,0.390653225336518,1410.989010989011,-1.0,67.52575903283417,1.741767817345755,
2023-08-15 13:59:25.910000,-8.421686746987952,-0.3493975903614458,-5.096385542168675,-0.2035561005518087,-8.245861434702636,-4.772532188841201,2.0,1.7355311355311358,576.1924862811312,0.5667501893829029,-0.16758930132276742,0.34543441524386753,1421.245421245421,-1.0,67.52575903283417,1.7417265688318544,
2023-08-15 13:59:25.917000,-8.421686746987952,-0.3493975903614458,-5.072289156626506,-0.2869405272838749,-8.280196198651133,-4.811771919068057,2.0,1.7355311355311358,576.1924862811312,0.445312044752637,-0.136705320202785,0.34718256511858264,1429.3040293040292,-1.0,67.52575903283417,1.7416850557985903,
2023-08-15 13:59:25.925000,-8.421686746987952,-0.3253012048192771,-5.096385542168675,-0.23543838136112813,-8.245861434702636,-4.792152053954629,2.0,1.7355311355311358,576.1924862811312,0.21805256103956505,-0.3828448225627872,0.165491521473108,1437.3626373626373,-1.0,67.52575903283417,1.7416432679436755,
2023-08-15 13:59:25.933000,-8.421686746987952,-0.3132530120481928,-5.096385542168675,-0.269773145309626,-8.182096873083998,-4.762722256284488,2.0,1.7355311355311358,576.1924862811312,-0.06829438843890208,-0.35219392809276817,0.1841384534700783,1441.7582417582416,-1.0,67.52575903283417,1.7416011950078363,
2023-08-15 13:59:25.940000,-8.397590361445783,-0.30120481927710846,-5.0843373493975905,-0.2035561005518087,-8.267933782955241,-4.777437155119558,2.0,1.7355311355311358,576.1924862811312,0.16712312802284232,-0.13507371365304982,0.18588660334479346,1443.2234432234432,-1.0,67.52575903283417,1.7415588267951303,
2023-08-15 13:59:25.948000,-8.409638554216867,-0.28915662650602414,-5.072289156626506,-0.24770079705702022,-8.221336603310851,-4.77498467198038,2.0,1.7355311355311358,576.1924862811312,0.1715517743721228,0.0018646931996968547,0.4162927568323519,1442.4908424908424,-1.0,67.52575903283417,1.74151615319404,
2023-08-15 13:59:25.956000,-8.409638554216867,-0.3132530120481928,-5.072289156626506,-0.25015328019619865,-8.299816063764561,-4.782342121397915,2.0,1.7355311355311358,576.1924862811312,-0.11386282850649766,-0.41139793718314766,0.43319153895460616,1441.0256410256409,-1.0,67.52575903283417,1.7414731641993542,
2023-08-15 13:59:25.963000,-8.421686746987952,-0.3132530120481928,-5.072289156626506,-0.21827099938687922,-8.250766400980993,-4.698957694665849,2.0,1.7355311355311358,576.1924862811312,0.3204941436979199,-0.3786492628634701,0.43528931880426514,1434.4322344322343,-1.0,67.52575903283417,1.7414298499348988,
2023-08-15 13:59:25.971000,-8.409638554216867,-0.30120481927710846,-5.096385542168675,-0.2035561005518087,-8.199264255058246,-4.735744941753525,2.0,1.7355311355311358,576.1924862811312,0.29602004545189564,-0.4975234543441524,0.2075636617912707,1424.9084249084249,-1.0,67.52575903283417,1.7413862006771361,
2023-08-15 13:59:25.979000,-8.373493975903616,-0.3253012048192771,-5.0843373493975905,-0.269773145309626,-8.196811771919068,-4.74310239117106,2.0,1.7340659340659341,576.6793409378961,0.1786609171959677,0.025756074820815194,-0.2758580502301732,1413.9194139194137,-1.0,67.52575903283417,1.7413422068796465,
2023-08-15 13:59:25.986000,-8.373493975903616,-0.3373493975903615,-5.096385542168675,-0.269773145309626,-8.187001839362354,-4.797057020232986,2.0,1.7355311355311358,576.1924862811312,0.30860672454985205,0.3009148651011012,-0.20651477186644143,1400.7326007326005,-1.0,67.52575903283417,1.7412978587058447,
2023-08-15 13:59:25.994000,-8.421686746987952,-0.3373493975903615,-5.096385542168675,-0.2599632127529123,-8.182096873083998,-4.762722256284488,2.0,1.7355311355311358,576.1924862811312,0.2678165608064794,0.24136122603577922,0.18262339024532395,1386.080586080586,-1.0,67.52575903283417,1.741253146475752,
2023-08-15 13:59:26.001000,-8.397590361445783,-0.3373493975903615,-5.1084337349397595,-0.2893930104230533,-8.211526670754138,-4.831391784181483,2.0,1.7355311355311358,576.1924862811312,0.31909562379814815,-0.029835091195151413,0.33937416234485185,1371.4285714285713,-1.0,67.52575903283417,1.7412080612176783,
2023-08-15 13:59:26.009000,-8.3855421686747,-0.3373493975903615,-5.120481927710844,-0.27713059472716123,-8.201716738197424,-4.76026977314531,2.0,1.7355311355311358,576.1924862811312,-0.16187867839869602,-0.17854437387098687,0.2821513897791501,1358.974358974359,-1.0,67.52575903283417,1.7411625942378137,
2023-08-15 13:59:26.017000,-8.409638554216867,-0.3373493975903615,-5.1084337349397595,-0.21091354996934394,-8.243408951563458,-4.792152053954629,2.0,1.7355311355311358,576.1924862811312,-0.1816910436454764,-0.035429170794241974,0.20919526834100588,1346.5201465201465,-1.0,67.52575903283417,1.7411167371485843,
2023-08-15 13:59:26.024000,-8.361445783132531,-0.3373493975903615,-5.0843373493975905,-0.25015328019619865,-8.221336603310851,-4.752912323727774,2.0,1.7340659340659341,576.6793409378961,-0.2934560923023138,-0.352310471417749,0.17003671114736932,1335.5311355311355,-1.0,67.52575903283417,1.7410704818978626,
2023-08-15 13:59:26.032000,-8.361445783132531,-0.3614457831325301,-5.1084337349397595,-0.25015328019619865,-8.19435928877989,-4.789699570815451,2.0,1.7340659340659341,576.6793409378961,-0.36023541751646154,-0.16211176504865768,0.2814521298292642,1326.007326007326,-1.0,67.52575903283417,1.7410238207642141,
2023-08-15 13:59:26.040000,-8.3855421686747,-0.3855421686746988,-5.096385542168675,-0.24770079705702022,-8.204169221336603,-4.721030042918454,2.0,1.7340659340659341,576.6793409378961,0.016082978847386676,-0.2501019754093576,0.39123594196142436,1318.6813186813185,-1.0,67.52575903283417,1.7409767462482602,
2023-08-15 13:59:26.047000,-8.409638554216867,-0.3614457831325301,-5.072289156626506,-0.30901287553648066,-8.204169221336603,-4.750459840588595,2.0,1.7340659340659341,576.6793409378961,0.03950818716857993,0.13495717032806898,0.08752403706077785,1315.018315018315,-1.0,67.52575903283417,1.7409292510681442,
2023-08-15 13:59:26.055000,-8.433734939759036,-0.3855421686746988,-5.0602409638554215,-0.26241569589209074,-8.24095646842428,-4.787247087676272,2.0,1.7340659340659341,576.6793409378961,0.15313792902511592,-0.21630441116485077,0.12540061767962216,1312.8205128205127,-1.0,67.52575903283417,1.7408813281891569,
2023-08-15 13:59:26.063000,-8.421686746987952,-0.3614457831325301,-5.096385542168675,-0.2844880441446965,-8.27038626609442,-4.740649908031882,2.0,1.7340659340659341,576.6793409378961,-0.008391119398637582,0.061884505564943924,0.3892547054367458,1312.8205128205127,-1.0,67.52575903283417,1.7408329708527228,
2023-08-15 13:59:26.070000,-8.421686746987952,-0.3614457831325301,-5.1084337349397595,-0.2918454935622317,-8.221336603310851,-4.787247087676272,2.0,1.7355311355311358,576.1924862811312,0.15197249577530408,0.10896800885729212,-0.3565060311170678,1314.2857142857142,-1.0,67.52575903283417,1.7407841721467838,
2023-08-15 13:59:26.078000,-8.421686746987952,-0.3493975903614458,-5.096385542168675,-0.2452483139178418,-8.199264255058246,-4.826486817903127,2.0,1.7340659340659341,576.6793409378961,0.2498688887593959,0.550783753860497,-0.07202377483829665,1315.7509157509157,-1.0,67.52575903283417,1.7407349260511136,
2023-08-15 13:59:26.086000,-8.3855421686747,-0.3253012048192771,-5.120481927710844,-0.26241569589209074,-8.245861434702636,-4.824034334763948,2.0,1.7340659340659341,576.6793409378961,-0.0953324398345082,0.16234485169861934,-0.2631548278072373,1317.216117216117,-1.0,67.52575903283417,1.7406852274646862,
2023-08-15 13:59:26.093000,-8.349397590361447,-0.3373493975903615,-5.120481927710844,-0.23543838136112813,-8.238503985285101,-4.801961986511342,2.0,1.7340659340659341,576.6793409378961,-0.07318920808810762,-0.35953615756657475,-0.14626187285123224,1317.216117216117,-1.0,67.52575903283417,1.74063507121508,
2023-08-15 13:59:26.101000,-8.373493975903616,-0.3493975903614458,-5.156626506024097,-0.2158185162477008,-8.228694052728388,-4.772532188841201,2.0,1.7340659340659341,576.6793409378961,-0.33925761901987106,-0.3088398111998137,-0.11013344210710307,1317.9487179487178,-1.0,67.52575903283417,1.7405844525426648,
2023-08-15 13:59:26.109000,-8.3855421686747,-0.3493975903614458,-5.168674698795181,-0.24034334763948498,-8.299816063764561,-4.8412017167381975,2.0,1.7340659340659341,576.6793409378961,-0.5287570654390773,3.496299749425094E-4,-0.1800594370957399,1320.14652014652,-1.0,67.52575903283417,1.7405333671260295,
2023-08-15 13:59:26.116000,-8.409638554216867,-0.3493975903614458,-5.096385542168675,-0.25260576333537704,-8.201716738197424,-4.801961986511342,2.0,1.7340659340659341,576.6793409378961,-0.48516986189615946,-0.17003671114736846,-0.09603169978439453,1321.6117216117216,-1.0,67.52575903283417,1.740481811106444,
2023-08-15 13:59:26.124000,-8.409638554216867,-0.3734939759036145,-5.1084337349397595,-0.29675045984058857,-8.319435928877988,-4.767627222562845,2.0,1.7340659340659341,576.6793409378961,-0.5198997727405165,-0.24544024241011544,-0.015267175572519083,1327.4725274725274,873.22998046875,68.71042147200671,1.7404297811113616,
2023-08-15 13:59:26.132000,-8.409638554216867,-0.3734939759036145,-5.0843373493975905,-0.30901287553648066,-8.299816063764561,-4.752912323727774,2.0,1.7340659340659341,576.6793409378961,-0.6612668259425436,-0.4282967193054019,-0.40790163743371605,1342.1245421245421,-1.0,68.71042147200671,1.7403772742769164,
2023-08-15 13:59:26.139000,-8.421686746987952,-0.3855421686746988,-5.048192771084338,-0.3016554261189454,-8.275291232372776,-4.735744941753525,2.0,1.7340659340659341,576.6793409378961,-0.6352776644717667,-0.7166249053085485,-0.6587028727929604,1364.102564102564,-1.0,68.71042147200671,1.7403242882693886,
2023-08-15 13:59:26.147000,-8.397590361445783,-0.4096385542168675,-5.072289156626506,-0.30656039239730226,-8.250766400980993,-4.6817903126916,2.0,1.7340659340659341,576.6793409378961,-0.7761785443738705,-1.0773264961249351,-0.9385233960724898,1397.069597069597,-1.0,68.71042147200671,1.7402708213056308,
2023-08-15 13:59:26.155000,-8.409638554216867,-0.42168674698795183,-5.072289156626506,-0.39975475168608215,-8.272838749233598,-4.787247087676272,2.0,1.7340659340659341,576.6793409378961,-1.0371190490064683,-1.2822096614416414,-0.3309830429462156,1441.0256410256409,-1.0,68.71042147200671,1.7402168721724187,
2023-08-15 13:59:26.162000,-8.373493975903616,-0.43373493975903615,-5.072289156626506,-0.3825873697118332,-8.135499693439607,-4.730839975475169,2.0,1.7340659340659341,576.6793409378961,-0.5918070042538314,-0.9523920517452354,-0.3835440825126739,1491.5750915750914,-1.0,68.71042147200671,1.7401624402447409,
2023-08-15 13:59:26.170000,-8.373493975903616,-0.44578313253012053,-5.072289156626506,-0.3261802575107296,-8.177191906805641,-4.750459840588595,2.0,1.7340659340659341,576.6793409378961,-0.578987238505915,-0.9437678456966379,-0.37515296311403723,1547.985347985348,-1.0,68.71042147200671,1.7401075255029734,
2023-08-15 13:59:26.178000,-8.373493975903616,-0.44578313253012053,-5.048192771084338,-0.3384426732066217,-8.221336603310851,-4.735744941753525,2.0,1.7340659340659341,576.6793409378961,-1.0240661966085887,-0.5519491871103089,-0.6238564186236231,1605.8608058608058,-1.0,68.71042147200671,1.7400521285489747,
2023-08-15 13:59:26.185000,-8.373493975903616,-0.43373493975903615,-5.0361445783132535,-0.43408951563458,-8.196811771919068,-4.735744941753525,2.0,1.7340659340659341,576.6793409378961,-1.0666045102266772,-0.6507779266942492,-0.42922906590525034,1666.6666666666665,-1.0,68.71042147200671,1.7399962510789326,
2023-08-15 13:59:26.193000,-8.361445783132531,-0.44578313253012053,-5.0602409638554215,-0.37522992029429797,-8.294911097486205,-4.745554874310239,2.0,1.7340659340659341,576.6793409378961,-1.0948079948720935,-0.4305110424800413,-0.34508478526892417,1727.4725274725274,-1.0,68.71042147200671,1.7399398953721008,
2023-08-15 13:59:26.201000,-8.409638554216867,-0.45783132530120485,-5.072289156626506,-0.4218270999386879,-8.253218884120171,-4.76026977314531,2.0,1.7340659340659341,576.6793409378961,-1.2296486218751816,-0.21140959151564523,-0.292174115727522,1784.6153846153845,-1.0,68.71042147200671,1.7398830643402927,
2023-08-15 13:59:26.208000,-8.421686746987952,-0.45783132530120485,-5.0602409638554215,-0.39975475168608215,-8.211526670754138,-4.703862660944206,2.0,1.7340659340659341,576.6793409378961,-1.1031991142707294,-0.025639531495834356,-0.19148068294388487,1835.164835164835,-1.0,68.71042147200671,1.7398257615063994,
2023-08-15 13:59:26.216000,-8.433734939759036,-0.43373493975903615,-5.072289156626506,-0.2918454935622317,-8.25567136725935,-4.703862660944206,2.0,1.7340659340659341,576.6793409378961,-1.0385175689062403,0.003845929724374546,-0.29159139910261606,1876.923076923077,-1.0,68.71042147200671,1.7397679905931085,
2023-08-15 13:59:26.224000,-8.421686746987952,-0.42168674698795183,-5.0843373493975905,-0.3384426732066217,-8.290006131207848,-4.762722256284488,2.0,1.7340659340659341,576.6793409378961,-1.0977215779966214,-0.15220558242526575,-0.5725773556319564,1911.3553113553112,-1.0,68.71042147200671,1.7397097560236654,
2023-08-15 13:59:26.231000,-8.3855421686747,-0.43373493975903615,-5.0843373493975905,-0.3531575720416922,-8.267933782955241,-4.779889638258736,2.0,1.7340659340659341,576.6793409378961,-1.0332731192820939,-0.16968708117242592,-0.6066080065264267,1936.9963369963368,-1.0,68.71042147200671,1.739651062928847,
2023-08-15 13:59:26.239000,-8.397590361445783,-0.42168674698795183,-5.072289156626506,-0.30901287553648066,-8.231146535867566,-4.828939301042305,2.0,1.7340659340659341,576.6793409378961,-1.0298933628576428,-0.398811258085193,-0.6557892896684347,1949.4505494505493,-1.0,68.71042147200671,1.7395919171528518,
2023-08-15 13:59:26.247000,-8.421686746987952,-0.4096385542168675,-5.072289156626506,-0.3727774371551195,-8.245861434702636,-4.794604537093807,2.0,1.7340659340659341,576.6793409378961,-1.3311578579336865,-0.24485752578521125,-0.8731425907581147,1951.6483516483515,-1.0,68.71042147200671,1.73953232525811,
2023-08-15 13:59:26.254000,-8.397590361445783,-0.4096385542168675,-5.1084337349397595,-0.30656039239730226,-8.253218884120171,-4.757817290006131,2.0,1.7340659340659341,576.6793409378961,-1.4801002272594834,-0.5657012994580737,-0.4321426490297769,1942.8571428571427,-1.0,68.71042147200671,1.7394722945290408,
2023-08-15 13:59:26.262000,-8.373493975903616,-0.4096385542168675,-5.120481927710844,-0.3016554261189454,-8.17964438994482,-4.757817290006131,2.0,1.7340659340659341,576.6793409378961,-1.3978206398228532,-0.43913524852864055,-0.7124293456092305,1925.2747252747251,-1.0,68.71042147200671,1.73941183297476,
2023-08-15 13:59:26.270000,-8.421686746987952,-0.43373493975903615,-5.1084337349397595,-0.29429797670141017,-8.233599019006745,-4.76026977314531,2.0,1.7340659340659341,576.6793409378961,-1.7305518326437852,-0.5901753977040962,-0.5509002971854788,1898.168498168498,-1.0,68.71042147200671,1.7393509497886295,
2023-08-15 13:59:26.277000,-8.433734939759036,-0.4096385542168675,-5.0843373493975905,-0.33108522378908645,-8.299816063764561,-4.730839975475169,2.0,1.7340659340659341,576.6793409378961,-1.9544315599324042,-0.8916729794301033,-0.5247945923897211,1860.8058608058607,-1.0,68.71042147200671,1.7392896548237875,
2023-08-15 13:59:26.285000,-8.421686746987952,-0.42168674698795183,-5.048192771084338,-0.38994481912936846,-8.272838749233598,-4.725935009196811,2.0,1.7340659340659341,576.6793409378961,-1.903385583590699,-0.7482081463784159,-0.8208146378416177,1815.3846153846152,-1.0,68.71042147200671,1.7392279581716779,
2023-08-15 13:59:26.293000,-8.409638554216867,-0.42168674698795183,-5.0361445783132535,-0.42427958307786634,-8.22624156958921,-4.708767627222563,2.0,1.7340659340659341,576.6793409378961,-1.469261698036245,-0.7008915564361043,-0.7475088864285301,1763.3699633699632,-1.0,68.71042147200671,1.7391658706527142,
2023-08-15 13:59:26.300000,-8.409638554216867,-0.42168674698795183,-5.024096385542169,-0.3727774371551195,-8.24095646842428,-4.706315144083384,2.0,1.7340659340659341,576.6793409378961,-2.047083503292348,-0.7426140667793254,-1.0875823087232679,1708.4249084249084,-1.0,68.71042147200671,1.7391034042711677,
2023-08-15 13:59:26.308000,-8.421686746987952,-0.4096385542168675,-5.072289156626506,-0.2575107296137339,-8.199264255058246,-4.72838749233599,2.0,1.7340659340659341,576.6793409378961,-1.705378474447876,-0.6309655614474688,-1.0272128663830777,1655.6776556776556,-1.0,68.71042147200671,1.7390405716860624,
2023-08-15 13:59:26.316000,-8.433734939759036,-0.3855421686746988,-5.0361445783132535,-0.30656039239730226,-8.245861434702636,-4.765174739423666,2.0,1.7326007326007327,577.1670190274841,-1.6105122079132912,-0.516753102966027,-1.1366470485402946,1608.7912087912086,-1.0,68.71042147200671,1.7389773857851256,
2023-08-15 13:59:26.323000,-8.421686746987952,-0.4096385542168675,-5.048192771084338,-0.3850398528510116,-8.299816063764561,-4.733292458614347,2.0,1.7340659340659341,576.6793409378961,-1.4879086300332152,-0.358137637666803,-1.1076277606200107,1567.032967032967,-1.0,68.71042147200671,1.7389138601361114,
2023-08-15 13:59:26.331000,-8.421686746987952,-0.42168674698795183,-5.0602409638554215,-0.3016554261189454,-8.258123850398528,-4.694052728387492,2.0,1.7326007326007327,577.1670190274841,-1.827282792378067,-0.4760794825476369,-1.2181108327020571,1524.5421245421244,-1.0,68.71042147200671,1.7388500093325368,
2023-08-15 13:59:26.339000,-8.409638554216867,-0.42168674698795183,-5.0602409638554215,-0.3408951563458001,-8.199264255058246,-4.740649908031882,2.0,1.7326007326007327,577.1670190274841,-1.9357846279354358,-0.7637084086008967,-1.0240661966085896,1485.7142857142856,-1.0,68.71042147200671,1.7387858485286978,
2023-08-15 13:59:26.346000,-8.3855421686747,-0.3734939759036145,-5.0843373493975905,-0.3531575720416922,-8.172286940527284,-4.801961986511342,2.0,1.7326007326007327,577.1670190274841,-2.0738884680379925,-0.49950469086883015,-1.090962065147718,1448.3516483516482,-1.0,68.71042147200671,1.7387213929032825,
2023-08-15 13:59:26.354000,-8.373493975903616,-0.4096385542168675,-5.048192771084338,-0.269773145309626,-8.150214592274677,-4.777437155119558,2.0,1.7326007326007327,577.1670190274841,-2.1833226501952114,-0.5273585455393038,-1.0505215313792897,1411.7216117216117,-1.0,68.71042147200671,1.7386566581038017,
2023-08-15 13:59:26.362000,-8.3855421686747,-0.39759036144578314,-5.096385542168675,-0.2820355610055181,-8.206621704475781,-4.765174739423666,2.0,1.7326007326007327,577.1670190274841,-2.3509119515179773,-0.4348231455043409,-1.3626245556785739,1381.6849816849815,-1.0,68.71042147200671,1.7385916602310238,
2023-08-15 13:59:26.369000,-8.3855421686747,-0.39759036144578314,-5.072289156626506,-0.30901287553648066,-8.290006131207848,-4.76026977314531,2.0,1.7326007326007327,577.1670190274841,-2.1513897791503998,-0.6450673037701761,-1.369034438552531,1354.5787545787546,-1.0,68.71042147200671,1.738526415821329,
2023-08-15 13:59:26.377000,-8.397590361445783,-0.3734939759036145,-5.0361445783132535,-0.2795830778663397,-8.236051502145923,-4.77498467198038,2.0,1.7340659340659341,576.6793409378961,-2.230755783462504,-0.2154886078899832,-1.482431093759105,1331.8681318681317,-1.0,68.71042147200671,1.7384609413691823,
2023-08-15 13:59:26.384000,-8.409638554216867,-0.3734939759036145,-5.0602409638554215,-0.29675045984058857,-8.297363580625383,-4.77498467198038,2.0,1.7326007326007327,577.1670190274841,-2.4611619369500604,-0.6866732707884162,-1.6875473457257733,1314.2857142857142,-1.0,68.71042147200671,1.738395254323342,
2023-08-15 13:59:26.392000,-8.433734939759036,-0.3855421686746988,-5.0843373493975905,-0.3016554261189454,-8.326793378295523,-4.757817290006131,2.0,1.7340659340659341,576.6793409378961,-2.527125458889342,-0.3777169162636217,-1.2817434881417167,1301.098901098901,-1.0,68.71042147200671,1.7383293726062063,
2023-08-15 13:59:26.400000,-8.44578313253012,-0.3855421686746988,-5.096385542168675,-0.24770079705702022,-8.25567136725935,-4.755364806866953,2.0,1.7326007326007327,577.1670190274841,-2.8838645766563715,-0.5944875007283958,-1.4581900821630438,1290.8424908424909,-1.0,68.71042147200671,1.7382633145899242,
2023-08-15 13:59:26.407000,-8.433734939759036,-0.3734939759036145,-5.0602409638554215,-0.2550582464745555,-8.253218884120171,-4.787247087676272,2.0,1.7326007326007327,577.1670190274841,-2.961132801118817,-0.6073072664763122,-1.8905658178427827,1284.2490842490843,-1.0,68.71042147200671,1.7381970995293747,
2023-08-15 13:59:26.415000,-8.421686746987952,-0.3614457831325301,-5.0843373493975905,-0.25260576333537704,-8.290006131207848,-4.782342121397915,2.0,1.7326007326007327,577.1670190274841,-2.7919118932463145,-0.7468096264786441,-1.7107394673970049,1278.3882783882782,-1.0,68.71042147200671,1.7381307465185618,
2023-08-15 13:59:26.423000,-8.433734939759036,-0.3734939759036145,-5.072289156626506,-0.33108522378908645,-8.297363580625383,-4.806866952789699,2.0,1.7326007326007327,577.1670190274841,-2.8416758930132273,-0.8544956587611436,-2.254414078433658,1273.9926739926739,-1.0,68.71042147200671,1.7380642749212205,
2023-08-15 13:59:26.430000,-8.433734939759036,-0.39759036144578314,-5.0843373493975905,-0.34825260576333533,-8.253218884120171,-4.767627222562845,2.0,1.7326007326007327,577.1670190274841,-2.891323349455159,-0.4531204475263687,-1.7702931064623268,1273.260073260073,-1.0,68.71042147200671,1.7379977043421955,
2023-08-15 13:59:26.438000,-8.409638554216867,-0.3734939759036145,-5.0361445783132535,-0.3237277743715512,-8.263028816676885,-4.701410177805028,2.0,1.7326007326007327,577.1670190274841,-2.969640463842434,-0.464891323349454,-1.9903269040265723,1272.5274725274724,-1.0,68.71042147200671,1.7379310545975857,
2023-08-15 13:59:26.446000,-8.421686746987952,-0.3734939759036145,-5.048192771084338,-0.30656039239730226,-8.243408951563458,-4.706315144083384,2.0,1.7326007326007327,577.1670190274841,-2.95600489481965,-0.4604626770001753,-1.9813530680030296,1276.1904761904761,-1.0,68.71042147200671,1.7378643456837717,
2023-08-15 13:59:26.453000,-8.373493975903616,-0.3734939759036145,-5.0361445783132535,-0.3825873697118332,-8.216431637032494,-4.671980380134887,2.0,1.7326007326007327,577.1670190274841,-3.231979488374802,-0.8071790688188337,-2.110133442107103,1282.7838827838827,-1.0,68.71042147200671,1.7377975977454558,
2023-08-15 13:59:26.461000,-8.325301204819278,-0.39759036144578314,-4.9156626506024095,-0.29675045984058857,-8.177191906805641,-4.5738810545677495,2.0,1.7326007326007327,577.1670190274841,-3.0132276673853484,-0.3737544432142646,-2.252782471883923,1291.5750915750914,-1.0,68.71042147200671,1.7377308310428554,
2023-08-15 13:59:26.469000,-8.421686746987952,-0.3373493975903615,-4.951807228915663,-0.26241569589209074,-8.368485591661557,-4.637645616186388,2.0,1.7326007326007327,577.1670190274841,-1.9095623798146955,0.058388205815511886,-3.1573917603869233,1305.4945054945053,-1.0,68.71042147200671,1.7376640659181841,
2023-08-15 13:59:26.476000,-8.530120481927712,-0.3373493975903615,-4.975903614457832,-0.20110361741263028,-8.358675659104843,-4.667075413856529,2.0,1.7326007326007327,577.1670190274841,-1.0883981119981354,-0.876638890507546,-1.3464250335062062,1323.076923076923,-1.0,68.71042147200671,1.7375973227615666,
2023-08-15 13:59:26.484000,-8.506024096385543,-0.39759036144578314,-5.0120481927710845,-0.3948497854077253,-8.334150827713058,-4.674432863274065,2.0,1.7311355311355312,577.655522640711,-1.83206106870229,-2.4405337684284123,-1.1568090437620175,1339.194139194139,-1.0,68.71042147200671,1.7375306219765378,
2023-08-15 13:59:26.492000,-8.421686746987952,-0.4819277108433735,-5.024096385542169,-0.38749233599019006,-8.245861434702636,-4.765174739423666,2.0,1.7311355311355312,577.655522640711,-2.390420138686557,-1.2361750480741207,-1.364605792203252,1354.5787545787546,-1.0,68.71042147200671,1.7374639839104855,
2023-08-15 13:59:26.499000,-8.325301204819278,-0.45783132530120485,-5.072289156626506,-0.3825873697118332,-8.123237277743716,-4.762722256284488,2.0,1.7326007326007327,577.1670190274841,-3.0795408192995746,1.5781131635685561,-1.8290309422527817,1364.8351648351647,-1.0,68.71042147200671,1.7373974286803275,
2023-08-15 13:59:26.507000,-8.301204819277109,-0.45783132530120485,-5.048192771084338,-0.37522992029429797,-8.211526670754138,-4.738197424892704,2.0,1.7326007326007327,577.1670190274841,-3.4902394965328387,2.890041372880368,-2.5787541518559514,1372.8937728937728,-1.0,68.71042147200671,1.7373309761364046,
2023-08-15 13:59:26.515000,-8.373493975903616,-0.44578313253012053,-5.072289156626506,-0.37768240343347637,-8.272838749233598,-4.787247087676272,2.0,1.7326007326007327,577.1670190274841,-3.377542101276151,2.970805897092244,-2.6236233319736617,1381.6849816849815,-1.0,68.71042147200671,1.737264645964752,
2023-08-15 13:59:26.522000,-8.44578313253012,-0.43373493975903615,-5.096385542168675,-0.32127529123237275,-8.275291232372776,-4.72838749233599,2.0,1.7326007326007327,577.1670190274841,-2.606258376551483,1.3423460171318693,-1.4190315249694072,1389.7435897435896,-1.0,68.71042147200671,1.737198457685125,
2023-08-15 13:59:26.530000,-8.44578313253012,-0.43373493975903615,-5.1084337349397595,-0.37768240343347637,-8.236051502145923,-4.826486817903127,2.0,1.7326007326007327,577.1670190274841,-3.1695122661849537,-0.38482605908746487,-1.7332323291183511,1396.3369963369962,-1.0,68.71042147200671,1.7371324306148082,
2023-08-15 13:59:26.538000,-8.409638554216867,-0.45783132530120485,-5.156626506024097,-0.35806253832004903,-8.233599019006745,-4.814224402207235,2.0,1.7326007326007327,577.1670190274841,-3.7726239729619486,-0.2849484295786954,-2.3314492162461407,1400.0,-1.0,68.71042147200671,1.7370665838331871,
2023-08-15 13:59:26.545000,-8.409638554216867,-0.44578313253012053,-5.132530120481928,-0.34580012262415694,-8.260576333537706,-4.801961986511342,2.0,1.7326007326007327,577.1670190274841,-3.8678398694714744,0.22854146028786118,-2.6963463667618424,1398.5347985347985,-1.0,68.71042147200671,1.7370009361472585,
2023-08-15 13:59:26.553000,-8.421686746987952,-0.42168674698795183,-5.120481927710844,-0.3703249540159411,-8.285101164929491,-4.806866952789699,2.0,1.7311355311355312,577.655522640711,-3.7317172658935935,0.34275391876930306,-2.4337742555795128,1395.6043956043954,-1.0,68.71042147200671,1.736935506058247,
2023-08-15 13:59:26.561000,-8.433734939759036,-0.39759036144578314,-5.0602409638554215,-0.34334763948497854,-8.248313917841815,-4.762722256284488,2.0,1.7326007326007327,577.1670190274841,-3.8697045626711746,-0.09335120330983052,-2.475380222597751,1390.4761904761904,-1.0,68.71042147200671,1.7368703112368336,
2023-08-15 13:59:26.568000,-8.409638554216867,-0.3855421686746988,-5.0602409638554215,-0.26241569589209074,-8.272838749233598,-4.703862660944206,2.0,1.7326007326007327,577.1670190274841,-3.6559641046559075,-0.368160363615174,-2.8112580851931708,1388.278388278388,-1.0,68.71042147200671,1.736805368912956,
2023-08-15 13:59:26.576000,-8.433734939759036,-0.3614457831325301,-5.048192771084338,-0.3408951563458001,-8.260576333537706,-4.6621704475781724,2.0,1.7326007326007327,577.1670190274841,-4.11397937183148,-0.551366470485403,-2.7349222073305754,1387.5457875457876,-1.0,68.71042147200671,1.736740696371222,
2023-08-15 13:59:26.584000,-8.409638554216867,-0.42168674698795183,-5.0361445783132535,-0.3114653586756591,-8.184549356223176,-4.694052728387492,2.0,1.7326007326007327,577.1670190274841,-3.8391702115261364,-0.6582366994930366,-2.9791970164908808,1389.7435897435896,-1.0,68.71042147200671,1.7366763104650584,
2023-08-15 13:59:26.591000,-8.421686746987952,-0.39759036144578314,-5.048192771084338,-0.3237277743715512,-8.27038626609442,-4.806866952789699,2.0,1.7326007326007327,577.1670190274841,-4.175048074121556,-0.2918244857525786,-2.9944641920633996,1392.6739926739926,-1.0,68.71042147200671,1.7366122275906246,
2023-08-15 13:59:26.599000,-8.409638554216867,-0.3734939759036145,-5.048192771084338,-0.30656039239730226,-8.253218884120171,-4.701410177805028,2.0,1.7326007326007327,577.1670190274841,-3.701765631373465,-0.4139618903327313,-2.9028611386282854,1396.3369963369962,-1.0,68.71042147200671,1.736548463662747,
2023-08-15 13:59:26.607000,-8.44578313253012,-0.3734939759036145,-5.0361445783132535,-0.2918454935622317,-8.299816063764561,-4.6817903126916,2.0,1.7326007326007327,577.1670190274841,-4.022376318396366,-0.4597634170502885,-2.689120680613018,1396.3369963369962,-1.0,68.71042147200671,1.7364850345508518,
2023-08-15 13:59:26.614000,-8.457831325301205,-0.3614457831325301,-5.0,-0.34334763948497854,-8.346413243408952,-4.72838749233599,2.0,1.7326007326007327,577.1670190274841,-4.28191830312919,-0.5666336460579221,-2.7349222073305754,1394.8717948717947,-1.0,68.71042147200671,1.73642195553414,
2023-08-15 13:59:26.622000,-8.457831325301205,-0.3734939759036145,-4.975903614457832,-0.2918454935622317,-8.324340895156345,-4.738197424892704,2.0,1.7326007326007327,577.1670190274841,-3.976574791678808,-0.7040382262105939,-2.689120680613018,1390.4761904761904,-1.0,68.71042147200671,1.7363592408630988,
2023-08-15 13:59:26.630000,-8.433734939759036,-0.3734939759036145,-5.0,-0.2844880441446965,-8.334150827713058,-4.649908031882281,2.0,1.7326007326007327,577.1670190274841,-4.037643493968885,-0.4597634170502885,-2.3685099935901173,1383.150183150183,-1.0,68.71042147200671,1.7362969046944299,
2023-08-15 13:59:26.637000,-8.457831325301205,-0.3734939759036145,-4.9879518072289155,-0.3408951563458001,-8.290006131207848,-4.69650521152667,2.0,1.7311355311355312,577.655522640711,-3.8697045626711746,-0.5819008216304412,-2.7349222073305754,1375.8241758241757,-1.0,68.71042147200671,1.7362349605527954,
2023-08-15 13:59:26.645000,-8.433734939759036,-0.3614457831325301,-5.0,-0.2869405272838749,-8.263028816676885,-4.694052728387492,2.0,1.7311355311355312,577.655522640711,-4.1445137229765185,-0.368160363615174,-2.6127848027504226,1368.4981684981683,-1.0,68.71042147200671,1.7361734208642954,
2023-08-15 13:59:26.653000,-8.421686746987952,-0.3493975903614458,-5.024096385542169,-0.299202942979767,-8.290006131207848,-4.723482526057633,2.0,1.7311355311355312,577.655522640711,-4.052910669541403,-0.5666336460579221,-2.7501893829030943,1360.4395604395604,-1.0,68.71042147200671,1.7361122973010212,
2023-08-15 13:59:26.660000,-8.409638554216867,-0.3734939759036145,-5.0,-0.2918454935622317,-8.24095646842428,-4.664622930717351,2.0,1.7311355311355312,577.655522640711,-3.6101625779383504,-0.3986947147602122,-2.8265252607656897,1351.6483516483515,-1.0,68.71042147200671,1.7360516007389202,
2023-08-15 13:59:26.668000,-8.397590361445783,-0.3493975903614458,-5.0361445783132535,-0.2599632127529123,-8.19435928877989,-4.752912323727774,2.0,1.7311355311355312,577.655522640711,-3.717032806945984,-0.09335120330983052,-2.719655031758056,1342.1245421245421,-1.0,68.71042147200671,1.735991341251823,
2023-08-15 13:59:26.676000,-8.373493975903616,-0.3734939759036145,-5.024096385542169,-0.299202942979767,-8.182096873083998,-4.708767627222563,2.0,1.7311355311355312,577.655522640711,-3.732299982518503,-0.368160363615174,-2.643319153895461,1331.135531135531,-1.0,68.71042147200671,1.7359315281068786,
2023-08-15 13:59:26.683000,-8.361445783132531,-0.3614457831325301,-5.0602409638554215,-0.33108522378908645,-8.19435928877989,-4.730839975475169,2.0,1.7311355311355312,577.655522640711,-3.549093875648274,-0.23075578346250228,-2.7349222073305754,1319.4139194139193,-1.0,68.71042147200671,1.7358721697614223,
2023-08-15 13:59:26.691000,-8.373493975903616,-0.3614457831325301,-5.048192771084338,-0.3629675045984059,-8.221336603310851,-4.718577559779276,2.0,1.7311355311355312,577.655522640711,-3.533826700075755,-0.184954256744945,-2.7959909096206514,1306.9597069597069,-1.0,68.71042147200671,1.735813273861326,
2023-08-15 13:59:26.699000,-8.3855421686747,-0.3734939759036145,-5.048192771084338,-0.299202942979767,-8.253218884120171,-4.762722256284488,2.0,1.7326007326007327,577.1670190274841,-3.411689295495602,-0.03228250101975418,-2.7807237340481326,1296.7032967032967,-1.0,68.71042147200671,1.7357548472408488,
2023-08-15 13:59:26.706000,-8.44578313253012,-0.3614457831325301,-5.048192771084338,-0.2795830778663397,-8.314530962599632,-4.757817290006131,2.0,1.7311355311355312,577.655522640711,-3.579628226793312,0.13565643027795574,-2.628051978322942,1290.10989010989,-1.0,68.71042147200671,1.735696896416703,
2023-08-15 13:59:26.714000,-8.46987951807229,-0.3614457831325301,-5.0843373493975905,-0.26486817903126914,-8.304721030042918,-4.755364806866953,2.0,1.7311355311355312,577.655522640711,-3.6254297535108693,0.15092360585047482,-2.3837771691626366,1285.7142857142856,-1.0,68.71042147200671,1.7356394271705295,
2023-08-15 13:59:26.722000,-8.506024096385543,-0.3614457831325301,-5.0843373493975905,-0.2795830778663397,-8.353770692826487,-4.750459840588595,2.0,1.7311355311355312,577.655522640711,-3.6254297535108693,0.15092360585047482,-2.3837771691626366,1284.2490842490843,-1.0,68.71042147200671,1.7355824440289587,
2023-08-15 13:59:26.729000,-8.493975903614459,-0.3614457831325301,-5.0843373493975905,-0.2575107296137339,-8.294911097486205,-4.797057020232986,2.0,1.7311355311355312,577.655522640711,-3.6101625779383504,0.3341297127207038,-2.5211817493153084,1284.9816849816848,-1.0,68.71042147200671,1.7355259507282663,
2023-08-15 13:59:26.737000,-8.457831325301205,-0.3493975903614458,-5.1084337349397595,-0.3261802575107296,-8.28755364806867,-4.797057020232986,2.0,1.7311355311355312,577.655522640711,-3.930773264961251,0.4409999417283374,-2.5975176271779037,1285.7142857142856,-1.0,68.71042147200671,1.7354699502227589,
2023-08-15 13:59:26.745000,-8.397590361445783,-0.39759036144578314,-5.096385542168675,-0.3850398528510116,-8.25567136725935,-4.765174739423666,2.0,1.7311355311355312,577.655522640711,-4.251383951984152,0.5784045218810091,-2.8112580851931708,1283.5164835164835,-1.0,68.71042147200671,1.7354144446947948,
2023-08-15 13:59:26.752000,-8.337349397590362,-0.44578313253012053,-5.168674698795181,-0.3850398528510116,-8.152667075413856,-4.814224402207235,2.0,1.7311355311355312,577.655522640711,-4.587261814579572,0.3493968882932229,-3.1624031233611096,1280.5860805860805,-1.0,68.71042147200671,1.735359435566411,
2023-08-15 13:59:26.760000,-8.27710843373494,-0.45783132530120485,-5.144578313253012,-0.3359901900674433,-8.044757817290005,-4.806866952789699,2.0,1.7311355311355312,577.655522640711,-4.770467921449801,0.0745877279878794,-3.528815337101568,1273.9926739926739,-1.0,68.71042147200671,1.7353049235125975,
2023-08-15 13:59:26.767000,-8.228915662650603,-0.45783132530120485,-5.132530120481928,-0.3678724708767627,-8.057020232985899,-4.838749233599018,2.0,1.7311355311355312,577.655522640711,-5.136880135190259,0.19672513256803206,-4.2311054134374455,1266.6666666666665,-1.0,68.71042147200671,1.7352509084761927,
2023-08-15 13:59:26.775000,-8.228915662650603,-0.45783132530120485,-5.156626506024097,-0.3727774371551195,-8.071735131820969,-4.831391784181483,2.0,1.7311355311355312,577.655522640711,-4.953674028320029,-0.04754967659227327,-4.170036711147369,1256.4102564102564,-1.0,68.71042147200671,1.7351973896844042,
2023-08-15 13:59:26.783000,-8.265060240963855,-0.4819277108433735,-5.168674698795181,-0.39239730226854685,-8.108522378908644,-4.83629675045984,2.0,1.7311355311355312,577.655522640711,-5.27428471534293,-0.09335120330983052,-4.643319153895461,1249.084249084249,-1.0,68.71042147200671,1.735144365666935,
2023-08-15 13:59:26.790000,-8.337349397590362,-0.5060240963855422,-5.168674698795181,-0.4537093807480073,-8.201716738197424,-4.853464132434089,2.0,1.72967032967033,578.1448538754764,-5.472757997785679,-0.09335120330983052,-4.582250451605384,1243.956043956044,-1.0,68.71042147200671,1.7350918342757187,
2023-08-15 13:59:26.798000,-8.433734939759036,-0.45783132530120485,-5.1807228915662655,-0.3041079092581238,-8.33169834457388,-4.858369098712446,2.0,1.72967032967033,578.1448538754764,-5.396422119923083,-0.2765573101800595,-5.086067245498514,1245.4212454212454,-1.0,68.71042147200671,1.7350397926714276,
2023-08-15 13:59:26.806000,-8.481927710843374,-0.5180722891566265,-5.132530120481928,-0.43654199877375843,-8.321888412017167,-4.711220110361741,2.0,1.7311355311355312,577.655522640711,-5.915506089388732,-0.719305401783113,-4.078433657712255,1249.8168498168498,-1.0,68.71042147200671,1.7349882367490221,
2023-08-15 13:59:26.813000,-8.506024096385543,-0.5060240963855422,-5.048192771084338,-0.34825260576333533,-8.437155119558552,-4.745554874310239,2.0,1.7311355311355312,577.655522640711,-5.304819066487968,-1.3147252491113572,-4.383777169162636,1257.8754578754579,-1.0,68.71042147200671,1.7349371616859701,
2023-08-15 13:59:26.821000,-8.55421686746988,-0.5060240963855422,-5.024096385542169,-0.4414469650521152,-8.351318209687308,-4.674432863274065,2.0,1.7311355311355312,577.655522640711,-5.472757997785679,-1.2078550201037237,-4.2311054134374455,1270.3296703296703,-1.0,68.71042147200671,1.7348865625261594,
2023-08-15 13:59:26.829000,-8.433734939759036,-0.5783132530120483,-4.9397590361445785,-0.46106683016554256,-8.233599019006745,-4.5444512568976085,2.0,1.7311355311355312,577.655522640711,-5.747567158091022,-1.9406794475846396,-4.841792436338209,1286.4468864468863,-1.0,68.71042147200671,1.7348364337474893,
2023-08-15 13:59:26.836000,-8.421686746987952,-0.4819277108433735,-4.879518072289157,-0.40220723482526055,-8.304721030042918,-4.465971796443899,2.0,1.7311355311355312,577.655522640711,-4.4498572344269,-1.665870287279296,-5.66621991725424,1305.4945054945053,-1.0,68.71042147200671,1.7347867692888181,
2023-08-15 13:59:26.844000,-8.433734939759036,-0.3855421686746988,-4.903614457831326,-0.299202942979767,-8.304721030042918,-4.576333537706928,2.0,1.7311355311355312,577.655522640711,-4.342987005419267,-2.536099294912884,-4.078433657712255,1321.6117216117216,-1.0,68.71042147200671,1.7347375625783428,
2023-08-15 13:59:26.852000,-8.457831325301205,-0.4819277108433735,-4.903614457831326,-0.4071122011036174,-8.22624156958921,-4.630288166768853,2.0,1.7311355311355312,577.655522640711,-4.571994639007053,-3.3910611269739523,-3.4830138103840103,1335.5311355311355,-1.0,68.71042147200671,1.7346888065633912,
2023-08-15 13:59:26.859000,-8.397590361445783,-0.5180722891566265,-4.9879518072289155,-0.463519313304721,-8.201716738197424,-4.721030042918454,2.0,1.7311355311355312,577.655522640711,-5.289551890915449,-1.7574733407144105,-4.215838237864927,1344.3223443223442,-1.0,68.71042147200671,1.734640494199435,
2023-08-15 13:59:26.867000,-8.337349397590362,-0.5060240963855422,-5.0602409638554215,-0.40220723482526055,-8.211526670754138,-4.811771919068057,2.0,1.7311355311355312,577.655522640711,-6.007109142823847,1.1738243692092534,-4.139502360002331,1350.9157509157508,-1.0,68.71042147200671,1.7345926179574167,
2023-08-15 13:59:26.875000,-8.3855421686747,-0.49397590361445787,-5.120481927710844,-0.4414469650521152,-8.20907418761496,-4.757817290006131,2.0,1.7311355311355312,577.655522640711,-6.663597692442167,2.608938873026047,-4.246372589009964,1354.5787545787546,-1.0,68.71042147200671,1.7345451694363236,
2023-08-15 13:59:26.882000,-8.457831325301205,-0.5542168674698795,-5.132530120481928,-0.48313917841814835,-8.383200490496627,-4.738197424892704,2.0,1.7311355311355312,577.655522640711,-7.12161295961774,1.8913816211176504,-4.170036711147369,1359.7069597069597,-1.0,68.71042147200671,1.734498139890093,
2023-08-15 13:59:26.890000,-8.506024096385543,-0.5301204819277109,-5.1084337349397595,-0.42673206621704474,-8.405272838749234,-4.686695278969957,2.0,1.7311355311355312,577.655522640711,-6.022376318396366,0.22725948371307023,-2.9181283142008043,1363.3699633699632,-1.0,68.71042147200671,1.7344515202629507,
2023-08-15 13:59:26.898000,-8.518072289156628,-0.46987951807228917,-5.0602409638554215,-0.38994481912936846,-8.380748007357449,-4.740649908031882,2.0,1.7311355311355312,577.655522640711,-5.701765631373465,-1.0551832643785328,-3.3150748790863003,1362.6373626373625,-1.0,68.71042147200671,1.7344053012258045,
2023-08-15 13:59:26.905000,-8.433734939759036,-0.5060240963855422,-5.048192771084338,-0.510116492949111,-8.233599019006745,-4.711220110361741,2.0,1.7311355311355312,577.655522640711,-6.465124409999419,-0.9635802109434183,-3.956296253132102,1361.904761904762,-1.0,68.71042147200671,1.7343594732135976,
2023-08-15 13:59:26.913000,-8.373493975903616,-0.4819277108433735,-5.0361445783132535,-0.35806253832004903,-8.216431637032494,-4.733292458614347,2.0,1.7311355311355312,577.655522640711,-6.3735213565643045,-0.902511508653342,-4.5669832760328655,1361.904761904762,-1.0,68.71042147200671,1.734314026463542,
2023-08-15 13:59:26.921000,-8.325301204819278,-0.46987951807228917,-5.0602409638554215,-0.3825873697118332,-8.184549356223176,-4.74310239117106,2.0,1.7311355311355312,577.655522640711,-6.724666394732243,-0.3223588368976168,-4.902861138628285,1362.6373626373625,-1.0,68.71042147200671,1.7342689515120153,
2023-08-15 13:59:26.928000,-8.325301204819278,-0.4819277108433735,-5.0843373493975905,-0.4537093807480073,-8.216431637032494,-4.74310239117106,2.0,1.72967032967033,578.1448538754764,-6.724666394732243,-0.5055649437678458,-4.765456558475614,1362.6373626373625,-1.0,68.71042147200671,1.7342242391670335,
2023-08-15 13:59:26.936000,-8.325301204819278,-0.49397590361445787,-5.120481927710844,-0.45861434702636417,-8.096259963212752,-4.789699570815451,2.0,1.7311355311355312,577.655522640711,-6.770467921449801,-1.0399160888060137,-4.82652526076569,1365.5677655677655,-1.0,68.71042147200671,1.7341798795675014,
2023-08-15 13:59:26.944000,-8.325301204819278,-0.49397590361445787,-5.120481927710844,-0.41201716738197425,-8.177191906805641,-4.809319435928877,2.0,1.72967032967033,578.1448538754764,-7.136880135190259,-0.35289318804265496,-5.177670298933629,1366.3003663003662,-1.0,68.71042147200671,1.7341358621902576,
2023-08-15 13:59:26.951000,-8.313253012048193,-0.4819277108433735,-5.168674698795181,-0.43654199877375843,-8.142857142857142,-4.855916615573268,2.0,1.72967032967033,578.1448538754764,-7.3811549443505635,-0.12388555445486868,-5.238739001223705,1367.7655677655678,-1.0,68.71042147200671,1.7340921764511654,
2023-08-15 13:59:26.959000,-8.337349397590362,-0.4819277108433735,-5.19277108433735,-0.4757817290006131,-8.22624156958921,-4.848559166155733,2.0,1.72967032967033,578.1448538754764,-7.3811549443505635,0.31886253714818474,-5.498280985956529,1369.230769230769,-1.0,68.71042147200671,1.7340488116393078,
2023-08-15 13:59:26.967000,-8.349397590361447,-0.5060240963855422,-5.1084337349397595,-0.4095646842427958,-8.155119558553034,-4.819129368485592,2.0,1.7311355311355312,577.655522640711,-6.984208379465068,0.27306101043062747,-5.437212283666453,1368.4981684981683,-1.0,68.71042147200671,1.7340057569199383,
2023-08-15 13:59:26.974000,-8.46987951807229,-0.4819277108433735,-5.096385542168675,-0.42673206621704474,-8.353770692826487,-4.750459840588595,2.0,1.7311355311355312,577.655522640711,-6.892605326029953,-0.7956412796457083,-4.933395489773323,1369.9633699633698,-1.0,68.71042147200671,1.7339630018636978,
2023-08-15 13:59:26.982000,-8.530120481927712,-0.42168674698795183,-5.120481927710844,-0.29675045984058857,-8.415082771305947,-4.772532188841201,2.0,1.7311355311355312,577.655522640711,-6.3735213565643045,-2.5055649437678458,-4.429578695880194,1370.6959706959706,-1.0,68.71042147200671,1.7339205365540997,
2023-08-15 13:59:26.990000,-8.578313253012048,-0.39759036144578314,-5.0,-0.4095646842427958,-8.405272838749234,-4.708767627222563,2.0,1.7311355311355312,577.655522640711,-7.243750364197892,-3.696404638424334,-5.070800069925995,1371.4285714285713,-1.0,68.71042147200671,1.7338783511691918,
2023-08-15 13:59:26.997000,-8.493975903614459,-0.46987951807228917,-4.9879518072289155,-0.3703249540159411,-8.299816063764561,-4.691600245248313,2.0,1.7311355311355312,577.655522640711,-7.243750364197892,-3.696404638424334,-5.070800069925995,1376.5567765567764,-1.0,68.71042147200671,1.733836436020309,
2023-08-15 13:59:27.005000,-8.46987951807229,-0.45783132530120485,-5.0361445783132535,-0.39975475168608215,-8.265481299816063,-4.721030042918454,2.0,1.7311355311355312,577.655522640711,-8.007109142823847,-2.581900821630441,-5.803624497406911,1387.5457875457876,-1.0,68.71042147200671,1.7337947815899886,
2023-08-15 13:59:27.013000,-8.409638554216867,-0.46987951807228917,-5.048192771084338,-0.3801348865726548,-8.250766400980993,-4.740649908031882,2.0,1.7311355311355312,577.655522640711,-8.846803799312395,-1.0551832643785328,-6.200571062292407,1409.5238095238094,-1.0,68.71042147200671,1.7337533785689614,
2023-08-15 13:59:27.020000,-8.3855421686747,-0.5060240963855422,-5.024096385542169,-0.42673206621704474,-8.204169221336603,-4.716125076640098,2.0,1.72967032967033,578.1448538754764,-9.243750364197892,-0.13915273002738776,-6.399044344735155,1441.0256410256409,834.930419921875,71.86227566797032,1.7337122178921587,
2023-08-15 13:59:27.028000,-8.3855421686747,-0.5301204819277109,-5.024096385542169,-0.3948497854077253,-8.245861434702636,-4.686695278969957,2.0,1.7311355311355312,577.655522640711,-9.10634578404522,-0.8109084552182274,-6.337975642445079,1482.7838827838827,-1.0,71.86227566797032,1.7336712902809939,
2023-08-15 13:59:27.036000,-8.421686746987952,-0.4819277108433735,-4.9879518072289155,-0.41692213366033104,-8.196811771919068,-4.652360515021459,2.0,1.7311355311355312,577.655522640711,-8.373521356564304,-1.4063283025464717,-5.773090146261873,1533.3333333333333,-1.0,71.86227566797032,1.7336305866976782,
2023-08-15 13:59:27.043000,-8.3855421686747,-0.49397590361445787,-4.9879518072289155,-0.3801348865726548,-8.20907418761496,-4.63519313304721,2.0,1.7311355311355312,577.655522640711,-8.510925936716976,-1.8032748674319679,-6.15476953557485,1591.2087912087911,-1.0,71.86227566797032,1.7335900989023736,
2023-08-15 13:59:27.051000,-8.3855421686747,-0.5060240963855422,-5.0,-0.49540159411404044,-8.25567136725935,-4.6327406499080315,2.0,1.7311355311355312,577.655522640711,-9.228483188625374,-1.5742672338441817,-6.170036711147369,1653.4798534798533,-1.0,71.86227566797032,1.733549819026136,
2023-08-15 13:59:27.059000,-8.373493975903616,-0.5301204819277109,-5.024096385542169,-0.47087676272225626,-8.243408951563458,-4.716125076640098,2.0,1.7311355311355312,577.655522640711,-9.197948837480334,-0.6277023483479984,-6.108968008857293,1719.4139194139193,-1.0,71.86227566797032,1.7335097396004675,
2023-08-15 13:59:27.066000,-8.361445783132531,-0.5301204819277109,-5.048192771084338,-0.463519313304721,-8.187001839362354,-4.706315144083384,2.0,1.7311355311355312,577.655522640711,-9.426956471068122,-0.2612901346075404,-6.765456558475614,1784.6153846153845,-1.0,71.86227566797032,1.7334698535855662,
2023-08-15 13:59:27.074000,-8.3855421686747,-0.5783132530120483,-5.048192771084338,-0.47332924586143466,-8.218884120171673,-4.740649908031882,2.0,1.7311355311355312,577.655522640711,-9.426956471068122,-0.49029776819532667,-6.429578695880194,1848.3516483516482,-1.0,71.86227566797032,1.7334301543972237,
2023-08-15 13:59:27.082000,-8.409638554216867,-0.5662650602409639,-5.024096385542169,-0.48559166155732675,-8.28755364806867,-4.703862660944206,2.0,1.7311355311355312,577.655522640711,-9.808635860381099,-0.3834275391876931,-6.32270846687256,1904.0293040293038,-1.0,71.86227566797032,1.7333906359323312,
2023-08-15 13:59:27.089000,-8.421686746987952,-0.5542168674698795,-5.0602409638554215,-0.4782342121397915,-8.299816063764561,-4.703862660944206,2.0,1.7311355311355312,577.655522640711,-9.701765631373464,-0.5666336460579221,-6.337975642445079,1948.7179487179485,-1.0,71.86227566797032,1.7333512930508326,
2023-08-15 13:59:27.097000,-8.433734939759036,-0.5421686746987953,-5.0120481927710845,-0.4782342121397915,-8.218884120171673,-4.6695278969957075,2.0,1.72967032967033,578.1448538754764,-9.243750364197892,-0.44449624147776945,-6.414311520307675,1978.021978021978,-1.0,71.86227566797032,1.7333121215310814,
2023-08-15 13:59:27.105000,-8.421686746987952,-0.5301204819277109,-4.9879518072289155,-0.4782342121397915,-8.22624156958921,-4.637645616186388,2.0,1.72967032967033,578.1448538754764,-9.320086242060487,-0.33762601247013585,-6.918128314200804,1994.139194139194,-1.0,71.86227566797032,1.7332731175677727,
2023-08-15 13:59:27.112000,-8.493975903614459,-0.5542168674698795,-5.0120481927710845,-0.4880441446965052,-8.375843041079092,-4.6695278969957075,2.0,1.7311355311355312,577.655522640711,-9.426956471068122,-1.116251966668609,-6.093700833284774,1997.8021978021977,-1.0,71.86227566797032,1.7332342771978373,
2023-08-15 13:59:27.120000,-8.530120481927712,-0.5060240963855422,-4.963855421686747,-0.4218270999386879,-8.373390557939913,-4.63519313304721,2.0,1.7311355311355312,577.655522640711,-8.144513722976518,-2.6429695239205175,-5.528815337101568,1990.4761904761904,-1.0,71.86227566797032,1.7331955968452872,
2023-08-15 13:59:27.127000,-8.481927710843374,-0.4819277108433735,-4.9397590361445785,-0.4316370324954016,-8.297363580625383,-4.6253832004904964,2.0,1.72967032967033,578.1448538754764,-8.220849600839113,-2.8719771575083035,-5.650952741681721,1972.161172161172,-1.0,71.86227566797032,1.733157073897987,
2023-08-15 13:59:27.135000,-8.397590361445783,-0.5180722891566265,-4.891566265060241,-0.4463519313304721,-8.182096873083998,-4.593500919681177,2.0,1.7311355311355312,577.655522640711,-8.663597692442167,-1.3299924246838764,-6.734922207330575,1943.5897435897434,-1.0,71.86227566797032,1.7331187057717683,
2023-08-15 13:59:27.143000,-8.349397590361447,-0.46987951807228917,-4.891566265060241,-0.34334763948497854,-8.164929491109747,-4.54199877375843,2.0,1.7311355311355312,577.655522640711,-9.182681661907816,1.0364197890565816,-6.872326787483247,1906.9597069597069,-1.0,71.86227566797032,1.7330804903433759,
2023-08-15 13:59:27.150000,-8.325301204819278,-0.44578313253012053,-4.9397590361445785,-0.34825260576333533,-8.16002452483139,-4.664622930717351,2.0,1.7311355311355312,577.655522640711,-9.213216013052854,2.028786201270322,-7.192937474506148,1863.7362637362637,-1.0,71.86227566797032,1.733042426485271,
2023-08-15 13:59:27.158000,-8.349397590361447,-0.45783132530120485,-5.0120481927710845,-0.3973022685469037,-8.164929491109747,-4.716125076640098,2.0,1.72967032967033,578.1448538754764,-9.365887768778045,2.8532136821863525,-7.14713594778859,1813.9194139194137,-1.0,71.86227566797032,1.733004513615326,
2023-08-15 13:59:27.166000,-8.421686746987952,-0.4819277108433735,-5.0602409638554215,-0.4414469650521152,-8.30226854690374,-4.694052728387492,2.0,1.7311355311355312,577.655522640711,-9.350620593205525,2.700541926461162,-6.82652526076569,1761.172161172161,-1.0,71.86227566797032,1.7329667512096731,
2023-08-15 13:59:27.173000,-8.457831325301205,-0.49397590361445787,-5.1084337349397595,-0.43654199877375843,-8.388105456774984,-4.767627222562845,2.0,1.72967032967033,578.1448538754764,-9.45749082221316,2.4409999417283372,-6.750189382903094,1706.227106227106,-1.0,71.86227566797032,1.7329291392266948,
2023-08-15 13:59:27.181000,-8.46987951807229,-0.5060240963855422,-5.0843373493975905,-0.4218270999386879,-8.290006131207848,-4.735744941753525,2.0,1.72967032967033,578.1448538754764,-8.907872501602473,1.998251850125284,-6.337975642445079,1654.212454212454,-1.0,71.86227566797032,1.7328916781404178,
2023-08-15 13:59:27.189000,-8.457831325301205,-0.49397590361445787,-5.096385542168675,-0.40465971796443895,-8.299816063764561,-4.723482526057633,2.0,1.72967032967033,578.1448538754764,-9.350620593205525,1.8150457432550549,-6.49064739817027,1600.7326007326005,-1.0,71.86227566797032,1.7328543684095357,
2023-08-15 13:59:27.196000,-8.421686746987952,-0.5180722891566265,-5.072289156626506,-0.45616186388718577,-8.285101164929491,-4.6817903126916,2.0,1.72967032967033,578.1448538754764,-9.411689295495602,1.5249694073771922,-7.024998543208437,1551.6483516483515,-1.0,71.86227566797032,1.7328172109270197,
2023-08-15 13:59:27.204000,-8.361445783132531,-0.5180722891566265,-5.0361445783132535,-0.4438994481912937,-8.218884120171673,-4.6817903126916,2.0,1.72967032967033,578.1448538754764,-9.503292348930717,1.662373987529864,-7.208204650078667,1504.7619047619046,-1.0,71.86227566797032,1.7327802070095533,
2023-08-15 13:59:27.212000,-8.325301204819278,-0.44578313253012053,-5.0602409638554215,-0.3629675045984059,-8.201716738197424,-4.74310239117106,2.0,1.72967032967033,578.1448538754764,-9.793368684808579,1.6929083386749022,-7.9104947264145435,1465.201465201465,-1.0,71.86227566797032,1.7327433583847751,
2023-08-15 13:59:27.219000,-8.397590361445783,-0.43373493975903615,-5.0843373493975905,-0.3237277743715512,-8.260576333537706,-4.782342121397915,2.0,1.72967032967033,578.1448538754764,-10.358254180991786,1.7845113921100166,-7.421945108093934,1429.3040293040292,-1.0,71.86227566797032,1.7327066671764613,
2023-08-15 13:59:27.227000,-8.421686746987952,-0.45783132530120485,-5.1084337349397595,-0.3727774371551195,-8.285101164929491,-4.711220110361741,2.0,1.72967032967033,578.1448538754764,-10.404055707709343,1.4944350562321542,-7.1166015966435525,1397.069597069597,-1.0,71.86227566797032,1.7326701358877683,
2023-08-15 13:59:27.235000,-8.44578313253012,-0.46987951807228917,-5.1084337349397595,-0.34825260576333533,-8.24095646842428,-4.804414469650521,2.0,1.72967032967033,578.1448538754764,-10.28191830312919,1.0516869646291007,-6.948662665345842,1368.4981684981683,-1.0,71.86227566797032,1.7326337673826933,
2023-08-15 13:59:27.242000,-8.44578313253012,-0.45783132530120485,-5.120481927710844,-0.35561005518087063,-8.324340895156345,-4.833844267320662,2.0,1.72967032967033,578.1448538754764,-9.701765631373464,0.8532136821863526,-7.024998543208437,1345.054945054945,-1.0,71.86227566797032,1.7325975648658891,
2023-08-15 13:59:27.250000,-8.481927710843374,-0.42168674698795183,-5.0602409638554215,-0.31882280809319435,-8.336603310852237,-4.757817290006131,2.0,1.7282051282051283,578.6350148367952,-9.762834333663541,0.2425266592855893,-7.1166015966435525,1326.007326007326,-1.0,71.86227566797032,1.7325615318609977,
2023-08-15 13:59:27.258000,-8.481927710843374,-0.39759036144578314,-5.0120481927710845,-0.29429797670141017,-8.368485591661557,-4.649908031882281,2.0,1.7282051282051283,578.6350148367952,-9.900238913816212,-0.04754967659227327,-7.177670298933629,1313.5531135531135,-1.0,71.86227566797032,1.732525672610732,
2023-08-15 13:59:27.265000,-8.506024096385543,-0.3855421686746988,-4.9879518072289155,-0.299202942979767,-8.258123850398528,-4.6327406499080315,2.0,1.7282051282051283,578.6350148367952,-10.236116776411633,-0.07808402773731143,-7.315074879086301,1303.2967032967033,-1.0,71.86227566797032,1.7324899913881553,
2023-08-15 13:59:27.273000,-8.433734939759036,-0.3855421686746988,-4.951807228915663,-0.26241569589209074,-8.218884120171673,-4.647455548743102,2.0,1.72967032967033,578.1448538754764,-10.236116776411633,-0.07808402773731143,-7.315074879086301,1293.7728937728937,-1.0,71.86227566797032,1.7324544920143436,
2023-08-15 13:59:27.281000,-8.361445783132531,-0.3614457831325301,-4.951807228915663,-0.2599632127529123,-8.182096873083998,-4.63519313304721,2.0,1.72967032967033,578.1448538754764,-10.297185478701708,0.059320552415360314,-7.5746168638191245,1285.7142857142856,-1.0,71.86227566797032,1.7324191788145697,
2023-08-15 13:59:27.288000,-8.3855421686747,-0.3734939759036145,-5.024096385542169,-0.3237277743715512,-8.238503985285101,-4.706315144083384,2.0,1.7282051282051283,578.6350148367952,-10.236116776411633,1.0211526134840625,-7.712021443971796,1282.7838827838827,-1.0,71.86227566797032,1.7323840566594668,
2023-08-15 13:59:27.296000,-8.518072289156628,-0.49397590361445787,-5.0361445783132535,-0.4218270999386879,-8.422440220723482,-4.654812998160637,2.0,1.72967032967033,578.1448538754764,-11.030009906182626,0.8532136821863526,-7.040265718780957,1285.7142857142856,-1.0,71.86227566797032,1.7323491299873712,
2023-08-15 13:59:27.304000,-8.55421686746988,-0.44578313253012053,-4.9879518072289155,-0.40220723482526055,-8.402820355610055,-4.649908031882281,2.0,1.72967032967033,578.1448538754764,-9.381154944350564,-0.9177786842258611,-6.902861138628285,1291.5750915750914,-1.0,71.86227566797032,1.7323144031968807,
2023-08-15 13:59:27.311000,-8.506024096385543,-0.4819277108433735,-4.9397590361445785,-0.463519313304721,-8.31698344573881,-4.5812385039852845,2.0,1.72967032967033,578.1448538754764,-8.495658761144457,-1.9254122720121205,-6.337975642445079,1301.8315018315018,-1.0,71.86227566797032,1.7322798811428473,
2023-08-15 13:59:27.319000,-8.44578313253012,-0.49397590361445787,-4.903614457831326,-0.3703249540159411,-8.290006131207848,-4.583690987124463,2.0,1.72967032967033,578.1448538754764,-8.11397937183148,-1.9101450964396014,-6.521181749315308,1311.3553113553112,-1.0,71.86227566797032,1.7322455686490288,
2023-08-15 13:59:27.327000,-8.409638554216867,-0.44578313253012053,-4.903614457831326,-0.37768240343347637,-8.236051502145923,-4.5738810545677495,2.0,1.7282051282051283,578.6350148367952,-7.930773264961251,-0.6429695239205175,-6.857059611910728,1322.3443223443223,-1.0,71.86227566797032,1.7322114704785112,
2023-08-15 13:59:27.334000,-8.373493975903616,-0.44578313253012053,-4.9156626506024095,-0.39975475168608215,-8.169834457388106,-4.583690987124463,2.0,1.7282051282051283,578.6350148367952,-7.930773264961251,0.7005419264611619,-7.513548161529048,1334.065934065934,-1.0,71.86227566797032,1.7321775908115884,
2023-08-15 13:59:27.342000,-8.361445783132531,-0.44578313253012053,-4.951807228915663,-0.34825260576333533,-8.128142244022072,-4.647455548743102,2.0,1.7282051282051283,578.6350148367952,-7.77810150923606,1.1585571936367343,-7.421945108093934,1347.2527472527472,-1.0,71.86227566797032,1.7321439331444834,
2023-08-15 13:59:27.350000,-8.361445783132531,-0.5060240963855422,-5.0,-0.42673206621704474,-8.17964438994482,-4.72838749233599,2.0,1.72967032967033,578.1448538754764,-7.976574791678808,1.677641163102383,-7.162403123361109,1362.6373626373625,-1.0,71.86227566797032,1.732110500713152,
2023-08-15 13:59:27.357000,-8.3855421686747,-0.5301204819277109,-5.0120481927710845,-0.41446965052115264,-8.187001839362354,-4.642550582464746,2.0,1.7282051282051283,578.6350148367952,-7.991841967251327,2.318862537148185,-6.933395489773323,1382.4175824175823,-1.0,71.86227566797032,1.7320772969520928,
2023-08-15 13:59:27.365000,-8.325301204819278,-0.49397590361445787,-5.024096385542169,-0.38994481912936846,-8.206621704475781,-4.72838749233599,2.0,1.72967032967033,578.1448538754764,-8.068177845113922,3.2196258959268107,-6.795990909620651,1400.0,-1.0,71.86227566797032,1.7320443250404574,
2023-08-15 13:59:27.373000,-8.421686746987952,-0.49397590361445787,-5.0361445783132535,-0.42918454935622313,-8.24095646842428,-4.69650521152667,2.0,1.7282051282051283,578.6350148367952,-8.587261814579572,3.55550375852223,-6.963929840918361,1417.5824175824175,-1.0,71.86227566797032,1.732011587837523,
2023-08-15 13:59:27.380000,-8.710843373493976,-0.6506024096385542,-4.807228915662651,-0.6425505824647455,-8.599019006744328,-4.291845493562231,2.0,1.7282051282051283,578.6350148367952,-8.801002272594838,2.8837480333313907,-7.299807703513781,1435.8974358974358,-1.0,71.86227566797032,1.7319790883468114,
2023-08-15 13:59:27.388000,-8.204819277108435,-0.22891566265060243,-5.325301204819278,0.1079092581238504,-7.637645616186388,-5.79767014101778,2.0,1.7282051282051283,578.6350148367952,-9.732299982518503,-9.894877920867081,-10.673853505040498,1449.8168498168498,-1.0,71.86227566797032,1.7319468290943574,
2023-08-15 13:59:27.396000,-8.27710843373494,-0.44578313253012053,-5.265060240963856,-0.41692213366033104,-7.9589209074187615,-4.652360515021459,2.0,1.7282051282051283,578.6350148367952,-10.862070974884915,2.6242060485985665,-10.200571062292406,1459.3406593406592,-1.0,71.86227566797032,1.731914811612354,
2023-08-15 13:59:27.403000,-8.084337349397591,-0.49397590361445787,-5.132530120481928,-0.38994481912936846,-7.97608828939301,-4.848559166155733,2.0,1.7282051282051283,578.6350148367952,-9.579628226793313,2.5173358195909326,-9.254006176796223,1464.4688644688645,-1.0,71.86227566797032,1.7318830369415268,
2023-08-15 13:59:27.411000,-8.168674698795181,-0.4819277108433735,-5.301204819277109,-0.3825873697118332,-8.020232985898222,-5.052115266707541,2.0,1.7282051282051283,578.6350148367952,-9.655964104655908,3.662373987529864,-7.498280985956529,1465.9340659340658,-1.0,71.86227566797032,1.7318515064885343,
2023-08-15 13:59:27.419000,-8.27710843373494,-0.5662650602409639,-5.27710843373494,-0.5591661557326794,-8.20907418761496,-4.892703862660944,2.0,1.7282051282051283,578.6350148367952,-9.304819066487969,4.105122079132918,-6.078433657712255,1465.201465201465,-1.0,71.86227566797032,1.7318202209885833,
2023-08-15 13:59:27.426000,-8.44578313253012,-0.6144578313253012,-5.168674698795181,-0.5567136725935009,-8.339055793991417,-4.846106683016554,2.0,1.7282051282051283,578.6350148367952,-8.465124409999419,1.463900705087116,-5.360876405803857,1460.8058608058607,-1.0,71.86227566797032,1.7317891800662757,
2023-08-15 13:59:27.434000,-8.506024096385543,-0.6265060240963856,-5.156626506024097,-0.539546290619252,-8.351318209687308,-4.757817290006131,2.0,1.7282051282051283,578.6350148367952,-8.205582425266595,0.8684808577588717,-5.498280985956529,1451.2820512820513,-1.0,71.86227566797032,1.731758382711361,
2023-08-15 13:59:27.442000,-8.493975903614459,-0.6024096385542169,-5.1084337349397595,-0.5199264255058246,-8.297363580625383,-4.76026977314531,2.0,1.7282051282051283,578.6350148367952,-7.930773264961251,1.1432900180642152,-6.170036711147369,1441.0256410256409,-1.0,71.86227566797032,1.731727827263765,
2023-08-15 13:59:27.449000,-8.481927710843374,-0.6144578313253012,-5.048192771084338,-0.5493562231759657,-8.31698344573881,-4.74310239117106,2.0,1.7282051282051283,578.6350148367952,-8.159780898549037,0.059320552415360314,-6.078433657712255,1430.03663003663,-1.0,71.86227566797032,1.7316975114007536,
2023-08-15 13:59:27.457000,-8.457831325301205,-0.6265060240963856,-5.048192771084338,-0.510116492949111,-8.250766400980993,-4.711220110361741,2.0,1.7267399267399268,579.1260076368264,-8.510925936716976,-1.070450439951052,-6.261639764582483,1418.3150183150183,-1.0,71.86227566797032,1.7316674321264192,
2023-08-15 13:59:27.465000,-8.397590361445783,-0.6144578313253012,-5.1084337349397595,-0.539546290619252,-8.24095646842428,-4.735744941753525,2.0,1.7282051282051283,578.6350148367952,-8.342987005419266,-0.07808402773731143,-6.551716100460347,1405.8608058608058,-1.0,71.86227566797032,1.7316375852709829,
2023-08-15 13:59:27.472000,-8.361445783132531,-0.6385542168674699,-5.120481927710844,-0.5714285714285714,-8.135499693439607,-4.735744941753525,2.0,1.7282051282051283,578.6350148367952,-8.556727463434534,-0.16968708117242592,-6.15476953557485,1391.9413919413919,-1.0,71.86227566797032,1.7316079659058967,
2023-08-15 13:59:27.480000,-8.397590361445783,-0.6626506024096386,-5.1084337349397595,-0.5836909871244634,-8.248313917841815,-4.757817290006131,2.0,1.7282051282051283,578.6350148367952,-8.739933570304762,-0.6277023483479984,-5.650952741681721,1376.5567765567764,-1.0,71.86227566797032,1.7315785688657557,
2023-08-15 13:59:27.488000,-8.421686746987952,-0.6506024096385542,-5.120481927710844,-0.5935009196811771,-8.206621704475781,-4.826486817903127,2.0,1.7282051282051283,578.6350148367952,-8.92313967717499,-0.09335120330983052,-5.360876405803857,1364.102564102564,-1.0,71.86227566797032,1.7315493882901638,
2023-08-15 13:59:27.495000,-8.44578313253012,-0.6867469879518072,-5.120481927710844,-0.6057633353770693,-8.27038626609442,-4.767627222562845,2.0,1.7282051282051283,578.6350148367952,-8.92313967717499,-0.7040382262105939,-5.238739001223705,1353.8461538461538,-1.0,71.86227566797032,1.731520417626554,
2023-08-15 13:59:27.503000,-8.44578313253012,-0.6987951807228916,-5.096385542168675,-0.6008583690987124,-8.290006131207848,-4.765174739423666,2.0,1.7282051282051283,578.6350148367952,-9.045277081755144,-1.116251966668609,-5.055532894353476,1347.2527472527472,-1.0,71.86227566797032,1.7314916496361867,
2023-08-15 13:59:27.510000,-8.44578313253012,-0.674698795180723,-5.072289156626506,-0.5910484365419988,-8.272838749233598,-4.703862660944206,2.0,1.7282051282051283,578.6350148367952,-8.709399219159724,-1.10098479109609,-4.9944641920634,1341.3919413919414,-1.0,71.86227566797032,1.7314630764034429,
2023-08-15 13:59:27.518000,-8.44578313253012,-0.6626506024096386,-5.096385542168675,-0.5444512568976088,-8.265481299816063,-4.755364806866953,2.0,1.7282051282051283,578.6350148367952,-8.694132043587205,-1.5284657071266243,-5.238739001223705,1339.194139194139,-1.0,71.86227566797032,1.7314346898063335,
2023-08-15 13:59:27.526000,-8.44578313253012,-0.6265060240963856,-5.072289156626506,-0.5812385039852851,-8.258123850398528,-4.735744941753525,2.0,1.7282051282051283,578.6350148367952,-8.907872501602473,-1.7574733407144105,-5.3456092302313385,1337.7289377289376,-1.0,71.86227566797032,1.731406481007432,
2023-08-15 13:59:27.533000,-8.421686746987952,-0.6385542168674699,-5.072289156626506,-0.5174739423666462,-8.218884120171673,-4.708767627222563,2.0,1.7282051282051283,578.6350148367952,-9.045277081755144,-1.8643435697220443,-5.620418390536682,1340.6593406593406,-1.0,71.86227566797032,1.7313784400522518,
2023-08-15 13:59:27.541000,-8.397590361445783,-0.6385542168674699,-5.096385542168675,-0.551808706315144,-8.238503985285101,-4.762722256284488,2.0,1.7282051282051283,578.6350148367952,-8.755200745877282,-2.032282501019754,-5.8952275508420255,1344.3223443223442,-1.0,71.86227566797032,1.7313505563842349,
