Shimmer_F5D4_Timestamp_FormattedUnix_CAL,Shimmer_F5D4_Accel_LN_X_CAL,Shimmer_F5D4_Accel_LN_Y_CAL,Shimmer_F5D4_Accel_LN_Z_CAL,Shimmer_F5D4_Accel_WR_X_CAL,Shimmer_F5D4_Accel_WR_Y_CAL,Shimmer_F5D4_Accel_WR_Z_CAL,Shimmer_F5D4_GSR_Range_CAL,Shimmer_F5D4_GSR_Skin_Conductance_CAL,Shimmer_F5D4_GSR_Skin_Resistance_CAL,Shimmer_F5D4_Gyro_X_CAL,Shimmer_F5D4_Gyro_Y_CAL,Shimmer_F5D4_Gyro_Z_CAL,Shimmer_F5D4_PPG_A13_CAL,Shimmer_F5D4_PPG_IBI_CAL,Shimmer_F5D4_PPGtoHR_CAL,Shimmer_F5D4_GSR_Skin_Conductance_LPF_CAL,
yyyy/mm/dd hh:mm:ss.000,m/(s^2),m/(s^2),m/(s^2),m/(s^2),m/(s^2),m/(s^2),no_units,uS,kOhms,deg/s,deg/s,deg/s,mV,ms,BPM,uS,
2023-08-11 19:54:28.436000,-8.879518072289157,-0.6144578313253012,-4.1807228915662655,-0.5836909871244634,-8.716738197424892,-3.8871857755977928,3.0,1.2576312576312578,795.1456310679611,-0.12575024765456555,0.2498688887593959,-0.24660567565992642,1357.5091575091574,-1.0,78.32988047808765,1.2628313206733521,
2023-08-11 19:54:28.443000,-8.843373493975903,-0.6144578313253012,-4.156626506024097,-0.5272838749233598,-8.724095646842427,-3.8283261802575104,3.0,1.2576312576312578,795.1456310679611,-0.09579861313443329,0.20453353534176372,0.3053435114503817,1358.2417582417581,-1.0,78.32988047808765,1.2627736144870183,
2023-08-11 19:54:28.451000,-8.807228915662652,-0.5903614457831325,-4.1807228915662655,-0.5125689760882893,-8.733905579399142,-3.8283261802575104,3.0,1.2576312576312578,795.1456310679611,0.19439426606841012,-0.06899364838878884,-0.08064798088689461,1361.1721611721612,-1.0,78.32988047808765,1.262715898632722,
2023-08-11 19:54:28.459000,-8.795180722891567,-0.5662650602409639,-4.1807228915662655,-0.463519313304721,-8.711833231146535,-3.896995708154506,3.0,1.2571872571872573,795.4264524103831,-0.036478060719072974,0.45160538430161434,0.057572402540644295,1363.3699633699632,-1.0,78.32988047808765,1.2626581739098268,
2023-08-11 19:54:28.466000,-8.795180722891567,-0.5662650602409639,-4.1807228915662655,-0.47332924586143466,-8.625996321275291,-3.8283261802575104,3.0,1.2571872571872573,795.4264524103831,-0.0340306508944702,0.08391119398636367,-0.006060252899015212,1366.3003663003662,-1.0,78.32988047808765,1.262600441271416,
2023-08-11 19:54:28.474000,-8.783132530120483,-0.5783132530120483,-4.19277108433735,-0.42427958307786634,-8.648068669527897,-3.847946045370938,3.0,1.2571872571872573,795.4264524103831,-0.3102383310995855,-0.42037177320668945,0.13250976050346708,1368.4981684981683,-1.0,78.32988047808765,1.2625427016670745,
2023-08-11 19:54:28.482000,-8.807228915662652,-0.5903614457831325,-4.19277108433735,-0.5174739423666462,-8.67259350091968,-3.81361128142244,3.0,1.2571872571872573,795.4264524103831,-0.12633296427947147,-0.37119049006468097,0.010488899248295677,1371.4285714285713,-1.0,78.32988047808765,1.2624849561933933,
2023-08-11 19:54:28.489000,-8.819277108433736,-0.5903614457831325,-4.156626506024097,-0.5150214592274678,-8.753525444512569,-3.847946045370938,3.0,1.2571872571872573,795.4264524103831,-0.2932230056523521,-0.5078958102674677,-0.020977798496590917,1371.4285714285713,-1.0,78.32988047808765,1.2624272061050061,
2023-08-11 19:54:28.497000,-8.843373493975903,-0.5783132530120483,-4.19277108433735,-0.510116492949111,-8.731453096259962,-3.8700183936235435,3.0,1.2567432567432568,795.7074721780604,0.21199230814055114,-0.3996270613600606,-0.019229648621875334,1372.161172161172,-1.0,78.32988047808765,1.2623694528249567,
2023-08-11 19:54:28.505000,-8.855421686746988,-0.6024096385542169,-4.204819277108434,-0.44880441446965047,-8.770692826486817,-3.81361128142244,3.0,1.2567432567432568,795.7074721780604,0.2407785094108733,-0.16933745119748342,-0.21735330108968004,1372.8937728937728,-1.0,78.32988047808765,1.2623116978050994,
2023-08-11 19:54:28.512000,-8.855421686746988,-0.6024096385542169,-4.156626506024097,-0.48313917841814835,-8.746167995095034,-3.843041079092581,3.0,1.2567432567432568,795.7074721780604,0.08729095041081487,-0.07971563428704662,-0.11129887535691405,1375.8241758241757,-1.0,78.32988047808765,1.262253942652032,
2023-08-11 19:54:28.520000,-8.855421686746988,-0.5903614457831325,-4.19277108433735,-0.5248313917841815,-8.694665849172287,-3.8283261802575104,3.0,1.2562992562992563,795.9886905813747,0.024007924946099175,0.3452013285939041,-0.3866907522871626,1377.2893772893772,-1.0,78.32988047808765,1.2621961891134694,
2023-08-11 19:54:28.528000,-8.807228915662652,-0.6144578313253012,-4.168674698795181,-0.5836909871244634,-8.67259350091968,-3.818516247700797,3.0,1.2562992562992563,795.9886905813747,0.006293339548977319,0.3883223588368969,0.25744420488316544,1378.7545787545787,-1.0,78.32988047808765,1.2621384390848216,
2023-08-11 19:54:28.535000,-8.831325301204819,-0.5903614457831325,-4.1807228915662655,-0.4757817290006131,-8.763335377069282,-3.884733292458614,3.0,1.2562992562992563,795.9886905813747,-0.06899364838878884,0.9055416351028489,0.1771458539712138,1379.4871794871794,-1.0,78.32988047808765,1.2620806947009005,
2023-08-11 19:54:28.543000,-8.819277108433736,-0.5903614457831325,-4.204819277108434,-0.5248313917841815,-8.71919068056407,-3.872470876762722,3.0,1.2567432567432568,795.7074721780604,0.1165433249810621,0.6400559407959914,-0.19101450964396022,1379.4871794871794,-1.0,78.32988047808765,1.2620229580426083,
2023-08-11 19:54:28.551000,-8.831325301204819,-0.5662650602409639,-4.216867469879518,-0.4880441446965052,-8.721643163703249,-3.8822808093194356,3.0,1.2562992562992563,795.9886905813747,-0.17201794767204787,0.3609346774663483,0.05372647281626932,1381.6849816849815,-1.0,78.32988047808765,1.261965231310657,
2023-08-11 19:54:28.558000,-8.831325301204819,-0.5662650602409639,-4.204819277108434,-0.4880441446965052,-8.773145309625995,-3.8749233599019006,3.0,1.2562992562992563,795.9886905813747,0.1052386224578984,0.5147718664413492,0.022725948371306936,1386.8131868131868,-1.0,78.32988047808765,1.261907516849027,
2023-08-11 19:54:28.566000,-8.819277108433736,-0.5903614457831325,-4.1807228915662655,-0.5150214592274678,-8.62844880441447,-3.8209687308399753,3.0,1.2562992562992563,795.9886905813747,-0.2018530388671993,-0.020395081871686302,0.11456208845638355,1396.3369963369962,-1.0,78.32988047808765,1.2618498169867094,
2023-08-11 19:54:28.574000,-8.831325301204819,-0.5783132530120483,-4.204819277108434,-0.49785407725321884,-8.679950950337217,-3.847946045370938,3.0,1.2562992562992563,795.9886905813747,-0.20127032224229335,-0.01992890857176122,0.111648505331857,1409.5238095238094,-1.0,78.32988047808765,1.2617921341764893,
2023-08-11 19:54:28.581000,-8.819277108433736,-0.5903614457831325,-4.19277108433735,-0.46842427958307786,-8.711833231146535,-3.825873697118332,3.0,1.2562992562992563,795.9886905813747,-0.26047433133267284,0.24182739933570255,0.09591515645941369,1424.9084249084249,-1.0,78.32988047808765,1.2617344709942269,
2023-08-11 19:54:28.589000,-8.831325301204819,-0.5903614457831325,-4.1807228915662655,-0.4904966278356836,-8.71919068056407,-3.8332311465358675,3.0,1.255855255855256,796.2701078310058,0.09230231338500125,-0.01911310529689363,0.14194976982693305,1441.0256410256409,-1.0,78.32988047808765,1.2616768301374615,
2023-08-11 19:54:28.597000,-8.831325301204819,-0.5783132530120483,-4.204819277108434,-0.48559166155732675,-8.677498467198038,-3.8700183936235435,3.0,1.255855255855256,796.2701078310058,0.244507895810267,-0.02191014509643891,-0.10418973253306914,1455.6776556776556,-1.0,78.32988047808765,1.2616192144128884,
2023-08-11 19:54:28.604000,-8.807228915662652,-0.5903614457831325,-4.168674698795181,-0.5052115266707541,-8.758430410790925,-3.8111587982832615,3.0,1.255855255855256,796.2701078310058,0.06083561564011466,0.07039216828856061,0.049297826466989284,1469.5970695970695,-1.0,78.32988047808765,1.261561626691616,
2023-08-11 19:54:28.612000,-8.831325301204819,-0.5903614457831325,-4.204819277108434,-0.5297363580625383,-8.694665849172287,-3.808706315144083,3.0,1.255855255855256,796.2701078310058,0.0749373579628219,0.05407610279121226,0.11013344210710352,1479.8534798534797,-1.0,78.32988047808765,1.2615040698953468,
2023-08-11 19:54:28.620000,-8.819277108433736,-0.5783132530120483,-4.19277108433735,-0.48068669527896996,-8.716738197424892,-3.825873697118332,3.0,1.255855255855256,796.2701078310058,0.18169104364547464,0.3424042887943588,0.17038634112231227,1486.4468864468863,-1.0,78.32988047808765,1.2614465469923963,
2023-08-11 19:54:28.627000,-8.819277108433736,-0.5783132530120483,-4.168674698795181,-0.5150214592274678,-8.699570815450643,-3.830778663396689,3.0,1.2562992562992563,795.9886905813747,0.10360701590816322,-0.13693840685274666,0.0015150632247539115,1489.3772893772893,-1.0,78.32988047808765,1.261389060993119,
2023-08-11 19:54:28.635000,-8.831325301204819,-0.5903614457831325,-4.204819277108434,-0.5321888412017167,-8.75107296137339,-3.835683629675046,3.0,1.255855255855256,796.2701078310058,-0.15675077209952878,-0.014218285647689819,-0.0748208146378415,1492.3076923076922,-1.0,78.32988047808765,1.2613316152328822,
2023-08-11 19:54:28.643000,-8.831325301204819,-0.5783132530120483,-4.204819277108434,-0.43899448191293683,-8.68976088289393,-3.8332311465358675,3.0,1.255855255855256,796.2701078310058,0.012120505798029556,0.2160713245148891,0.11013344210710352,1493.040293040293,-1.0,78.32988047808765,1.261274213080073,
2023-08-11 19:54:28.650000,-8.843373493975903,-0.5903614457831325,-4.204819277108434,-0.5346413243408952,-8.738810545677499,-3.865113427345187,3.0,1.255855255855256,796.2701078310058,-0.04859856651710253,0.10593788240778515,0.032165957694772915,1490.8424908424906,-1.0,78.32988047808765,1.2612168577825726,
2023-08-11 19:54:28.658000,-8.855421686746988,-0.5783132530120483,-4.204819277108434,-0.5370938074800735,-8.68976088289393,-3.8700183936235435,3.0,1.255855255855256,796.2701078310058,-0.2160713245148891,0.09067070683526607,-0.016082978847386676,1488.6446886446886,-1.0,78.32988047808765,1.261159552590785,
2023-08-11 19:54:28.666000,-8.843373493975903,-0.6024096385542169,-4.204819277108434,-0.5076640098099325,-8.702023298589822,-3.8577559779276513,3.0,1.255855255855256,796.2701078310058,-0.23028961016257718,0.05885437911543697,0.08833984033564457,1487.9120879120878,-1.0,78.32988047808765,1.2611023007628284,
2023-08-11 19:54:28.673000,-8.843373493975903,-0.5783132530120483,-4.1807228915662655,-0.5370938074800735,-8.709380748007357,-3.843041079092581,3.0,1.2545232545232547,797.1155547690673,-0.013635569022783902,-0.05046325971679939,0.19404463609346762,1482.7838827838827,-1.0,78.32988047808765,1.261045105687378,
2023-08-11 19:54:28.681000,-8.855421686746988,-0.5783132530120483,-4.156626506024097,-0.4414469650521152,-8.670141017780502,-3.825873697118332,3.0,1.2549672549672553,796.8335397134264,0.26163976458248295,-0.05384301614125059,0.19217994289377077,1476.923076923077,-1.0,78.32988047808765,1.2609879705593918,
2023-08-11 19:54:28.689000,-8.843373493975903,-0.5783132530120483,-4.168674698795181,-0.463519313304721,-8.733905579399142,-3.8577559779276513,3.0,1.2549672549672553,796.8335397134264,-0.18169104364547464,-0.2549967950585631,-0.0825126740865919,1468.131868131868,-1.0,78.32988047808765,1.2609308982797585,
2023-08-11 19:54:28.696000,-8.843373493975903,-0.5783132530120483,-4.168674698795181,-0.5003065603923973,-8.699570815450643,-3.8798283261802573,3.0,1.2549672549672553,796.8335397134264,0.2631548278072373,0.33960724899481354,-0.004661732999242571,1458.6080586080584,-1.0,78.32988047808765,1.26087389160845,
2023-08-11 19:54:28.704000,-8.831325301204819,-0.5783132530120483,-4.168674698795181,-0.47087676272225626,-8.71919068056407,-3.825873697118332,3.0,1.2554112554112555,796.5517241379309,-6.992599498867545E-4,0.2283083736378995,0.19451080939339183,1449.084249084249,-1.0,78.32988047808765,1.2608169531680529,
2023-08-11 19:54:28.711000,-8.831325301204819,-0.5662650602409639,-4.1807228915662655,-0.5052115266707541,-8.726548129981605,-3.830778663396689,3.0,1.2549672549672553,796.8335397134264,0.08985490356039848,0.17854437387098687,-0.1280811141541866,1442.4908424908424,674.072265625,89.0112278160087,1.26076008558592,
2023-08-11 19:54:28.719000,-8.819277108433736,-0.5783132530120483,-4.19277108433735,-0.49785407725321884,-8.711833231146535,-3.867565910484365,3.0,1.2549672549672553,796.8335397134264,-0.1713186877221611,0.4217702931064629,0.22551133383835423,1438.8278388278388,-1.0,89.0112278160087,1.2607032913596277,
2023-08-11 19:54:28.727000,-8.843373493975903,-0.5662650602409639,-4.19277108433735,-0.42918454935622313,-8.692213366033108,-3.8871857755977928,3.0,1.2549672549672553,796.8335397134264,-0.033914107569489364,-0.11444554513140184,0.04277140026804986,1438.095238095238,-1.0,89.0112278160087,1.26064657269105,
2023-08-11 19:54:28.734000,-8.819277108433736,-0.5903614457831325,-4.1807228915662655,-0.5076640098099325,-8.721643163703249,-3.889638258736971,3.0,1.2549672549672553,796.8335397134264,0.10547170910786008,0.25336518850882794,-0.18530388671988796,1438.095238095238,-1.0,89.0112278160087,1.2605899316185931,
2023-08-11 19:54:28.742000,-8.843373493975903,-0.5662650602409639,-4.204819277108434,-0.48068669527896996,-8.704475781729,-3.884733292458614,3.0,1.2549672549672553,796.8335397134264,0.12050579803041749,0.3438028086941323,0.21374045801526717,1438.095238095238,-1.0,89.0112278160087,1.260533370011081,
2023-08-11 19:54:28.750000,-8.843373493975903,-0.5903614457831325,-4.216867469879518,-0.5076640098099325,-8.738810545677499,-3.8798283261802573,3.0,1.2549672549672553,796.8335397134264,-0.0025639531495836093,0.17574733407144158,-0.0023308664996210685,1438.8278388278388,-1.0,89.0112278160087,1.260476889562178,
2023-08-11 19:54:28.757000,-8.819277108433736,-0.5783132530120483,-4.1807228915662655,-0.5003065603923973,-8.682403433476395,-3.76701410177805,3.0,1.2545232545232547,797.1155547690673,0.11957345143056906,-0.2200337975642445,-0.033564477594545554,1441.7582417582416,-1.0,89.0112278160087,1.2604204919242352,
2023-08-11 19:54:28.765000,-8.807228915662652,-0.5662650602409639,-4.168674698795181,-0.510116492949111,-8.748620478234212,-3.867565910484365,3.0,1.2545232545232547,797.1155547690673,0.1942777227434293,-0.11083270205698896,-0.1713186877221607,1448.3516483516482,-1.0,89.0112278160087,1.2603641785345019,
2023-08-11 19:54:28.773000,-8.807228915662652,-0.5662650602409639,-4.204819277108434,-0.522378908645003,-8.670141017780502,-3.806253832004905,3.0,1.2545232545232547,797.1155547690673,-0.11269739525668582,0.010955072548219456,-0.1847211700949829,1452.7472527472526,-1.0,89.0112278160087,1.2603079504420625,
2023-08-11 19:54:28.780000,-8.819277108433736,-0.5662650602409639,-4.168674698795181,-0.4537093807480073,-8.731453096259962,-3.8454935622317596,3.0,1.2545232545232547,797.1155547690673,0.29939980187634685,-0.14544606957636508,-0.30592622807528713,1454.212454212454,-1.0,89.0112278160087,1.260251808443838,
2023-08-11 19:54:28.788000,-8.807228915662652,-0.5903614457831325,-4.204819277108434,-0.5027590435315757,-8.75107296137339,-3.806253832004905,3.0,1.2545232545232547,797.1155547690673,-0.09987762950876951,0.06398228541460245,-0.21105996154070272,1452.7472527472526,-1.0,89.0112278160087,1.2601957529438597,
2023-08-11 19:54:28.796000,-8.819277108433736,-0.5783132530120483,-4.19277108433735,-0.45616186388718577,-8.64316370324954,-3.8749233599019006,3.0,1.2545232545232547,797.1155547690673,0.12773148417924324,0.07447118466289857,-0.07190723151331495,1448.3516483516482,-1.0,89.0112278160087,1.2601397841112874,
2023-08-11 19:54:28.803000,-8.819277108433736,-0.5903614457831325,-4.156626506024097,-0.510116492949111,-8.716738197424892,-3.8234212139791537,3.0,1.2545232545232547,797.1155547690673,0.11141541868189489,-0.250335062059321,-0.07190723151331495,1440.2930402930401,-1.0,89.0112278160087,1.260083902007909,
2023-08-11 19:54:28.811000,-8.807228915662652,-0.5783132530120483,-4.204819277108434,-0.5469037400367872,-8.724095646842427,-3.838136112814224,3.0,1.254079254079254,797.3977695167285,0.07983217761202745,0.20849600839111912,0.003030126449507389,1431.5018315018315,-1.0,89.0112278160087,1.260028106440027,
2023-08-11 19:54:28.819000,-8.843373493975903,-0.6024096385542169,-4.1807228915662655,-0.49540159411404044,-8.743715511955855,-3.830778663396689,3.0,1.254079254079254,797.3977695167285,0.0632830254647157,-0.09941145620884616,-0.1963755025930891,1424.1758241758241,-1.0,89.0112278160087,1.2599723968115362,
2023-08-11 19:54:28.826000,-8.855421686746988,-0.6024096385542169,-4.228915662650603,-0.49785407725321884,-8.694665849172287,-3.896995708154506,3.0,1.2536352536352537,797.680184168585,-0.15115669250043648,-0.09603169978439496,-0.08927218693549344,1415.3846153846152,-1.0,89.0112278160087,1.2599167721057143,
2023-08-11 19:54:28.834000,-8.843373493975903,-0.5903614457831325,-4.216867469879518,-0.598405885959534,-8.702023298589822,-3.835683629675046,3.0,1.2536352536352537,797.680184168585,-0.08880601363556921,-0.2612901346075404,0.04859856651710253,1408.7912087912086,-1.0,89.0112278160087,1.2598612312942727,
2023-08-11 19:54:28.842000,-8.843373493975903,-0.6144578313253012,-4.228915662650603,-0.5321888412017167,-8.763335377069282,-3.9215205395462904,3.0,1.254079254079254,797.3977695167285,-0.3933337218110833,-0.3614008507662716,0.1709690577472173,1404.3956043956043,-1.0,89.0112278160087,1.25980577312021,
2023-08-11 19:54:28.849000,-8.807228915662652,-0.6024096385542169,-4.216867469879518,-0.5444512568976088,-8.748620478234212,-3.8503985285101163,3.0,1.254079254079254,797.3977695167285,-0.1131635685566109,-0.4336577122545308,0.17026979779733098,1400.7326007326005,-1.0,89.0112278160087,1.2597503958277754,
2023-08-11 19:54:28.857000,-8.819277108433736,-0.6024096385542169,-4.228915662650603,-0.5248313917841815,-8.758430410790925,-3.872470876762722,3.0,1.254079254079254,797.3977695167285,-0.11223122195676248,-0.43062758580502386,0.17015325447235016,1397.069597069597,-1.0,89.0112278160087,1.2596950973615268,
2023-08-11 19:54:28.865000,-8.819277108433736,-0.5903614457831325,-4.228915662650603,-0.5003065603923973,-8.726548129981605,-3.867565910484365,3.0,1.254079254079254,797.3977695167285,0.026571878095682785,-0.2883281860031466,0.2311054134374452,1395.6043956043954,-1.0,89.0112278160087,1.259639875385669,
2023-08-11 19:54:28.872000,-8.807228915662652,-0.5903614457831325,-4.1807228915662655,-0.5125689760882893,-8.697118332311465,-3.872470876762722,3.0,1.254079254079254,797.3977695167285,-0.43377425557951166,-0.43866907522871545,-0.01689878212225383,1394.8717948717947,-1.0,89.0112278160087,1.259584727432954,
2023-08-11 19:54:28.880000,-8.783132530120483,-0.5783132530120483,-4.216867469879518,-0.4316370324954016,-8.699570815450643,-3.855303494788473,3.0,1.254079254079254,797.3977695167285,-0.2632713711322181,-0.8014684458947606,-0.16840510459763414,1393.4065934065934,-1.0,89.0112278160087,1.2595296508958682,
2023-08-11 19:54:28.888000,-8.783132530120483,-0.5903614457831325,-4.216867469879518,-0.5125689760882893,-8.682403433476395,-3.7939914163090127,3.0,1.254079254079254,797.3977695167285,-0.4756133092477135,-1.1466697744886665,0.4907639414952509,1390.4761904761904,-1.0,89.0112278160087,1.2594746428916654,
2023-08-11 19:54:28.895000,-8.771084337349398,-0.6144578313253012,-4.204819277108434,-0.45616186388718577,-8.670141017780502,-3.830778663396689,3.0,1.2536352536352537,797.680184168585,-0.9455159955713539,-1.2751005186177964,0.4537031641512733,1387.5457875457876,-1.0,89.0112278160087,1.259419700278007,
2023-08-11 19:54:28.903000,-8.771084337349398,-0.5903614457831325,-4.1807228915662655,-0.5272838749233598,-8.635806253832005,-3.816063764561618,3.0,1.254079254079254,797.3977695167285,-0.7090495891847802,-1.8148126566050933,0.4660567565992658,1382.4175824175823,-1.0,89.0112278160087,1.2593648195206428,
2023-08-11 19:54:28.911000,-8.783132530120483,-0.5783132530120483,-4.1807228915662655,-0.47087676272225626,-8.706928264868179,-3.8038013488657265,3.0,1.2536352536352537,797.680184168585,-0.8875939630557653,-1.6781073364023082,0.2639706310821049,1379.4871794871794,-1.0,89.0112278160087,1.259309996839175,
2023-08-11 19:54:28.918000,-8.795180722891567,-0.6024096385542169,-4.1807228915662655,-0.47087676272225626,-8.64316370324954,-3.8283261802575104,3.0,1.2536352536352537,797.680184168585,-0.7281626944816738,-1.7575898840393915,0.4900646815453646,1379.4871794871794,-1.0,89.0112278160087,1.2592552282364267,
2023-08-11 19:54:28.926000,-8.795180722891567,-0.5783132530120483,-4.1807228915662655,-0.47332924586143466,-8.71919068056407,-3.796443899448191,3.0,1.2536352536352537,797.680184168585,-0.5550958568847967,-1.1311695122661858,0.39449915506089384,1382.4175824175823,-1.0,89.0112278160087,1.2592005093587426,
2023-08-11 19:54:28.934000,-8.831325301204819,-0.5662650602409639,-4.1807228915662655,-0.4757817290006131,-8.721643163703249,-3.8283261802575104,3.0,1.2536352536352537,797.680184168585,-0.6577705261931115,-1.3640230755783465,0.4841209719713302,1387.5457875457876,-1.0,89.0112278160087,1.2591458357941365,
2023-08-11 19:54:28.941000,-8.831325301204819,-0.5903614457831325,-4.19277108433735,-0.4659717964438994,-8.729000613120784,-3.816063764561618,3.0,1.2536352536352537,797.680184168585,-0.010372355923315273,-0.8046151156692501,0.2369325796864983,1391.2087912087911,-1.0,89.0112278160087,1.2590912030737522,
2023-08-11 19:54:28.949000,-8.855421686746988,-0.5542168674698795,-4.19277108433735,-0.5125689760882893,-8.748620478234212,-3.86020846106683,3.0,1.2536352536352537,797.680184168585,0.09719713303420506,-0.24765456558475654,0.37387098653924583,1391.2087912087911,-1.0,89.0112278160087,1.2590366065469152,
2023-08-11 19:54:28.957000,-8.831325301204819,-0.5783132530120483,-4.204819277108434,-0.5125689760882893,-8.679950950337217,-3.830778663396689,3.0,1.2531912531912532,797.9627989371124,0.4770118291474853,0.0759862478876529,0.12726531087931944,1386.080586080586,-1.0,89.0112278160087,1.2589820414064528,
2023-08-11 19:54:28.964000,-8.855421686746988,-0.5542168674698795,-4.144578313253012,-0.4537093807480073,-8.809932556713672,-3.8626609442060085,3.0,1.2531912531912532,797.9627989371124,0.5967018239030352,0.45696637725074324,0.00384592972437498,1378.7545787545787,-1.0,89.0112278160087,1.2589275025656925,
2023-08-11 19:54:28.972000,-8.855421686746988,-0.5662650602409639,-4.168674698795181,-0.4537093807480073,-8.753525444512569,-3.8700183936235435,3.0,1.2536352536352537,797.680184168585,0.7160421886836426,0.5597575898840389,0.11234776528174331,1374.3589743589744,-1.0,89.0112278160087,1.2588729846637852,
2023-08-11 19:54:28.980000,-8.867469879518072,-0.5421686746987953,-4.168674698795181,-0.43408951563458,-8.743715511955855,-3.8454935622317596,3.0,1.2523032523032522,798.5286296755894,0.6188450556494375,0.5108093933919938,-0.31571586737369606,1370.6959706959706,-1.0,89.0112278160087,1.258818482380166,
2023-08-11 19:54:28.987000,-8.819277108433736,-0.5662650602409639,-4.1807228915662655,-0.4095646842427958,-8.743715511955855,-3.8283261802575104,3.0,1.2527472527472527,798.2456140350877,0.7223355282326199,0.6478643435697213,-0.05279412621642089,1370.6959706959706,-1.0,89.0112278160087,1.2587639903131227,
2023-08-11 19:54:28.995000,-8.855421686746988,-0.5662650602409639,-4.156626506024097,-0.48559166155732675,-8.73635806253832,-3.818516247700797,3.0,1.2527472527472527,798.2456140350877,0.42666511275566676,0.5538138803100058,-0.17644659402132748,1373.6263736263736,-1.0,89.0112278160087,1.2587095029133406,
2023-08-11 19:54:29.003000,-8.843373493975903,-0.5903614457831325,-4.156626506024097,-0.48068669527896996,-8.697118332311465,-3.7694665849172284,3.0,1.2527472527472527,798.2456140350877,0.7901637433715987,0.4613950236000237,-0.05186177961657246,1375.091575091575,-1.0,89.0112278160087,1.258655014512371,
2023-08-11 19:54:29.010000,-8.819277108433736,-0.5783132530120483,-4.156626506024097,-0.522378908645003,-8.682403433476395,-3.808706315144083,3.0,1.2527472527472527,798.2456140350877,0.5111590233669363,0.6907522871627525,-0.24928617213449084,1375.8241758241757,-1.0,89.0112278160087,1.2586005193721472,
2023-08-11 19:54:29.018000,-8.843373493975903,-0.5662650602409639,-4.144578313253012,-0.48313917841814835,-8.71919068056407,-3.7915389331698344,3.0,1.2531912531912532,797.9627989371124,0.7059029194102907,0.47572985257269435,-0.4620942835499096,1376.5567765567764,-1.0,89.0112278160087,1.258546011702882,
2023-08-11 19:54:29.026000,-8.843373493975903,-0.5903614457831325,-4.156626506024097,-0.510116492949111,-8.731453096259962,-3.7572041692213363,3.0,1.2527472527472527,798.2456140350877,0.5030009906182622,0.47444787599790167,-0.29170794242759734,1377.2893772893772,-1.0,89.0112278160087,1.2584914857125442,
2023-08-11 19:54:29.033000,-8.819277108433736,-0.5903614457831325,-4.144578313253012,-0.43899448191293683,-8.758430410790925,-3.830778663396689,3.0,1.2527472527472527,798.2456140350877,0.5458889342112933,0.7327078841559351,-0.33634403589534406,1376.5567765567764,-1.0,89.0112278160087,1.2584369356563474,
2023-08-11 19:54:29.041000,-8.831325301204819,-0.5542168674698795,-4.144578313253012,-0.4880441446965052,-8.76578786020846,-3.779276517473942,3.0,1.2527472527472527,798.2456140350877,0.20534933861663132,0.9582192179942893,-0.04451955014276544,1374.3589743589744,-1.0,89.0112278160087,1.2583823557054181,
2023-08-11 19:54:29.049000,-8.855421686746988,-0.5421686746987953,-4.168674698795181,-0.5003065603923973,-8.758430410790925,-3.8234212139791537,3.0,1.2527472527472527,798.2456140350877,0.4186236233319734,1.104481090845522,-0.19800710914282388,1371.4285714285713,-1.0,89.0112278160087,1.2583277401132744,
2023-08-11 19:54:29.056000,-8.831325301204819,-0.5421686746987953,-4.168674698795181,-0.43899448191293683,-8.675045984058858,-3.843041079092581,3.0,1.2527472527472527,798.2456140350877,0.23401899656197264,0.8192995746168633,0.3520773847677873,1367.7655677655678,-1.0,89.0112278160087,1.258273083382201,
2023-08-11 19:54:29.064000,-8.879518072289157,-0.5180722891566265,-4.156626506024097,-0.38994481912936846,-8.755977927651747,-3.8283261802575104,3.0,1.2527472527472527,798.2456140350877,0.24765456558475654,0.6744362216654041,-0.1390361867024065,1363.3699633699632,-1.0,89.0112278160087,1.25821838027036,
2023-08-11 19:54:29.071000,-8.879518072289157,-0.5180722891566265,-4.132530120481928,-0.46106683016554256,-8.829552421827099,-3.816063764561618,3.0,1.2527472527472527,798.2456140350877,0.2591923547578819,-0.24742147893479485,0.21397354466522928,1363.3699633699632,-1.0,89.0112278160087,1.258163625671103,
2023-08-11 19:54:29.079000,-8.879518072289157,-0.5301204819277109,-4.156626506024097,-0.49540159411404044,-8.814837522992029,-3.789086450030656,3.0,1.2523032523032522,798.5286296755894,-0.15675077209952878,-0.7949420196958216,0.14952508595070219,1365.5677655677655,-1.0,89.0112278160087,1.2581088146411554,
2023-08-11 19:54:29.087000,-8.855421686746988,-0.5180722891566265,-4.1084337349397595,-0.42918454935622313,-8.768240343347639,-3.7424892703862658,3.0,1.2527472527472527,798.2456140350877,0.040557077093409194,-1.2020278538546696,0.1334421071033155,1367.7655677655678,-1.0,89.0112278160087,1.258053942279044,
2023-08-11 19:54:29.094000,-8.879518072289157,-0.5542168674698795,-4.1084337349397595,-0.43899448191293683,-8.78050275904353,-3.7596566523605146,3.0,1.2523032523032522,798.5286296755894,0.4506730377017659,-0.4010255812598341,0.13437445370316436,1366.3003663003662,-1.0,89.0112278160087,1.2579990038797344,
2023-08-11 19:54:29.102000,-8.855421686746988,-0.5662650602409639,-4.0843373493975905,-0.4463519313304721,-8.787860208461066,-3.7302268546903736,3.0,1.2523032523032522,798.5286296755894,0.570246489132335,0.6997261231862942,0.5024182739933571,1361.904761904762,-1.0,89.0112278160087,1.2579439951096973,
2023-08-11 19:54:29.110000,-8.867469879518072,-0.5421686746987953,-4.144578313253012,-0.5125689760882893,-8.738810545677499,-3.747394236664623,3.0,1.2523032523032522,798.5286296755894,0.9618320610687022,1.246547403997436,0.2537148184837713,1354.5787545787546,-1.0,89.0112278160087,1.2578889118518168,
2023-08-11 19:54:29.117000,-8.831325301204819,-0.5662650602409639,-4.156626506024097,-0.5027590435315757,-8.684855916615573,-3.8111587982832615,3.0,1.2523032523032522,798.5286296755894,1.3366353942077962,1.513315074879086,0.2371656663364604,1346.5201465201465,-1.0,89.0112278160087,1.2578337500810057,
2023-08-11 19:54:29.125000,-8.819277108433736,-0.5783132530120483,-4.156626506024097,-0.47332924586143466,-8.655426118945432,-3.776824034334764,3.0,1.2523032523032522,798.5286296755894,0.9585688479692319,1.7151681137462853,0.03927510051861782,1339.194139194139,-1.0,89.0112278160087,1.2577785059084847,
2023-08-11 19:54:29.133000,-8.759036144578314,-0.5783132530120483,-4.144578313253012,-0.5346413243408952,-8.640711220110362,-3.8332311465358675,3.0,1.2514152514152515,799.0952634379988,0.9518093351203313,1.7033972379231983,0.03799312394382602,1333.3333333333333,-1.0,89.0112278160087,1.2577231757526055,
2023-08-11 19:54:29.140000,-8.759036144578314,-0.5783132530120483,-4.1807228915662655,-0.5248313917841815,-8.677498467198038,-3.8700183936235435,3.0,1.251859251859252,798.8118460719985,0.9455159955713539,2.088456383660625,0.5111590233669367,1331.135531135531,-1.0,89.0112278160087,1.2576677563384464,
2023-08-11 19:54:29.148000,-8.771084337349398,-0.6144578313253012,-4.204819277108434,-0.5444512568976088,-8.702023298589822,-3.90680564071122,3.0,1.251859251859252,798.8118460719985,0.741099003554571,1.8603810966726888,0.14078433657712253,1332.6007326007325,-1.0,89.0112278160087,1.2576122447823748,
2023-08-11 19:54:29.156000,-8.783132530120483,-0.6265060240963856,-4.228915662650603,-0.5052115266707541,-8.650521152667075,-3.914163090128755,3.0,1.251859251859252,798.8118460719985,1.0093817376609755,2.077734397762369,0.20033797564244493,1334.7985347985348,-1.0,89.0112278160087,1.2575566384722174,
2023-08-11 19:54:29.163000,-8.795180722891567,-0.6024096385542169,-4.265060240963856,-0.5346413243408952,-8.670141017780502,-3.9288779889638255,3.0,1.251859251859252,798.8118460719985,0.49705728104422736,1.592797622516171,0.029135831245265524,1339.9267399267399,-1.0,89.0112278160087,1.257500935105777,
2023-08-11 19:54:29.171000,-8.795180722891567,-0.6144578313253012,-4.289156626506024,-0.49785407725321884,-8.699570815450643,-3.960760269773145,3.0,1.251859251859252,798.8118460719985,0.5237457024648909,1.6862653691509824,-0.048715109842083805,1343.5897435897434,-1.0,89.0112278160087,1.257445132835124,
2023-08-11 19:54:29.179000,-8.771084337349398,-0.6265060240963856,-4.27710843373494,-0.568976088289393,-8.682403433476395,-3.919068056407112,3.0,1.251859251859252,798.8118460719985,0.6749023949653292,1.7030476079482542,-0.2778392867548513,1345.7875457875457,-1.0,89.0112278160087,1.2573892301327056,
2023-08-11 19:54:29.186000,-8.759036144578314,-0.6385542168674699,-4.289156626506024,-0.5248313917841815,-8.714285714285714,-3.9288779889638255,3.0,1.251859251859252,798.8118460719985,0.37853271953848755,1.6870811724258483,-0.4148942369325797,1348.7179487179487,-1.0,89.0112278160087,1.2573332258053276,
2023-08-11 19:54:29.194000,-8.807228915662652,-0.6385542168674699,-4.301204819277109,-0.5714285714285714,-8.704475781729,-3.9043531575720416,3.0,1.251859251859252,798.8118460719985,0.22434590058854412,1.5788124235184429,-0.5509002971854788,1353.113553113553,-1.0,89.0112278160087,1.257277119006714,
2023-08-11 19:54:29.202000,-8.819277108433736,-0.6144578313253012,-4.27710843373494,-0.4880441446965052,-8.73635806253832,-3.958307786633967,3.0,1.251859251859252,798.8118460719985,0.3415884855194912,1.5960608356156396,-0.10349047258318282,1356.7765567765566,-1.0,89.0112278160087,1.2572209092486888,
2023-08-11 19:54:29.209000,-8.831325301204819,-0.6385542168674699,-4.27710843373494,-0.539546290619252,-8.677498467198038,-3.9313304721030042,3.0,1.251859251859252,798.8118460719985,-0.18122487034555132,1.3667035720529108,-0.254763708408601,1357.5091575091574,-1.0,89.0112278160087,1.2571645964110256,
2023-08-11 19:54:29.217000,-8.831325301204819,-0.6144578313253012,-4.265060240963856,-0.5150214592274678,-8.704475781729,-3.919068056407112,3.0,1.251859251859252,798.8118460719985,-0.19672513256803206,0.7112639123594195,-0.19252957286871414,1355.3113553113553,-1.0,89.0112278160087,1.257108180749994,
2023-08-11 19:54:29.225000,-8.867469879518072,-0.6144578313253012,-4.265060240963856,-0.5419987737584304,-8.75107296137339,-3.9509503372164314,3.0,1.251859251859252,798.8118460719985,-0.28716275275333647,0.018646931996970283,-0.022842491696288207,1352.3809523809523,-1.0,89.0112278160087,1.257051662905681,
2023-08-11 19:54:29.232000,-8.831325301204819,-0.6265060240963856,-4.228915662650603,-0.5003065603923973,-8.773145309625995,-3.8528510116492947,3.0,1.251859251859252,798.8118460719985,-0.1329759338033913,-0.8534467688363161,-0.08356156401142116,1347.985347985348,-1.0,89.0112278160087,1.2569950439081081,
2023-08-11 19:54:29.240000,-8.855421686746988,-0.5783132530120483,-4.204819277108434,-0.539546290619252,-8.655426118945432,-3.7522992029429796,3.0,1.251859251859252,798.8118460719985,-0.099527999533827,-1.1240603694423408,0.2849484295786958,1345.054945054945,-1.0,89.0112278160087,1.2569383253209876,
2023-08-11 19:54:29.248000,-8.843373493975903,-0.5903614457831325,-4.168674698795181,-0.4316370324954016,-8.694665849172287,-3.808706315144083,3.0,1.2514152514152515,799.0952634379988,0.0075753161237682555,-1.08560107219859,0.09906182623390235,1342.8571428571427,-1.0,89.0112278160087,1.25688150922528,
2023-08-11 19:54:29.255000,-8.831325301204819,-0.5662650602409639,-4.144578313253012,-0.510116492949111,-8.704475781729,-3.8111587982832615,3.0,1.2514152514152515,799.0952634379988,0.20534933861663132,-0.9265194335994411,-0.010022725948371463,1343.5897435897434,-1.0,89.0112278160087,1.2568245979248587,
2023-08-11 19:54:29.263000,-8.795180722891567,-0.5421686746987953,-4.168674698795181,-0.43408951563458,-8.679950950337217,-3.8013488657265477,3.0,1.2514152514152515,799.0952634379988,0.4497406911019175,-0.26583532428180173,0.21863527766447186,1347.985347985348,-1.0,89.0112278160087,1.2567675939277454,
2023-08-11 19:54:29.271000,-8.795180722891567,-0.5301204819277109,-4.156626506024097,-0.49540159411404044,-8.724095646842427,-3.8577559779276513,3.0,1.2514152514152515,799.0952634379988,0.5838820581551188,0.13250976050346794,-0.0599032690402658,1354.5787545787546,-1.0,89.0112278160087,1.2567105000852519,
2023-08-11 19:54:29.278000,-8.807228915662652,-0.5421686746987953,-4.1807228915662655,-0.47087676272225626,-8.65787860208461,-3.8822808093194356,3.0,1.2514152514152515,799.0952634379988,0.6858574675135487,0.4953091311695131,-0.12178777460520929,1361.1721611721612,-1.0,89.0112278160087,1.2566533195911918,
2023-08-11 19:54:29.286000,-8.795180722891567,-0.5542168674698795,-4.204819277108434,-0.42918454935622313,-8.667688534641323,-3.838136112814224,3.0,1.2505272505272507,799.6627019350257,0.6648796690169564,0.8864285298059552,-0.16607423809801306,1367.7655677655678,-1.0,89.0112278160087,1.2565960559800178,
2023-08-11 19:54:29.294000,-8.807228915662652,-0.5662650602409639,-4.253012048192772,-0.44880441446965047,-8.670141017780502,-3.9215205395462904,3.0,1.2505272505272507,799.6627019350257,0.8417924363382081,1.410756948895752,-0.27119631723093063,1374.3589743589744,-1.0,89.0112278160087,1.2565387131028827,
2023-08-11 19:54:29.301000,-8.807228915662652,-0.5903614457831325,-4.27710843373494,-0.47087676272225626,-8.724095646842427,-3.9632127529123236,3.0,1.2509712509712512,799.3788819875775,0.6507779266942492,1.4270730143931005,-0.2537148184837713,1379.4871794871794,-1.0,89.0112278160087,1.256481295039372,
2023-08-11 19:54:29.309000,-8.831325301204819,-0.5903614457831325,-4.289156626506024,-0.5591661557326794,-8.684855916615573,-3.9730226854690374,3.0,1.2509712509712512,799.3788819875775,0.32375735679738854,1.1988811840801818,-0.4806246722218986,1383.150183150183,-1.0,89.0112278160087,1.2564238060816293,
2023-08-11 19:54:29.317000,-8.819277108433736,-0.6024096385542169,-4.313253012048193,-0.522378908645003,-8.694665849172287,-3.9337829552421826,3.0,1.2509712509712512,799.3788819875775,0.27457607365538184,1.4634345317871909,-0.5217644659402133,1386.080586080586,-1.0,89.0112278160087,1.2563662507698028,
2023-08-11 19:54:29.324000,-8.795180722891567,-0.6265060240963856,-4.289156626506024,-0.48313917841814835,-8.679950950337217,-3.965665236051502,3.0,1.2509712509712512,799.3788819875775,0.08973836023541765,1.0396830021560504,-0.3659460404405338,1389.0109890109889,-1.0,89.0112278160087,1.2563086338948082,
2023-08-11 19:54:29.332000,-8.795180722891567,-0.6024096385542169,-4.301204819277109,-0.5027590435315757,-8.682403433476395,-3.914163090128755,3.0,1.2509712509712512,799.3788819875775,-0.2022026688421418,0.43237573567973814,-0.2105937882407785,1392.6739926739926,-1.0,89.0112278160087,1.256250960489694,
2023-08-11 19:54:29.340000,-8.783132530120483,-0.6024096385542169,-4.289156626506024,-0.5640711220110362,-8.677498467198038,-3.958307786633967,3.0,1.2509712509712512,799.3788819875775,-0.2481207388846799,-0.30406153487559073,-0.45148884097663305,1394.8717948717947,-1.0,89.0112278160087,1.2561932358202708,
2023-08-11 19:54:29.347000,-8.795180722891567,-0.5903614457831325,-4.265060240963856,-0.48068669527896996,-8.645616186388718,-3.9337829552421826,3.0,1.2509712509712512,799.3788819875775,-0.18611968999475512,-0.5488025173358194,-0.23343627993706673,1397.8021978021977,-1.0,89.0112278160087,1.2561354653751307,
2023-08-11 19:54:29.355000,-8.759036144578314,-0.5903614457831325,-4.228915662650603,-0.5346413243408952,-8.706928264868179,-3.8749233599019006,3.0,1.2505272505272507,799.6627019350257,-0.15605151214964202,-0.9905017190140436,-0.06223413553988687,1400.7326007326005,-1.0,89.0112278160087,1.2560776549939359,
2023-08-11 19:54:29.363000,-8.771084337349398,-0.5783132530120483,-4.216867469879518,-0.5076640098099325,-8.679950950337217,-3.835683629675046,3.0,1.2509712509712512,799.3788819875775,-0.7216362682827349,-1.078608472699726,-0.48983159489540246,1404.3956043956043,-1.0,89.0112278160087,1.256019810548177,
2023-08-11 19:54:29.370000,-8.771084337349398,-0.5421686746987953,-4.216867469879518,-0.551808706315144,-8.603923973022685,-3.855303494788473,3.0,1.2505272505272507,799.6627019350257,-0.5194335994405913,-1.4247421478934785,-0.5477536274109901,1410.2564102564102,-1.0,89.0112278160087,1.2559619380686684,
2023-08-11 19:54:29.378000,-8.771084337349398,-0.5421686746987953,-4.19277108433735,-0.4904966278356836,-8.635806253832005,-3.872470876762722,3.0,1.2505272505272507,799.6627019350257,-0.5012528407435461,-1.5235708874774205,-0.6514771866441351,1421.9780219780218,-1.0,89.0112278160087,1.2559040438727531,
2023-08-11 19:54:29.386000,-8.759036144578314,-0.5542168674698795,-4.19277108433735,-0.46842427958307786,-8.613733905579398,-3.8332311465358675,3.0,1.2505272505272507,799.6627019350257,-0.20884563836606335,-1.4522463725890098,-0.5232795291649672,1438.095238095238,-1.0,89.0112278160087,1.2558461342441487,
2023-08-11 19:54:29.393000,-8.795180722891567,-0.5421686746987953,-4.204819277108434,-0.48068669527896996,-8.655426118945432,-3.872470876762722,3.0,1.2505272505272507,799.6627019350257,0.006409882873958155,-1.1070450439951056,-0.5824835382553463,1455.6776556776556,-1.0,89.0112278160087,1.2557882155597293,
2023-08-11 19:54:29.401000,-8.795180722891567,-0.5301204819277109,-4.204819277108434,-0.4438994481912937,-8.711833231146535,-3.8283261802575104,3.0,1.2505272505272507,799.6627019350257,-0.23949653283608235,-1.602820348464542,-0.3801643260882236,1471.062271062271,-1.0,89.0112278160087,1.2557302942774322,
2023-08-11 19:54:29.409000,-8.819277108433736,-0.5662650602409639,-4.1807228915662655,-0.49785407725321884,-8.760882893930104,-3.8577559779276513,3.0,1.2505272505272507,799.6627019350257,-0.2399627061360057,-1.5911660159664358,-0.3788823495134318,1487.179487179487,-1.0,89.0112278160087,1.2556723770629112,
2023-08-11 19:54:29.416000,-8.819277108433736,-0.5301204819277109,-4.120481927710844,-0.49785407725321884,-8.58185162477008,-3.7572041692213363,3.0,1.2500832500832497,799.9467234949389,0.26408717440708573,-1.5648272245207164,-0.4826059087465767,1499.6336996336995,-1.0,89.0112278160087,1.255614470757203,
2023-08-11 19:54:29.424000,-8.795180722891567,-0.5662650602409639,-4.156626506024097,-0.4512568976088289,-8.71919068056407,-3.8234212139791537,3.0,1.2500832500832497,799.9467234949389,0.3531262746926166,-0.4380863586038113,-0.7702348347998366,1508.4249084249084,-1.0,89.0112278160087,1.2555565820677168,
2023-08-11 19:54:29.432000,-8.807228915662652,-0.5903614457831325,-4.156626506024097,-0.522378908645003,-8.702023298589822,-3.8013488657265477,3.0,1.2505272505272507,799.6627019350257,0.7468096264786441,0.11549443505623284,-0.551366470485403,1515.018315018315,651.092529296875,92.15280056245606,1.255498717536111,
2023-08-11 19:54:29.439000,-8.807228915662652,-0.5903614457831325,-4.1807228915662655,-0.5272838749233598,-8.675045984058858,-3.818516247700797,3.0,1.2491952491952492,800.5153723120669,0.6324806246722214,0.7565992657770517,-0.9163801643260879,1517.216117216117,-1.0,92.15280056245606,1.2554408838146798,
2023-08-11 19:54:29.447000,-8.819277108433736,-0.6024096385542169,-4.216867469879518,-0.5419987737584304,-8.638258736971183,-3.838136112814224,3.0,1.2496392496392494,800.2309468822172,0.3355282326204773,0.9959792552881533,-0.8195326612668262,1517.216117216117,-1.0,92.15280056245606,1.2553830875063878,
2023-08-11 19:54:29.454000,-8.807228915662652,-0.6024096385542169,-4.204819277108434,-0.5763335377069282,-8.733905579399142,-3.894543225015328,3.0,1.2496392496392494,800.2309468822172,0.49903851756890677,1.3400151506322473,-0.978730843190956,1515.7509157509157,-1.0,92.15280056245606,1.2553253349208418,
2023-08-11 19:54:29.462000,-8.807228915662652,-0.6385542168674699,-4.253012048192772,-0.5272838749233598,-8.662783568362967,-3.9435928877988964,3.0,1.2496392496392494,800.2309468822172,0.46500786667443655,1.419730784919294,-1.246430860672455,1511.3553113553112,-1.0,92.15280056245606,1.2552676322229097,
2023-08-11 19:54:29.470000,-8.819277108433736,-0.6385542168674699,-4.240963855421687,-0.627835683629675,-8.75107296137339,-3.90680564071122,3.0,1.2496392496392494,800.2309468822172,0.4752636792727693,0.922556960550084,-1.220907872501602,1504.7619047619046,-1.0,92.15280056245606,1.255209985432138,
2023-08-11 19:54:29.477000,-8.867469879518072,-0.6265060240963856,-4.27710843373494,-0.5321888412017167,-8.790312691600246,-3.867565910484365,3.0,1.2500832500832497,799.9467234949389,0.14952508595070305,0.6400559407959914,-0.8600897383602351,1497.4358974358972,-1.0,92.15280056245606,1.2551524004118917,
2023-08-11 19:54:29.485000,-8.891566265060241,-0.6385542168674699,-4.265060240963856,-0.5493562231759657,-8.802575107296137,-3.9043531575720416,3.0,1.2500832500832497,799.9467234949389,0.40428879435930276,-0.08694132043587237,-0.9283841267991371,1485.7142857142856,-1.0,92.15280056245606,1.2550948830081907,
2023-08-11 19:54:29.493000,-8.91566265060241,-0.6265060240963856,-4.240963855421687,-0.5591661557326794,-8.829552421827099,-3.9215205395462904,3.0,1.2500832500832497,799.9467234949389,0.20045451896742578,-0.6249053085484532,-0.7069518093351204,1472.5274725274724,-1.0,92.15280056245606,1.2550374390616226,
2023-08-11 19:54:29.500000,-8.891566265060241,-0.6265060240963856,-4.204819277108434,-0.5493562231759657,-8.82709993868792,-3.894543225015328,3.0,1.2496392496392494,800.2309468822172,0.21059378824077937,-1.0377017656313725,-0.3805139560631661,1461.5384615384614,-1.0,92.15280056245606,1.2549800742609478,
2023-08-11 19:54:29.508000,-8.891566265060241,-0.6265060240963856,-4.228915662650603,-0.49294911097486205,-8.800122624156959,-3.789086450030656,3.0,1.2496392496392494,800.2309468822172,0.19392809276848677,-1.1564594137870758,0.0045451896742613,1454.9450549450548,-1.0,92.15280056245606,1.2549227939870886,
2023-08-11 19:54:29.516000,-8.867469879518072,-0.6024096385542169,-4.204819277108434,-0.5542611894543225,-8.746167995095034,-3.8749233599019006,3.0,1.2496392496392494,800.2309468822172,0.4982227142940392,-0.7076510692850068,0.09509935318454654,1452.014652014652,-1.0,92.15280056245606,1.2548656034242864,
2023-08-11 19:54:29.523000,-8.867469879518072,-0.6144578313253012,-4.204819277108434,-0.568976088289393,-8.760882893930104,-3.843041079092581,3.0,1.2496392496392494,800.2309468822172,0.6768836314900069,-0.780607190723151,0.09416700658469768,1452.014652014652,-1.0,92.15280056245606,1.254808507533442,
2023-08-11 19:54:29.531000,-8.831325301204819,-0.5903614457831325,-4.19277108433735,-0.4537093807480073,-8.694665849172287,-3.843041079092581,3.0,1.2496392496392494,800.2309468822172,0.4414661150282625,-0.3917021152613481,0.6560223763183959,1452.014652014652,-1.0,92.15280056245606,1.2547515110579792,
2023-08-11 19:54:29.539000,-8.771084337349398,-0.5783132530120483,-4.168674698795181,-0.4904966278356836,-8.677498467198038,-3.8038013488657265,3.0,1.2496392496392494,800.2309468822172,0.5893595944292286,-0.6313151914224113,-0.01818075869704607,1448.3516483516482,-1.0,92.15280056245606,1.2546946186483787,
2023-08-11 19:54:29.546000,-8.759036144578314,-0.5783132530120483,-4.1807228915662655,-0.49785407725321884,-8.606376456161863,-3.825873697118332,3.0,1.2491952491952492,800.5153723120669,0.4148942369325797,0.09673095973428172,-0.10768603228250118,1441.7582417582416,-1.0,92.15280056245606,1.2546378347109945,
2023-08-11 19:54:29.554000,-8.734939759036145,-0.5903614457831325,-4.1807228915662655,-0.4414469650521152,-8.559779276517473,-3.7866339668914772,3.0,1.2491952491952492,800.5153723120669,0.4110483072082052,-0.1139793718314785,-0.0924188567099821,1437.3626373626373,-1.0,92.15280056245606,1.2545811632579045,
2023-08-11 19:54:29.562000,-8.710843373493976,-0.6024096385542169,-4.19277108433735,-0.5003065603923973,-8.589209074187615,-3.838136112814224,3.0,1.2491952491952492,800.5153723120669,0.496591107744304,-0.14194976982693305,-0.1364722335528233,1432.2344322344322,-1.0,92.15280056245606,1.2545246078853123,
2023-08-11 19:54:29.569000,-8.72289156626506,-0.5783132530120483,-4.204819277108434,-0.4880441446965052,-8.591661557326793,-3.8111587982832615,3.0,1.2491952491952492,800.5153723120669,0.6446011304702527,-0.09218577006002042,-0.5773556319561799,1427.106227106227,-1.0,92.15280056245606,1.2544681719120576,
2023-08-11 19:54:29.577000,-8.72289156626506,-0.5903614457831325,-4.216867469879518,-0.5370938074800735,-8.630901287553648,-3.872470876762722,3.0,1.2491952491952492,800.5153723120669,0.3005652351261587,0.1363556902278425,-0.4950760445195505,1423.4432234432234,-1.0,92.15280056245606,1.2544118583804282,
2023-08-11 19:54:29.585000,-8.734939759036145,-0.6024096385542169,-4.228915662650603,-0.5935009196811771,-8.630901287553648,-3.936235438381361,3.0,1.2491952491952492,800.5153723120669,0.2797039799545473,0.424217702931064,-0.7797913874482842,1421.9780219780218,-1.0,92.15280056245606,1.2543556701968208,
2023-08-11 19:54:29.592000,-8.783132530120483,-0.6024096385542169,-4.240963855421687,-0.539546290619252,-8.706928264868179,-3.936235438381361,3.0,1.2483072483072482,801.0848301618354,0.16689004137288066,0.6965794534118064,-1.0929433016723966,1422.7106227106226,-1.0,92.15280056245606,1.254299610114429,
2023-08-11 19:54:29.600000,-8.819277108433736,-0.6265060240963856,-4.265060240963856,-0.5665236051502146,-8.714285714285714,-3.9288779889638255,3.0,1.2487512487512487,800.8000000000001,0.19497698269331604,0.30837363789988864,-1.159023366936658,1424.9084249084249,-1.0,92.15280056245606,1.2542436805684218,
2023-08-11 19:54:29.608000,-8.831325301204819,-0.6265060240963856,-4.265060240963856,-0.5346413243408952,-8.743715511955855,-3.9705702023298586,3.0,1.2487512487512487,800.8000000000001,0.22399627061359986,0.10628751238272767,-0.9515762484703691,1424.9084249084249,-1.0,92.15280056245606,1.2541878836085771,
2023-08-11 19:54:29.615000,-8.855421686746988,-0.6265060240963856,-4.253012048192772,-0.5469037400367872,-8.733905579399142,-3.9411404046597176,3.0,1.2483072483072482,801.0848301618354,-0.3745702464891322,-0.07831711438727311,-0.8055474622690986,1421.9780219780218,-1.0,92.15280056245606,1.2541322207885892,
2023-08-11 19:54:29.623000,-8.855421686746988,-0.6265060240963856,-4.240963855421687,-0.539546290619252,-8.770692826486817,-3.867565910484365,3.0,1.2487512487512487,800.8000000000001,-0.4799254122720114,-0.9486626653458416,-0.4921624613950231,1416.8498168498168,-1.0,92.15280056245606,1.2540766930553058,
2023-08-11 19:54:29.631000,-8.891566265060241,-0.5903614457831325,-4.253012048192772,-0.49785407725321884,-8.805027590435316,-3.9043531575720416,3.0,1.2487512487512487,800.8000000000001,-0.4309772157799664,-2.0391585571936375,0.06363265543965994,1411.7216117216117,-1.0,92.15280056245606,1.2540213011712418,
2023-08-11 19:54:29.638000,-8.879518072289157,-0.6144578313253012,-4.228915662650603,-0.4782342121397915,-8.706928264868179,-3.7326793378295524,3.0,1.2487512487512487,800.8000000000001,-0.9478468620709741,-2.514189149816445,-0.012003962473049587,1405.128205128205,-1.0,92.15280056245606,1.2539660458611717,
2023-08-11 19:54:29.646000,-8.879518072289157,-0.6144578313253012,-4.156626506024097,-0.5297363580625383,-8.790312691600246,-3.7817290006131206,3.0,1.2487512487512487,800.8000000000001,-0.48563603519608456,-2.541809917836955,0.20243575549210477,1402.9304029304028,-1.0,92.15280056245606,1.253910927534243,
2023-08-11 19:54:29.654000,-8.843373493975903,-0.5903614457831325,-4.144578313253012,-0.539546290619252,-8.73635806253832,-3.747394236664623,3.0,1.2487512487512487,800.8000000000001,-0.2699143406561397,-1.513897791503992,0.23343627993706628,1404.3956043956043,-1.0,92.15280056245606,1.2538559462949848,
2023-08-11 19:54:29.661000,-8.819277108433736,-0.5662650602409639,-4.144578313253012,-0.46842427958307786,-8.714285714285714,-3.81361128142244,3.0,1.2487512487512487,800.8000000000001,-0.25476370840860146,-1.3647223355282332,-0.1333255637783351,1405.128205128205,-1.0,92.15280056245606,1.2538011019551842,
2023-08-11 19:54:29.669000,-8.831325301204819,-0.5662650602409639,-4.120481927710844,-0.4904966278356836,-8.687308399754752,-3.7915389331698344,3.0,1.2487512487512487,800.8000000000001,-0.1188741914806823,-0.7892313967717502,-0.07015908163859894,1404.3956043956043,-1.0,92.15280056245606,1.2537463940466544,
2023-08-11 19:54:29.677000,-8.807228915662652,-0.5903614457831325,-4.1807228915662655,-0.4512568976088289,-8.706928264868179,-3.830778663396689,3.0,1.2487512487512487,800.8000000000001,0.24485752578521125,-0.11141541868189489,-0.17458190082163105,1403.6630036630036,-1.0,92.15280056245606,1.25369182183492,
2023-08-11 19:54:29.684000,-8.807228915662652,-0.5903614457831325,-4.204819277108434,-0.5003065603923973,-8.675045984058858,-3.865113427345187,3.0,1.2483072483072482,801.0848301618354,0.24101159606083497,-0.11129887535691405,-0.17050288444729308,1401.4652014652013,-1.0,92.15280056245606,1.253637384333817,
2023-08-11 19:54:29.692000,-8.843373493975903,-0.6024096385542169,-4.216867469879518,-0.49540159411404044,-8.763335377069282,-3.9337829552421826,3.0,1.2483072483072482,801.0848301618354,0.33086649962123343,0.8201153778917308,-0.45650020395081903,1398.5347985347985,-1.0,92.15280056245606,1.2535830803104873,
2023-08-11 19:54:29.700000,-8.807228915662652,-0.6144578313253012,-4.289156626506024,-0.5469037400367872,-8.665236051502145,-3.977927651747394,3.0,1.2483072483072482,801.0848301618354,-0.10244158265835313,1.3001573334887249,-0.14696113280111855,1394.139194139194,-1.0,92.15280056245606,1.2535289081208514,
2023-08-11 19:54:29.707000,-8.819277108433736,-0.6385542168674699,-4.313253012048193,-0.5714285714285714,-8.758430410790925,-3.948497854077253,3.0,1.2483072483072482,801.0848301618354,-0.3153662373987527,1.1855952450323404,0.008158032748674174,1391.2087912087911,-1.0,92.15280056245606,1.2534748658752208,
2023-08-11 19:54:29.715000,-8.819277108433736,-0.6144578313253012,-4.337349397590362,-0.5199264255058246,-8.697118332311465,-4.0,3.0,1.2483072483072482,801.0848301618354,-0.5897092244041728,0.6740865916904616,0.3773672862886779,1389.0109890109889,-1.0,92.15280056245606,1.2534209515834949,
2023-08-11 19:54:29.723000,-8.807228915662652,-0.6385542168674699,-4.27710843373494,-0.4880441446965052,-8.660331085223788,-3.9632127529123236,3.0,1.2483072483072482,801.0848301618354,-0.47957578229706893,-0.09346774663481136,0.3443855253190378,1386.080586080586,-1.0,92.15280056245606,1.2533671630241945,
2023-08-11 19:54:29.730000,-8.771084337349398,-0.6024096385542169,-4.265060240963856,-0.5199264255058246,-8.59656652360515,-3.9043531575720416,3.0,1.2483072483072482,801.0848301618354,-1.04399510518035,-1.0212691568090435,0.5433249810617097,1383.8827838827838,-1.0,92.15280056245606,1.253313497763342,
2023-08-11 19:54:29.738000,-8.771084337349398,-0.6265060240963856,-4.240963855421687,-0.5444512568976088,-8.601471489883506,-3.894543225015328,3.0,1.2483072483072482,801.0848301618354,-1.3282442748091603,-1.5796282267933106,0.769885204824894,1383.150183150183,-1.0,92.15280056245606,1.253259953173884,
2023-08-11 19:54:29.746000,-8.759036144578314,-0.6265060240963856,-4.265060240963856,-0.5591661557326794,-8.606376456161863,-3.889638258736971,3.0,1.2474192474192471,801.6550987720236,-1.1054134374453706,-2.0392751005186183,0.45859798380047756,1378.7545787545787,-1.0,92.15280056245606,1.2532065264556422,
2023-08-11 19:54:29.753000,-8.74698795180723,-0.6265060240963856,-4.204819277108434,-0.5542611894543225,-8.706928264868179,-3.90680564071122,3.0,1.2474192474192471,801.6550987720236,-1.2963114037643486,-2.051861779616573,-0.0916030534351145,1375.091575091575,-1.0,92.15280056245606,1.2531532146347133,
2023-08-11 19:54:29.761000,-8.74698795180723,-0.6144578313253012,-4.204819277108434,-0.5935009196811771,-8.660331085223788,-3.843041079092581,3.0,1.2474192474192471,801.6550987720236,-1.1354816152904836,-1.9891614707767613,-0.22702639706310812,1373.6263736263736,-1.0,92.15280056245606,1.2531000143611966,
2023-08-11 19:54:29.769000,-8.783132530120483,-0.6506024096385542,-4.19277108433735,-0.5003065603923973,-8.71919068056407,-3.8111587982832615,3.0,1.2478632478632479,801.3698630136987,-1.17335819590933,-2.28098595652934,-0.43796981527882956,1372.8937728937728,-1.0,92.15280056245606,1.253046921929209,
2023-08-11 19:54:29.776000,-8.819277108433736,-0.6144578313253012,-4.1807228915662655,-0.5076640098099325,-8.684855916615573,-3.835683629675046,3.0,1.2478632478632479,801.3698630136987,-0.8896917429054256,-2.1421828564768948,-0.44985723442689834,1370.6959706959706,-1.0,92.15280056245606,1.252993933594608,
2023-08-11 19:54:29.784000,-8.831325301204819,-0.6265060240963856,-4.144578313253012,-0.522378908645003,-8.729000613120784,-3.784181483752299,3.0,1.2474192474192471,801.6550987720236,-0.7325913408309543,-1.8965095274168176,-0.5075461802925239,1367.032967032967,-1.0,92.15280056245606,1.2529410456159213,
2023-08-11 19:54:29.792000,-8.843373493975903,-0.6144578313253012,-4.132530120481928,-0.4782342121397915,-8.675045984058858,-3.776824034334764,3.0,1.2478632478632479,801.3698630136987,-0.4361051220791336,-2.1728337509469138,0.1823903035953614,1362.6373626373625,-1.0,92.15280056245606,1.2528882538482011,
2023-08-11 19:54:29.799000,-8.879518072289157,-0.6385542168674699,-4.132530120481928,-0.5370938074800735,-8.79767014101778,-3.779276517473942,3.0,1.2478632478632479,801.3698630136987,-0.6181457956995507,-1.7888234951343163,0.15022434590058892,1358.974358974359,-1.0,92.15280056245606,1.2528355540503355,
2023-08-11 19:54:29.807000,-8.879518072289157,-0.6265060240963856,-4.144578313253012,-0.5910484365419988,-8.814837522992029,-3.816063764561618,3.0,1.2474192474192471,801.6550987720236,-0.6138336926752529,-1.636501369384068,0.5315541052386227,1356.0439560439559,-1.0,92.15280056245606,1.2527829421924697,
2023-08-11 19:54:29.815000,-8.903614457831326,-0.6265060240963856,-4.156626506024097,-0.5469037400367872,-8.795217657878602,-3.7719190680564068,3.0,1.2474192474192471,801.6550987720236,-0.45696637725074324,-1.5334770701008107,0.4519550142765577,1355.3113553113553,-1.0,92.15280056245606,1.2527304140396638,
2023-08-11 19:54:29.822000,-8.867469879518072,-0.6144578313253012,-4.156626506024097,-0.539546290619252,-8.768240343347639,-3.7719190680564068,3.0,1.2474192474192471,801.6550987720236,-0.454169337451198,-1.4581900821630447,0.8315366237398754,1356.7765567765566,-1.0,92.15280056245606,1.2526779651511224,
2023-08-11 19:54:29.830000,-8.879518072289157,-0.6024096385542169,-4.1084337349397595,-0.5174739423666462,-8.817290006131207,-3.754751686082158,3.0,1.2474192474192471,801.6550987720236,0.2813355865042825,-0.927684866849253,0.8708117242584928,1360.4395604395604,-1.0,92.15280056245606,1.25262559103849,
2023-08-11 19:54:29.837000,-8.855421686746988,-0.5783132530120483,-4.132530120481928,-0.48313917841814835,-8.724095646842427,-3.8013488657265477,3.0,1.2478632478632479,801.3698630136987,0.39892780141017387,-0.7828215138977921,0.5594079599090963,1363.3699633699632,-1.0,92.15280056245606,1.2525732871853184,
2023-08-11 19:54:29.845000,-8.831325301204819,-0.5662650602409639,-4.132530120481928,-0.45861434702636417,-8.687308399754752,-3.76701410177805,3.0,1.2474192474192471,801.6550987720236,0.7908630033214854,-0.6708233785909895,0.43459005885437924,1363.3699633699632,-1.0,92.15280056245606,1.25252104935453,
2023-08-11 19:54:29.853000,-8.831325301204819,-0.5421686746987953,-4.132530120481928,-0.4782342121397915,-8.763335377069282,-3.779276517473942,3.0,1.2474192474192471,801.6550987720236,1.101101334421071,-0.5757240254064464,0.7849192937474506,1363.3699633699632,-1.0,92.15280056245606,1.2524688734599687,
2023-08-11 19:54:29.860000,-8.855421686746988,-0.5301204819277109,-4.156626506024097,-0.38994481912936846,-8.721643163703249,-3.7743715511955855,3.0,1.2474192474192471,801.6550987720236,1.3041198065380804,-0.28343336635394273,0.506613833692675,1363.3699633699632,-1.0,92.15280056245606,1.252416755278779,
2023-08-11 19:54:29.868000,-8.867469879518072,-0.5301204819277109,-4.156626506024097,-0.48313917841814835,-8.778050275904352,-3.816063764561618,3.0,1.2469752469752469,801.9405376535518,1.7039799545481025,0.09824602295903433,0.16933745119748256,1361.1721611721612,-1.0,92.15280056245606,1.2523646906107142,
2023-08-11 19:54:29.876000,-8.879518072289157,-0.5301204819277109,-4.144578313253012,-0.5542611894543225,-8.741263028816677,-3.7400367872470874,3.0,1.2469752469752469,801.9405376535518,2.162811024998543,-0.2089621816910442,0.06409882873958415,1357.5091575091574,-1.0,92.15280056245606,1.2523126751491525,
2023-08-11 19:54:29.883000,-8.879518072289157,-0.5542168674698795,-4.132530120481928,-0.48313917841814835,-8.822194972409564,-3.7719190680564068,3.0,1.2469752469752469,801.9405376535518,2.1870520365946033,0.004079016374337954,-0.1185245615057398,1354.5787545787546,-1.0,92.15280056245606,1.252260704479294,
2023-08-11 19:54:29.891000,-8.903614457831326,-0.5783132530120483,-4.168674698795181,-0.4537093807480073,-8.829552421827099,-3.744941753525444,3.0,1.2469752469752469,801.9405376535518,1.8610803566225738,0.2126915680904379,0.17236757764699037,1352.3809523809523,-1.0,92.15280056245606,1.2522087742350712,
2023-08-11 19:54:29.899000,-8.91566265060241,-0.5783132530120483,-4.144578313253012,-0.5370938074800735,-8.802575107296137,-3.8405885959534025,3.0,1.2465312465312466,802.226179875334,1.6274109900355453,0.5696637725074291,0.5423926344618613,1351.6483516483515,-1.0,92.15280056245606,1.2521568801168954,
2023-08-11 19:54:29.906000,-8.855421686746988,-0.6024096385542169,-4.156626506024097,-0.5346413243408952,-8.755977927651747,-3.7228694052728386,3.0,1.2465312465312466,802.226179875334,1.5902336693665875,0.5563778334595894,0.9093875648272243,1353.113553113553,-1.0,92.15280056245606,1.2521050180372169,
2023-08-11 19:54:29.914000,-8.819277108433736,-0.6265060240963856,-4.144578313253012,-0.5321888412017167,-8.746167995095034,-3.7228694052728386,3.0,1.2465312465312466,802.226179875334,1.5091195151797674,1.225919235475788,0.8004195559699322,1357.5091575091574,-1.0,92.15280056245606,1.2520531840748665,
2023-08-11 19:54:29.922000,-8.783132530120483,-0.6385542168674699,-4.156626506024097,-0.6180257510729613,-8.613733905579398,-3.825873697118332,3.0,1.2469752469752469,801.9405376535518,1.167531029660276,1.2041256337043298,0.6907522871627529,1361.904761904762,-1.0,92.15280056245606,1.2520013741940037,
2023-08-11 19:54:29.929000,-8.759036144578314,-0.6385542168674699,-4.168674698795181,-0.5836909871244634,-8.64316370324954,-3.796443899448191,3.0,1.2469752469752469,801.9405376535518,0.7532195093526023,1.105296894120388,0.7515879028028671,1362.6373626373625,-1.0,92.15280056245606,1.2519495844304072,
2023-08-11 19:54:29.937000,-8.72289156626506,-0.6265060240963856,-4.156626506024097,-0.48068669527896996,-8.608828939301041,-3.847946045370938,3.0,1.2469752469752469,801.9405376535518,0.61802925237457,0.7674377950002921,0.3685099935901174,1361.904761904762,-1.0,92.15280056245606,1.25189781107707,
2023-08-11 19:54:29.945000,-8.734939759036145,-0.6265060240963856,-4.19277108433735,-0.5787860208461066,-8.606376456161863,-3.81361128142244,3.0,1.2465312465312466,802.226179875334,0.7577646990268636,0.44542858807761787,0.3707243167647572,1358.2417582417581,-1.0,92.15280056245606,1.251846050560917,
2023-08-11 19:54:29.952000,-8.759036144578314,-0.6265060240963856,-4.19277108433735,-0.5567136725935009,-8.62844880441447,-3.867565910484365,3.0,1.2465312465312466,802.226179875334,0.6416875473457265,0.03834275391876983,-0.010605442573276513,1353.8461538461538,-1.0,92.15280056245606,1.25179429930854,
2023-08-11 19:54:29.960000,-8.771084337349398,-0.6265060240963856,-4.19277108433735,-0.539546290619252,-8.684855916615573,-3.8871857755977928,3.0,1.2465312465312466,802.226179875334,0.6341122312219566,0.035429170794241974,-0.006293339548977319,1350.9157509157508,-1.0,92.15280056245606,1.2517425537389735,
2023-08-11 19:54:29.968000,-8.783132530120483,-0.6144578313253012,-4.228915662650603,-0.49540159411404044,-8.677498467198038,-3.8700183936235435,3.0,1.2465312465312466,802.226179875334,0.33937416234485185,-0.5604568498339274,-0.3855253190373525,1349.4505494505493,-1.0,92.15280056245606,1.2516908104150444,
2023-08-11 19:54:29.975000,-8.855421686746988,-0.6265060240963856,-4.168674698795181,-0.48559166155732675,-8.706928264868179,-3.8454935622317596,3.0,1.2465312465312466,802.226179875334,0.017248412097196776,-0.6908688304877351,-0.5337684284132629,1348.7179487179487,-1.0,92.15280056245606,1.2516390660554795,
2023-08-11 19:54:29.983000,-8.903614457831326,-0.6144578313253012,-4.204819277108434,-0.5787860208461066,-8.807480073574494,-3.8626609442060085,3.0,1.2465312465312466,802.226179875334,-0.1335586504282972,-1.3995687896975693,-0.4968241943942661,1350.9157509157508,-1.0,92.15280056245606,1.251587317546556,
2023-08-11 19:54:29.991000,-8.951807228915664,-0.6626506024096386,-4.156626506024097,-0.5542611894543225,-8.834457388105456,-3.867565910484365,3.0,1.2465312465312466,802.226179875334,-0.5434415243866905,-1.416117941844881,-0.3565060311170678,1353.8461538461538,-1.0,92.15280056245606,1.2515355619533504,
2023-08-11 19:54:29.998000,-8.951807228915664,-0.6626506024096386,-4.19277108433735,-0.6033108522378908,-8.822194972409564,-3.8798283261802573,3.0,1.2465312465312466,802.226179875334,-0.6287512382728278,-1.76726298001282,-0.0778509410873489,1355.3113553113553,-1.0,92.15280056245606,1.2514837966693655,
2023-08-11 19:54:30.006000,-8.927710843373495,-0.6867469879518072,-4.156626506024097,-0.5836909871244634,-8.814837522992029,-3.8454935622317596,3.0,1.2465312465312466,802.226179875334,-0.486568381795933,-1.0476079482547644,0.31991142707301445,1356.7765567765566,-1.0,92.15280056245606,1.2514320194067279,
2023-08-11 19:54:30.014000,-8.91566265060241,-0.674698795180723,-4.168674698795181,-0.657265481299816,-8.824647455548742,-3.8577559779276513,3.0,1.2465312465312466,802.226179875334,-0.6021793601771467,-1.0363032457316008,0.5018355573684516,1356.7765567765566,-1.0,92.15280056245606,1.2513802280584962,
2023-08-11 19:54:30.021000,-8.867469879518072,-0.6626506024096386,-4.156626506024097,-0.5787860208461066,-8.733905579399142,-3.816063764561618,3.0,1.2465312465312466,802.226179875334,-0.30674203135015515,-0.7942427597459348,0.635044577821805,1356.7765567765566,-1.0,92.15280056245606,1.2513284207098494,
2023-08-11 19:54:30.029000,-8.819277108433736,-0.6626506024096386,-4.156626506024097,-0.5836909871244634,-8.618638871857755,-3.818516247700797,3.0,1.2465312465312466,802.226179875334,-0.04253831361808689,-0.7693024881999873,0.9182448575257848,1356.7765567765566,-1.0,92.15280056245606,1.2512765956488887,
2023-08-11 19:54:30.037000,-8.734939759036145,-0.6506024096385542,-4.132530120481928,-0.5125689760882893,-8.574494175352545,-3.737584304107909,3.0,1.2465312465312466,802.226179875334,-0.31618204067362027,0.2173533010896783,0.8646349280344964,1354.5787545787546,-1.0,92.15280056245606,1.2512247515158685,
2023-08-11 19:54:30.044000,-8.674698795180724,-0.6385542168674699,-4.168674698795181,-0.5469037400367872,-8.540159411404046,-3.8038013488657265,3.0,1.2465312465312466,802.226179875334,-0.15989744187401658,0.06876056173882543,0.5362158382378648,1352.3809523809523,-1.0,92.15280056245606,1.251172887292992,
2023-08-11 19:54:30.052000,-8.674698795180724,-0.6144578313253012,-4.204819277108434,-0.5419987737584304,-8.599019006744328,-3.8528510116492947,3.0,1.2456432456432456,802.7980752094102,-0.022609405046325665,0.716974535283491,0.517801992890857,1350.18315018315,-1.0,92.15280056245606,1.2511210021663461,
2023-08-11 19:54:30.060000,-8.72289156626506,-0.6144578313253012,-4.168674698795181,-0.5861434702636419,-8.58185162477008,-3.830778663396689,3.0,1.2456432456432456,802.7980752094102,-0.144280636326555,0.29275683235242705,-0.14288211642678147,1350.9157509157508,-1.0,92.15280056245606,1.2510690953768893,
2023-08-11 19:54:30.067000,-8.759036144578314,-0.6265060240963856,-4.19277108433735,-0.5444512568976088,-8.591661557326793,-3.825873697118332,3.0,1.2460872460872459,802.5120256547302,-0.144280636326555,0.48039158557193823,-0.21420663131519183,1353.8461538461538,-1.0,92.15280056245606,1.2510171661667548,
2023-08-11 19:54:30.075000,-8.783132530120483,-0.6265060240963856,-4.1807228915662655,-0.5419987737584304,-8.652973635806253,-3.865113427345187,3.0,1.2460872460872459,802.5120256547302,-0.41897325330691765,0.5587086999592096,-0.3497465182681663,1356.0439560439559,-1.0,92.15280056245606,1.2509652140647838,
2023-08-11 19:54:30.083000,-8.855421686746988,-0.6144578313253012,-4.19277108433735,-0.5346413243408952,-8.748620478234212,-3.8209687308399753,3.0,1.2460872460872459,802.5120256547302,-0.462443913524853,0.3851756890624091,-0.37468678981411346,1356.7765567765566,-1.0,92.15280056245606,1.250913238776815,
2023-08-11 19:54:30.090000,-8.903614457831326,-0.6385542168674699,-4.240963855421687,-0.5935009196811771,-8.773145309625995,-3.8626609442060085,3.0,1.2460872460872459,802.5120256547302,-0.43237573567973814,-0.06608006526426272,-0.01818075869704607,1356.0439560439559,-1.0,92.15280056245606,1.250861240214083,
2023-08-11 19:54:30.098000,-8.903614457831326,-0.6506024096385542,-4.1807228915662655,-0.5150214592274678,-8.775597792765174,-3.90680564071122,3.0,1.2460872460872459,802.5120256547302,-0.4926286346949486,0.12411864110483035,-0.13775421012761468,1356.0439560439559,-1.0,92.15280056245606,1.250809218628285,
2023-08-11 19:54:30.106000,-8.879518072289157,-0.6506024096385542,-4.216867469879518,-0.5444512568976088,-8.795217657878602,-3.8577559779276513,3.0,1.2460872460872459,802.5120256547302,-0.7019404463609353,0.25779383485810664,-0.027387681370549075,1356.7765567765566,-1.0,92.15280056245606,1.2507571744693995,
2023-08-11 19:54:30.113000,-8.855421686746988,-0.6385542168674699,-4.228915662650603,-0.4782342121397915,-8.709380748007357,-3.8871857755977928,3.0,1.2456432456432456,802.7980752094102,-0.3896043354116896,0.5056814870928266,0.31396771749898006,1356.0439560439559,-1.0,92.15280056245606,1.250705108392325,
2023-08-11 19:54:30.121000,-8.855421686746988,-0.6265060240963856,-4.265060240963856,-0.5419987737584304,-8.716738197424892,-3.865113427345187,3.0,1.2460872460872459,802.5120256547302,-0.42771400268049603,0.6032282501019759,0.2844822562787716,1356.0439560439559,-1.0,92.15280056245606,1.2506530211137943,
2023-08-11 19:54:30.129000,-8.807228915662652,-0.5903614457831325,-4.240963855421687,-0.47332924586143466,-8.650521152667075,-3.936235438381361,3.0,1.2456432456432456,802.7980752094102,-0.6457665637200628,0.5037002505681472,0.31618204067362027,1357.5091575091574,-1.0,92.15280056245606,1.2506009136843792,
2023-08-11 19:54:30.136000,-8.795180722891567,-0.6265060240963856,-4.253012048192772,-0.5052115266707541,-8.65787860208461,-3.867565910484365,3.0,1.2456432456432456,802.7980752094102,-0.14731076277606195,-0.0055940795990905645,0.3919352019113102,1357.5091575091574,-1.0,92.15280056245606,1.2505487874832544,
2023-08-11 19:54:30.144000,-8.783132530120483,-0.6024096385542169,-4.216867469879518,-0.5125689760882893,-8.608828939301041,-3.8454935622317596,3.0,1.2456432456432456,802.7980752094102,-0.4617446535749662,-0.12924654740399757,0.5892430511042478,1360.4395604395604,-1.0,92.15280056245606,1.250496643914626,
2023-08-11 19:54:30.152000,-8.759036144578314,-0.6024096385542169,-4.216867469879518,-0.5076640098099325,-8.608828939301041,-3.843041079092581,3.0,1.2456432456432456,802.7980752094102,0.020161995221722892,-0.05034671639181855,0.1474273061010432,1366.3003663003662,-1.0,92.15280056245606,1.2504444845507061,
2023-08-11 19:54:30.159000,-8.74698795180723,-0.6024096385542169,-4.1807228915662655,-0.5763335377069282,-8.670141017780502,-3.7939914163090127,3.0,1.245199245199245,803.0843287573543,-0.0374104073189214,0.24019579278596737,0.1336751937532776,1378.7545787545787,-1.0,92.15280056245606,1.2503923111353925,
2023-08-11 19:54:30.167000,-8.734939759036145,-0.6024096385542169,-4.168674698795181,-0.5346413243408952,-8.633353770692827,-3.779276517473942,3.0,1.2456432456432456,802.7980752094102,0.07552007458772783,0.11817493153079728,-0.33750946914515456,1394.8717948717947,-1.0,92.15280056245606,1.25034012529939,
2023-08-11 19:54:30.175000,-8.734939759036145,-0.5903614457831325,-4.168674698795181,-0.5542611894543225,-8.68976088289393,-3.76701410177805,3.0,1.245199245199245,803.0843287573543,0.18378882349513492,0.14626187285123268,-0.39414952508595086,1412.4542124542124,-1.0,92.15280056245606,1.2502879288494833,
2023-08-11 19:54:30.182000,-8.807228915662652,-0.6144578313253012,-4.1807228915662655,-0.5419987737584304,-8.726548129981605,-3.8700183936235435,3.0,1.245199245199245,803.0843287573543,0.10826874890740709,0.58726181457957,-0.29823436862653674,1429.3040293040292,-1.0,92.15280056245606,1.2502357239081239,
2023-08-11 19:54:30.190000,-8.819277108433736,-0.6144578313253012,-4.19277108433735,-0.5616186388718577,-8.755977927651747,-3.8700183936235435,3.0,1.245199245199245,803.0843287573543,0.20243575549210346,0.7962239962706126,-0.26583532428180173,1443.956043956044,-1.0,92.15280056245606,1.2501835126055296,
2023-08-11 19:54:30.198000,-8.855421686746988,-0.6144578313253012,-4.19277108433735,-0.5248313917841815,-8.67259350091968,-3.8234212139791537,3.0,1.245199245199245,803.0843287573543,-0.05745585921566346,0.8357321834391942,-0.49426024124468293,1457.8754578754579,-1.0,92.15280056245606,1.2501312972184888,
2023-08-11 19:54:30.205000,-8.843373493975903,-0.6144578313253012,-4.1807228915662655,-0.5493562231759657,-8.724095646842427,-3.838136112814224,3.0,1.244311244311244,803.6574487065121,0.20255229881708603,0.5994988637025822,-0.7525202494027156,1468.8644688644688,-1.0,92.15280056245606,1.2500790801700303,
2023-08-11 19:54:30.213000,-8.831325301204819,-0.6265060240963856,-4.19277108433735,-0.5076640098099325,-8.726548129981605,-3.86020846106683,3.0,1.2447552447552446,803.370786516854,-0.057572402540644295,0.9149816444263157,-0.6237398752986426,1479.120879120879,-1.0,92.15280056245606,1.2500268641464163,
2023-08-11 19:54:30.220000,-8.843373493975903,-0.6265060240963856,-4.216867469879518,-0.5419987737584304,-8.682403433476395,-3.865113427345187,3.0,1.2447552447552446,803.370786516854,0.107802575607482,0.4631431734747397,-0.5581259833343045,1485.7142857142856,-1.0,92.15280056245606,1.2499746520018686,
2023-08-11 19:54:30.228000,-8.855421686746988,-0.6265060240963856,-4.204819277108434,-0.5665236051502146,-8.726548129981605,-3.855303494788473,3.0,1.2447552447552446,803.370786516854,-0.07936600431210238,0.51372297651652,-0.507779266942486,1490.10989010989,720.03173828125,83.32966008307197,1.2499224466298273,
2023-08-11 19:54:30.236000,-8.843373493975903,-0.6506024096385542,-4.19277108433735,-0.5346413243408952,-8.716738197424892,-3.838136112814224,3.0,1.2447552447552446,803.370786516854,-0.08262921741157274,0.5129071732416524,-0.5023017306683762,1492.3076923076922,-1.0,83.32966008307197,1.2498702509721706,
2023-08-11 19:54:30.243000,-8.807228915662652,-0.6506024096385542,-4.19277108433735,-0.6204782342121398,-8.706928264868179,-3.8405885959534025,3.0,1.2447552447552446,803.370786516854,0.0374104073189214,0.8107919118932466,-0.48202319212167083,1492.3076923076922,-1.0,83.32966008307197,1.2498180678785,
2023-08-11 19:54:30.251000,-8.819277108433736,-0.6626506024096386,-4.204819277108434,-0.5836909871244634,-8.724095646842427,-3.8577559779276513,3.0,1.2447552447552446,803.370786516854,0.12621642095449062,0.7683701416001405,-0.4437969815278831,1485.7142857142856,-1.0,83.32966008307197,1.2497659002627346,
2023-08-11 19:54:30.259000,-8.783132530120483,-0.6626506024096386,-4.156626506024097,-0.5812385039852851,-8.679950950337217,-3.877375843041079,3.0,1.2447552447552446,803.370786516854,0.12353592447992617,1.306567216362683,-0.37666802633879115,1476.923076923077,-1.0,83.32966008307197,1.2497137512277225,
2023-08-11 19:54:30.266000,-8.819277108433736,-0.6265060240963856,-4.19277108433735,-0.5174739423666462,-8.699570815450643,-3.843041079092581,3.0,1.2447552447552446,803.370786516854,0.13763766680263342,0.9562379814696117,-0.37188975001456775,1468.8644688644688,-1.0,83.32966008307197,1.2496616239127347,
2023-08-11 19:54:30.274000,-8.807228915662652,-0.6265060240963856,-4.1807228915662655,-0.5640711220110362,-8.741263028816677,-3.872470876762722,3.0,1.2447552447552446,803.370786516854,0.260357788007692,1.056232154303362,-0.7470427131286054,1462.2710622710622,-1.0,83.32966008307197,1.2496095214899638,
2023-08-11 19:54:30.282000,-8.831325301204819,-0.6385542168674699,-4.204819277108434,-0.5738810545677498,-8.75107296137339,-3.8822808093194356,3.0,1.2447552447552446,803.370786516854,0.047316589942311596,0.6546238564186238,-0.7244333080822792,1457.142857142857,-1.0,83.32966008307197,1.2495574471608055,
2023-08-11 19:54:30.289000,-8.831325301204819,-0.6265060240963856,-4.228915662650603,-0.5297363580625383,-8.721643163703249,-3.838136112814224,3.0,1.244311244311244,803.6574487065121,0.2184021910145093,0.5641862362333193,-0.4581318105005538,1450.5494505494505,-1.0,83.32966008307197,1.2495054041520082,
2023-08-11 19:54:30.297000,-8.867469879518072,-0.6144578313253012,-4.204819277108434,-0.522378908645003,-8.738810545677499,-3.8283261802575104,3.0,1.244311244311244,803.6574487065121,-0.008857292698560929,0.5690810558825249,-0.6063749198764642,1442.4908424908424,-1.0,83.32966008307197,1.2494533957012577,
2023-08-11 19:54:30.305000,-8.867469879518072,-0.6265060240963856,-4.216867469879518,-0.5444512568976088,-8.824647455548742,-3.8871857755977928,3.0,1.244311244311244,803.6574487065121,-0.019229648621874467,0.5627877163335475,-0.5557951168346835,1434.4322344322343,-1.0,83.32966008307197,1.2494014250110996,
2023-08-11 19:54:30.312000,-8.867469879518072,-0.6024096385542169,-4.216867469879518,-0.5444512568976088,-8.726548129981605,-3.855303494788473,3.0,1.244311244311244,803.6574487065121,0.19812365246780558,0.4041722510343219,-0.38331099586271183,1429.3040293040292,-1.0,83.32966008307197,1.2493494952343367,
2023-08-11 19:54:30.320000,-8.855421686746988,-0.6265060240963856,-4.1807228915662655,-0.5248313917841815,-8.743715511955855,-3.830778663396689,3.0,1.244311244311244,803.6574487065121,-0.18402191014509658,-0.04486918011770882,-0.1680554746226912,1426.3736263736262,-1.0,83.32966008307197,1.2492976094698196,
2023-08-11 19:54:30.328000,-8.819277108433736,-0.6144578313253012,-4.156626506024097,-0.5542611894543225,-8.71919068056407,-3.8626609442060085,3.0,1.244311244311244,803.6574487065121,-0.21245848144047624,-0.09136996678515283,-0.4127964570829203,1424.9084249084249,-1.0,83.32966008307197,1.249245770758187,
2023-08-11 19:54:30.335000,-8.795180722891567,-0.6144578313253012,-4.144578313253012,-0.5272838749233598,-8.726548129981605,-3.7939914163090127,3.0,1.2438672438672438,803.9443155452437,-0.47106811957345224,-0.4458947613775412,-0.08962181691043637,1423.4432234432234,-1.0,83.32966008307197,1.249193982077644,
2023-08-11 19:54:30.343000,-8.795180722891567,-0.6265060240963856,-4.132530120481928,-0.510116492949111,-8.650521152667075,-3.8405885959534025,3.0,1.244311244311244,803.6574487065121,-0.5161703863411227,-0.6800303012644947,-0.34788182506846943,1421.245421245421,-1.0,83.32966008307197,1.249142246190585,
2023-08-11 19:54:30.351000,-8.807228915662652,-0.6385542168674699,-4.132530120481928,-0.5763335377069282,-8.694665849172287,-3.7596566523605146,3.0,1.2447552447552446,803.370786516854,-0.3169978439484879,-0.6736204183905365,-0.23961307616106275,1421.9780219780218,-1.0,83.32966008307197,1.2490905659059048,
2023-08-11 19:54:30.358000,-8.783132530120483,-0.6265060240963856,-4.144578313253012,-0.5665236051502146,-8.603923973022685,-3.81361128142244,3.0,1.2434232434232433,804.2313872522765,-0.24101159606083497,-0.42480041955596987,-0.45113921100169013,1419.7802197802198,-1.0,83.32966008307197,1.24903894436333,
2023-08-11 19:54:30.366000,-8.795180722891567,-0.6144578313253012,-4.132530120481928,-0.5272838749233598,-8.699570815450643,-3.7743715511955855,3.0,1.2434232434232433,804.2313872522765,0.21630441116485077,-0.1048889924829559,-0.6902861138628282,1413.9194139194137,-1.0,83.32966008307197,1.2489873844561274,
2023-08-11 19:54:30.374000,-8.819277108433736,-0.6144578313253012,-4.120481927710844,-0.5542611894543225,-8.682403433476395,-3.7719190680564068,3.0,1.2434232434232433,804.2313872522765,0.009323465998484274,-0.20033797564244493,-0.8697628343336631,1405.8608058608058,-1.0,83.32966008307197,1.2489358886063575,
2023-08-11 19:54:30.381000,-8.855421686746988,-0.6506024096385542,-4.120481927710844,-0.5591661557326794,-8.829552421827099,-3.737584304107909,3.0,1.2434232434232433,804.2313872522765,0.09544898315948905,-0.3741040731892071,-0.5597575898840398,1398.5347985347985,-1.0,83.32966008307197,1.248884458889932,
2023-08-11 19:54:30.389000,-8.843373493975903,-0.5903614457831325,-4.19277108433735,-0.5836909871244634,-8.714285714285714,-3.8577559779276513,3.0,1.2438672438672438,803.9443155452437,-0.017481498747158448,-0.3641978905658169,-0.23763183963638465,1390.4761904761904,-1.0,83.32966008307197,1.2488330970537525,
2023-08-11 19:54:30.397000,-8.879518072289157,-0.6144578313253012,-4.132530120481928,-0.5567136725935009,-8.866339668914776,-3.7572041692213363,3.0,1.2438672438672438,803.9443155452437,-0.1426490297768198,-0.5524153604102323,-0.3292348930714991,1383.150183150183,-1.0,83.32966008307197,1.248781804809784,
2023-08-11 19:54:30.404000,-8.903614457831326,-0.6385542168674699,-4.168674698795181,-0.5076640098099325,-8.758430410790925,-3.816063764561618,3.0,1.2434232434232433,804.2313872522765,0.11642678165608127,0.3472991084435644,-0.19159722626886572,1374.3589743589744,-1.0,83.32966008307197,1.248730583852733,
2023-08-11 19:54:30.412000,-8.91566265060241,-0.6265060240963856,-4.168674698795181,-0.5738810545677498,-8.814837522992029,-3.8503985285101163,3.0,1.2434232434232433,804.2313872522765,-0.20849600839111912,0.9614824310937597,0.09917836955888319,1367.7655677655678,-1.0,83.32966008307197,1.2486794355699122,
2023-08-11 19:54:30.420000,-8.867469879518072,-0.6385542168674699,-4.168674698795181,-0.5248313917841815,-8.79767014101778,-3.789086450030656,3.0,1.2434232434232433,804.2313872522765,-0.22562787716333504,0.7464599965036999,0.28086941320435826,1364.8351648351647,-1.0,83.32966008307197,1.2486283610179993,
2023-08-11 19:54:30.427000,-8.867469879518072,-0.6144578313253012,-4.132530120481928,-0.5935009196811771,-8.738810545677499,-3.7694665849172284,3.0,1.2434232434232433,804.2313872522765,0.21921799428937688,0.36513023716566706,0.5366820115377894,1365.5677655677655,-1.0,83.32966008307197,1.24857736105953,
2023-08-11 19:54:30.435000,-8.795180722891567,-0.6265060240963856,-4.1084337349397595,-0.5738810545677498,-8.630901287553648,-3.7719190680564068,3.0,1.2434232434232433,804.2313872522765,0.2797039799545473,0.22411281393858243,0.46768836314900014,1366.3003663003662,-1.0,83.32966008307197,1.2485264365001092,
2023-08-11 19:54:30.443000,-8.807228915662652,-0.6265060240963856,-4.156626506024097,-0.615573267933783,-8.61128142244022,-3.8038013488657265,3.0,1.2434232434232433,804.2313872522765,0.23588368976166948,0.607423809801293,0.14125050987704715,1367.7655677655678,-1.0,83.32966008307197,1.2484755879285478,
2023-08-11 19:54:30.450000,-8.759036144578314,-0.6144578313253012,-4.168674698795181,-0.5714285714285714,-8.613733905579398,-3.838136112814224,3.0,1.2434232434232433,804.2313872522765,0.37480333313909386,0.7942427597459348,-0.07866674436221692,1367.032967032967,-1.0,83.32966008307197,1.2484248157281583,
2023-08-11 19:54:30.458000,-8.783132530120483,-0.6265060240963856,-4.204819277108434,-0.5297363580625383,-8.625996321275291,-3.818516247700797,3.0,1.2429792429792428,804.5186640471513,0.35778800769185876,0.6914515471126392,-0.3420546588194163,1367.032967032967,-1.0,83.32966008307197,1.2483741202066165,
2023-08-11 19:54:30.466000,-8.771084337349398,-0.6385542168674699,-4.204819277108434,-0.5935009196811771,-8.625996321275291,-3.843041079092581,3.0,1.2429792429792428,804.5186640471513,0.43377425557951166,0.805897092244041,-0.4978730843190958,1366.3003663003662,-1.0,83.32966008307197,1.2483235013006666,
2023-08-11 19:54:30.473000,-8.759036144578314,-0.6626506024096386,-4.204819277108434,-0.5763335377069282,-8.625996321275291,-3.884733292458614,3.0,1.2429792429792428,804.5186640471513,0.5852805780548924,0.8744245673329065,-0.7156925587087001,1366.3003663003662,-1.0,83.32966008307197,1.248272958558486,
2023-08-11 19:54:30.481000,-8.783132530120483,-0.674698795180723,-4.216867469879518,-0.5763335377069282,-8.621091354996935,-3.9019006744328633,3.0,1.2429792429792428,804.5186640471513,0.3693257968649841,1.0608938873026041,-0.6569547229182452,1367.7655677655678,-1.0,83.32966008307197,1.2482224912819844,
2023-08-11 19:54:30.489000,-8.783132530120483,-0.6987951807228916,-4.265060240963856,-0.5297363580625383,-8.709380748007357,-3.9435928877988964,3.0,1.2429792429792428,804.5186640471513,-0.16805547462269074,1.5034088922556959,-0.8402773731134546,1370.6959706959706,-1.0,83.32966008307197,1.248172098531231,
2023-08-11 19:54:30.496000,-8.807228915662652,-0.6867469879518072,-4.240963855421687,-0.6646229307173512,-8.748620478234212,-3.9754751686082157,3.0,1.2429792429792428,804.5186640471513,0.0029135831245261186,1.3416467571819826,-0.6563720062933394,1375.091575091575,-1.0,83.32966008307197,1.2481217792685875,
2023-08-11 19:54:30.504000,-8.843373493975903,-0.6867469879518072,-4.27710843373494,-0.627835683629675,-8.743715511955855,-3.9043531575720416,3.0,1.2429792429792428,804.5186640471513,0.23215430336227577,0.9326962298234376,-0.5791037818308955,1380.952380952381,-1.0,83.32966008307197,1.2480715323447094,
2023-08-11 19:54:30.512000,-8.843373493975903,-0.674698795180723,-4.253012048192772,-0.6008583690987124,-8.753525444512569,-3.8920907418761495,3.0,1.2420912420912418,805.0938337801609,0.23075578346250228,0.9205757240254063,-0.5763067420313502,1383.150183150183,-1.0,83.32966008307197,1.2480213562192526,
2023-08-11 19:54:30.519000,-8.831325301204819,-0.6626506024096386,-4.253012048192772,-0.5419987737584304,-8.738810545677499,-3.894543225015328,3.0,1.2425352425352425,804.8061461497232,-0.32037760037293905,0.7701182914748566,-0.29578695880193484,1383.150183150183,-1.0,83.32966008307197,1.2479712491085855,
2023-08-11 19:54:30.527000,-8.843373493975903,-0.674698795180723,-4.253012048192772,-0.6376456161863887,-8.760882893930104,-3.8798283261802573,3.0,1.2425352425352425,804.8061461497232,-0.5138395198415008,0.36454752054076117,-0.3830779092127493,1381.6849816849815,-1.0,83.32966008307197,1.2479212090500562,
2023-08-11 19:54:30.535000,-8.843373493975903,-0.6867469879518072,-4.228915662650603,-0.5419987737584304,-8.675045984058858,-3.8234212139791537,3.0,1.2425352425352425,804.8061461497232,-1.0249985432084372,-0.05384301614125059,0.09521589650952737,1380.952380952381,-1.0,83.32966008307197,1.2478712337849243,
2023-08-11 19:54:30.542000,-8.843373493975903,-0.6626506024096386,-4.204819277108434,-0.598405885959534,-8.706928264868179,-3.8822808093194356,3.0,1.2425352425352425,804.8061461497232,-0.785851640347299,-0.3745702464891322,0.1314608705786378,1382.4175824175823,-1.0,83.32966008307197,1.247821320780616,
2023-08-11 19:54:30.550000,-8.795180722891567,-0.674698795180723,-4.168674698795181,-0.6621704475781729,-8.645616186388718,-3.8013488657265477,3.0,1.2425352425352425,804.8061461497232,-0.9747683701415994,-0.6947147602121079,0.17761202727113756,1383.150183150183,-1.0,83.32966008307197,1.2477714672431366,
2023-08-11 19:54:30.558000,-8.795180722891567,-0.6626506024096386,-4.19277108433735,-0.5591661557326794,-8.655426118945432,-3.877375843041079,3.0,1.2425352425352425,804.8061461497232,-0.6901695705378483,-0.9611328011188173,-0.2505681487092827,1383.150183150183,-1.0,83.32966008307197,1.2477216699914755,
2023-08-11 19:54:30.565000,-8.771084337349398,-0.6385542168674699,-4.156626506024097,-0.5493562231759657,-8.660331085223788,-3.843041079092581,3.0,1.2425352425352425,804.8061461497232,-0.8046151156692501,-0.7538022259775065,-0.2936891789522755,1378.7545787545787,-1.0,83.32966008307197,1.2476719256306608,
2023-08-11 19:54:30.573000,-8.807228915662652,-0.6385542168674699,-4.1807228915662655,-0.6033108522378908,-8.75107296137339,-3.8405885959534025,3.0,1.2425352425352425,804.8061461497232,-0.30674203135015515,-0.5329526251383944,-0.1994056290425965,1375.091575091575,-1.0,83.32966008307197,1.2476222306941143,
2023-08-11 19:54:30.580000,-8.807228915662652,-0.6506024096385542,-4.156626506024097,-0.5542611894543225,-8.71919068056407,-3.806253832004905,3.0,1.2425352425352425,804.8061461497232,-0.5747916788065963,-0.4660567565992658,-0.17026979779733142,1373.6263736263736,-1.0,83.32966008307197,1.2475725815101406,
2023-08-11 19:54:30.588000,-8.831325301204819,-0.6506024096385542,-4.168674698795181,-0.6033108522378908,-8.684855916615573,-3.8234212139791537,3.0,1.2425352425352425,804.8061461497232,-0.4463609346774663,-0.42841326263038276,-0.2629217411572752,1372.8937728937728,-1.0,83.32966008307197,1.2475229742185767,
2023-08-11 19:54:30.596000,-8.831325301204819,-0.6265060240963856,-4.144578313253012,-0.5567136725935009,-8.741263028816677,-3.7719190680564068,3.0,1.2425352425352425,804.8061461497232,-0.42584930948079913,-0.06817784511392125,-0.2807528698793774,1372.8937728937728,-1.0,83.32966008307197,1.2474734047883373,
2023-08-11 19:54:30.603000,-8.831325301204819,-0.6265060240963856,-4.168674698795181,-0.5714285714285714,-8.743715511955855,-3.816063764561618,3.0,1.2420912420912418,805.0938337801609,-0.3452013285939041,-0.19707476254297457,-0.07190723151331539,1372.161172161172,-1.0,83.32966008307197,1.2474238690358643,
2023-08-11 19:54:30.611000,-8.843373493975903,-0.6385542168674699,-4.1807228915662655,-0.510116492949111,-8.729000613120784,-3.830778663396689,3.0,1.2420912420912418,805.0938337801609,-0.47864343569722045,0.14544606957636508,0.08892255696055006,1370.6959706959706,-1.0,83.32966008307197,1.247374362495208,
2023-08-11 19:54:30.619000,-8.855421686746988,-0.6385542168674699,-4.168674698795181,-0.5542611894543225,-8.792765174739424,-3.808706315144083,3.0,1.2420912420912418,805.0938337801609,-0.24439135248528618,0.33121612959617597,0.24998543208437718,1367.032967032967,-1.0,83.32966008307197,1.2473248805551944,
2023-08-11 19:54:30.626000,-8.867469879518072,-0.6144578313253012,-4.156626506024097,-0.5591661557326794,-8.778050275904352,-3.8283261802575104,3.0,1.2420912420912418,805.0938337801609,-0.3828448225627872,0.11724258493094886,0.0749373579628232,1362.6373626373625,-1.0,83.32966008307197,1.247275418458579,
2023-08-11 19:54:30.634000,-8.843373493975903,-0.6385542168674699,-4.1807228915662655,-0.6082158185162476,-8.709380748007357,-3.8283261802575104,3.0,1.2420912420912418,805.0938337801609,-0.42946215255521203,0.43260882232970155,0.16304411164850569,1359.7069597069597,-1.0,83.32966008307197,1.2472259713334577,
2023-08-11 19:54:30.642000,-8.819277108433736,-0.6506024096385542,-4.168674698795181,-0.49294911097486205,-8.677498467198038,-3.8528510116492947,3.0,1.2420912420912418,805.0938337801609,-0.1242351844298112,0.35545714119223853,0.17831128722102477,1358.974358974359,-1.0,83.32966008307197,1.2471765343429717,
2023-08-11 19:54:30.649000,-8.771084337349398,-0.6265060240963856,-4.204819277108434,-0.5885959534028203,-8.709380748007357,-3.872470876762722,3.0,1.2420912420912418,805.0938337801609,-0.0848435405862121,0.10710331565759526,-0.020861255171610516,1358.2417582417581,-1.0,83.32966008307197,1.2471271025588402,
2023-08-11 19:54:30.657000,-8.819277108433736,-0.6144578313253012,-4.240963855421687,-0.5248313917841815,-8.729000613120784,-3.8111587982832615,3.0,1.2420912420912418,805.0938337801609,-0.3476487384185069,0.05862129246547356,0.2869296661033735,1358.2417582417581,-1.0,83.32966008307197,1.2470776709846938,
2023-08-11 19:54:30.665000,-8.807228915662652,-0.6626506024096386,-4.1807228915662655,-0.5836909871244634,-8.660331085223788,-3.825873697118332,3.0,1.2412032412032412,805.6698265068861,-0.39310063516112165,-0.22621059378824096,0.3178136472233555,1356.0439560439559,-1.0,83.32966008307197,1.2470282345798984,
2023-08-11 19:54:30.672000,-8.807228915662652,-0.6506024096385542,-4.168674698795181,-0.6008583690987124,-8.625996321275291,-3.8528510116492947,3.0,1.2416472416472415,805.3817271589487,-0.04113979371831512,0.24019579278596737,0.04032399044344709,1353.8461538461538,-1.0,83.32966008307197,1.2469787882627699,
2023-08-11 19:54:30.680000,-8.819277108433736,-0.6626506024096386,-4.156626506024097,-0.568976088289393,-8.704475781729,-3.8234212139791537,3.0,1.2416472416472415,805.3817271589487,0.11071615873200813,0.5698968591573925,-0.1277314841792441,1351.6483516483515,-1.0,83.32966008307197,1.2469293268613577,
2023-08-11 19:54:30.688000,-8.831325301204819,-0.6626506024096386,-4.1807228915662655,-0.6082158185162476,-8.68976088289393,-3.8454935622317596,3.0,1.2416472416472415,805.3817271589487,-0.27014742730610136,0.3830779092127506,0.22376318396363862,1350.18315018315,-1.0,83.32966008307197,1.2468798451590166,
2023-08-11 19:54:30.695000,-8.819277108433736,-0.674698795180723,-4.204819277108434,-0.5885959534028203,-8.697118332311465,-3.8332311465358675,3.0,1.2416472416472415,805.3817271589487,-0.25115086533418857,0.3961307616106286,0.4199055999067656,1349.4505494505493,-1.0,83.32966008307197,1.2468303379293664,
2023-08-11 19:54:30.703000,-8.843373493975903,-0.6626506024096386,-4.204819277108434,-0.5174739423666462,-8.731453096259962,-3.8454935622317596,3.0,1.2416472416472415,805.3817271589487,0.22644368043820265,0.4161762135073706,0.3222422935726355,1346.5201465201465,-1.0,83.32966008307197,1.2467807999607035,
2023-08-11 19:54:30.711000,-8.819277108433736,-0.6626506024096386,-4.216867469879518,-0.5469037400367872,-8.68976088289393,-3.8528510116492947,3.0,1.2416472416472415,805.3817271589487,-0.4631431734747397,0.027620768020512047,0.2581434648330522,1344.3223443223442,-1.0,83.32966008307197,1.2467312260803867,
2023-08-11 19:54:30.718000,-8.831325301204819,-0.6385542168674699,-4.204819277108434,-0.551808706315144,-8.787860208461066,-3.8332311465358675,3.0,1.2416472416472415,805.3817271589487,-0.30942252782471963,0.22143231746401626,0.43995105180350813,1340.6593406593406,-1.0,83.32966008307197,1.2466816111791674,
2023-08-11 19:54:30.726000,-8.819277108433736,-0.6144578313253012,-4.216867469879518,-0.5027590435315757,-8.655426118945432,-3.8454935622317596,3.0,1.2416472416472415,805.3817271589487,-0.5711788357321834,0.1809917836955879,0.5010197540935845,1337.7289377289376,-1.0,83.32966008307197,1.2466319502354584,
2023-08-11 19:54:30.734000,-8.819277108433736,-0.6385542168674699,-4.1807228915662655,-0.5248313917841815,-8.73635806253832,-3.8626609442060085,3.0,1.2412032412032412,805.6698265068861,-0.41792436338208666,-0.3534759046675591,0.2865800361284305,1335.5311355311355,-1.0,83.32966008307197,1.2465822383395095,
2023-08-11 19:54:30.741000,-8.819277108433736,-0.6265060240963856,-4.168674698795181,-0.47332924586143466,-8.721643163703249,-3.847946045370938,3.0,1.2412032412032412,805.6698265068861,-0.6060252899015212,-0.7993706660451038,0.304294621525552,1333.3333333333333,-1.0,83.32966008307197,1.2465324705681673,
2023-08-11 19:54:30.749000,-8.831325301204819,-0.6506024096385542,-4.168674698795181,-0.5640711220110362,-8.714285714285714,-3.8111587982832615,3.0,1.2412032412032412,805.6698265068861,-0.6728046151156689,-0.34543441524386753,-0.08857292698560668,1330.4029304029302,-1.0,83.32966008307197,1.246482641986932,
2023-08-11 19:54:30.757000,-8.819277108433736,-0.6506024096385542,-4.168674698795181,-0.5419987737584304,-8.724095646842427,-3.8111587982832615,3.0,1.2412032412032412,805.6698265068861,-0.09626478643435664,-0.3260882232970105,0.02307557834624988,1325.2747252747251,-1.0,83.32966008307197,1.246432747810779,
2023-08-11 19:54:30.764000,-8.831325301204819,-0.6506024096385542,-4.1807228915662655,-0.5640711220110362,-8.748620478234212,-3.8626609442060085,3.0,1.2412032412032412,805.6698265068861,-0.2126915680904379,0.043936833517860395,0.23658294971155494,1320.14652014652,-1.0,83.32966008307197,1.2463827834258632,
2023-08-11 19:54:30.772000,-8.843373493975903,-0.674698795180723,-4.156626506024097,-0.6082158185162476,-8.770692826486817,-3.867565910484365,3.0,1.2412032412032412,805.6698265068861,-0.31186993764932064,-0.016082978847386676,-0.33121612959617724,1318.6813186813185,-1.0,83.32966008307197,1.2463327444108403,
2023-08-11 19:54:30.780000,-8.831325301204819,-0.674698795180723,-4.1807228915662655,-0.5885959534028203,-8.71919068056407,-3.7988963825873694,3.0,1.2412032412032412,805.6698265068861,-0.07482081463784107,0.18145795699551298,0.11129887535691405,1321.6117216117216,-1.0,83.32966008307197,1.2462826265577793,
2023-08-11 19:54:30.787000,-8.831325301204819,-0.6506024096385542,-4.204819277108434,-0.5935009196811771,-8.704475781729,-3.8798283261802573,3.0,1.2407592407592405,805.9581320450886,-0.08181341413670515,0.16455917487325872,0.1075694889575199,1324.5421245421244,-1.0,83.32966008307197,1.2462324260314037,
2023-08-11 19:54:30.795000,-8.831325301204819,-0.6506024096385542,-4.19277108433735,-0.5469037400367872,-8.709380748007357,-3.8332311465358675,3.0,1.2407592407592405,805.9581320450886,-0.2708466872559881,0.4852864052211403,0.10337392925820155,1326.007326007326,-1.0,83.32966008307197,1.2461821392194716,
2023-08-11 19:54:30.803000,-8.831325301204819,-0.6506024096385542,-4.216867469879518,-0.49785407725321884,-8.763335377069282,-3.8405885959534025,3.0,1.2407592407592405,805.9581320450886,-0.3493968882932229,0.5416933745119745,0.5013693840685278,1328.2051282051282,-1.0,83.32966008307197,1.2461317625825123,
2023-08-11 19:54:30.810000,-8.843373493975903,-0.6265060240963856,-4.216867469879518,-0.5125689760882893,-8.753525444512569,-3.867565910484365,3.0,1.2412032412032412,805.6698265068861,-0.35242701474272986,0.17283375094691372,0.7128955189091544,1333.3333333333333,-1.0,83.32966008307197,1.2460812928111182,
2023-08-11 19:54:30.818000,-8.843373493975903,-0.6144578313253012,-4.216867469879518,-0.5885959534028203,-8.697118332311465,-3.847946045370938,3.0,1.2403152403152402,806.2466439949884,-0.5691975992075057,0.23518442981178272,0.4676883631490006,1341.3919413919414,-1.0,83.32966008307197,1.2460307269929205,
2023-08-11 19:54:30.826000,-8.831325301204819,-0.6144578313253012,-4.216867469879518,-0.4757817290006131,-8.709380748007357,-3.936235438381361,3.0,1.2403152403152402,806.2466439949884,-0.5236291591399101,-0.06876056173882716,0.6970456267117302,1353.8461538461538,-1.0,83.32966008307197,1.2459800626301818,
2023-08-11 19:54:30.833000,-8.819277108433736,-0.6024096385542169,-4.228915662650603,-0.5959534028203556,-8.648068669527897,-3.8111587982832615,3.0,1.2407592407592405,805.9581320450886,-0.508944700192297,-0.49216246139502356,0.5000874074937356,1368.4981684981683,-1.0,83.32966008307197,1.245929297434154,
2023-08-11 19:54:30.841000,-8.807228915662652,-0.6144578313253012,-4.19277108433735,-0.5787860208461066,-8.675045984058858,-3.847946045370938,3.0,1.2407592407592405,805.9581320450886,-0.6567216362682823,-0.2825010197540943,0.534001515063225,1386.8131868131868,-1.0,83.32966008307197,1.2458784293306857,
2023-08-11 19:54:30.849000,-8.795180722891567,-0.6385542168674699,-4.204819277108434,-0.5542611894543225,-8.67259350091968,-3.877375843041079,3.0,1.2407592407592405,805.9581320450886,-0.4207214031816319,-0.027620768020512047,0.5348173183380925,1407.3260073260071,-1.0,83.32966008307197,1.2458274565171772,
2023-08-11 19:54:30.856000,-8.819277108433736,-0.6144578313253012,-4.204819277108434,-0.5763335377069282,-8.675045984058858,-3.884733292458614,3.0,1.2407592407592405,805.9581320450886,-0.39717965153545787,-0.33879144571994596,0.4430977215779964,1427.8388278388277,-1.0,83.32966008307197,1.2457763774867683,
2023-08-11 19:54:30.864000,-8.819277108433736,-0.6385542168674699,-4.204819277108434,-0.598405885959534,-8.71919068056407,-3.8528510116492947,3.0,1.2407592407592405,805.9581320450886,-0.34077268224462365,-0.478993065672163,-0.07272303478818254,1449.084249084249,-1.0,83.32966008307197,1.2457251910409461,
2023-08-11 19:54:30.872000,-8.819277108433736,-0.6506024096385542,-4.168674698795181,-0.5248313917841815,-8.738810545677499,-3.7988963825873694,3.0,1.2403152403152402,806.2466439949884,-0.05407610279121226,0.08635860381096644,-0.021793601771458945,1466.6666666666665,-1.0,83.32966008307197,1.2456738963011404,
2023-08-11 19:54:30.879000,-8.831325301204819,-0.6265060240963856,-4.168674698795181,-0.5542611894543225,-8.709380748007357,-3.806253832004905,3.0,1.2407592407592405,805.9581320450886,-0.22434590058854412,-0.15884855194918732,0.2857642328535634,1478.3882783882782,-1.0,83.32966008307197,1.2456224925700452,
2023-08-11 19:54:30.887000,-8.843373493975903,-0.6626506024096386,-4.168674698795181,-0.5763335377069282,-8.731453096259962,-3.8234212139791537,3.0,1.2403152403152402,806.2466439949884,-0.3896043354116896,-0.0533768428413255,0.48330516869646306,1487.179487179487,-1.0,83.32966008307197,1.2455709794687058,
2023-08-11 19:54:30.895000,-8.843373493975903,-0.6626506024096386,-4.168674698795181,-0.5248313917841815,-8.726548129981605,-3.8283261802575104,3.0,1.2403152403152402,806.2466439949884,-0.4767787424975236,0.12924654740399757,0.3420546588194163,1490.10989010989,-1.0,83.32966008307197,1.245519357093663,
2023-08-11 19:54:30.902000,-8.843373493975903,-0.6385542168674699,-4.19277108433735,-0.5493562231759657,-8.78050275904353,-3.8209687308399753,3.0,1.2403152403152402,806.2466439949884,-0.44333080822795934,0.11362974185653599,0.4636093467746639,1487.179487179487,-1.0,83.32966008307197,1.245467625704892,
2023-08-11 19:54:30.910000,-8.831325301204819,-0.6506024096385542,-4.204819277108434,-0.568976088289393,-8.716738197424892,-3.8528510116492947,3.0,1.2403152403152402,806.2466439949884,-0.5185012528407429,-0.12808111415418746,0.6022959035021266,1482.051282051282,-1.0,83.32966008307197,1.2454157858808665,
2023-08-11 19:54:30.918000,-8.843373493975903,-0.6265060240963856,-4.1807228915662655,-0.5370938074800735,-8.729000613120784,-3.8405885959534025,3.0,1.2403152403152402,806.2466439949884,-0.6083561564011414,-0.19998834566750243,0.4526542742264436,1475.4578754578754,-1.0,83.32966008307197,1.2453638386514871,
2023-08-11 19:54:30.925000,-8.807228915662652,-0.6265060240963856,-4.19277108433735,-0.49785407725321884,-8.667688534641323,-3.784181483752299,3.0,1.2403152403152402,806.2466439949884,-0.4841209719713302,-0.2508012353592443,0.6239729619486043,1467.3992673992673,-1.0,83.32966008307197,1.2453117853531968,
2023-08-11 19:54:30.933000,-8.819277108433736,-0.6385542168674699,-4.132530120481928,-0.49540159411404044,-8.655426118945432,-3.8234212139791537,3.0,1.2398712398712397,806.5353625783349,-0.5310879319386975,-0.17901054717091022,0.48785035837072477,1461.5384615384614,-1.0,83.32966008307197,1.245259627632328,
2023-08-11 19:54:30.941000,-8.819277108433736,-0.6385542168674699,-4.168674698795181,-0.5419987737584304,-8.625996321275291,-3.835683629675046,3.0,1.2398712398712397,806.5353625783349,-0.5500844939106121,-0.10826874890740709,0.5211817493153083,1457.8754578754579,-1.0,83.32966008307197,1.2452073672981776,
2023-08-11 19:54:30.948000,-8.795180722891567,-0.6385542168674699,-4.168674698795181,-0.6376456161863887,-8.625996321275291,-3.843041079092581,3.0,1.2398712398712397,806.5353625783349,-0.15756657537439464,-0.16257793834858103,0.2765573101800595,1453.4798534798533,-1.0,83.32966008307197,1.2451550063025725,
2023-08-11 19:54:30.956000,-8.819277108433736,-0.6385542168674699,-4.144578313253012,-0.48559166155732675,-8.731453096259962,-3.8283261802575104,3.0,1.2398712398712397,806.5353625783349,-0.6370258143464828,0.2697977973311571,0.2017364955422176,1449.084249084249,-1.0,83.32966008307197,1.2451025470162713,
2023-08-11 19:54:30.963000,-8.807228915662652,-0.6626506024096386,-4.204819277108434,-0.5640711220110362,-8.71919068056407,-3.818516247700797,3.0,1.2398712398712397,806.5353625783349,-0.19754093584289967,0.4210710331565762,0.15511916554979274,1446.153846153846,-1.0,83.32966008307197,1.245049992206519,
2023-08-11 19:54:30.971000,-8.867469879518072,-0.6265060240963856,-4.19277108433735,-0.5665236051502146,-8.721643163703249,-3.779276517473942,3.0,1.2394272394272392,806.8242880171952,0.10127614940854301,0.37270555328943533,0.3225919235475789,1445.4212454212454,-1.0,83.32966008307197,1.2449973447473508,
2023-08-11 19:54:30.979000,-8.843373493975903,-0.6265060240963856,-4.19277108433735,-0.5321888412017167,-8.743715511955855,-3.835683629675046,3.0,1.238983238983239,807.1134205339546,-0.07761785443738635,0.564419322883281,0.13472408367810731,1438.8278388278388,-1.0,83.32966008307197,1.244944607904287,
2023-08-11 19:54:30.986000,-8.843373493975903,-0.6265060240963856,-4.204819277108434,-0.5272838749233598,-8.741263028816677,-3.9215205395462904,3.0,1.238983238983239,807.1134205339546,0.09358428995979219,0.234485169861896,0.35930307091661307,1432.2344322344322,-1.0,83.32966008307197,1.2448917851077066,
2023-08-11 19:54:30.994000,-8.831325301204819,-0.6144578313253012,-4.204819277108434,-0.5199264255058246,-8.704475781729,-3.894543225015328,3.0,1.238983238983239,807.1134205339546,-0.22621059378824096,-0.052677582891440485,0.15488607889983064,1426.3736263736262,-1.0,83.32966008307197,1.2448388796389669,
2023-08-11 19:54:31.002000,-8.843373493975903,-0.6385542168674699,-4.204819277108434,-0.598405885959534,-8.697118332311465,-3.843041079092581,3.0,1.2394272394272392,806.8242880171952,-0.42456733290600823,-0.6127848027504219,0.731658994231105,1419.047619047619,-1.0,83.32966008307197,1.2447858949109025,
2023-08-11 19:54:31.009000,-8.831325301204819,-0.6265060240963856,-4.228915662650603,-0.48559166155732675,-8.694665849172287,-3.8749233599019006,3.0,1.2394272394272392,806.8242880171952,-0.16409300157333537,-0.33179884622108186,0.46640638657420924,1410.989010989011,-1.0,83.32966008307197,1.2447328346083968,
2023-08-11 19:54:31.017000,-8.819277108433736,-0.6024096385542169,-4.19277108433735,-0.5616186388718577,-8.706928264868179,-3.8234212139791537,3.0,1.2394272394272392,806.8242880171952,-0.14882582600081629,-0.582017364955422,0.4504399510518038,1400.7326007326005,-1.0,83.32966008307197,1.244679702561733,
2023-08-11 19:54:31.025000,-8.819277108433736,-0.6024096385542169,-4.1807228915662655,-0.5591661557326794,-8.68976088289393,-3.8700183936235435,3.0,1.2394272394272392,806.8242880171952,-0.25674494493327915,-0.3876230988870119,0.3901870520365951,1394.8717948717947,796.630859375,75.31719276739197,1.2446265026192098,
2023-08-11 19:54:31.032000,-8.795180722891567,-0.6144578313253012,-4.1807228915662655,-0.49540159411404044,-8.694665849172287,-3.865113427345187,3.0,1.2394272394272392,806.8242880171952,-0.2089621816910442,-0.8800186469319972,0.2856476895285821,1389.7435897435896,-1.0,75.31719276739197,1.2445732387855235,
2023-08-11 19:54:31.040000,-8.819277108433736,-0.6144578313253012,-4.156626506024097,-0.5469037400367872,-8.677498467198038,-3.835683629675046,3.0,1.2394272394272392,806.8242880171952,-0.28168521647922673,-0.6052094866266536,0.16887127789755835,1386.080586080586,-1.0,75.31719276739197,1.2445199153493354,
2023-08-11 19:54:31.048000,-8.807228915662652,-0.6265060240963856,-4.1807228915662655,-0.49785407725321884,-8.648068669527897,-3.7939914163090127,3.0,1.2394272394272392,806.8242880171952,-0.26432026105704737,-0.3097721577996621,0.3274867431967831,1380.952380952381,-1.0,75.31719276739197,1.2444665368515824,
2023-08-11 19:54:31.055000,-8.783132530120483,-0.6144578313253012,-4.19277108433735,-0.522378908645003,-8.645616186388718,-3.8626609442060085,3.0,1.2394272394272392,806.8242880171952,-0.1695705378474451,-0.231455043412389,0.23821455626129012,1375.8241758241757,-1.0,75.31719276739197,1.2444131079261707,
2023-08-11 19:54:31.063000,-8.807228915662652,-0.6024096385542169,-4.204819277108434,-0.5370938074800735,-8.733905579399142,-3.8700183936235435,3.0,1.238983238983239,807.1134205339546,-0.16607423809801306,-0.2251617038634117,0.24112813938581623,1372.8937728937728,-1.0,75.31719276739197,1.244359633289917,
2023-08-11 19:54:31.071000,-8.831325301204819,-0.6385542168674699,-4.216867469879518,-0.5738810545677498,-8.724095646842427,-3.8013488657265477,3.0,1.238983238983239,807.1134205339546,0.12656605092943313,-0.09999417283375035,0.1474273061010432,1369.230769230769,-1.0,75.31719276739197,1.244306117583258,
2023-08-11 19:54:31.078000,-8.843373493975903,-0.6265060240963856,-4.19277108433735,-0.5665236051502146,-8.729000613120784,-3.8528510116492947,3.0,1.238983238983239,807.1134205339546,-0.23949653283608235,0.0867082337859107,0.05384301614125059,1364.8351648351647,-1.0,75.31719276739197,1.2442525653385845,
2023-08-11 19:54:31.086000,-8.819277108433736,-0.6385542168674699,-4.1807228915662655,-0.5935009196811771,-8.706928264868179,-3.8283261802575104,3.0,1.238983238983239,807.1134205339546,0.05162869296660949,0.36419789056581864,0.09731367635918634,1361.1721611721612,-1.0,75.31719276739197,1.244198981246592,
2023-08-11 19:54:31.094000,-8.843373493975903,-0.6265060240963856,-4.216867469879518,-0.5419987737584304,-8.758430410790925,-3.796443899448191,3.0,1.238983238983239,807.1134205339546,-0.39263446186119655,0.37876580618845096,0.23180467338733154,1359.7069597069597,-1.0,75.31719276739197,1.2441453701250138,
2023-08-11 19:54:31.101000,-8.831325301204819,-0.6385542168674699,-4.19277108433735,-0.5763335377069282,-8.726548129981605,-3.8283261802575104,3.0,1.238983238983239,807.1134205339546,-0.19206339956878993,0.09976108618378868,0.30685857467513555,1359.7069597069597,-1.0,75.31719276739197,1.2440917367601423,
2023-08-11 19:54:31.109000,-8.843373493975903,-0.6265060240963856,-4.156626506024097,-0.510116492949111,-8.709380748007357,-3.8111587982832615,3.0,1.238983238983239,807.1134205339546,-0.1003438028086946,0.11444554513140184,0.4261989394557421,1361.904761904762,-1.0,75.31719276739197,1.2440380858979498,
2023-08-11 19:54:31.117000,-8.831325301204819,-0.6265060240963856,-4.204819277108434,-0.5714285714285714,-8.702023298589822,-3.8577559779276513,3.0,1.238983238983239,807.1134205339546,-0.07202377483829579,0.17586387739642242,0.11794184488083431,1366.3003663003662,-1.0,75.31719276739197,1.2439844222356662,
2023-08-11 19:54:31.124000,-8.819277108433736,-0.6265060240963856,-4.19277108433735,-0.551808706315144,-8.755977927651747,-3.838136112814224,3.0,1.2376512376512376,807.9820627802691,-0.25534642503350563,-0.21933453761435773,0.5932055241536045,1372.8937728937728,-1.0,75.31719276739197,1.243930750413896,
2023-08-11 19:54:31.132000,-8.807228915662652,-0.6144578313253012,-4.156626506024097,-0.5150214592274678,-8.71919068056407,-3.8700183936235435,3.0,1.238095238095238,807.6923076923077,-0.22387972728861905,-0.04591807004253809,0.07225686148825876,1379.4871794871794,-1.0,75.31719276739197,1.243877074839022,
2023-08-11 19:54:31.140000,-8.783132530120483,-0.6385542168674699,-4.204819277108434,-0.510116492949111,-8.697118332311465,-3.872470876762722,3.0,1.238095238095238,807.6923076923077,-0.011188159198181129,0.07959909096206579,-0.017015325447235535,1383.8827838827838,-1.0,75.31719276739197,1.2438233995809373,
2023-08-11 19:54:31.147000,-8.771084337349398,-0.6385542168674699,-4.168674698795181,-0.539546290619252,-8.652973635806253,-3.8332311465358675,3.0,1.2385392385392384,807.4027603513175,-0.05594079599090911,0.4597634170502885,-0.2118757648155703,1386.080586080586,-1.0,75.31719276739197,1.2437697285249314,
2023-08-11 19:54:31.155000,-8.795180722891567,-0.6385542168674699,-4.1807228915662655,-0.5567136725935009,-8.61128142244022,-3.8920907418761495,3.0,1.2385392385392384,807.4027603513175,-0.0417225103432193,0.484820231921217,-0.12889691742905376,1387.5457875457876,-1.0,75.31719276739197,1.2437160656626742,
2023-08-11 19:54:31.163000,-8.819277108433736,-0.6265060240963856,-4.204819277108434,-0.5935009196811771,-8.667688534641323,-3.855303494788473,3.0,1.2385392385392384,807.4027603513175,-0.19194685624380908,0.03682769069401549,0.07225686148825876,1388.278388278388,-1.0,75.31719276739197,1.243662414947871,
2023-08-11 19:54:31.170000,-8.807228915662652,-0.6385542168674699,-4.216867469879518,-0.4880441446965052,-8.694665849172287,-3.8332311465358675,3.0,1.238095238095238,807.6923076923077,-0.12773148417924324,0.2660684109317634,-0.15570188217469821,1390.4761904761904,-1.0,75.31719276739197,1.243608780025131,
2023-08-11 19:54:31.178000,-8.807228915662652,-0.6265060240963856,-4.216867469879518,-0.5370938074800735,-8.724095646842427,-3.8503985285101163,3.0,1.2385392385392384,807.4027603513175,-0.4448458714527119,0.2482372822096607,-0.09544898315948948,1391.2087912087911,-1.0,75.31719276739197,1.2435551642259164,
2023-08-11 19:54:31.186000,-8.843373493975903,-0.6265060240963856,-4.1807228915662655,-0.5150214592274678,-8.731453096259962,-3.884733292458614,3.0,1.2385392385392384,807.4027603513175,-0.4075520074587731,0.15430336227492603,0.04020744711846582,1389.7435897435896,-1.0,75.31719276739197,1.243501570692936,
2023-08-11 19:54:31.193000,-8.843373493975903,-0.6385542168674699,-4.19277108433735,-0.6106683016554261,-8.741263028816677,-3.830778663396689,3.0,1.238095238095238,807.6923076923077,-0.43214264902977645,-0.07307266476312506,-0.02295903502126948,1387.5457875457876,-1.0,75.31719276739197,1.2434480025371584,
2023-08-11 19:54:31.201000,-8.855421686746988,-0.6506024096385542,-4.204819277108434,-0.5812385039852851,-8.682403433476395,-3.8454935622317596,3.0,1.238095238095238,807.6923076923077,-0.5779383485810858,-0.0071091428238449095,0.09777984965911098,1382.4175824175823,-1.0,75.31719276739197,1.243394462548855,
2023-08-11 19:54:31.209000,-8.855421686746988,-0.6506024096385542,-4.1807228915662655,-0.6131207847946045,-8.679950950337217,-3.8528510116492947,3.0,1.238095238095238,807.6923076923077,-0.4039391643843602,0.18075869704562622,0.32270846687256016,1378.7545787545787,-1.0,75.31719276739197,1.243340953176095,
2023-08-11 19:54:31.216000,-8.855421686746988,-0.6506024096385542,-4.168674698795181,-0.5248313917841815,-8.790312691600246,-3.8209687308399753,3.0,1.238095238095238,807.6923076923077,-0.4429811782530151,0.029485461220208904,0.48283899539653885,1375.091575091575,-1.0,75.31719276739197,1.243287476663519,
2023-08-11 19:54:31.224000,-8.819277108433736,-0.6265060240963856,-4.156626506024097,-0.5787860208461066,-8.687308399754752,-3.779276517473942,3.0,1.238095238095238,807.6923076923077,-0.514189149816445,0.01911310529689363,0.2609405046325966,1372.8937728937728,-1.0,75.31719276739197,1.2432340351923417,
2023-08-11 19:54:31.232000,-8.843373493975903,-0.6385542168674699,-4.156626506024097,-0.5076640098099325,-8.78050275904353,-3.8209687308399753,3.0,1.238095238095238,807.6923076923077,-0.30872326787483284,0.38704038226210596,0.4075520074587727,1369.230769230769,-1.0,75.31719276739197,1.2431806308625164,
2023-08-11 19:54:31.239000,-8.831325301204819,-0.6265060240963856,-4.168674698795181,-0.5346413243408952,-8.662783568362967,-3.865113427345187,3.0,1.238095238095238,807.6923076923077,-0.319911427073014,-0.2093118116659867,0.339607248994814,1365.5677655677655,-1.0,75.31719276739197,1.2431272655486176,
2023-08-11 19:54:31.247000,-8.831325301204819,-0.6265060240963856,-4.156626506024097,-0.5591661557326794,-8.648068669527897,-3.8503985285101163,3.0,1.2376512376512376,807.9820627802691,-0.2851815162286588,0.313385000874075,0.16525843482314548,1364.8351648351647,-1.0,75.31719276739197,1.2430739409062088,
2023-08-11 19:54:31.255000,-8.819277108433736,-0.6265060240963856,-4.132530120481928,-0.6229307173513182,-8.746167995095034,-3.7988963825873694,3.0,1.2376512376512376,807.9820627802691,-0.3108210477244914,0.3153662373987527,0.12971272070392137,1365.5677655677655,-1.0,75.31719276739197,1.2430206582301369,
2023-08-11 19:54:31.262000,-8.819277108433736,-0.6265060240963856,-4.1807228915662655,-0.5665236051502146,-8.694665849172287,-3.8332311465358675,3.0,1.2376512376512376,807.9820627802691,0.07668550783753793,0.7598624788765221,0.23203776003729407,1366.3003663003662,-1.0,75.31719276739197,1.2429674184414925,
2023-08-11 19:54:31.270000,-8.831325301204819,-0.6265060240963856,-4.1807228915662655,-0.5567136725935009,-8.753525444512569,-3.894543225015328,3.0,1.2376512376512376,807.9820627802691,-0.08833984033564414,0.7013577297360294,-0.0476662199172541,1367.032967032967,-1.0,75.31719276739197,1.2429142222347813,
2023-08-11 19:54:31.278000,-8.843373493975903,-0.6385542168674699,-4.1807228915662655,-0.5027590435315757,-8.68976088289393,-3.81361128142244,3.0,1.2367632367632366,808.562197092084,0.0075753161237682555,0.35067886486801386,0.13274284715342918,1362.6373626373625,-1.0,75.31719276739197,1.2428610700874452,
2023-08-11 19:54:31.285000,-8.843373493975903,-0.6385542168674699,-4.19277108433735,-0.5199264255058246,-8.709380748007357,-3.818516247700797,3.0,1.2372072372072371,808.272025838866,-0.15581842549968036,0.7668550783753862,0.06456500203950837,1358.2417582417581,-1.0,75.31719276739197,1.2428079622494064,
2023-08-11 19:54:31.293000,-8.843373493975903,-0.6506024096385542,-4.204819277108434,-0.5370938074800735,-8.770692826486817,-3.8626609442060085,3.0,1.2372072372072371,808.272025838866,0.1689878212225392,0.5203659460404397,0.21071033156575936,1353.8461538461538,-1.0,75.31719276739197,1.242754898819604,
2023-08-11 19:54:31.301000,-8.831325301204819,-0.6385542168674699,-4.1807228915662655,-0.5174739423666462,-8.729000613120784,-3.830778663396689,3.0,1.2372072372072371,808.272025838866,-0.19439426606841012,0.36664530039041965,-0.024007924946098307,1351.6483516483515,-1.0,75.31719276739197,1.242701879758886,
2023-08-11 19:54:31.308000,-8.819277108433736,-0.6144578313253012,-4.204819277108434,-0.5370938074800735,-8.709380748007357,-3.872470876762722,3.0,1.2372072372072371,808.272025838866,0.13029543732882684,0.5805023017306676,0.16933745119748211,1351.6483516483515,-1.0,75.31719276739197,1.2426489046266551,
2023-08-11 19:54:31.316000,-8.819277108433736,-0.6265060240963856,-4.1807228915662655,-0.5125689760882893,-8.711833231146535,-3.8749233599019006,3.0,1.2372072372072371,808.272025838866,-0.18880018646931956,0.2887943593030716,0.2699143406561393,1351.6483516483515,-1.0,75.31719276739197,1.242595972615931,
2023-08-11 19:54:31.324000,-8.807228915662652,-0.6385542168674699,-4.19277108433735,-0.5248313917841815,-8.702023298589822,-3.843041079092581,3.0,1.2372072372072371,808.272025838866,0.15267175572519084,0.42549967950585665,0.508361983567391,1350.9157509157508,-1.0,75.31719276739197,1.2425430828553279,
2023-08-11 19:54:31.331000,-8.819277108433736,-0.6506024096385542,-4.204819277108434,-0.598405885959534,-8.684855916615573,-3.816063764561618,3.0,1.2372072372072371,808.272025838866,0.030650894470019004,0.008041489423693338,0.3038284482256282,1350.18315018315,-1.0,75.31719276739197,1.2424902342645907,
2023-08-11 19:54:31.339000,-8.819277108433736,-0.6265060240963856,-4.19277108433735,-0.5419987737584304,-8.684855916615573,-3.8454935622317596,3.0,1.2372072372072371,808.272025838866,-0.18227376027038059,0.4024241011596059,0.2821513897791505,1351.6483516483515,-1.0,75.31719276739197,1.242437425442388,
2023-08-11 19:54:31.346000,-8.819277108433736,-0.6385542168674699,-4.204819277108434,-0.6008583690987124,-8.630901287553648,-3.8700183936235435,3.0,1.2372072372072371,808.272025838866,-0.1818075869704555,0.39403298176097007,0.2783054600547755,1354.5787545787546,-1.0,75.31719276739197,1.2423846549702942,
2023-08-11 19:54:31.354000,-8.795180722891567,-0.6385542168674699,-4.240963855421687,-0.5665236051502146,-8.670141017780502,-3.8577559779276513,3.0,1.2372072372072371,808.272025838866,0.10838529223238792,0.5364489248878265,0.07400501136297391,1357.5091575091574,-1.0,75.31719276739197,1.242331921409074,
2023-08-11 19:54:31.362000,-8.807228915662652,-0.6506024096385542,-4.228915662650603,-0.5444512568976088,-8.702023298589822,-3.8332311465358675,3.0,1.2372072372072371,808.272025838866,-0.258609638132976,0.5402948546122027,0.39111939863644263,1358.2417582417581,-1.0,75.31719276739197,1.2422792231680622,
2023-08-11 19:54:31.369000,-8.843373493975903,-0.6506024096385542,-4.228915662650603,-0.5419987737584304,-8.662783568362967,-3.9337829552421826,3.0,1.2372072372072371,808.272025838866,-0.1794767204708353,0.8206980945166368,0.18507080006992585,1361.1721611721612,-1.0,75.31719276739197,1.2422265585243404,
2023-08-11 19:54:31.377000,-8.819277108433736,-0.6385542168674699,-4.19277108433735,-0.5665236051502146,-8.670141017780502,-3.9117106069895766,3.0,1.2372072372072371,808.272025838866,-0.5401783112872202,0.7959909096206509,0.07027562496358064,1362.6373626373625,-1.0,75.31719276739197,1.2421739255036488,
2023-08-11 19:54:31.385000,-8.795180722891567,-0.6265060240963856,-4.216867469879518,-0.5297363580625383,-8.613733905579398,-3.867565910484365,3.0,1.2372072372072371,808.272025838866,-0.16677349804789982,0.8012353592447989,0.24497406911019165,1361.1721611721612,-1.0,75.31719276739197,1.242121322059634,
2023-08-11 19:54:31.392000,-8.771084337349398,-0.6144578313253012,-4.228915662650603,-0.4438994481912937,-8.650521152667075,-3.8626609442060085,3.0,1.2367632367632366,808.562197092084,-0.4519550142765569,0.7592797622516162,0.17633005069634664,1359.7069597069597,-1.0,75.31719276739197,1.2420687462220283,
2023-08-11 19:54:31.400000,-8.771084337349398,-0.6144578313253012,-4.1807228915662655,-0.522378908645003,-8.665236051502145,-3.847946045370938,3.0,1.2367632367632366,808.562197092084,-0.705203659460404,0.44286463492803424,0.06479808868947047,1356.7765567765566,-1.0,75.31719276739197,1.2420161958192364,
2023-08-11 19:54:31.408000,-8.795180722891567,-0.6024096385542169,-4.228915662650603,-0.5714285714285714,-8.662783568362967,-3.8798283261802573,3.0,1.2367632367632366,808.562197092084,-0.7741973078491928,0.1579162053493389,-0.12295320785502026,1353.113553113553,-1.0,75.31719276739197,1.2419636686167737,
2023-08-11 19:54:31.415000,-8.783132530120483,-0.6385542168674699,-4.228915662650603,-0.5640711220110362,-8.76578786020846,-3.894543225015328,3.0,1.2367632367632366,808.562197092084,-0.8100926519433599,0.09568206980945246,0.11922382145562611,1348.7179487179487,-1.0,75.31719276739197,1.2419111624558696,
2023-08-11 19:54:31.423000,-8.807228915662652,-0.6024096385542169,-4.1807228915662655,-0.5248313917841815,-8.743715511955855,-3.8700183936235435,3.0,1.2367632367632366,808.562197092084,-0.4969407377192465,-0.40405570770934107,-0.004661732999242571,1345.7875457875457,-1.0,75.31719276739197,1.2418586751258507,
