Shimmer_F5D4_Timestamp_FormattedUnix_CAL,Shimmer_F5D4_Accel_LN_X_CAL,Shimmer_F5D4_Accel_LN_Y_CAL,Shimmer_F5D4_Accel_LN_Z_CAL,Shimmer_F5D4_Accel_WR_X_CAL,Shimmer_F5D4_Accel_WR_Y_CAL,Shimmer_F5D4_Accel_WR_Z_CAL,Shimmer_F5D4_GSR_Range_CAL,Shimmer_F5D4_GSR_Skin_Conductance_CAL,Shimmer_F5D4_GSR_Skin_Resistance_CAL,Shimmer_F5D4_Gyro_X_CAL,Shimmer_F5D4_Gyro_Y_CAL,Shimmer_F5D4_Gyro_Z_CAL,Shimmer_F5D4_PPG_A13_CAL,Shimmer_F5D4_PPG_IBI_CAL,Shimmer_F5D4_PPGtoHR_CAL,Shimmer_F5D4_GSR_Skin_Conductance_LPF_CAL,
yyyy/mm/dd hh:mm:ss.000,m/(s^2),m/(s^2),m/(s^2),m/(s^2),m/(s^2),m/(s^2),no_units,uS,kOhms,deg/s,deg/s,deg/s,mV,ms,BPM,uS,
2023-08-10 17:19:25.611000,8.265060240963855,1.6626506024096386,-5.253012048192772,1.8221949724095645,8.909258123850398,-4.745554874310239,2.0,2.2380952380952377,446.8085106382979,0.3341297127207038,-0.8861954431559936,0.06911019171376967,1400.7326007326005,-1.0,-1.0,2.2391754095441407,
2023-08-10 17:19:25.619000,8.240963855421688,1.6506024096385543,-5.253012048192772,1.8344573881054567,8.916615573267933,-4.676885346413243,2.0,2.2380952380952377,446.8085106382979,0.04405337684284123,-0.3060427714002684,-0.053027212866383,1391.2087912087911,-1.0,-1.0,2.2391609746738,
2023-08-10 17:19:25.627000,8.240963855421688,1.6626506024096386,-5.228915662650603,1.8025751072961373,8.887185775597793,-4.684242795830778,2.0,2.236630036630037,447.10121192269895,0.013519025697803066,-0.10756948895752033,-0.1446302663014975,1380.952380952381,-1.0,-1.0,2.2391466054360594,
2023-08-10 17:19:25.634000,8.25301204819277,1.6626506024096386,-5.253012048192772,1.7731453096259961,8.919068056407111,-4.686695278969957,2.0,2.236630036630037,447.10121192269895,0.04405337684284123,-0.412913000407902,-0.037760037293863916,1373.6263736263736,-1.0,-1.0,2.2391323005449277,
2023-08-10 17:19:25.642000,8.25301204819277,1.6626506024096386,-5.216867469879518,1.824647455548743,8.850398528510116,-4.716125076640098,2.0,2.2380952380952377,446.8085106382979,-0.23075578346250228,-0.3060427714002684,-0.19043179301905475,1366.3003663003662,-1.0,-1.0,2.2391180584053676,
2023-08-10 17:19:25.650000,8.240963855421688,1.6626506024096386,-5.228915662650603,1.78295524218271,8.914163090128755,-4.637645616186388,2.0,2.2380952380952377,446.8085106382979,0.2577938348581084,-0.18390536682011577,-0.12936309072897842,1361.904761904762,-1.0,-1.0,2.239103877582534,
2023-08-10 17:19:25.657000,8.240963855421688,1.6987951807228916,-5.253012048192772,1.8270999386879214,8.89209074187615,-4.659717964438994,2.0,2.2380952380952377,446.8085106382979,-0.03228250101975418,-0.21443971796515393,-0.09882873958394024,1358.974358974359,-1.0,-1.0,2.2390897568850554,
2023-08-10 17:19:25.665000,8.228915662650603,1.6626506024096386,-5.240963855421687,1.807480073574494,8.931330472103005,-4.718577559779276,2.0,2.2380952380952377,446.8085106382979,-0.12388555445486868,-0.2449740691101921,-0.007225686148825746,1357.5091575091574,-1.0,-1.0,2.23907569446559,
2023-08-10 17:19:25.673000,8.228915662650603,1.6867469879518073,-5.240963855421687,1.888412017167382,8.92152053954629,-4.713672593500919,2.0,2.2380952380952377,446.8085106382979,0.08985490356039848,-0.229706893537673,-0.17516461744653566,1354.5787545787546,-1.0,-1.0,2.239061687904616,
2023-08-10 17:19:25.680000,8.228915662650603,1.674698795180723,-5.240963855421687,1.883507050889025,8.911710606989576,-4.652360515021459,2.0,2.2380952380952377,446.8085106382979,-0.2918244857525786,-6.992599498867545E-4,0.08437736728628875,1349.4505494505493,-1.0,-1.0,2.239047734715551,
2023-08-10 17:19:25.688000,8.25301204819277,1.6626506024096386,-5.240963855421687,1.8344573881054567,8.874923359901901,-4.645003065603924,2.0,2.2380952380952377,446.8085106382979,0.18145795699551298,-0.10756948895752033,0.28285064972903684,1342.8571428571427,-1.0,-1.0,2.239033832357986,
2023-08-10 17:19:25.696000,8.240963855421688,1.674698795180723,-5.240963855421687,1.824647455548743,8.931330472103005,-4.703862660944206,2.0,2.2380952380952377,446.8085106382979,-0.13915273002738776,-0.12283666453003943,0.008041489423693338,1336.263736263736,-1.0,-1.0,2.2390199782516844,
2023-08-10 17:19:25.703000,8.25301204819277,1.674698795180723,-5.253012048192772,1.8442673206621703,8.923973022685468,-4.6327406499080315,2.0,2.2380952380952377,446.8085106382979,-0.15441990559990684,-0.3518442981178257,-0.08356156401142116,1327.4725274725274,-1.0,-1.0,2.239006170249158,
2023-08-10 17:19:25.711000,8.265060240963855,1.6626506024096386,-5.253012048192772,1.8786020846106681,8.970570202329858,-4.637645616186388,2.0,2.2380952380952377,446.8085106382979,-0.12388555445486868,-0.1381038401025585,0.5271254588893421,1320.14652014652,-1.0,-1.0,2.2389924065837534,
2023-08-10 17:19:25.719000,8.240963855421688,1.674698795180723,-5.228915662650603,1.824647455548743,8.931330472103005,-4.689147762109135,2.0,2.2380952380952377,446.8085106382979,-0.23075578346250228,-0.046500786667444005,0.20651477186644143,1315.018315018315,-1.0,-1.0,2.2389786853972047,
2023-08-10 17:19:25.726000,8.25301204819277,1.6506024096385543,-5.253012048192772,1.8197424892703862,8.955855303494788,-4.691600245248313,2.0,2.2380952380952377,446.8085106382979,-0.0170153254472351,-0.4281801759804211,0.20651477186644143,1312.087912087912,-1.0,-1.0,2.238965004301854,
2023-08-10 17:19:25.734000,8.265060240963855,1.674698795180723,-5.228915662650603,1.8148375229920293,8.933782955242183,-4.63519313304721,2.0,2.2380952380952377,446.8085106382979,-0.2765573101800595,-0.412913000407902,0.19124759629392235,1306.9597069597069,-1.0,-1.0,2.2389513609256357,
2023-08-10 17:19:25.742000,8.25301204819277,1.674698795180723,-5.253012048192772,1.8221949724095645,8.950950337216431,-4.654812998160637,2.0,2.2380952380952377,446.8085106382979,-0.09335120330983052,-0.32130994697278753,0.05384301614125059,1303.2967032967033,-1.0,-1.0,2.2389377533528254,
2023-08-10 17:19:25.749000,8.25301204819277,1.6626506024096386,-5.253012048192772,1.7731453096259961,8.901900674432863,-4.664622930717351,2.0,2.2380952380952377,446.8085106382979,0.059320552415360314,-0.2449740691101921,-0.007225686148825746,1299.6336996336995,-1.0,-1.0,2.2389241791933725,
2023-08-10 17:19:25.757000,8.228915662650603,1.6626506024096386,-5.240963855421687,1.858982219497241,8.914163090128755,-4.671980380134887,2.0,2.2380952380952377,446.8085106382979,-0.0017481498747160184,-0.26024124468271115,-0.1446302663014975,1297.4358974358975,-1.0,-1.0,2.2389106356696655,
2023-08-10 17:19:25.765000,8.240963855421688,1.674698795180723,-5.228915662650603,1.7976701410177804,8.973022685469036,-4.649908031882281,2.0,2.2380952380952377,446.8085106382979,-0.03228250101975418,-0.6113862828506501,0.38972087873667044,1296.7032967032967,-1.0,-1.0,2.2388971201239305,
2023-08-10 17:19:25.772000,8.240963855421688,1.6506024096385543,-5.253012048192772,1.854077253218884,8.914163090128755,-4.698957694665849,2.0,2.2380952380952377,446.8085106382979,0.15092360585047482,-0.3976458248353829,0.2981178253015559,1298.9010989010987,-1.0,-1.0,2.238883630033052,
2023-08-10 17:19:25.780000,8.240963855421688,1.6626506024096386,-5.240963855421687,1.8712446351931329,8.93868792152054,-4.6695278969957075,2.0,2.236630036630037,447.10121192269895,0.037993123943825584,0.10663714235767191,0.2646698910319908,1301.8315018315018,-1.0,-1.0,2.2388701630234755,
2023-08-10 17:19:25.787000,8.25301204819277,1.6867469879518073,-5.265060240963856,1.824647455548743,8.943592887798896,-4.671980380134887,2.0,2.236630036630037,447.10121192269895,-0.053143756191363835,-0.07831711438727311,0.3002156051512153,1306.9597069597069,-1.0,-1.0,2.238856716851286,
2023-08-10 17:19:25.795000,8.240963855421688,1.6626506024096386,-5.240963855421687,1.8197424892703862,8.941140404659718,-4.674432863274065,2.0,2.2380952380952377,446.8085106382979,-0.021443971796515564,-0.15500262222481276,0.36606258376551504,1312.087912087912,-1.0,-1.0,2.2388432892775536,
2023-08-10 17:19:25.803000,8.265060240963855,1.6626506024096386,-5.240963855421687,1.78295524218271,8.92152053954629,-4.679337829552422,2.0,2.236630036630037,447.10121192269895,-0.1252840743546422,0.0882232970106633,0.5538138803100049,1316.4835164835165,-1.0,-1.0,2.2388298785395935,
2023-08-10 17:19:25.810000,8.228915662650603,1.6506024096385543,-5.253012048192772,1.8712446351931329,8.872470876762721,-4.676885346413243,2.0,2.2380952380952377,446.8085106382979,-0.38191247596293876,-0.11596060835615618,0.17260066429695248,1316.4835164835165,-1.0,-1.0,2.238816482484483,
2023-08-10 17:19:25.818000,8.265060240963855,1.6626506024096386,-5.27710843373494,1.8172900061312078,8.936235438381361,-4.6817903126916,2.0,2.236630036630037,447.10121192269895,0.0510459763417053,-0.04591807004253809,0.5112755666919181,1315.7509157509157,-1.0,-1.0,2.2388030990727534,
2023-08-10 17:19:25.826000,8.25301204819277,1.674698795180723,-5.19277108433735,1.807480073574494,8.928877988963825,-4.738197424892704,2.0,2.236630036630037,447.10121192269895,-0.08461045393625043,-0.26653458423168847,0.2984674552764993,1313.5531135531135,-1.0,-1.0,2.238789726846316,
2023-08-10 17:19:25.833000,8.240963855421688,1.6626506024096386,-5.265060240963856,1.8491722869405272,8.919068056407111,-4.654812998160637,2.0,2.236630036630037,447.10121192269895,0.14742730610104277,0.21735330108968004,0.29776819532661297,1313.5531135531135,-1.0,-1.0,2.238776363919763,
2023-08-10 17:19:25.841000,8.25301204819277,1.6506024096385543,-5.240963855421687,1.8172900061312078,8.933782955242183,-4.69650521152667,2.0,2.236630036630037,447.10121192269895,-0.20243575549210346,0.05372647281626975,0.0860089738360235,1314.2857142857142,-1.0,-1.0,2.2387630079878584,
2023-08-10 17:19:25.849000,8.228915662650603,1.63855421686747,-5.265060240963856,1.8221949724095645,8.955855303494788,-4.6695278969957075,2.0,2.236630036630037,447.10121192269895,0.15243866907522916,0.289260532602995,-0.021327428471533863,1315.018315018315,-1.0,-1.0,2.2387496563985856,
2023-08-10 17:19:25.856000,8.240963855421688,1.63855421686747,-5.253012048192772,1.7731453096259961,8.909258123850398,-4.708767627222563,2.0,2.2380952380952377,446.8085106382979,-0.18553697336985095,0.17329992424683882,-0.020045451896742925,1317.216117216117,-1.0,-1.0,2.2387363066457255,
2023-08-10 17:19:25.864000,8.240963855421688,1.6506024096385543,-5.240963855421687,1.7952176578786019,8.914163090128755,-4.630288166768853,2.0,2.236630036630037,447.10121192269895,0.0904376201853044,0.2263271371132218,-0.05116251966668614,1320.14652014652,-1.0,-1.0,2.23872295686043,
2023-08-10 17:19:25.872000,8.240963855421688,1.674698795180723,-5.240963855421687,1.8197424892703862,8.87737584304108,-4.689147762109135,2.0,2.236630036630037,447.10121192269895,-0.20010488899248327,0.7550842025522991,0.07412155468795519,1322.3443223443223,-1.0,-1.0,2.2387096053887054,
2023-08-10 17:19:25.879000,8.25301204819277,1.6626506024096386,-5.253012048192772,1.8933169834457386,8.926425505824646,-4.706315144083384,2.0,2.2380952380952377,446.8085106382979,-0.21490589126507728,0.4718839228483181,-0.032515587669716295,1327.4725274725274,-1.0,-1.0,2.2386962507218455,
2023-08-10 17:19:25.887000,8.228915662650603,1.674698795180723,-5.253012048192772,1.854077253218884,8.887185775597793,-4.652360515021459,2.0,2.236630036630037,447.10121192269895,-0.21257502476545706,0.46547403997435993,-0.03356447759454599,1332.6007326007325,-1.0,-1.0,2.2386828919186326,
2023-08-10 17:19:25.895000,8.265060240963855,1.6626506024096386,-5.253012048192772,1.9055793991416308,8.92152053954629,-4.642550582464746,2.0,2.236630036630037,447.10121192269895,-0.044752636792727986,0.6463492803449687,-0.13763766680263428,1337.7289377289376,-1.0,-1.0,2.238669527759663,
2023-08-10 17:19:25.902000,8.25301204819277,1.6626506024096386,-5.240963855421687,1.7878602084610666,8.950950337216431,-4.657265481299816,2.0,2.236630036630037,447.10121192269895,-0.07552007458772783,0.7045043995105172,0.12493444437969795,1341.3919413919414,-1.0,-1.0,2.2386561567100003,
2023-08-10 17:19:25.910000,8.240963855421688,1.6626506024096386,-5.216867469879518,1.8050275904353157,8.914163090128755,-4.5885959534028204,2.0,2.236630036630037,447.10121192269895,-0.012936309072897147,0.4117475671580902,0.0340306508944702,1342.1245421245421,-1.0,-1.0,2.238642777371332,
2023-08-10 17:19:25.918000,8.25301204819277,1.6506024096385543,-5.253012048192772,1.8491722869405272,8.909258123850398,-4.684242795830778,2.0,2.236630036630037,447.10121192269895,-0.32002797039799485,0.31664821397354537,0.32713711322184064,1338.4615384615383,-1.0,-1.0,2.238629388933444,
2023-08-10 17:19:25.925000,8.25301204819277,1.6506024096385543,-5.228915662650603,1.8320049049662783,8.916615573267933,-4.701410177805028,2.0,2.236630036630037,447.10121192269895,0.20115377891731254,0.07155760153837244,0.37235592331449197,1334.065934065934,-1.0,-1.0,2.238615990641975,
2023-08-10 17:19:25.933000,8.25301204819277,1.6626506024096386,-5.240963855421687,1.812385039852851,8.899448191293684,-4.600858369098712,2.0,2.235164835164835,447.39429695181906,0.06048598566517042,-0.12644950760445228,0.3863411223122197,1326.7399267399267,-1.0,-1.0,2.238602581369572,
2023-08-10 17:19:25.941000,8.240963855421688,1.6626506024096386,-5.228915662650603,1.8270999386879214,8.850398528510116,-4.667075413856529,2.0,2.236630036630037,447.10121192269895,0.21105996154070272,0.07248994813822088,0.41547695355748476,1321.6117216117216,-1.0,-1.0,2.238589160064858,
2023-08-10 17:19:25.948000,8.25301204819277,1.63855421686747,-5.240963855421687,1.854077253218884,8.884733292458614,-4.667075413856529,2.0,2.236630036630037,447.10121192269895,-0.05326029951634467,-0.046500786667444005,0.11980653808053117,1317.216117216117,-1.0,-1.0,2.2385757260962316,
2023-08-10 17:19:25.956000,8.25301204819277,1.63855421686747,-5.240963855421687,1.8001226241569588,8.936235438381361,-4.676885346413243,2.0,2.236630036630037,447.10121192269895,0.18914981644426382,0.21409008799020968,0.177612027271138,1313.5531135531135,-1.0,-1.0,2.23856227927819,
2023-08-10 17:19:25.964000,8.25301204819277,1.6626506024096386,-5.253012048192772,1.8295524218270998,8.916615573267933,-4.6253832004904964,2.0,2.236630036630037,447.10121192269895,0.10908455218227295,-0.0924188567099821,0.08227958743662936,1308.4249084249084,-1.0,-1.0,2.238548819406343,
2023-08-10 17:19:25.971000,8.265060240963855,1.6506024096385543,-5.240963855421687,1.836909871244635,8.92152053954629,-4.6253832004904964,2.0,2.236630036630037,447.10121192269895,-0.07866674436221735,-0.07738476778742467,-0.1489423693257967,1306.9597069597069,-1.0,-1.0,2.2385353457915786,
2023-08-10 17:19:25.979000,8.265060240963855,1.674698795180723,-5.253012048192772,1.8442673206621703,8.92152053954629,-4.6695278969957075,2.0,2.236630036630037,447.10121192269895,0.13309247712837213,-0.03135015441990576,-0.21024415826583512,1306.9597069597069,-1.0,-1.0,2.2385218577764596,
2023-08-10 17:19:25.987000,8.301204819277109,1.6626506024096386,-5.240963855421687,1.8761496014714898,8.960760269773145,-4.679337829552422,2.0,2.236630036630037,447.10121192269895,0.038575840568731506,0.3939164384359892,0.11059961540702773,1308.4249084249084,-1.0,-1.0,2.2385083551469505,
2023-08-10 17:19:25.994000,8.265060240963855,1.63855421686747,-5.240963855421687,1.7927651747394235,8.93868792152054,-4.701410177805028,2.0,2.2380952380952377,446.8085106382979,-0.17633005069634577,0.023075578346250746,0.06176796223996266,1309.1575091575091,-1.0,-1.0,2.238494837630473,
2023-08-10 17:19:26.002000,8.27710843373494,1.63855421686747,-5.240963855421687,1.8025751072961373,8.931330472103005,-4.691600245248313,2.0,2.236630036630037,447.10121192269895,-0.22166540411397967,0.26222248120738884,-3.4962997494294334E-4,1310.6227106227104,-1.0,-1.0,2.2384813053788735,
2023-08-10 17:19:26.010000,8.265060240963855,1.6506024096385543,-5.216867469879518,1.888412017167382,8.926425505824646,-4.676885346413243,2.0,2.2380952380952377,446.8085106382979,-0.18961598974418717,0.6371423576714635,-0.09183614008507704,1309.89010989011,-1.0,-1.0,2.238467758537906,
2023-08-10 17:19:26.017000,8.25301204819277,1.6626506024096386,-5.27710843373494,1.8516247700797055,8.92152053954629,-4.657265481299816,2.0,2.236630036630037,447.10121192269895,-0.20231921216712262,0.09381737660975387,-0.2425266592855893,1306.227106227106,-1.0,-1.0,2.2384541972052383,
2023-08-10 17:19:26.025000,8.25301204819277,1.6626506024096386,-5.253012048192772,1.8491722869405272,8.916615573267933,-4.708767627222563,2.0,2.236630036630037,447.10121192269895,-0.3689761668900416,0.1956762426432028,-0.05559116601596661,1302.5641025641025,-1.0,-1.0,2.238440621458162,
2023-08-10 17:19:26.033000,8.265060240963855,1.6506024096385543,-5.240963855421687,1.841814837522992,8.894543225015328,-4.659717964438994,2.0,2.236630036630037,447.10121192269895,-0.2126915680904379,0.16176213507371343,-0.09976108618378868,1301.098901098901,-1.0,-1.0,2.2384270308194965,
2023-08-10 17:19:26.040000,8.240963855421688,1.6626506024096386,-5.253012048192772,1.8614347026364193,8.92152053954629,-4.684242795830778,2.0,2.236630036630037,447.10121192269895,-0.1339082804032397,0.17598042072140324,0.010721985898257782,1301.8315018315018,-1.0,-1.0,2.2384134247066196,
2023-08-10 17:19:26.048000,8.240963855421688,1.6626506024096386,-5.27710843373494,1.824647455548743,8.87737584304108,-4.647455548743102,2.0,2.236630036630037,447.10121192269895,-0.3614008507662716,0.15943126857409323,-0.32375735679738943,1301.8315018315018,-1.0,-1.0,2.23839980196498,
2023-08-10 17:19:26.056000,8.228915662650603,1.6506024096385543,-5.240963855421687,1.8565297363580624,8.835683629675046,-4.701410177805028,2.0,2.236630036630037,447.10121192269895,-0.12924654740399757,0.003845929724374546,-0.25686148825826,1301.8315018315018,-1.0,-1.0,2.238386161385025,
2023-08-10 17:19:26.063000,8.240963855421688,1.6626506024096386,-5.253012048192772,1.8393623543838136,8.916615573267933,-4.657265481299816,2.0,2.236630036630037,447.10121192269895,0.19264611619369584,0.35662257444204865,-0.14171668317697095,1302.5641025641025,-1.0,-1.0,2.2383725021155625,
2023-08-10 17:19:26.071000,8.228915662650603,1.6867469879518073,-5.265060240963856,1.8638871857755976,8.896995708154506,-4.657265481299816,2.0,2.2380952380952377,446.8085106382979,-0.37340481323932206,0.03496299749431863,-0.2258609638132976,1303.2967032967033,-1.0,-1.0,2.238358822706731,
2023-08-10 17:19:26.079000,8.228915662650603,1.674698795180723,-5.216867469879518,1.778050275904353,8.855303494788473,-4.657265481299816,2.0,2.2380952380952377,446.8085106382979,-0.050579803041780225,0.021560515121496402,-0.005011362974185948,1305.4945054945053,-1.0,-1.0,2.2383451221220216,
2023-08-10 17:19:26.086000,8.240963855421688,1.6626506024096386,-5.253012048192772,1.812385039852851,8.89209074187615,-4.649908031882281,2.0,2.235164835164835,447.39429695181906,0.18040906707068372,-0.14358137637666823,-0.1392692733523686,1307.6923076923076,-1.0,-1.0,2.2383313997687146,
2023-08-10 17:19:26.094000,8.265060240963855,1.674698795180723,-5.265060240963856,1.883507050889025,8.923973022685468,-4.667075413856529,2.0,2.235164835164835,447.39429695181906,0.028436571295379638,-0.32597167997202964,0.29287337567740784,1315.7509157509157,-1.0,-1.0,2.2383176540892835,
2023-08-10 17:19:26.102000,8.265060240963855,1.674698795180723,-5.240963855421687,1.858982219497241,8.928877988963825,-4.691600245248313,2.0,2.236630036630037,447.10121192269895,0.01281976574791631,0.2561622283083732,0.38680729561214344,1330.4029304029302,-1.0,-1.0,2.2383038828418655,
2023-08-10 17:19:26.109000,8.25301204819277,1.6506024096385543,-5.265060240963856,1.8663396689147762,8.926425505824646,-4.686695278969957,2.0,2.236630036630037,447.10121192269895,0.009789639298409356,0.4505564943767851,0.2819183031291884,1356.7765567765566,-1.0,-1.0,2.238290084010897,
2023-08-10 17:19:26.117000,8.240963855421688,1.6506024096385543,-5.27710843373494,1.807480073574494,8.958307786633966,-4.684242795830778,2.0,2.236630036630037,447.10121192269895,0.05559116601596661,0.5821339082804029,0.23634986306159328,1392.6739926739926,-1.0,-1.0,2.2382762558746765,
2023-08-10 17:19:26.125000,8.265060240963855,1.674698795180723,-5.240963855421687,1.8663396689147762,8.914163090128755,-4.630288166768853,2.0,2.236630036630037,447.10121192269895,0.07109142823844736,0.5921566342287738,0.4972903676941903,1441.7582417582416,-1.0,-1.0,2.2382623965489263,
2023-08-10 17:19:26.132000,8.265060240963855,1.6506024096385543,-5.253012048192772,1.7731453096259961,8.98283261802575,-4.647455548743102,2.0,2.236630036630037,447.10121192269895,-0.12784802750422405,0.6944816735621462,0.2649029776819533,1504.0293040293038,-1.0,-1.0,2.2382485039894573,
2023-08-10 17:19:26.140000,8.27710843373494,1.6506024096385543,-5.228915662650603,1.858982219497241,8.985285101164928,-4.664622930717351,2.0,2.236630036630037,447.10121192269895,-0.4331915389546057,0.6118524561505735,0.22015034088922575,1576.5567765567764,-1.0,-1.0,2.238234575996088,
2023-08-10 17:19:26.148000,8.265060240963855,1.6506024096385543,-5.204819277108434,1.883507050889025,8.896995708154506,-4.676885346413243,2.0,2.236630036630037,447.10121192269895,-0.1389196433774261,0.37585222306392485,0.08391119398636411,1655.6776556776556,-1.0,-1.0,2.238220610217816,
2023-08-10 17:19:26.155000,8.25301204819277,1.6506024096385543,-5.19277108433735,1.8099325567136726,8.89209074187615,-4.686695278969957,2.0,2.236630036630037,447.10121192269895,-0.1820406736204189,-0.011421245848144537,0.10139269273352386,1735.5311355311353,-1.0,-1.0,2.2382066041593296,
2023-08-10 17:19:26.163000,8.265060240963855,1.6506024096385543,-5.216867469879518,1.883507050889025,9.002452483139178,-4.6400980993255665,2.0,2.236630036630037,447.10121192269895,-0.17854437387098687,-0.013752112347764738,0.10290775595827734,1811.7216117216117,-1.0,-1.0,2.2381925551888213,
2023-08-10 17:19:26.170000,8.265060240963855,1.6626506024096386,-5.228915662650603,1.8614347026364193,8.973022685469036,-4.62047823421214,2.0,2.236630036630037,447.10121192269895,0.068877105063808,-0.04405337684284123,-0.2443913524852866,1881.3186813186812,-1.0,-1.0,2.2381784605471187,
2023-08-10 17:19:26.178000,8.240963855421688,1.674698795180723,-5.216867469879518,1.8638871857755976,8.931330472103005,-4.647455548743102,2.0,2.236630036630037,447.10121192269895,-0.23646640638657368,0.31058796107452974,-0.23996270613600615,1942.8571428571427,-1.0,-1.0,2.238164317358176,
2023-08-10 17:19:26.186000,8.27710843373494,1.6626506024096386,-5.216867469879518,1.8712446351931329,8.95340282035561,-4.706315144083384,2.0,2.236630036630037,447.10121192269895,0.11875764815570147,0.1309946972787136,-0.0508128896917432,1994.139194139194,-1.0,-1.0,2.2381501226408202,
2023-08-10 17:19:26.193000,8.25301204819277,1.674698795180723,-5.240963855421687,1.8491722869405272,8.990190067443287,-4.6621704475781724,2.0,2.236630036630037,447.10121192269895,0.1942777227434293,-0.3553405978672577,0.04405337684284123,2030.03663003663,-1.0,-1.0,2.2381358733218404,
2023-08-10 17:19:26.201000,8.265060240963855,1.674698795180723,-5.240963855421687,1.8344573881054567,8.911710606989576,-4.689147762109135,2.0,2.236630036630037,447.10121192269895,0.20791329176621492,-0.025989161470776866,-0.3324981061709691,2049.8168498168498,-1.0,-1.0,2.2381215662502987,
2023-08-10 17:19:26.209000,8.25301204819277,1.6626506024096386,-5.253012048192772,1.8565297363580624,8.946045370938075,-4.689147762109135,2.0,2.236630036630037,447.10121192269895,0.16211176504865768,0.11712604160596629,-0.08344502068644033,2054.212454212454,-1.0,-1.0,2.2381071982130614,
2023-08-10 17:19:26.216000,8.25301204819277,1.6626506024096386,-5.216867469879518,1.8491722869405272,8.874923359901901,-4.686695278969957,2.0,2.236630036630037,447.10121192269895,0.2234135539886957,0.04486918011770882,-0.18588660334479346,2041.7582417582416,-1.0,-1.0,2.238092765951523,
2023-08-10 17:19:26.224000,8.240963855421688,1.6626506024096386,-5.265060240963856,1.8320049049662783,8.92152053954629,-4.667075413856529,2.0,2.236630036630037,447.10121192269895,0.06980945166365643,0.15407027562496434,-0.0611852456150576,2017.5824175824175,-1.0,-1.0,2.2380782661793823,
2023-08-10 17:19:26.232000,8.228915662650603,1.674698795180723,-5.228915662650603,1.8761496014714898,8.904353157572041,-4.733292458614347,2.0,2.2380952380952377,446.8085106382979,-0.32806945982168817,-0.012703222422935475,-0.031583241069867866,1984.6153846153845,-1.0,-1.0,2.2380636956015127,
2023-08-10 17:19:26.239000,8.240963855421688,1.6867469879518073,-5.240963855421687,1.78295524218271,8.928877988963825,-4.6695278969957075,2.0,2.236630036630037,447.10121192269895,-0.06479808868947004,-0.010605442573276946,-0.047782763242235377,1940.6593406593406,-1.0,-1.0,2.2380490514264184,
2023-08-10 17:19:26.247000,8.240963855421688,1.674698795180723,-5.240963855421687,1.8982219497240955,8.899448191293684,-4.674432863274065,2.0,2.236630036630037,447.10121192269895,0.21199230814055114,0.2200337975642445,0.1344909970281452,1892.3076923076922,-1.0,-1.0,2.2380343314243043,
2023-08-10 17:19:26.255000,8.289156626506024,1.6626506024096386,-5.265060240963856,1.883507050889025,8.992642550582465,-4.647455548743102,2.0,2.236630036630037,447.10121192269895,-0.21537206456500235,0.2980012819765751,0.2239962706136003,1841.0256410256409,-1.0,-1.0,2.2380195328989236,
2023-08-10 17:19:26.262000,8.27710843373494,1.6867469879518073,-5.216867469879518,1.8393623543838136,8.928877988963825,-4.6253832004904964,2.0,2.235164835164835,447.39429695181906,-0.06001981236524707,0.21956762426431942,0.4334246256045683,1785.3479853479853,-1.0,-1.0,2.2380046527470525,
2023-08-10 17:19:26.270000,8.240963855421688,1.6506024096385543,-5.240963855421687,1.8565297363580624,8.914163090128755,-4.642550582464746,2.0,2.236630036630037,447.10121192269895,0.017248412097196776,0.3866907522871635,0.01724841209719721,1728.2051282051282,-1.0,-1.0,2.237989687481129,
2023-08-10 17:19:26.278000,8.27710843373494,1.6626506024096386,-5.240963855421687,1.812385039852851,8.923973022685468,-4.667075413856529,2.0,2.236630036630037,447.10121192269895,-0.07400501136297348,0.5221140959151558,0.7348056640055941,1671.7948717948716,-1.0,-1.0,2.237974633672793,
2023-08-10 17:19:26.285000,8.265060240963855,1.674698795180723,-5.204819277108434,1.8491722869405272,8.889638258736971,-4.591048436541999,2.0,2.236630036630037,447.10121192269895,0.2172367577646992,0.47374861604801666,0.3319153895460636,1621.245421245421,-1.0,-1.0,2.2379594885007266,
2023-08-10 17:19:26.293000,8.265060240963855,1.674698795180723,-5.228915662650603,1.841814837522992,8.950950337216431,-4.706315144083384,2.0,2.236630036630037,447.10121192269895,0.01666569547229259,0.3189790804731656,0.2999825185012528,1573.6263736263736,-1.0,-1.0,2.2379442493157162,
2023-08-10 17:19:26.301000,8.25301204819277,1.674698795180723,-5.204819277108434,1.7731453096259961,8.923973022685468,-4.684242795830778,2.0,2.236630036630037,447.10121192269895,0.12551716100460386,-0.035196084144280305,0.01864693199696985,1530.4029304029302,-1.0,-1.0,2.2379289141215275,
2023-08-10 17:19:26.308000,8.265060240963855,1.6626506024096386,-5.240963855421687,1.8933169834457386,8.946045370938075,-4.645003065603924,2.0,2.236630036630037,447.10121192269895,-0.08787366703572079,-0.047316589942311596,0.0916030534351145,1492.3076923076922,-1.0,-1.0,2.237913481072739,
2023-08-10 17:19:26.316000,8.265060240963855,1.6626506024096386,-5.228915662650603,1.7927651747394235,8.899448191293684,-4.694052728387492,2.0,2.236630036630037,447.10121192269895,0.0949828098595657,-0.0896218169104368,0.25453062175863844,1457.8754578754579,-1.0,-1.0,2.2378979480764176,
2023-08-10 17:19:26.324000,8.265060240963855,1.6626506024096386,-5.228915662650603,1.8270999386879214,8.98283261802575,-4.667075413856529,2.0,2.236630036630037,447.10121192269895,-0.13600606025289824,-0.2999825185012528,0.34007342229473775,1429.3040293040292,-1.0,-1.0,2.2378823133066175,
2023-08-10 17:19:26.331000,8.25301204819277,1.674698795180723,-5.228915662650603,1.8565297363580624,8.98283261802575,-4.637645616186388,2.0,2.236630036630037,447.10121192269895,-0.21199230814055114,-0.0026804964745644456,0.030301264495075628,1406.5934065934066,-1.0,-1.0,2.2378665752257967,
2023-08-10 17:19:26.339000,8.265060240963855,1.674698795180723,-5.253012048192772,1.8442673206621703,8.943592887798896,-4.657265481299816,2.0,2.236630036630037,447.10121192269895,0.16968708117242592,-0.36536332381562875,-0.07924946098712198,1389.0109890109889,-1.0,-1.0,2.2378507326056867,
2023-08-10 17:19:26.347000,8.25301204819277,1.6867469879518073,-5.240963855421687,1.912936848559166,8.840588595953403,-4.684242795830778,2.0,2.236630036630037,447.10121192269895,0.014101742322708983,0.19078142299399725,-0.03531262746926201,1377.2893772893772,-1.0,-1.0,2.2378347845474535,
2023-08-10 17:19:26.354000,8.25301204819277,1.6626506024096386,-5.216867469879518,1.8712446351931329,8.89209074187615,-4.62047823421214,2.0,2.236630036630037,447.10121192269895,0.28821164267816574,-0.14486335295145916,0.11584406503117535,1367.032967032967,-1.0,-1.0,2.2378187305011132,
2023-08-10 17:19:26.362000,8.240963855421688,1.6867469879518073,-5.253012048192772,1.8663396689147762,8.90680564071122,-4.708767627222563,2.0,2.236630036630037,447.10121192269895,-0.06421537206456586,-0.23250393333721828,0.4166423868072957,1357.5091575091574,-1.0,-1.0,2.237802570283997,
2023-08-10 17:19:26.370000,8.265060240963855,1.6626506024096386,-5.265060240963856,1.8908645003065603,8.958307786633966,-4.600858369098712,2.0,2.236630036630037,447.10121192269895,-0.21642095448983162,-0.03123361109492492,0.33657712254530614,1352.3809523809523,-1.0,-1.0,2.2377863040981825,
2023-08-10 17:19:26.377000,8.25301204819277,1.6626506024096386,-5.228915662650603,1.8172900061312078,8.89209074187615,-4.6695278969957075,2.0,2.236630036630037,447.10121192269895,-0.06444845871452753,-0.1048889924829559,0.4842375152963115,1352.3809523809523,-1.0,-1.0,2.2377699325468057,
2023-08-10 17:19:26.385000,8.25301204819277,1.6626506024096386,-5.253012048192772,1.8320049049662783,8.901900674432863,-4.630288166768853,2.0,2.236630036630037,447.10121192269895,0.08799021036070162,-0.04195559699318271,0.11024998543208435,1357.5091575091574,-1.0,-1.0,2.2377534571069524,
2023-08-10 17:19:26.393000,8.25301204819277,1.6626506024096386,-5.240963855421687,1.807480073574494,8.93868792152054,-4.659717964438994,2.0,2.235164835164835,447.39429695181906,0.30161412505098795,0.009206922673503438,0.3526601013926924,1365.5677655677655,-1.0,-1.0,2.237736879618214,
2023-08-10 17:19:26.400000,8.265060240963855,1.6506024096385543,-5.204819277108434,1.8442673206621703,8.955855303494788,-4.6695278969957075,2.0,2.235164835164835,447.39429695181906,-0.15884855194918732,-0.07994872093700829,0.5146553231163684,1376.5567765567764,-1.0,-1.0,2.2377202018389797,
2023-08-10 17:19:26.408000,8.240963855421688,1.6626506024096386,-5.240963855421687,1.7805027590435314,8.946045370938075,-4.679337829552422,2.0,2.235164835164835,447.39429695181906,-0.20336810209195189,0.13449099702814563,-0.0721403181632775,1389.7435897435896,-1.0,-1.0,2.2377034258096393,
2023-08-10 17:19:26.416000,8.25301204819277,1.6506024096385543,-5.265060240963856,1.8221949724095645,8.919068056407111,-4.652360515021459,2.0,2.235164835164835,447.39429695181906,-0.10990035545714054,0.4222364664063863,0.016549152147310887,1403.6630036630036,-1.0,-1.0,2.2376865533670274,
2023-08-10 17:19:26.423000,8.265060240963855,1.6626506024096386,-5.228915662650603,1.812385039852851,8.914163090128755,-4.622930717351318,2.0,2.236630036630037,447.10121192269895,-0.23017306683759636,0.2977681953266134,0.015616805547462026,1421.9780219780218,-1.0,-1.0,2.2376695866736105,
2023-08-10 17:19:26.431000,8.27710843373494,1.6626506024096386,-5.228915662650603,1.8221949724095645,8.936235438381361,-4.649908031882281,2.0,2.236630036630037,447.10121192269895,-0.032632130994696695,0.3539420779674842,0.22574442048831675,1439.5604395604394,-1.0,-1.0,2.2376525286745217,
2023-08-10 17:19:26.439000,8.240963855421688,1.6506024096385543,-5.204819277108434,1.8467198038013488,8.926425505824646,-4.664622930717351,2.0,2.236630036630037,447.10121192269895,-0.031816327719829104,0.350562321543033,0.21898490763941478,1455.6776556776556,-1.0,-1.0,2.2376353827430417,
2023-08-10 17:19:26.446000,8.27710843373494,1.6506024096385543,-5.216867469879518,1.8025751072961373,8.923973022685468,-4.649908031882281,2.0,2.236630036630037,447.10121192269895,-0.15255521240021,0.1769127673212517,0.16782238797272864,1470.3296703296703,-1.0,-1.0,2.2376181531702324,
2023-08-10 17:19:26.454000,8.265060240963855,1.6626506024096386,-5.216867469879518,1.824647455548743,8.923973022685468,-4.659717964438994,2.0,2.236630036630037,447.10121192269895,-0.04323757356797364,-0.05745585921566346,-0.2783054600547755,1482.051282051282,-1.0,-1.0,2.2376008446350846,
2023-08-10 17:19:26.462000,8.25301204819277,1.674698795180723,-5.240963855421687,1.8050275904353157,8.916615573267933,-4.657265481299816,2.0,2.236630036630037,447.10121192269895,0.005360992949128891,0.026921508070625294,-0.1416001398519897,1490.10989010989,-1.0,-1.0,2.2375834622347837,
2023-08-10 17:19:26.469000,8.25301204819277,1.6867469879518073,-5.253012048192772,1.7584304107909257,8.933782955242183,-4.657265481299816,2.0,2.236630036630037,447.10121192269895,-0.15989744187401658,-0.12237049123011434,-0.20896218169104333,1495.970695970696,-1.0,-1.0,2.2375660119013565,
2023-08-10 17:19:26.477000,8.25301204819277,1.6867469879518073,-5.228915662650603,1.8491722869405272,8.84549356223176,-4.6817903126916,2.0,2.236630036630037,447.10121192269895,0.3012644950760437,-0.4074354641337923,-0.06526426198939425,1501.8315018315018,-1.0,-1.0,2.2375484994449772,
2023-08-10 17:19:26.485000,8.25301204819277,1.674698795180723,-5.216867469879518,1.8491722869405272,8.92152053954629,-4.718577559779276,2.0,2.236630036630037,447.10121192269895,-0.022259775071383155,-0.07738476778742467,0.1241186411048308,1506.227106227106,-1.0,-1.0,2.2375309310707,
2023-08-10 17:19:26.492000,8.240963855421688,1.6506024096385543,-5.240963855421687,1.8221949724095645,8.884733292458614,-4.686695278969957,2.0,2.235164835164835,447.39429695181906,0.08519317056115634,-0.3287687197715749,0.2670007575316123,1504.7619047619046,-1.0,-1.0,2.237513313331148,
2023-08-10 17:19:26.500000,8.240963855421688,1.6626506024096386,-5.27710843373494,1.8810545677498467,8.896995708154506,-4.6621704475781724,2.0,2.236630036630037,447.10121192269895,-0.021443971796515564,-0.10337392925820155,0.3773672862886779,1498.9010989010987,-1.0,-1.0,2.2374956526542267,
2023-08-10 17:19:26.508000,8.228915662650603,1.6626506024096386,-5.240963855421687,1.8197424892703862,8.89209074187615,-4.686695278969957,2.0,2.235164835164835,447.39429695181906,0.04067362041839003,-0.12027271138045581,0.16980362449740677,1490.8424908424906,-1.0,-1.0,2.2374779557127873,
2023-08-10 17:19:26.515000,8.25301204819277,1.6506024096385543,-5.253012048192772,1.8516247700797055,8.872470876762721,-4.686695278969957,2.0,2.236630036630037,447.10121192269895,0.28553114620360126,0.16549152147310714,0.4539362508012354,1484.9816849816848,-1.0,-1.0,2.2374602290156598,
2023-08-10 17:19:26.523000,8.25301204819277,1.63855421686747,-5.216867469879518,1.854077253218884,8.874923359901901,-4.676885346413243,2.0,2.236630036630037,447.10121192269895,0.13239321717848537,-0.1446302663014975,0.4196725132568031,1478.3882783882782,-1.0,-1.0,2.2374424797986765,
2023-08-10 17:19:26.531000,8.240963855421688,1.674698795180723,-5.228915662650603,1.7903126916002452,8.926425505824646,-4.689147762109135,2.0,2.236630036630037,447.10121192269895,0.14742730610104277,-0.02925237457024723,0.046151156692500625,1469.5970695970695,-1.0,-1.0,2.2374247160008713,
2023-08-10 17:19:26.538000,8.240963855421688,1.6506024096385543,-5.228915662650603,1.7976701410177804,8.840588595953403,-4.6817903126916,2.0,2.236630036630037,447.10121192269895,-0.08204650078666682,-0.3297010663714234,-0.04894819649204591,1460.07326007326,-1.0,-1.0,2.2374069458186514,
2023-08-10 17:19:26.546000,8.25301204819277,1.674698795180723,-5.240963855421687,1.7976701410177804,8.93868792152054,-4.627835683629675,2.0,2.235164835164835,447.39429695181906,-0.18693549326962272,-0.6548569430685854,-0.11094924538197067,1449.8168498168498,-1.0,-1.0,2.2373891776471972,
2023-08-10 17:19:26.553000,8.27710843373494,1.63855421686747,-5.253012048192772,1.841814837522992,8.965665236051501,-4.657265481299816,2.0,2.235164835164835,447.39429695181906,0.22749257036303192,-0.05768894586562513,0.11887419148068273,1440.2930402930401,-1.0,-1.0,2.237371419597792,
2023-08-10 17:19:26.561000,8.265060240963855,1.6506024096385543,-5.265060240963856,1.8172900061312078,8.919068056407111,-4.664622930717351,2.0,2.235164835164835,447.39429695181906,0.0882232970106633,-0.07027562496357977,-0.06468154536448921,1427.8388278388277,-1.0,-1.0,2.237353679823137,
2023-08-10 17:19:26.569000,8.265060240963855,1.6506024096385543,-5.240963855421687,1.8221949724095645,8.941140404659718,-4.684242795830778,2.0,2.235164835164835,447.39429695181906,0.34811491171843195,0.008857292698560929,-0.20301847211700938,1416.117216117216,-1.0,-1.0,2.23733596599516,
2023-08-10 17:19:26.576000,8.240963855421688,1.6506024096385543,-5.27710843373494,1.8442673206621703,8.914163090128755,-4.694052728387492,2.0,2.235164835164835,447.39429695181906,-0.09789639298409182,0.10582133908280432,0.19532661266825943,1403.6630036630036,-1.0,-1.0,2.2373182857991867,
2023-08-10 17:19:26.584000,8.25301204819277,1.674698795180723,-5.240963855421687,1.8099325567136726,8.894543225015328,-4.642550582464746,2.0,2.235164835164835,447.39429695181906,-0.23401899656197264,0.032632130994696695,-0.004195559699318357,1391.2087912087911,-1.0,-1.0,2.2373006468649397,
2023-08-10 17:19:26.592000,8.240963855421688,1.6626506024096386,-5.240963855421687,1.8050275904353157,8.943592887798896,-4.684242795830778,2.0,2.236630036630037,447.10121192269895,0.025989161470776866,-0.38319445253773143,0.05559116601596661,1378.021978021978,-1.0,-1.0,2.2372830563084802,
2023-08-10 17:19:26.599000,8.265060240963855,1.6626506024096386,-5.265060240963856,1.8320049049662783,8.963212752912323,-4.679337829552422,2.0,2.235164835164835,447.39429695181906,0.422935726356273,-0.12283666453003943,-0.0026804964745644456,1364.102564102564,-1.0,-1.0,2.2372655216797117,
2023-08-10 17:19:26.607000,8.240963855421688,1.6506024096385543,-5.240963855421687,1.7976701410177804,8.911710606989576,-4.6327406499080315,2.0,2.235164835164835,447.39429695181906,0.11467863178136525,0.07295612143814421,-0.14055124992716042,1349.4505494505493,-1.0,-1.0,2.237248050504077,
2023-08-10 17:19:26.615000,8.240963855421688,1.674698795180723,-5.240963855421687,1.8687921520539545,8.884733292458614,-4.684242795830778,2.0,2.235164835164835,447.39429695181906,0.1471942194510811,-0.08565934386107969,0.0745877279878794,1338.4615384615383,-1.0,-1.0,2.237230649720427,
2023-08-10 17:19:26.622000,8.228915662650603,1.6506024096385543,-5.240963855421687,1.8565297363580624,8.92152053954629,-4.6327406499080315,2.0,2.236630036630037,447.10121192269895,0.04207214031816354,0.10803566225744368,0.13542334362799363,1329.6703296703297,-1.0,-1.0,2.237213326560159,
2023-08-10 17:19:26.630000,8.25301204819277,1.674698795180723,-5.265060240963856,1.8295524218270998,8.980380134886571,-4.657265481299816,2.0,2.235164835164835,447.39429695181906,0.07295612143814421,0.0451022667676705,-0.2478876522347182,1321.6117216117216,-1.0,-1.0,2.2371960884787554,
2023-08-10 17:19:26.638000,8.265060240963855,1.6626506024096386,-5.240963855421687,1.8516247700797055,8.936235438381361,-4.6327406499080315,2.0,2.235164835164835,447.39429695181906,-0.15616805547462287,0.4268981994056284,-0.018297302022026472,1314.2857142857142,-1.0,-1.0,2.2371789427368376,
2023-08-10 17:19:26.645000,8.228915662650603,1.674698795180723,-5.253012048192772,1.8295524218270998,8.882280809319436,-4.6400980993255665,2.0,2.235164835164835,447.39429695181906,-0.24590641571004052,0.024823728220966765,-0.21712021443971793,1306.9597069597069,-1.0,-1.0,2.237161896266228,
2023-08-10 17:19:26.653000,8.265060240963855,1.674698795180723,-5.253012048192772,1.8295524218270998,8.872470876762721,-4.671980380134887,2.0,2.235164835164835,447.39429695181906,0.029368917895228067,0.038808927218693175,-0.21712021443971793,1300.3663003663003,-1.0,-1.0,2.2371449551485103,
2023-08-10 17:19:26.661000,8.240963855421688,1.6506024096385543,-5.228915662650603,1.824647455548743,8.955855303494788,-4.647455548743102,2.0,2.236630036630037,447.10121192269895,-0.09067070683526607,-0.14486335295145916,-0.048715109842083805,1295.2380952380952,-1.0,-1.0,2.237128125112083,
2023-08-10 17:19:26.668000,8.240963855421688,1.674698795180723,-5.265060240963856,1.7976701410177804,8.90680564071122,-4.701410177805028,2.0,2.236630036630037,447.10121192269895,-0.27306101043062747,-0.31210302429928405,-0.23250393333721828,1290.8424908424909,-1.0,-1.0,2.2371114124187703,
2023-08-10 17:19:26.676000,8.25301204819277,1.6987951807228916,-5.216867469879518,1.9006744328632739,8.894543225015328,-4.649908031882281,2.0,2.236630036630037,447.10121192269895,0.35440825126740927,-0.12714876755433904,-0.1088514655323117,1288.6446886446886,-1.0,-1.0,2.2370948234178774,
2023-08-10 17:19:26.684000,8.265060240963855,1.6626506024096386,-5.240963855421687,1.7903126916002452,8.914163090128755,-4.6400980993255665,2.0,2.235164835164835,447.39429695181906,0.1848377134199642,0.10232503933337228,-0.10955072548219803,1286.4468864468863,-1.0,-1.0,2.237078364069643,
2023-08-10 17:19:26.691000,8.25301204819277,1.6626506024096386,-5.240963855421687,1.8148375229920293,8.90680564071122,-4.62047823421214,2.0,2.236630036630037,447.10121192269895,0.04416992016782207,-0.12621642095449062,-0.16933745119748256,1287.179487179487,-1.0,-1.0,2.2370620389780496,
2023-08-10 17:19:26.699000,8.240963855421688,1.674698795180723,-5.253012048192772,1.8638871857755976,8.987737584304108,-4.637645616186388,2.0,2.235164835164835,447.39429695181906,-0.04603461336751892,0.13472408367810731,-0.15080706252549397,1284.9816849816848,-1.0,-1.0,2.2370458518640484,
2023-08-10 17:19:26.707000,8.265060240963855,1.674698795180723,-5.265060240963856,1.8320049049662783,8.894543225015328,-4.649908031882281,2.0,2.235164835164835,447.39429695181906,-0.04638424334246317,0.05768894586562513,-0.01235359244799253,1282.7838827838827,-1.0,-1.0,2.2370298065313783,
2023-08-10 17:19:26.714000,8.228915662650603,1.6626506024096386,-5.253012048192772,1.824647455548743,8.914163090128755,-4.679337829552422,2.0,2.235164835164835,447.39429695181906,-0.04685041664238651,0.055824252665928276,-0.013052852397878852,1281.3186813186812,-1.0,-1.0,2.237013906255147,
2023-08-10 17:19:26.722000,8.240963855421688,1.674698795180723,-5.240963855421687,1.836909871244635,8.90680564071122,-4.6817903126916,2.0,2.235164835164835,447.39429695181906,0.25826000815803346,0.2693316240312338,0.25045160538430183,1280.5860805860805,-1.0,-1.0,2.2369981537347488,
2023-08-10 17:19:26.730000,8.265060240963855,1.674698795180723,-5.265060240963856,1.8638871857755976,8.96811771919068,-4.667075413856529,2.0,2.235164835164835,447.39429695181906,-0.05046325971679939,0.008624206048599255,-0.04009090379348541,1281.3186813186812,-1.0,-1.0,2.2369825506257186,
2023-08-10 17:19:26.737000,8.240963855421688,1.6626506024096386,-5.253012048192772,1.7927651747394235,8.916615573267933,-4.6695278969957075,2.0,2.235164835164835,447.39429695181906,0.10279121263329563,0.2813355865042825,0.2517335819590932,1283.5164835164835,-1.0,-1.0,2.2369670975987077,
2023-08-10 17:19:26.745000,8.25301204819277,1.6506024096385543,-5.253012048192772,1.8393623543838136,8.884733292458614,-4.667075413856529,2.0,2.235164835164835,447.39429695181906,-0.11351319853155341,0.414661150282618,0.3885554454868599,1290.10989010989,-1.0,-1.0,2.236951795279588,
2023-08-10 17:19:26.753000,8.25301204819277,1.6626506024096386,-5.240963855421687,1.8099325567136726,8.887185775597793,-4.654812998160637,2.0,2.236630036630037,447.10121192269895,0.13122778392867526,0.41023250393333754,0.09579861313443286,1295.2380952380952,-1.0,-1.0,2.2369366437167377,
2023-08-10 17:19:26.760000,8.25301204819277,1.6506024096385543,-5.228915662650603,1.807480073574494,8.955855303494788,-4.694052728387492,2.0,2.235164835164835,447.39429695181906,0.0393916438435991,0.406386574208963,0.018530388671989015,1300.3663003663003,-1.0,-1.0,2.2369216429057306,
2023-08-10 17:19:26.768000,8.25301204819277,1.6626506024096386,-5.240963855421687,1.8393623543838136,8.931330472103005,-4.652360515021459,2.0,2.235164835164835,447.39429695181906,0.06992599498863726,0.3871569255870868,0.10873492220733044,1306.227106227106,-1.0,-1.0,2.2369067927918356,
2023-08-10 17:19:26.776000,8.265060240963855,1.6626506024096386,-5.240963855421687,1.812385039852851,8.916615573267933,-4.6817903126916,2.0,2.235164835164835,447.39429695181906,0.1305285239787885,0.029485461220208904,0.0801818075869704,1309.89010989011,-1.0,-1.0,2.2368920917997834,
2023-08-10 17:19:26.783000,8.240963855421688,1.6626506024096386,-5.240963855421687,1.8687921520539545,8.928877988963825,-4.686695278969957,2.0,2.235164835164835,447.39429695181906,-0.28121904317930163,0.01200396247304872,-0.025173358195909275,1311.3553113553112,-1.0,-1.0,2.236877537824467,
2023-08-10 17:19:26.791000,8.25301204819277,1.6626506024096386,-5.253012048192772,1.836909871244635,8.926425505824646,-4.659717964438994,2.0,2.235164835164835,447.39429695181906,-0.06468154536448921,0.19416117941844846,-0.023541751646174527,1311.3553113553112,-1.0,-1.0,2.2368631282041753,
2023-08-10 17:19:26.799000,8.25301204819277,1.6867469879518073,-5.216867469879518,1.8712446351931329,8.95340282035561,-4.684242795830778,2.0,2.235164835164835,447.39429695181906,0.3174640172484112,-0.13029543732882684,0.100460346133675,1311.3553113553112,-1.0,-1.0,2.2368488597659213,
2023-08-10 17:19:26.806000,8.25301204819277,1.6506024096385543,-5.204819277108434,1.8344573881054567,8.941140404659718,-4.659717964438994,2.0,2.235164835164835,447.39429695181906,0.009906182623390191,-0.10174232270846637,-0.1118815919818191,1311.3553113553112,-1.0,-1.0,2.236834729261639,
2023-08-10 17:19:26.814000,8.25301204819277,1.6626506024096386,-5.240963855421687,1.8467198038013488,8.887185775597793,-4.691600245248313,2.0,2.236630036630037,447.10121192269895,0.1466115028261752,0.17271720762193288,0.1826233902453235,1309.1575091575091,-1.0,-1.0,2.236820732893394,
2023-08-10 17:19:26.822000,8.25301204819277,1.674698795180723,-5.240963855421687,1.8786020846106681,8.923973022685468,-4.593500919681177,2.0,2.235164835164835,447.39429695181906,-0.07085834158848568,8.15803274867591E-4,-0.3066254880251735,1304.7619047619046,-1.0,-1.0,2.2368068668260164,
2023-08-10 17:19:26.829000,8.25301204819277,1.6506024096385543,-5.240963855421687,1.8295524218270998,8.870018393623543,-4.642550582464746,2.0,2.235164835164835,447.39429695181906,-0.06969290833867559,-0.3676941903152489,-0.11782530155585347,1298.9010989010987,-1.0,-1.0,2.2367931263307193,
2023-08-10 17:19:26.837000,8.265060240963855,1.6626506024096386,-5.240963855421687,1.8099325567136726,8.904353157572041,-4.6327406499080315,2.0,2.235164835164835,447.39429695181906,-0.1764465940213266,-0.10908455218227295,0.006876056173882803,1291.5750915750914,-1.0,-1.0,2.2367795058096136,
2023-08-10 17:19:26.845000,8.240963855421688,1.6626506024096386,-5.265060240963856,1.8320049049662783,8.899448191293684,-4.679337829552422,2.0,2.235164835164835,447.39429695181906,-0.2501019754093576,0.10547170910786008,0.1306450673037702,1286.4468864468863,-1.0,-1.0,2.236765999701023,
2023-08-10 17:19:26.852000,8.240963855421688,1.6626506024096386,-5.253012048192772,1.8172900061312078,8.923973022685468,-4.667075413856529,2.0,2.2336996336996338,447.68776648081337,0.025289901520890112,-0.018646931996970283,0.007575316123769124,1283.5164835164835,-1.0,-1.0,2.23675260155759,
2023-08-10 17:19:26.860000,8.240963855421688,1.6506024096385543,-5.289156626506024,1.8099325567136726,8.928877988963825,-4.613120784794604,2.0,2.2336996336996338,447.68776648081337,-0.27888817667968147,-0.24683876230988894,-0.19171376959384656,1282.7838827838827,-1.0,-1.0,2.236739304566811,
2023-08-10 17:19:26.868000,8.265060240963855,1.6626506024096386,-5.216867469879518,1.8687921520539545,8.914163090128755,-4.63519313304721,2.0,2.235164835164835,447.39429695181906,-0.23215430336227577,0.289260532602995,-0.16048015849892205,1285.7142857142856,-1.0,-1.0,2.2367261014064788,
2023-08-10 17:19:26.875000,8.25301204819277,1.6626506024096386,-5.253012048192772,1.854077253218884,8.914163090128755,-4.63519313304721,2.0,2.235164835164835,447.39429695181906,-0.27527533360526857,0.3484645416933745,-0.14497989627644087,1287.9120879120878,-1.0,-1.0,2.23671298430944,
2023-08-10 17:19:26.883000,8.265060240963855,1.674698795180723,-5.216867469879518,1.8442673206621703,8.926425505824646,-4.63519313304721,2.0,2.235164835164835,447.39429695181906,-0.04545189674261474,0.07540353126274699,-0.03706077734397759,1292.3076923076922,-1.0,-1.0,2.236699945656325,
2023-08-10 17:19:26.891000,8.240963855421688,1.6867469879518073,-5.240963855421687,1.8393623543838136,8.911710606989576,-4.671980380134887,2.0,2.235164835164835,447.39429695181906,-0.07703513781248217,-0.35032923489307133,0.09976108618378868,1297.4358974358975,-1.0,-1.0,2.236686977551524,
2023-08-10 17:19:26.898000,8.25301204819277,1.6867469879518073,-5.240963855421687,1.854077253218884,8.973022685469036,-4.657265481299816,2.0,2.235164835164835,447.39429695181906,0.013752112347764738,-0.16211176504865768,0.35767146436687836,1301.8315018315018,-1.0,-1.0,2.2366740718579203,
2023-08-10 17:19:26.906000,8.240963855421688,1.674698795180723,-5.216867469879518,1.8050275904353157,8.943592887798896,-4.622930717351318,2.0,2.235164835164835,447.39429695181906,-0.06281685216479235,-0.29450498222714305,0.2311054134374452,1307.6923076923076,-1.0,-1.0,2.236661220232376,
2023-08-10 17:19:26.914000,8.25301204819277,1.6626506024096386,-5.253012048192772,1.7903126916002452,8.87737584304108,-4.645003065603924,2.0,2.235164835164835,447.39429695181906,0.04416992016782207,0.09370083328477302,0.04638424334246274,1309.89010989011,-1.0,-1.0,2.2366484141618135,
2023-08-10 17:19:26.921000,8.240963855421688,1.6626506024096386,-5.253012048192772,1.8221949724095645,8.914163090128755,-4.654812998160637,2.0,2.235164835164835,447.39429695181906,0.2118757648155703,0.0340306508944702,0.22877454693782415,1309.89010989011,-1.0,-1.0,2.2366356449997524,
2023-08-10 17:19:26.929000,8.25301204819277,1.6506024096385543,-5.216867469879518,1.8099325567136726,8.926425505824646,-4.657265481299816,2.0,2.235164835164835,447.39429695181906,0.11642678165608127,-0.08694132043587237,0.381446302663015,1311.3553113553112,-1.0,-1.0,2.236622904003159,
2023-08-10 17:19:26.936000,8.25301204819277,1.6506024096385543,-5.240963855421687,1.7927651747394235,8.923973022685468,-4.708767627222563,2.0,2.235164835164835,447.39429695181906,-0.020161995221722892,-0.05617388264087252,-0.12318629450498236,1314.2857142857142,-1.0,-1.0,2.236610182369441,
2023-08-10 17:19:26.944000,8.27710843373494,1.63855421686747,-5.216867469879518,1.8172900061312078,8.963212752912323,-4.69650521152667,2.0,2.235164835164835,447.39429695181906,0.11805838820581471,-0.0882232970106633,-0.028436571295379204,1315.7509157509157,-1.0,-1.0,2.236597471273458,
2023-08-10 17:19:26.952000,8.265060240963855,1.6506024096385543,-5.228915662650603,1.836909871244635,8.955855303494788,-4.657265481299816,2.0,2.235164835164835,447.39429695181906,-0.33902453236990937,-0.16432608822329706,-0.30056523512615824,1317.216117216117,-1.0,-1.0,2.236584761904389,
2023-08-10 17:19:26.959000,8.27710843373494,1.63855421686747,-5.228915662650603,1.841814837522992,8.882280809319436,-4.622930717351318,2.0,2.235164835164835,447.39429695181906,-6.992599498867545E-4,-0.40871744070858324,-0.17586387739642198,1317.216117216117,-1.0,-1.0,2.236572045502318,
2023-08-10 17:19:26.967000,8.27710843373494,1.63855421686747,-5.240963855421687,1.8221949724095645,8.923973022685468,-4.721030042918454,2.0,2.2336996336996338,447.68776648081337,-0.18215721694539974,-0.11491171843132691,0.02470718489598506,1315.7509157509157,-1.0,-1.0,2.2365593133943915,
2023-08-10 17:19:26.975000,8.27710843373494,1.674698795180723,-5.228915662650603,1.73635806253832,8.946045370938075,-4.6253832004904964,2.0,2.235164835164835,447.39429695181906,-0.2101276149408543,-0.05465881941611818,0.05512499271604239,1314.2857142857142,-1.0,-1.0,2.236546556537734,
2023-08-10 17:19:26.982000,8.265060240963855,1.6626506024096386,-5.240963855421687,1.841814837522992,8.882280809319436,-4.689147762109135,2.0,2.235164835164835,447.39429695181906,-0.43773672862886703,-0.055824252665928276,0.037760037293863916,1311.3553113553112,-1.0,-1.0,2.236533765974811,
2023-08-10 17:19:26.990000,8.27710843373494,1.6626506024096386,-5.228915662650603,1.8786020846106681,8.985285101164928,-4.608215818516247,2.0,2.235164835164835,447.39429695181906,-0.37188975001456775,-0.026105704795757703,-0.14789347940096742,1307.6923076923076,-1.0,-1.0,2.236520933391973,
2023-08-10 17:19:26.998000,8.228915662650603,1.6626506024096386,-5.228915662650603,1.8712446351931329,8.889638258736971,-4.6621704475781724,2.0,2.235164835164835,447.39429695181906,-0.36827690694015486,-0.023891381621118337,-0.14649495950119434,1301.8315018315018,-1.0,-1.0,2.2365080506940664,
2023-08-10 17:19:27.005000,8.228915662650603,1.6626506024096386,-5.216867469879518,1.8295524218270998,8.946045370938075,-4.622930717351318,2.0,2.2336996336996338,447.68776648081337,-0.19835673911776724,0.06712895518909198,0.007225686148825746,1292.3076923076922,-1.0,-1.0,2.2364951100358423,
2023-08-10 17:19:27.013000,8.228915662650603,1.6626506024096386,-5.240963855421687,1.8491722869405272,8.867565910484364,-4.645003065603924,2.0,2.2336996336996338,447.68776648081337,-0.3659460404405329,-0.3445020686440191,-0.23763183963638465,1284.9816849816848,-1.0,-1.0,2.23648210335956,
2023-08-10 17:19:27.021000,8.228915662650603,1.674698795180723,-5.240963855421687,1.8270999386879214,8.90680564071122,-4.657265481299816,2.0,2.2336996336996338,447.68776648081337,-0.3182798205232788,-0.33785909912009754,-0.2523162985839987,1274.7252747252746,-1.0,-1.0,2.2364690228096586,
2023-08-10 17:19:27.028000,8.228915662650603,1.6987951807228916,-5.265060240963856,1.8663396689147762,8.936235438381361,-4.679337829552422,2.0,2.235164835164835,447.39429695181906,-0.3779500029135834,0.13798729677757768,-0.7413320902045335,1264.4688644688645,-1.0,-1.0,2.2364558606875726,
2023-08-10 17:19:27.036000,8.25301204819277,1.6867469879518073,-5.265060240963856,1.858982219497241,8.950950337216431,-4.684242795830778,2.0,2.235164835164835,447.39429695181906,0.26385408775712405,-0.12178777460521016,-0.2786550900297185,1257.142857142857,-1.0,-1.0,2.236442609543302,
2023-08-10 17:19:27.044000,8.25301204819277,1.6987951807228916,-5.228915662650603,1.836909871244635,8.931330472103005,-4.62047823421214,2.0,2.235164835164835,447.39429695181906,-0.05990326904026623,0.35300973136763575,-0.41524386690752263,1253.4798534798533,-1.0,-1.0,2.236429262757519,
2023-08-10 17:19:27.051000,8.240963855421688,1.6987951807228916,-5.216867469879518,1.8516247700797055,8.928877988963825,-4.618025751072961,2.0,2.235164835164835,447.39429695181906,-0.15162286580036158,0.2746926169803627,0.3813297593380337,1253.4798534798533,-1.0,-1.0,2.236415814104382,
2023-08-10 17:19:27.059000,8.228915662650603,1.6867469879518073,-5.240963855421687,1.883507050889025,8.887185775597793,-4.711220110361741,2.0,2.235164835164835,447.39429695181906,0.2441582658353245,-0.30697511800011684,0.2532486451838471,1259.3406593406592,-1.0,-1.0,2.2364022577706764,
2023-08-10 17:19:27.067000,8.228915662650603,1.674698795180723,-5.228915662650603,1.8221949724095645,8.904353157572041,-4.657265481299816,2.0,2.235164835164835,447.39429695181906,0.30277955830079806,-0.28995979255288173,0.3555736845172194,1270.3296703296703,-1.0,-1.0,2.236388588373378,
2023-08-10 17:19:27.074000,8.216867469879519,1.674698795180723,-5.265060240963856,1.8786020846106681,8.933782955242183,-4.730839975475169,2.0,2.235164835164835,447.39429695181906,-0.10990035545714054,-0.08717440708583403,0.3510284948429577,1288.6446886446886,-1.0,-1.0,2.2363748009756232,
2023-08-10 17:19:27.082000,8.25301204819277,1.674698795180723,-5.240963855421687,1.8172900061312078,8.90680564071122,-4.689147762109135,2.0,2.235164835164835,447.39429695181906,0.0564069692908342,0.050579803041780225,0.23891381621117644,1312.8205128205127,-1.0,-1.0,2.236360891101074,
2023-08-10 17:19:27.090000,8.265060240963855,1.6506024096385543,-5.240963855421687,1.807480073574494,8.941140404659718,-4.667075413856529,2.0,2.235164835164835,447.39429695181906,0.31548278072373354,0.3703746867898134,0.32771982984674564,1346.5201465201465,-1.0,-1.0,2.236346854746665,
2023-08-10 17:19:27.097000,8.25301204819277,1.6626506024096386,-5.216867469879518,1.8221949724095645,8.874923359901901,-4.667075413856529,2.0,2.235164835164835,447.39429695181906,0.223180467338734,0.1826233902453231,0.6743196783404228,1394.8717948717947,-1.0,-1.0,2.2363326883937336,
2023-08-10 17:19:27.105000,8.228915662650603,1.6626506024096386,-5.228915662650603,1.8565297363580624,8.916615573267933,-4.645003065603924,2.0,2.235164835164835,447.39429695181906,0.05407610279121226,0.48342171202144346,0.6398228541460289,1453.4798534798533,-1.0,-1.0,2.236318389017541,
2023-08-10 17:19:27.113000,8.240963855421688,1.6506024096385543,-5.240963855421687,1.8001226241569588,8.946045370938075,-4.630288166768853,2.0,2.235164835164835,447.39429695181906,0.2067478585164031,0.26723384418157525,0.42305226968125387,1522.3443223443223,-1.0,-1.0,2.236303954095209,
2023-08-10 17:19:27.120000,8.289156626506024,1.6626506024096386,-5.228915662650603,1.8786020846106681,8.980380134886571,-4.62047823421214,2.0,2.235164835164835,447.39429695181906,0.09871219625895941,0.008391119398635847,0.22236466406386554,1600.0,-1.0,-1.0,2.2362893816120546,
2023-08-10 17:19:27.128000,8.25301204819277,1.6506024096385543,-5.216867469879518,1.7755977927651747,8.936235438381361,-4.657265481299816,2.0,2.235164835164835,447.39429695181906,-0.023425208321193255,-0.033681020919527696,0.32818600314666985,1679.8534798534797,-1.0,-1.0,2.2362746700663965,
2023-08-10 17:19:27.136000,8.265060240963855,1.6626506024096386,-5.228915662650603,1.8736971183323115,8.931330472103005,-4.654812998160637,2.0,2.235164835164835,447.39429695181906,0.160829788473865,-0.16689004137288066,-0.03810966726880729,1759.7069597069597,-1.0,-1.0,2.236259818472819,
2023-08-10 17:19:27.143000,8.265060240963855,1.674698795180723,-5.240963855421687,1.8663396689147762,8.950950337216431,-4.664622930717351,2.0,2.235164835164835,447.39429695181906,0.05209486626653457,-0.35930307091661307,0.100460346133675,1834.4322344322343,-1.0,-1.0,2.2362448268218262,
2023-08-10 17:19:27.151000,8.265060240963855,1.674698795180723,-5.228915662650603,1.858982219497241,8.928877988963825,-4.689147762109135,2.0,2.235164835164835,447.39429695181906,-0.05815511916555022,-0.30650894470019174,0.13076161062875105,1900.3663003663003,-1.0,-1.0,2.236229695555045,
2023-08-10 17:19:27.159000,8.25301204819277,1.674698795180723,-5.240963855421687,1.8614347026364193,8.933782955242183,-4.642550582464746,2.0,2.235164835164835,447.39429695181906,0.5674494493327897,-0.31688130062350706,0.15978089854903574,1957.5091575091574,-1.0,-1.0,2.2362144251430216,
2023-08-10 17:19:27.166000,8.27710843373494,1.6626506024096386,-5.240963855421687,1.8025751072961373,8.887185775597793,-4.652360515021459,2.0,2.235164835164835,447.39429695181906,0.19555969931822195,-0.2384476429112531,-0.04032399044344752,2000.7326007326005,-1.0,-1.0,2.236199017032664,
2023-08-10 17:19:27.174000,8.27710843373494,1.674698795180723,-5.240963855421687,1.8099325567136726,8.992642550582465,-4.642550582464746,2.0,2.235164835164835,447.39429695181906,0.20814637841617661,-0.05372647281626975,-0.23891381621117644,2029.3040293040292,-1.0,-1.0,2.2361834735755814,
2023-08-10 17:19:27.182000,8.25301204819277,1.6626506024096386,-5.228915662650603,1.8001226241569588,8.965665236051501,-4.654812998160637,2.0,2.235164835164835,447.39429695181906,0.13087815395373276,-0.02330866499621242,0.21781947438960425,2042.4908424908424,-1.0,-1.0,2.236167797076168,
2023-08-10 17:19:27.189000,8.25301204819277,1.674698795180723,-5.216867469879518,1.8025751072961373,8.946045370938075,-4.689147762109135,2.0,2.235164835164835,447.39429695181906,-0.055008449391060685,-0.295786958801934,0.12143814463026635,2038.8278388278386,-1.0,-1.0,2.2361519898556432,
2023-08-10 17:19:27.197000,8.265060240963855,1.674698795180723,-5.240963855421687,1.8148375229920293,8.911710606989576,-4.6817903126916,2.0,2.235164835164835,447.39429695181906,0.007458772798787419,-0.01794767204708353,0.13402482372822097,2020.5128205128203,-1.0,-1.0,2.236136054735432,
2023-08-10 17:19:27.205000,8.228915662650603,1.674698795180723,-5.253012048192772,1.8197424892703862,8.963212752912323,-4.622930717351318,2.0,2.235164835164835,447.39429695181906,0.08530971388613719,-0.35662257444204865,0.04032399044344752,1987.5457875457873,-1.0,-1.0,2.2361199950268222,
2023-08-10 17:19:27.212000,8.228915662650603,1.6506024096385543,-5.216867469879518,1.7927651747394235,8.926425505824646,-4.667075413856529,2.0,2.235164835164835,447.39429695181906,0.23903035953615728,-0.2780723734048139,0.036011887419147896,1943.5897435897434,-1.0,-1.0,2.2361038145196446,
2023-08-10 17:19:27.220000,8.27710843373494,1.63855421686747,-5.265060240963856,1.824647455548743,8.914163090128755,-4.694052728387492,2.0,2.235164835164835,447.39429695181906,0.024823728220966765,-0.2753918769302494,0.09463317988462232,1890.8424908424906,-1.0,-1.0,2.236087517470063,
2023-08-10 17:19:27.228000,8.265060240963855,1.6506024096385543,-5.27710843373494,1.8761496014714898,8.958307786633966,-4.698957694665849,2.0,2.235164835164835,447.39429695181906,-0.09568206980945246,-0.19695821921799375,-0.16863819124759624,1832.9670329670328,-1.0,-1.0,2.2360711085875438,
2023-08-10 17:19:27.235000,8.301204819277109,1.6506024096385543,-5.265060240963856,1.8393623543838136,8.914163090128755,-4.6621704475781724,2.0,2.235164835164835,447.39429695181906,-0.10955072548219803,0.46186119689994704,-0.06258376551483025,1774.3589743589741,-1.0,-1.0,2.236054593021095,
2023-08-10 17:19:27.243000,8.265060240963855,1.6506024096385543,-5.240963855421687,1.8050275904353157,8.963212752912323,-4.694052728387492,2.0,2.235164835164835,447.39429695181906,-0.019462735271837873,0.35102849484295806,-0.033447934269564716,1712.8205128205127,-1.0,-1.0,2.236037976344842,
2023-08-10 17:19:27.251000,8.240963855421688,1.6626506024096386,-5.216867469879518,1.807480073574494,8.93868792152054,-4.62047823421214,2.0,2.235164835164835,447.39429695181906,-0.01969582192179955,0.3936833517860258,0.33121612959617724,1656.4102564102564,-1.0,-1.0,2.2360212645430138,
2023-08-10 17:19:27.258000,8.25301204819277,1.6626506024096386,-5.204819277108434,1.8148375229920293,8.899448191293684,-4.657265481299816,2.0,2.235164835164835,447.39429695181906,0.05850474914049272,0.2697977973311571,0.34333663539420767,1605.128205128205,-1.0,-1.0,2.236004463994433,
2023-08-10 17:19:27.266000,8.228915662650603,1.6506024096385543,-5.19277108433735,1.8908645003065603,8.894543225015328,-4.630288166768853,2.0,2.235164835164835,447.39429695181906,0.20919526834100588,-0.1426490297768198,0.20336810209195277,1558.2417582417581,-1.0,-1.0,2.2359875814565484,
2023-08-10 17:19:27.274000,8.265060240963855,1.6506024096385543,-5.240963855421687,1.8295524218270998,8.93868792152054,-4.63519313304721,2.0,2.235164835164835,447.39429695181906,0.20721403181632816,-0.14031816327719787,0.2034846454169336,1515.018315018315,-1.0,-1.0,2.2359706240490933,
2023-08-10 17:19:27.281000,8.265060240963855,1.6626506024096386,-5.265060240963856,1.8099325567136726,8.95340282035561,-4.659717964438994,2.0,2.235164835164835,447.39429695181906,-0.11479517510634608,-0.15197249577530408,-0.13542334362799363,1475.4578754578754,-1.0,-1.0,2.2359535992374417,
2023-08-10 17:19:27.289000,8.240963855421688,1.6626506024096386,-5.253012048192772,1.8344573881054567,8.90680564071122,-4.654812998160637,2.0,2.235164835164835,447.39429695181906,0.053493386166308075,-0.11665986830604294,-0.25254938523396075,1441.0256410256409,-1.0,-1.0,2.235936514815693,
2023-08-10 17:19:27.297000,8.25301204819277,1.674698795180723,-5.253012048192772,1.854077253218884,8.896995708154506,-4.735744941753525,2.0,2.235164835164835,447.39429695181906,0.03950818716857993,-0.3262047666219913,0.10150923605850469,1408.7912087912086,-1.0,-1.0,2.2359193788895775,
2023-08-10 17:19:27.304000,8.25301204819277,1.6626506024096386,-5.253012048192772,1.854077253218884,8.923973022685468,-4.674432863274065,2.0,2.235164835164835,447.39429695181906,0.10046034613367542,-0.16887127789755835,0.26944816735621463,1380.2197802197802,-1.0,-1.0,2.235902199859194,
2023-08-10 17:19:27.312000,8.25301204819277,1.6506024096385543,-5.253012048192772,1.8270999386879214,8.963212752912323,-4.659717964438994,2.0,2.2336996336996338,447.68776648081337,-0.09777984965911098,-0.18332265019520982,-0.06980945166365599,1355.3113553113553,-1.0,-1.0,2.235884986401658,
2023-08-10 17:19:27.319000,8.240963855421688,1.674698795180723,-5.253012048192772,1.8148375229920293,8.931330472103005,-4.630288166768853,2.0,2.2336996336996338,447.68776648081337,0.10080997610861794,-0.10617096905774683,0.06736204183905366,1334.7985347985348,-1.0,-1.0,2.2358677474188924,
2023-08-10 17:19:27.327000,8.25301204819277,1.6506024096385543,-5.253012048192772,1.8516247700797055,8.914163090128755,-4.686695278969957,2.0,2.2336996336996338,447.68776648081337,0.11607715168113703,-0.41163102383310934,-0.1769127673212517,1320.8791208791208,-1.0,-1.0,2.2358504918807336,
2023-08-10 17:19:27.335000,8.289156626506024,1.6506024096385543,-5.228915662650603,1.778050275904353,8.904353157572041,-4.718577559779276,2.0,2.2336996336996338,447.68776648081337,0.053143756191363835,-0.28891090262805247,-0.021677058446477673,1310.6227106227104,-1.0,-1.0,2.235833228313574,
2023-08-10 17:19:27.342000,8.265060240963855,1.6626506024096386,-5.240963855421687,1.883507050889025,8.914163090128755,-4.6621704475781724,2.0,2.235164835164835,447.39429695181906,-0.08624206048598561,-0.5007866674436228,0.2674669308315365,1306.227106227106,-1.0,-1.0,2.2358159653055423,
2023-08-10 17:19:27.350000,8.25301204819277,1.6626506024096386,-5.240963855421687,1.8614347026364193,8.901900674432863,-4.649908031882281,2.0,2.235164835164835,447.39429695181906,-0.17586387739642242,-0.2710797739059498,-0.22504516053843,1305.4945054945053,-1.0,-1.0,2.235798711941346,
2023-08-10 17:19:27.358000,8.25301204819277,1.6626506024096386,-5.253012048192772,1.7952176578786019,8.926425505824646,-4.698957694665849,2.0,2.235164835164835,447.39429695181906,0.207330575141309,-0.2832002797039794,0.04988054309189434,1309.89010989011,-1.0,-1.0,2.235781477885357,
2023-08-10 17:19:27.365000,8.27710843373494,1.6626506024096386,-5.265060240963856,1.8172900061312078,8.977927651747393,-4.647455548743102,2.0,2.2336996336996338,447.68776648081337,-0.35685566109201033,-0.007691859448750828,-0.2562787716333545,1318.6813186813185,-1.0,-1.0,2.2357642733278573,
2023-08-10 17:19:27.373000,8.265060240963855,1.6626506024096386,-5.240963855421687,1.854077253218884,8.899448191293684,-4.652360515021459,2.0,2.235164835164835,447.39429695181906,-0.1713186877221611,0.005477536274109728,0.03764349396888308,1328.937728937729,-1.0,-1.0,2.235747107983001,
2023-08-10 17:19:27.381000,8.265060240963855,1.674698795180723,-5.204819277108434,1.854077253218884,8.882280809319436,-4.698957694665849,2.0,2.235164835164835,447.39429695181906,-0.04941436979197012,0.40172484120971913,-0.23611677641163117,1340.6593406593406,-1.0,-1.0,2.2357299914922995,
2023-08-10 17:19:27.388000,8.265060240963855,1.674698795180723,-5.240963855421687,1.8859595340282034,8.941140404659718,-4.671980380134887,2.0,2.2336996336996338,447.68776648081337,-0.18681894994464188,-0.35067886486801386,-0.03333139094458345,1354.5787545787546,-1.0,-1.0,2.235712933931885,
2023-08-10 17:19:27.396000,8.25301204819277,1.6626506024096386,-5.253012048192772,1.824647455548743,8.911710606989576,-4.568976088289393,2.0,2.235164835164835,447.39429695181906,0.013868655672745575,0.0023308664996219363,-0.20127032224229335,1367.032967032967,-1.0,-1.0,2.2356959443860944,
2023-08-10 17:19:27.404000,8.25301204819277,1.6626506024096386,-5.228915662650603,1.8786020846106681,8.889638258736971,-4.5885959534028204,2.0,2.2336996336996338,447.68776648081337,-0.07540353126274699,-0.36454752054076117,-0.2897267059029192,1378.7545787545787,-1.0,-1.0,2.235679031874939,
2023-08-10 17:19:27.411000,8.25301204819277,1.6626506024096386,-5.265060240963856,1.807480073574494,8.92152053954629,-4.6106683016554255,2.0,2.2336996336996338,447.68776648081337,-0.09113688013518942,-0.40871744070858324,-0.025056814870928437,1389.7435897435896,-1.0,-1.0,2.235662205788921,
2023-08-10 17:19:27.419000,8.265060240963855,1.6626506024096386,-5.216867469879518,1.8761496014714898,8.960760269773145,-4.664622930717351,2.0,2.2336996336996338,447.68776648081337,-0.07656896451255708,-0.2524328419089795,-0.2095448983159488,1401.4652014652013,-1.0,-1.0,2.235645474390346,
2023-08-10 17:19:27.427000,8.25301204819277,1.674698795180723,-5.228915662650603,1.8712446351931329,8.914163090128755,-4.645003065603924,2.0,2.2336996336996338,447.68776648081337,-0.04615115669249976,-0.44624439135248545,-0.17819474389604348,1410.989010989011,-1.0,-1.0,2.23562884577282,
2023-08-10 17:19:27.434000,8.265060240963855,1.674698795180723,-5.240963855421687,1.8442673206621703,8.916615573267933,-4.711220110361741,2.0,2.2336996336996338,447.68776648081337,0.13577297360293658,-0.6242060485985664,-0.177612027271138,1421.245421245421,-1.0,-1.0,2.23561232825844,
2023-08-10 17:19:27.442000,8.216867469879519,1.674698795180723,-5.253012048192772,1.824647455548743,8.946045370938075,-4.6621704475781724,2.0,2.2336996336996338,447.68776648081337,-0.1707359710972552,-0.5560282034846452,-0.3280694598216886,1434.4322344322343,-1.0,-1.0,2.235595929881542,
2023-08-10 17:19:27.450000,8.25301204819277,1.674698795180723,-5.253012048192772,1.836909871244635,8.960760269773145,-4.647455548743102,2.0,2.2336996336996338,447.68776648081337,-0.10850183555736877,-0.7478585164034735,-0.12621642095448976,1444.6886446886447,-1.0,-1.0,2.2355796583648884,
2023-08-10 17:19:27.457000,8.240963855421688,1.6867469879518073,-5.253012048192772,1.8050275904353157,8.923973022685468,-4.706315144083384,2.0,2.2336996336996338,447.68776648081337,0.028669657945341313,-0.7409824602295901,-0.06363265543965951,1454.212454212454,-1.0,-1.0,2.235563521095767,
2023-08-10 17:19:27.465000,8.25301204819277,1.6626506024096386,-5.228915662650603,1.8442673206621703,8.86020846106683,-4.684242795830778,2.0,2.2322344322344323,447.9816212668198,-0.09393391993473643,-0.30837363789988864,0.14777693607598616,1460.8058608058607,-1.0,-1.0,2.2355475251020733,
2023-08-10 17:19:27.473000,8.240963855421688,1.6626506024096386,-5.240963855421687,1.8663396689147762,8.884733292458614,-4.657265481299816,2.0,2.2336996336996338,447.68776648081337,0.013752112347764738,-0.2447409824602304,0.11432900180642144,1463.003663003663,-1.0,-1.0,2.2355316769937152,
2023-08-10 17:19:27.480000,8.240963855421688,1.674698795180723,-5.253012048192772,1.8148375229920293,8.89209074187615,-4.676885346413243,2.0,2.2336996336996338,447.68776648081337,-0.1554687955247361,-0.12155468795524675,0.2791212633296427,1461.5384615384614,-1.0,-1.0,2.235515982834413,
2023-08-10 17:19:27.488000,8.25301204819277,1.6626506024096386,-5.228915662650603,1.78295524218271,8.919068056407111,-4.684242795830778,2.0,2.2336996336996338,447.68776648081337,-0.16723967134782317,-0.01666569547229259,-0.07528698793776573,1458.6080586080584,-1.0,-1.0,2.2355004482218637,
2023-08-10 17:19:27.496000,8.25301204819277,1.6506024096385543,-5.253012048192772,1.8050275904353157,8.86020846106683,-4.657265481299816,2.0,2.2336996336996338,447.68776648081337,-0.2576772915331276,-0.41384534700775044,0.2920575724025407,1452.014652014652,-1.0,-1.0,2.2354850782985745,
2023-08-10 17:19:27.503000,8.240963855421688,1.6506024096385543,-5.240963855421687,1.765787860208461,8.89209074187615,-4.600858369098712,2.0,2.2336996336996338,447.68776648081337,-0.1633937416234486,-0.046500786667444005,0.13868655672746355,1443.2234432234432,-1.0,-1.0,2.2354698777285367,
2023-08-10 17:19:27.511000,8.27710843373494,1.6626506024096386,-5.240963855421687,1.8344573881054567,8.909258123850398,-4.684242795830778,2.0,2.2336996336996338,447.68776648081337,0.11258085193170499,-0.12295320785502026,0.0026804964745644456,1433.6996336996335,-1.0,-1.0,2.235454850674718,
2023-08-10 17:19:27.519000,8.25301204819277,1.6626506024096386,-5.253012048192772,1.8001226241569588,8.899448191293684,-4.686695278969957,2.0,2.2336996336996338,447.68776648081337,-0.17796165724608096,-0.32107686032282584,-0.01165433249810621,1422.7106227106226,-1.0,-1.0,2.235440000777487,
2023-08-10 17:19:27.526000,8.25301204819277,1.6506024096385543,-5.228915662650603,1.8344573881054567,8.904353157572041,-4.703862660944206,2.0,2.2336996336996338,447.68776648081337,-0.3270205698968589,-0.08799021036070162,-0.11526134840626986,1409.5238095238094,-1.0,-1.0,2.2354253311341488,
2023-08-10 17:19:27.534000,8.25301204819277,1.674698795180723,-5.240963855421687,1.7976701410177804,8.884733292458614,-4.674432863274065,2.0,2.2336996336996338,447.68776648081337,-0.23180467338733154,-0.42386807295612144,-0.12668259425441397,1397.069597069597,-1.0,-1.0,2.235410843821863,
2023-08-10 17:19:27.542000,8.240963855421688,1.674698795180723,-5.253012048192772,1.8663396689147762,8.941140404659718,-4.6695278969957075,2.0,2.2336996336996338,447.68776648081337,-0.12190431793019099,-0.13029543732882684,0.10349047258318282,1384.6153846153845,-1.0,-1.0,2.2353965404049365,
2023-08-10 17:19:27.549000,8.228915662650603,1.6626506024096386,-5.240963855421687,1.824647455548743,8.948497854077253,-4.698957694665849,2.0,2.2336996336996338,447.68776648081337,-0.1214381446302659,-0.13122778392867526,0.102208496008391,1372.161172161172,-1.0,-1.0,2.235382421881817,
2023-08-10 17:19:27.557000,8.25301204819277,1.6626506024096386,-5.240963855421687,1.9202942979767013,8.970570202329858,-4.6327406499080315,2.0,2.2336996336996338,447.68776648081337,-0.32026105704795826,-0.30254647165083637,-0.021677058446477673,1358.974358974359,-1.0,-1.0,2.2353684887035925,
2023-08-10 17:19:27.565000,8.25301204819277,1.6626506024096386,-5.253012048192772,1.8810545677498467,8.916615573267933,-4.6033108522378905,2.0,2.2336996336996338,447.68776648081337,-0.04113979371831512,-0.08635860381096644,-0.02074471184662881,1347.985347985348,-1.0,-1.0,2.235354741183,
2023-08-10 17:19:27.572000,8.25301204819277,1.674698795180723,-5.216867469879518,1.836909871244635,8.950950337216431,-4.691600245248313,2.0,2.2336996336996338,447.68776648081337,0.02109434182157132,-0.4215372064564995,-0.14334828972670569,1338.4615384615383,-1.0,-1.0,2.2353411789922255,
2023-08-10 17:19:27.580000,8.228915662650603,1.674698795180723,-5.228915662650603,1.8344573881054567,8.928877988963825,-4.657265481299816,2.0,2.2336996336996338,447.68776648081337,-0.022026688421421484,-0.05127906299166698,0.20721403181632775,1328.937728937729,-1.0,-1.0,2.2353278011554316,
2023-08-10 17:19:27.588000,8.265060240963855,1.674698795180723,-5.204819277108434,1.8221949724095645,8.90680564071122,-4.593500919681177,2.0,2.2336996336996338,447.68776648081337,-0.22084960083911206,-0.23273701998717997,-0.022026688421420616,1319.4139194139193,-1.0,-1.0,2.235314606043444,
2023-08-10 17:19:27.595000,8.25301204819277,1.6626506024096386,-5.253012048192772,1.7927651747394235,8.896995708154506,-4.618025751072961,2.0,2.2336996336996338,447.68776648081337,0.08461045393625043,-0.2607074179826345,0.1306450673037702,1312.8205128205127,-1.0,-1.0,2.2353015913706824,
2023-08-10 17:19:27.603000,8.25301204819277,1.674698795180723,-5.253012048192772,1.858982219497241,8.916615573267933,-4.6621704475781724,2.0,2.2336996336996338,447.68776648081337,0.16071324514888416,-0.3679272769652123,0.14521298292640297,1307.6923076923076,-1.0,-1.0,2.2352887541944395,
2023-08-10 17:19:27.611000,8.25301204819277,1.6626506024096386,-5.228915662650603,1.8320049049662783,8.899448191293684,-4.652360515021459,2.0,2.235164835164835,447.39429695181906,0.16292756832352354,-0.609754676300915,-0.06980945166365599,1304.0293040293038,-1.0,-1.0,2.235276090458679,
2023-08-10 17:19:27.618000,8.228915662650603,1.63855421686747,-5.253012048192772,1.836909871244635,8.931330472103005,-4.6621704475781724,2.0,2.2336996336996338,447.68776648081337,-0.1119981353068008,-0.7260649146320136,0.11269739525668669,1295.970695970696,-1.0,-1.0,2.235263595558131,
2023-08-10 17:19:27.626000,8.25301204819277,1.6506024096385543,-5.240963855421687,1.841814837522992,8.948497854077253,-4.689147762109135,2.0,2.2322344322344323,447.9816212668198,0.13449099702814563,-0.44566167472757956,0.21910145096439607,1287.179487179487,-1.0,-1.0,2.2352512653286,
2023-08-10 17:19:27.634000,8.240963855421688,1.63855421686747,-5.253012048192772,1.812385039852851,8.919068056407111,-4.637645616186388,2.0,2.2336996336996338,447.68776648081337,0.1798263504457778,-0.04370374686789872,0.14194976982693305,1278.3882783882782,-1.0,-1.0,2.235239094900919,
2023-08-10 17:19:27.641000,8.25301204819277,1.6626506024096386,-5.253012048192772,1.8614347026364193,8.899448191293684,-4.718577559779276,2.0,2.2336996336996338,447.68776648081337,0.07237340481324003,-0.3169978439484879,0.07773439776236805,1270.3296703296703,-1.0,-1.0,2.2352270781541423,
2023-08-10 17:19:27.649000,8.25301204819277,1.674698795180723,-5.253012048192772,1.8442673206621703,8.884733292458614,-4.657265481299816,2.0,2.2336996336996338,447.68776648081337,0.08612551716100478,-0.4173416467571825,-0.10640405570770937,1261.5384615384614,-1.0,-1.0,2.2352152083272725,
2023-08-10 17:19:27.657000,8.228915662650603,1.6626506024096386,-5.265060240963856,1.8270999386879214,8.884733292458614,-4.703862660944206,2.0,2.2336996336996338,447.68776648081337,0.08379465066138284,-0.5198997727405165,0.02995163452013268,1252.7472527472526,-1.0,-1.0,2.2352034780710492,
2023-08-10 17:19:27.664000,8.25301204819277,1.6506024096385543,-5.240963855421687,1.8491722869405272,8.931330472103005,-4.654812998160637,2.0,2.2336996336996338,447.68776648081337,-0.17598042072140324,-0.1329759338033913,0.3331973661208554,1244.6886446886447,-1.0,-1.0,2.235191879467502,
2023-08-10 17:19:27.672000,8.265060240963855,1.6506024096385543,-5.27710843373494,1.765787860208461,8.896995708154506,-4.694052728387492,2.0,2.2336996336996338,447.68776648081337,-0.037760037293863916,-0.16257793834858103,0.2842491696288095,1239.5604395604396,-1.0,-1.0,2.2351804040520618,
2023-08-10 17:19:27.679000,8.25301204819277,1.6506024096385543,-5.27710843373494,1.841814837522992,8.914163090128755,-4.689147762109135,2.0,2.2336996336996338,447.68776648081337,0.17434881417166806,-0.025289901520890112,0.17318338092185753,1238.8278388278388,-1.0,-1.0,2.2351690428381725,
2023-08-10 17:19:27.687000,8.228915662650603,1.6506024096385543,-5.253012048192772,1.7927651747394235,8.950950337216431,-4.735744941753525,2.0,2.2336996336996338,447.68776648081337,0.23693257968649875,-0.2693316240312338,0.3844764291125224,1239.5604395604396,-1.0,-1.0,2.2351577863443866,
2023-08-10 17:19:27.695000,8.265060240963855,1.6506024096385543,-5.265060240963856,1.8663396689147762,8.914163090128755,-4.593500919681177,2.0,2.2336996336996338,447.68776648081337,0.022959035021269912,-0.23495134316182106,0.05978672571528453,1243.2234432234432,-1.0,-1.0,2.2351466246238383,
2023-08-10 17:19:27.702000,8.25301204819277,1.6506024096385543,-5.253012048192772,1.8393623543838136,8.92152053954629,-4.679337829552422,2.0,2.2336996336996338,447.68776648081337,0.2370491230114796,0.19439426606841012,0.4241011596060836,1252.014652014652,-1.0,-1.0,2.235135547296085,
2023-08-10 17:19:27.710000,8.265060240963855,1.6506024096385543,-5.265060240963856,1.7927651747394235,8.904353157572041,-4.686695278969957,2.0,2.2336996336996338,447.68776648081337,0.1434648330516874,0.2407785094108733,0.20558242526659298,1265.2014652014652,-1.0,-1.0,2.235124543581159,
2023-08-10 17:19:27.718000,8.265060240963855,1.6626506024096386,-5.228915662650603,1.8148375229920293,8.862660944206008,-4.667075413856529,2.0,2.2336996336996338,447.68776648081337,0.020045451896742058,-0.01911310529689363,0.12714876755433818,1280.5860805860805,-1.0,-1.0,2.2351136023357943,
2023-08-10 17:19:27.725000,8.25301204819277,1.6626506024096386,-5.240963855421687,1.8270999386879214,8.911710606989576,-4.694052728387492,2.0,2.2336996336996338,447.68776648081337,0.01969582192179955,0.1962589592681087,-0.011770875823087047,1295.970695970696,-1.0,-1.0,2.235102712091659,
2023-08-10 17:19:27.733000,8.240963855421688,1.674698795180723,-5.228915662650603,1.824647455548743,8.928877988963825,-4.637645616186388,2.0,2.2336996336996338,447.68776648081337,0.052211409591515406,0.04521881009265133,0.0050113629741855145,1309.89010989011,-1.0,-1.0,2.235091861095518,
2023-08-10 17:19:27.741000,8.25301204819277,1.6626506024096386,-5.228915662650603,1.7805027590435314,8.916615573267933,-4.618025751072961,2.0,2.2336996336996338,447.68776648081337,-0.08577588718606226,-0.18297302022026732,0.004195559699318357,1321.6117216117216,-1.0,-1.0,2.235081037351155,
2023-08-10 17:19:27.748000,8.240963855421688,1.6626506024096386,-5.253012048192772,1.7682403433476395,8.919068056407111,-4.63519313304721,2.0,2.2336996336996338,447.68776648081337,0.09906182623390192,0.06596352193928014,0.020861255171610082,1328.2051282051282,-1.0,-1.0,2.235070228662919,
2023-08-10 17:19:27.756000,8.228915662650603,1.6626506024096386,-5.265060240963856,1.8025751072961373,8.93868792152054,-4.679337829552422,2.0,2.2336996336996338,447.68776648081337,-0.009206922673503438,-0.11339665520657258,0.0689936483887884,1329.6703296703297,-1.0,-1.0,2.235059422680744,
2023-08-10 17:19:27.764000,8.240963855421688,1.6506024096385543,-5.240963855421687,1.8025751072961373,8.904353157572041,-4.600858369098712,2.0,2.2336996336996338,447.68776648081337,0.1905483363440356,-0.031816327719829104,0.26723384418157436,1328.2051282051282,-1.0,-1.0,2.235048606946455,
2023-08-10 17:19:27.771000,8.25301204819277,1.6626506024096386,-5.289156626506024,1.8344573881054567,8.93868792152054,-4.627835683629675,2.0,2.2322344322344323,447.9816212668198,0.22015034088922533,0.12551716100460386,0.1580327486743197,1324.5421245421244,-1.0,-1.0,2.235037768483332,
2023-08-10 17:19:27.779000,8.25301204819277,1.6626506024096386,-5.289156626506024,1.7903126916002452,8.874923359901901,-4.703862660944206,2.0,2.2322344322344323,447.9816212668198,0.17341646757181964,0.14416409300157415,0.019812365246780383,1320.14652014652,-1.0,-1.0,2.2350268938769364,
2023-08-10 17:19:27.787000,8.25301204819277,1.6626506024096386,-5.253012048192772,1.8221949724095645,8.867565910484364,-4.703862660944206,2.0,2.2336996336996338,447.68776648081337,0.3565060311170678,-0.13006235067886518,0.019812365246780383,1315.018315018315,-1.0,-1.0,2.2350159696731478,
2023-08-10 17:19:27.794000,8.25301204819277,1.6506024096385543,-5.240963855421687,1.8663396689147762,8.911710606989576,-4.703862660944206,2.0,2.2336996336996338,447.68776648081337,-0.07563661791270866,-0.05116251966668614,0.2938057222772567,1309.1575091575091,-1.0,-1.0,2.2350049828807825,
2023-08-10 17:19:27.802000,8.25301204819277,1.6506024096385543,-5.240963855421687,1.8565297363580624,8.92152053954629,-4.718577559779276,2.0,2.2336996336996338,447.68776648081337,0.07726822446244384,0.0896218169104368,0.260357788007692,1302.5641025641025,-1.0,-1.0,2.234993921546114,
2023-08-10 17:19:27.810000,8.25301204819277,1.6506024096385543,-5.265060240963856,1.8270999386879214,8.919068056407111,-4.708767627222563,2.0,2.2336996336996338,447.68776648081337,0.2013868655672742,0.04370374686789872,0.12120505798030425,1297.4358974358975,-1.0,-1.0,2.2349827738194477,
2023-08-10 17:19:27.817000,8.27710843373494,1.63855421686747,-5.265060240963856,1.8344573881054567,8.867565910484364,-4.6621704475781724,2.0,2.2336996336996338,447.68776648081337,-0.15104014917545566,-0.20010488899248327,0.16467571819823998,1294.5054945054944,-1.0,-1.0,2.2349715275835407,
2023-08-10 17:19:27.825000,8.240963855421688,1.6626506024096386,-5.27710843373494,1.8099325567136726,8.899448191293684,-4.657265481299816,2.0,2.2322344322344323,447.9816212668198,-0.14859273935085288,-0.1956762426432028,0.16420954489831577,1293.7728937728937,-1.0,-1.0,2.234960170994898,
2023-08-10 17:19:27.833000,8.265060240963855,1.6506024096385543,-5.27710843373494,1.7339055793991416,8.879828326180258,-4.72838749233599,2.0,2.2336996336996338,447.68776648081337,0.12703222422935648,0.2044169920167829,0.06841093176388335,1293.040293040293,-1.0,-1.0,2.2349486920393073,
2023-08-10 17:19:27.840000,8.240963855421688,1.6506024096385543,-5.240963855421687,1.7633353770692826,8.919068056407111,-4.686695278969957,2.0,2.2336996336996338,447.68776648081337,0.03414719421945104,-0.08833984033564414,0.05104597634170487,1293.040293040293,-1.0,-1.0,2.2349370789998364,
2023-08-10 17:19:27.848000,8.240963855421688,1.63855421686747,-5.240963855421687,1.8491722869405272,8.95340282035561,-4.667075413856529,2.0,2.2336996336996338,447.68776648081337,-0.13519025697803239,-0.08682477711089152,0.17213449099702827,1291.5750915750914,-1.0,-1.0,2.2349253210280096,
2023-08-10 17:19:27.856000,8.25301204819277,1.6265060240963856,-5.27710843373494,1.812385039852851,8.889638258736971,-4.679337829552422,2.0,2.2336996336996338,447.68776648081337,-0.07482081463784107,0.3743371598391705,-0.2563953149583358,1291.5750915750914,-1.0,-1.0,2.2349134077309363,
2023-08-10 17:19:27.863000,8.25301204819277,1.6506024096385543,-5.27710843373494,1.778050275904353,8.901900674432863,-4.6621704475781724,2.0,2.2336996336996338,447.68776648081337,-0.08915564361051173,0.4951925878445305,0.01969582192179955,1292.3076923076922,-1.0,-1.0,2.2349013292150826,
2023-08-10 17:19:27.871000,8.228915662650603,1.6506024096385543,-5.253012048192772,1.8663396689147762,8.92152053954629,-4.6033108522378905,2.0,2.2336996336996338,447.68776648081337,-0.014101742322708983,0.3080240079249461,-0.013169395722860121,1296.7032967032967,-1.0,-1.0,2.234889076128627,
2023-08-10 17:19:27.879000,8.25301204819277,1.63855421686747,-5.253012048192772,1.8320049049662783,8.904353157572041,-4.679337829552422,2.0,2.2336996336996338,447.68776648081337,0.030184721170095657,0.40114212458481496,0.01550026222248119,1299.6336996336995,-1.0,-1.0,2.234876639702217,
2023-08-10 17:19:27.886000,8.25301204819277,1.6626506024096386,-5.265060240963856,1.8393623543838136,8.911710606989576,-4.679337829552422,2.0,2.2336996336996338,447.68776648081337,0.10430627585804997,0.005477536274109728,0.1661907814229939,1298.9010989010987,-1.0,-1.0,2.2348640117879452,
2023-08-10 17:19:27.894000,8.25301204819277,1.6626506024096386,-5.265060240963856,1.8001226241569588,8.923973022685468,-4.679337829552422,2.0,2.2336996336996338,447.68776648081337,0.24066196608589246,0.25196666860905614,-0.01934619194685617,1295.970695970696,-1.0,-1.0,2.234851184896372,
2023-08-10 17:19:27.902000,8.25301204819277,1.674698795180723,-5.27710843373494,1.836909871244635,8.919068056407111,-4.676885346413243,2.0,2.2336996336996338,447.68776648081337,0.19252957286871328,0.17271720762193288,0.22504516053843,1288.6446886446886,-1.0,-1.0,2.2348381522314344,
2023-08-10 17:19:27.909000,8.228915662650603,1.6506024096385543,-5.27710843373494,1.8491722869405272,8.901900674432863,-4.647455548743102,2.0,2.2336996336996338,447.68776648081337,0.38972087873667044,-0.28623040615348805,0.08787366703572036,1279.120879120879,-1.0,-1.0,2.2348249077230844,
2023-08-10 17:19:27.917000,8.240963855421688,1.63855421686747,-5.253012048192772,1.841814837522992,8.916615573267933,-4.716125076640098,2.0,2.2336996336996338,447.68776648081337,0.11153196200687572,0.14276557310180063,0.25616222830837365,1270.3296703296703,-1.0,-1.0,2.234811446057498,
2023-08-10 17:19:27.925000,8.240963855421688,1.63855421686747,-5.265060240963856,1.8687921520539545,8.90680564071122,-4.664622930717351,2.0,2.2322344322344323,447.9816212668198,-0.0874074937357957,0.1744653574966489,0.2538313618087526,1264.4688644688645,-1.0,-1.0,2.234797762704731,
2023-08-10 17:19:27.932000,8.25301204819277,1.63855421686747,-5.27710843373494,1.812385039852851,8.865113427345186,-4.711220110361741,2.0,2.2322344322344323,447.9816212668198,0.006526426198938992,0.174931530796574,0.19183031291882738,1263.7362637362637,-1.0,-1.0,2.2347838539088896,
2023-08-10 17:19:27.940000,8.25301204819277,1.6506024096385543,-5.265060240963856,1.8491722869405272,8.992642550582465,-4.703862660944206,2.0,2.2322344322344323,447.9816212668198,0.17539770409649733,-0.06980945166365643,-0.25021851873433926,1265.2014652014652,-1.0,-1.0,2.2347697165708515,
2023-08-10 17:19:27.948000,8.240963855421688,1.6626506024096386,-5.27710843373494,1.8221949724095645,8.946045370938075,-4.686695278969957,2.0,2.2336996336996338,447.68776648081337,-0.0397412738185416,0.22189849076394133,0.3454344152438671,1267.3992673992673,-1.0,-1.0,2.234755348231433,
2023-08-10 17:19:27.955000,8.27710843373494,1.6506024096385543,-5.253012048192772,1.883507050889025,8.975475168608215,-4.649908031882281,2.0,2.2336996336996338,447.68776648081337,0.29741856535166916,0.31268574092418827,0.29602004545189653,1270.3296703296703,-1.0,-1.0,2.234740747577778,
2023-08-10 17:19:27.963000,8.27710843373494,1.63855421686747,-5.240963855421687,1.8638871857755976,8.882280809319436,-4.622930717351318,2.0,2.2336996336996338,447.68776648081337,-0.10430627585804997,0.08158032748674347,5.827166249054841E-4,1271.062271062271,-1.0,-1.0,2.2347259140670634,
2023-08-10 17:19:27.971000,8.265060240963855,1.6265060240963856,-5.240963855421687,1.7805027590435314,8.931330472103005,-4.671980380134887,2.0,2.2336996336996338,447.68776648081337,-0.011887419148067882,0.21677058446477412,0.19684167589301332,1268.131868131868,-1.0,-1.0,2.2347108475465047,
2023-08-10 17:19:27.978000,8.27710843373494,1.6506024096385543,-5.240963855421687,1.8050275904353157,8.874923359901901,-4.69650521152667,2.0,2.2336996336996338,447.68776648081337,0.032632130994696695,0.49053085484528836,0.545772390886312,1263.7362637362637,-1.0,-1.0,2.234695548748627,
2023-08-10 17:19:27.986000,8.25301204819277,1.6506024096385543,-5.240963855421687,1.8467198038013488,8.909258123850398,-4.654812998160637,2.0,2.2322344322344323,447.9816212668198,0.04603461336751892,0.18250684692034225,0.1441640930015733,1259.3406593406592,-1.0,-1.0,2.2346800192908094,
2023-08-10 17:19:27.994000,8.25301204819277,1.63855421686747,-5.253012048192772,1.7927651747394235,8.90680564071122,-4.674432863274065,2.0,2.2336996336996338,447.68776648081337,-0.1256337043295847,-0.10791911893246285,0.03554571411922368,1255.6776556776556,-1.0,-1.0,2.2346642611791085,
2023-08-10 17:19:28.001000,8.265060240963855,1.6506024096385543,-5.253012048192772,1.8148375229920293,8.882280809319436,-4.657265481299816,2.0,2.2336996336996338,447.68776648081337,0.17772857059611927,-0.227958743662957,-0.28739583940329816,1256.4102564102564,-1.0,-1.0,2.2346482772222314,
2023-08-10 17:19:28.009000,8.228915662650603,1.63855421686747,-5.253012048192772,1.8393623543838136,8.899448191293684,-4.725935009196811,2.0,2.2336996336996338,447.68776648081337,-0.39146902861138644,0.09568206980945246,0.04859856651710253,1260.07326007326,-1.0,-1.0,2.2346320715465526,
2023-08-10 17:19:28.017000,8.240963855421688,1.6506024096385543,-5.265060240963856,1.8221949724095645,8.931330472103005,-4.698957694665849,2.0,2.2336996336996338,447.68776648081337,-0.23751529631140295,0.20383427539187698,-0.22749257036303233,1263.7362637362637,-1.0,-1.0,2.2346156491252676,
2023-08-10 17:19:28.024000,8.240963855421688,1.6506024096385543,-5.265060240963856,1.8344573881054567,8.911710606989576,-4.691600245248313,2.0,2.2336996336996338,447.68776648081337,0.12773148417924324,0.12481790105471711,-0.15220558242526663,1268.131868131868,-1.0,-1.0,2.2345990157626203,
2023-08-10 17:19:28.032000,8.25301204819277,1.6506024096385543,-5.27710843373494,1.854077253218884,8.948497854077253,-4.684242795830778,2.0,2.2336996336996338,447.68776648081337,-0.5629042596585284,0.2143231746401731,0.13612260357788017,1272.5274725274724,-1.0,-1.0,2.234582178533288,
2023-08-10 17:19:28.040000,8.240963855421688,1.6506024096385543,-5.240963855421687,1.7755977927651747,8.933782955242183,-4.63519313304721,2.0,2.2336996336996338,447.68776648081337,-0.02738768137054864,0.04720004661733076,-0.05477536274109902,1278.3882783882782,-1.0,-1.0,2.2345651452361706,
2023-08-10 17:19:28.047000,8.240963855421688,1.63855421686747,-5.265060240963856,1.7878602084610666,8.889638258736971,-4.713672593500919,2.0,2.2322344322344323,447.9816212668198,0.09673095973428172,0.01678223879727343,0.30883981119981346,1285.7142857142856,-1.0,-1.0,2.234547924407554,
2023-08-10 17:19:28.055000,8.228915662650603,1.63855421686747,-5.289156626506024,1.8393623543838136,8.882280809319436,-4.718577559779276,2.0,2.2336996336996338,447.68776648081337,0.1105996154070273,0.3260882232970105,0.16479226152322127,1294.5054945054944,-1.0,-1.0,2.2345305247693785,
2023-08-10 17:19:28.062000,8.240963855421688,1.63855421686747,-5.265060240963856,1.8638871857755976,8.92152053954629,-4.671980380134887,2.0,2.2336996336996338,447.68776648081337,0.2305226968125406,0.22026688421420615,0.21105996154070272,1307.6923076923076,-1.0,-1.0,2.234512955199722,
2023-08-10 17:19:28.070000,8.228915662650603,1.6626506024096386,-5.289156626506024,1.7976701410177804,8.847946045370938,-4.676885346413243,2.0,2.2336996336996338,447.68776648081337,0.10826874890740709,0.4619777402249279,0.4697861429986598,1328.2051282051282,-1.0,-1.0,2.2344952257183666,
2023-08-10 17:19:28.078000,8.228915662650603,1.63855421686747,-5.240963855421687,1.78295524218271,8.847946045370938,-4.6327406499080315,2.0,2.2322344322344323,447.9816212668198,0.1553522521997553,0.12178777460521016,0.4067362041839053,1353.113553113553,-1.0,-1.0,2.2344773469947343,
2023-08-10 17:19:28.085000,8.265060240963855,1.63855421686747,-5.265060240963856,1.854077253218884,8.889638258736971,-4.676885346413243,2.0,2.2322344322344323,447.9816212668198,-0.014801002272594002,0.6406386574208955,0.5273585455393043,1386.080586080586,-1.0,-1.0,2.234459330277166,
2023-08-10 17:19:28.093000,8.240963855421688,1.63855421686747,-5.240963855421687,1.8148375229920293,8.87737584304108,-4.6033108522378905,2.0,2.2322344322344323,447.9816212668198,0.3214264902977683,0.683293514363965,0.5851640347299109,1427.106227106227,-1.0,-1.0,2.2344411872159564,
2023-08-10 17:19:28.101000,8.240963855421688,1.6265060240963856,-5.265060240963856,1.8197424892703862,8.896995708154506,-4.645003065603924,2.0,2.2336996336996338,447.68776648081337,0.3211934036478067,0.6822446244391358,0.5821339082804033,1477.6556776556777,-1.0,-1.0,2.234422929788358,
2023-08-10 17:19:28.108000,8.25301204819277,1.63855421686747,-5.265060240963856,1.7633353770692826,8.874923359901901,-4.6817903126916,2.0,2.2336996336996338,447.68776648081337,0.1828564768952865,0.20651477186644143,0.29170794242759734,1534.7985347985348,-1.0,-1.0,2.2344045707485805,
2023-08-10 17:19:28.116000,8.25301204819277,1.63855421686747,-5.253012048192772,1.8197424892703862,8.909258123850398,-4.6817903126916,2.0,2.2322344322344323,447.9816212668198,0.19695821921799375,0.1794767204708353,0.24753802225977525,1596.3369963369962,-1.0,-1.0,2.2343861236550264,
2023-08-10 17:19:28.124000,8.265060240963855,1.63855421686747,-5.228915662650603,1.8442673206621703,8.92152053954629,-4.69650521152667,2.0,2.2336996336996338,447.68776648081337,-0.09323465998484969,0.5021851873433946,0.2631548278072373,1659.3406593406592,-1.0,-1.0,2.2343676018783487,
2023-08-10 17:19:28.131000,8.265060240963855,1.6265060240963856,-5.265060240963856,1.812385039852851,8.93868792152054,-4.694052728387492,2.0,2.2336996336996338,447.68776648081337,-0.07668550783753793,0.30138103840102626,0.12446827107977396,1720.14652014652,-1.0,-1.0,2.234349018521458,
2023-08-10 17:19:28.139000,8.240963855421688,1.6265060240963856,-5.228915662650603,1.8663396689147762,8.928877988963825,-4.730839975475169,2.0,2.2336996336996338,447.68776648081337,0.045684983392576414,0.11700949828098545,0.10978381213216035,1777.2893772893772,-1.0,-1.0,2.234330387425592,
2023-08-10 17:19:28.147000,8.240963855421688,1.6265060240963856,-5.240963855421687,1.8344573881054567,8.958307786633966,-4.725935009196811,2.0,2.2336996336996338,447.68776648081337,-0.04521881009265133,0.4368043820290186,-0.22819183031291887,1827.8388278388277,-1.0,-1.0,2.2343117230887004,
2023-08-10 17:19:28.154000,8.27710843373494,1.6506024096385543,-5.253012048192772,1.8148375229920293,8.919068056407111,-4.649908031882281,2.0,2.2336996336996338,447.68776648081337,-0.19730784919293798,0.019812365246780383,-0.24194394266068406,1867.3992673992673,-1.0,-1.0,2.234293040128088,
2023-08-10 17:19:28.162000,8.27710843373494,1.63855421686747,-5.240963855421687,1.7584304107909257,8.960760269773145,-4.676885346413243,2.0,2.2336996336996338,447.68776648081337,0.13950236000233027,-0.05780548919060597,-0.14847619602587248,1893.7728937728937,-1.0,-1.0,2.234274352777643,
2023-08-10 17:19:28.170000,8.25301204819277,1.6144578313253013,-5.253012048192772,1.7608828939301042,8.909258123850398,-4.630288166768853,2.0,2.2336996336996338,447.68776648081337,-0.16269448167356187,0.21618786783986993,-0.2692150807062523,1905.4945054945053,-1.0,-1.0,2.2342556753680882,
2023-08-10 17:19:28.177000,8.240963855421688,1.63855421686747,-5.253012048192772,1.8050275904353157,8.941140404659718,-4.667075413856529,2.0,2.2336996336996338,447.68776648081337,0.099527999533827,0.4123302837829961,-0.13099469727871316,1902.5641025641025,-1.0,-1.0,2.2342370227034833,
2023-08-10 17:19:28.185000,8.228915662650603,1.6506024096385543,-5.265060240963856,1.8221949724095645,8.882280809319436,-4.691600245248313,2.0,2.2336996336996338,447.68776648081337,-0.1744653574966489,0.11980653808053073,-0.16327719829846735,1886.4468864468863,-1.0,-1.0,2.2342184095250675,
2023-08-10 17:19:28.193000,8.228915662650603,1.6506024096385543,-5.27710843373494,1.7878602084610666,8.941140404659718,-4.69650521152667,2.0,2.2336996336996338,447.68776648081337,-0.14160013985199055,0.10453936250801164,-0.5735097022318046,1860.07326007326,-1.0,-1.0,2.234199850468486,
2023-08-10 17:19:28.200000,8.265060240963855,1.6506024096385543,-5.240963855421687,1.7706928264868178,8.914163090128755,-4.694052728387492,2.0,2.2336996336996338,447.68776648081337,0.02703805139560613,0.02622224812073854,-0.034729910844356525,1825.6410256410254,-1.0,-1.0,2.234181359564058,
2023-08-10 17:19:28.208000,8.25301204819277,1.6506024096385543,-5.265060240963856,1.8197424892703862,8.923973022685468,-4.69650521152667,2.0,2.2336996336996338,447.68776648081337,0.22539479051337338,0.14905891265077795,-0.20220266884214222,1786.080586080586,-1.0,-1.0,2.2341629502633094,
2023-08-10 17:19:28.216000,8.27710843373494,1.6626506024096386,-5.265060240963856,1.824647455548743,8.870018393623543,-4.654812998160637,2.0,2.2322344322344323,447.9816212668198,0.010605442573276946,0.25313210185886625,0.08892255696055006,1742.124542124542,-1.0,-1.0,2.2341446358879438,
2023-08-10 17:19:28.223000,8.228915662650603,1.63855421686747,-5.289156626506024,1.765787860208461,8.894543225015328,-4.659717964438994,2.0,2.2322344322344323,447.9816212668198,0.027620768020512047,0.2501019754093576,-0.003845929724375197,1693.7728937728937,-1.0,-1.0,2.234126429553525,
2023-08-10 17:19:28.231000,8.27710843373494,1.6506024096385543,-5.240963855421687,1.8344573881054567,8.870018393623543,-4.674432863274065,2.0,2.2322344322344323,447.9816212668198,-0.033447934269564286,0.30814055124992695,0.011421245848143887,1638.8278388278386,-1.0,-1.0,2.2341083435329776,
2023-08-10 17:19:28.239000,8.25301204819277,1.6506024096385543,-5.253012048192772,1.812385039852851,8.928877988963825,-4.659717964438994,2.0,2.2322344322344323,447.9816212668198,-0.15605151214964202,0.4884330749956298,0.024590641571003793,1583.150183150183,-1.0,-1.0,2.2340903897089643,
2023-08-10 17:19:28.246000,8.265060240963855,1.63855421686747,-5.240963855421687,1.8050275904353157,8.87737584304108,-4.62047823421214,2.0,2.2322344322344323,447.9816212668198,-0.0640988287395833,0.42806363265544023,0.0689936483887884,1528.2051282051282,-1.0,-1.0,2.2340725799584398,
2023-08-10 17:19:28.254000,8.240963855421688,1.6506024096385543,-5.265060240963856,1.8442673206621703,8.926425505824646,-4.642550582464746,2.0,2.235164835164835,447.39429695181906,0.08892255696055006,0.7642911252258026,0.12854728745411126,1478.3882783882782,-1.0,-1.0,2.234054925625586,
2023-08-10 17:19:28.262000,8.25301204819277,1.63855421686747,-5.240963855421687,1.8565297363580624,8.904353157572041,-4.62047823421214,2.0,2.2322344322344323,447.9816212668198,-0.09509935318454654,0.48761727172076225,0.08356156401142116,1432.9670329670328,-1.0,-1.0,2.2340374384744446,
2023-08-10 17:19:28.269000,8.240963855421688,1.63855421686747,-5.228915662650603,1.8491722869405272,8.867565910484364,-4.647455548743102,2.0,2.2336996336996338,447.68776648081337,0.11980653808053073,0.2884447293281274,0.1611794184488084,1395.6043956043954,-1.0,-1.0,2.2340201298170417,
2023-08-10 17:19:28.277000,8.228915662650603,1.63855421686747,-5.265060240963856,1.753525444512569,8.936235438381361,-4.654812998160637,2.0,2.2336996336996338,447.68776648081337,-0.09323465998484969,0.22504516053843088,-0.06817784511392103,1367.032967032967,-1.0,-1.0,2.234003009928083,
2023-08-10 17:19:28.285000,8.25301204819277,1.6506024096385543,-5.228915662650603,1.858982219497241,8.931330472103005,-4.659717964438994,2.0,2.2322344322344323,447.9816212668198,-0.014567915622632328,0.13157741390361952,-0.24998543208437718,1343.5897435897434,-1.0,-1.0,2.2339860890071632,
2023-08-10 17:19:28.292000,8.25301204819277,1.6506024096385543,-5.216867469879518,1.7339055793991416,8.941140404659718,-4.6695278969957075,2.0,2.2322344322344323,447.9816212668198,-0.4427480916030534,-0.3735213565643029,-0.28028669657945343,1323.8095238095236,-1.0,-1.0,2.2339693757522685,
2023-08-10 17:19:28.300000,8.27710843373494,1.6506024096385543,-5.253012048192772,1.8957694665849172,8.975475168608215,-4.637645616186388,2.0,2.2336996336996338,447.68776648081337,0.06491463201445088,0.17889400384592938,0.14672804615115645,1308.4249084249084,-1.0,-1.0,2.233952877797427,
2023-08-10 17:19:28.308000,8.240963855421688,1.63855421686747,-5.253012048192772,1.8344573881054567,8.89209074187615,-4.627835683629675,2.0,2.2336996336996338,447.68776648081337,-0.026804964745644456,-0.007342229473806583,-0.1443971796515354,1295.970695970696,-1.0,-1.0,2.233936603066328,
2023-08-10 17:19:28.315000,8.25301204819277,1.6506024096385543,-5.265060240963856,1.8320049049662783,8.909258123850398,-4.671980380134887,2.0,2.2336996336996338,447.68776648081337,0.31012178777460464,-0.19101450964396066,-0.05034671639181855,1286.4468864468863,-1.0,-1.0,2.233920559336703,
2023-08-10 17:19:28.323000,8.240963855421688,1.63855421686747,-5.253012048192772,1.78295524218271,8.833231146535867,-4.659717964438994,2.0,2.2322344322344323,447.9816212668198,0.2154886078899832,-0.174931530796574,-0.14276557310180063,1279.8534798534797,-1.0,-1.0,2.233904753775152,
2023-08-10 17:19:28.331000,8.289156626506024,1.6506024096385543,-5.240963855421687,1.8050275904353157,8.899448191293684,-4.698957694665849,2.0,2.2336996336996338,447.68776648081337,-0.060136355690227905,-0.1889167297943004,-0.06549734863935658,1274.7252747252746,-1.0,-1.0,2.2338891924400985,
2023-08-10 17:19:28.338000,8.27710843373494,1.63855421686747,-5.240963855421687,1.7903126916002452,8.865113427345186,-4.711220110361741,2.0,2.2322344322344323,447.9816212668198,0.10920109550725551,-0.15931472524911067,-0.20441699201678246,1277.6556776556777,-1.0,-1.0,2.2338738807007905,
2023-08-10 17:19:28.346000,8.240963855421688,1.63855421686747,-5.240963855421687,1.8344573881054567,8.904353157572041,-4.691600245248313,2.0,2.2322344322344323,447.9816212668198,-0.13542334362799405,-0.09847910960899774,0.11689295495600505,1282.7838827838827,-1.0,-1.0,2.233858823270525,
2023-08-10 17:19:28.354000,8.240963855421688,1.6506024096385543,-5.27710843373494,1.841814837522992,8.914163090128755,-4.6695278969957075,2.0,2.2336996336996338,447.68776648081337,-0.3486976283433361,0.18926635976924464,-0.5391294213623913,1293.040293040293,-1.0,-1.0,2.23384402322233,
2023-08-10 17:19:28.361000,8.25301204819277,1.6626506024096386,-5.240963855421687,1.7903126916002452,8.931330472103005,-4.694052728387492,2.0,2.2322344322344323,447.9816212668198,-0.16409300157333537,0.2628051978322948,-0.0793660043121028,1304.0293040293038,-1.0,-1.0,2.2338294834654664,
2023-08-10 17:19:28.369000,8.240963855421688,1.6506024096385543,-5.253012048192772,1.8467198038013488,8.887185775597793,-4.63519313304721,2.0,2.2322344322344323,447.9816212668198,-0.14591224287628843,0.2593088980828627,-0.12481790105471711,1314.2857142857142,-1.0,-1.0,2.2338152067490427,
2023-08-10 17:19:28.377000,8.240963855421688,1.63855421686747,-5.265060240963856,1.7731453096259961,8.941140404659718,-4.637645616186388,2.0,2.2336996336996338,447.68776648081337,-0.14742730610104277,0.25791037818308926,-0.12644950760445187,1326.7399267399267,-1.0,-1.0,2.233801194650522,
2023-08-10 17:19:28.384000,8.25301204819277,1.63855421686747,-5.228915662650603,1.8344573881054567,8.960760269773145,-4.657265481299816,2.0,2.2322344322344323,447.9816212668198,-0.1628110249985427,0.22609405046326014,-0.1258667909795468,1339.194139194139,-1.0,-1.0,2.233787448534546,
2023-08-10 17:19:28.392000,8.25301204819277,1.6265060240963856,-5.240963855421687,1.8295524218270998,8.941140404659718,-4.703862660944206,2.0,2.2322344322344323,447.9816212668198,-0.4214206631315187,0.27387681370549505,-0.28005360992949113,1351.6483516483515,-1.0,-1.0,2.2337739696005205,
2023-08-10 17:19:28.400000,8.27710843373494,1.6265060240963856,-5.240963855421687,1.854077253218884,8.931330472103005,-4.649908031882281,2.0,2.2322344322344323,447.9816212668198,-0.09894528290892109,0.3766680263387907,-0.37049123011479507,1364.102564102564,-1.0,-1.0,2.2337607583028545,
2023-08-10 17:19:28.407000,8.265060240963855,1.63855421686747,-5.240963855421687,1.7878602084610666,8.928877988963825,-4.62047823421214,2.0,2.2322344322344323,447.9816212668198,-0.08274576073655357,0.4660567565992658,-0.400442864634928,1379.4871794871794,-1.0,-1.0,2.233747813876893,
2023-08-10 17:19:28.415000,8.25301204819277,1.6265060240963856,-5.240963855421687,1.748620478234212,8.946045370938075,-4.686695278969957,2.0,2.2322344322344323,447.9816212668198,-0.23530097313676357,-0.028203484645416232,-0.3392576190198706,1395.6043956043954,-1.0,-1.0,2.2337351344257237,
2023-08-10 17:19:28.423000,8.228915662650603,1.6144578313253013,-5.240963855421687,1.7976701410177804,8.963212752912323,-4.6400980993255665,2.0,2.2322344322344323,447.9816212668198,0.11700949828098545,0.10687022900763359,-0.551366470485403,1412.4542124542124,-1.0,-1.0,2.2337227174289263,
2023-08-10 17:19:28.430000,8.25301204819277,1.63855421686747,-5.265060240963856,1.8270999386879214,8.926425505824646,-4.706315144083384,2.0,2.2322344322344323,447.9816212668198,-0.006526426198938992,0.04358720354291789,-0.36629567041547695,1425.6410256410256,-1.0,-1.0,2.2337105597600355,
2023-08-10 17:19:28.438000,8.240963855421688,1.63855421686747,-5.253012048192772,1.7805027590435314,8.904353157572041,-4.657265481299816,2.0,2.2322344322344323,447.9816212668198,-0.12889691742905507,0.025056814870928437,-0.5793368684808577,1437.3626373626373,-1.0,-1.0,2.2336986577052835,
2023-08-10 17:19:28.445000,8.265060240963855,1.63855421686747,-5.240963855421687,1.7976701410177804,8.86020846106683,-4.652360515021459,2.0,2.2322344322344323,447.9816212668198,0.04113979371831512,0.12738185420430073,-0.5312044752636793,1446.8864468864467,-1.0,-1.0,2.2336870069835313,
2023-08-10 17:19:28.453000,8.27710843373494,1.63855421686747,-5.253012048192772,1.778050275904353,8.970570202329858,-4.652360515021459,2.0,2.2322344322344323,447.9816212668198,-0.06724549851407281,-0.1828564768952865,-0.4845871452712546,1452.014652014652,-1.0,-1.0,2.2336756027672706,
2023-08-10 17:19:28.461000,8.240963855421688,1.6506024096385543,-5.265060240963856,1.8025751072961373,8.874923359901901,-4.689147762109135,2.0,2.2322344322344323,447.9816212668198,-0.052211409591515406,-0.15640114212458453,-0.34520132859390473,1452.014652014652,-1.0,-1.0,2.2336644397046146,
2023-08-10 17:19:28.468000,8.265060240963855,1.6506024096385543,-5.265060240963856,1.812385039852851,8.926425505824646,-4.684242795830778,2.0,2.2336996336996338,447.68776648081337,-0.15838237864926225,0.007225686148825746,-0.5117417399918418,1447.6190476190475,-1.0,-1.0,2.233653511942173,
2023-08-10 17:19:28.476000,8.240963855421688,1.6626506024096386,-5.240963855421687,1.8050275904353157,8.914163090128755,-4.691600245248313,2.0,2.2322344322344323,447.9816212668198,-0.17306683759687713,0.23390245323699005,-0.38529223238738997,1442.4908424908424,-1.0,-1.0,2.2336428136413606,
2023-08-10 17:19:28.484000,8.240963855421688,1.6506024096385543,-5.289156626506024,1.7633353770692826,8.904353157572041,-4.676885346413243,2.0,2.2322344322344323,447.9816212668198,0.01165433249810621,0.10815220558242453,-0.5806188450556494,1435.8974358974358,-1.0,-1.0,2.2336323385822565,
2023-08-10 17:19:28.491000,8.25301204819277,1.6506024096385543,-5.240963855421687,1.807480073574494,8.84304107909258,-4.686695278969957,2.0,2.2322344322344323,447.9816212668198,-0.20325155876697107,0.030068177845113085,-0.2540644484587147,1424.9084249084249,-1.0,-1.0,2.23362207966402,
2023-08-10 17:19:28.499000,8.25301204819277,1.6506024096385543,-5.253012048192772,1.7952176578786019,8.867565910484364,-4.679337829552422,2.0,2.2322344322344323,447.9816212668198,-0.29450498222714305,0.24345900588543773,-0.2532486451838471,1407.3260073260071,-1.0,-1.0,2.233612029388772,
2023-08-10 17:19:28.507000,8.240963855421688,1.6506024096385543,-5.240963855421687,1.8810545677498467,8.919068056407111,-4.701410177805028,2.0,2.2322344322344323,447.9816212668198,-0.08041489423693338,0.16211176504865768,-0.32597167997202964,1390.4761904761904,-1.0,-1.0,2.2336021803458523,
2023-08-10 17:19:28.514000,8.25301204819277,1.63855421686747,-5.240963855421687,1.858982219497241,8.960760269773145,-4.6621704475781724,2.0,2.2322344322344323,447.9816212668198,0.04113979371831512,0.3436862653691515,-0.3382087290950409,1375.8241758241757,-1.0,-1.0,2.23359252471334,
2023-08-10 17:19:28.522000,8.240963855421688,1.6506024096385543,-5.228915662650603,1.8467198038013488,8.936235438381361,-4.6621704475781724,2.0,2.2322344322344323,447.9816212668198,0.07225686148825747,0.4774780024474104,-2.3308664996210684E-4,1361.904761904762,-1.0,-1.0,2.2335830538637476,
2023-08-10 17:19:28.530000,8.25301204819277,1.6265060240963856,-5.240963855421687,1.8638871857755976,8.82832618025751,-4.667075413856529,2.0,2.2322344322344323,447.9816212668198,0.329934153021385,0.21175922149058948,0.029718547870170576,1347.2527472527472,-1.0,-1.0,2.23357375888296,
2023-08-10 17:19:28.537000,8.25301204819277,1.6626506024096386,-5.228915662650603,1.7731453096259961,8.87737584304108,-4.645003065603924,2.0,2.2322344322344323,447.9816212668198,-0.13309247712837213,0.22457898723850578,-0.2619893945574263,1329.6703296703297,-1.0,-1.0,2.233564630596485,
2023-08-10 17:19:28.545000,8.25301204819277,1.6506024096385543,-5.253012048192772,1.7633353770692826,8.90680564071122,-4.5959534028203555,2.0,2.2322344322344323,447.9816212668198,0.0340306508944702,0.11258085193170499,-0.20045451896742622,1315.7509157509157,-1.0,-1.0,2.233555660053534,
2023-08-10 17:19:28.553000,8.240963855421688,1.6506024096385543,-5.253012048192772,1.7952176578786019,8.899448191293684,-4.689147762109135,2.0,2.2322344322344323,447.9816212668198,0.03274867431967753,-0.14905891265077795,-0.07656896451255796,1304.7619047619046,-1.0,-1.0,2.2335468384858106,
2023-08-10 17:19:28.560000,8.265060240963855,1.6626506024096386,-5.228915662650603,1.7878602084610666,8.90680564071122,-4.637645616186388,2.0,2.2322344322344323,447.9816212668198,0.12306975118000109,-0.19497698269331604,-0.1368218635277667,1295.2380952380952,-1.0,-1.0,2.2335381568449915,
2023-08-10 17:19:28.568000,8.265060240963855,1.6506024096385543,-5.240963855421687,1.8221949724095645,8.928877988963825,-4.691600245248313,2.0,2.2322344322344323,447.9816212668198,0.10430627585804997,0.1551191655497936,9.323465998484274E-4,1290.10989010989,-1.0,-1.0,2.233529605374085,
2023-08-10 17:19:28.576000,8.240963855421688,1.6506024096385543,-5.240963855421687,1.748620478234212,8.852851011649294,-4.6621704475781724,2.0,2.2322344322344323,447.9816212668198,-0.08018180758696997,-0.04545189674261474,-0.27457607365538095,1286.4468864468863,-1.0,-1.0,2.233521173702946,
2023-08-10 17:19:28.583000,8.25301204819277,1.6626506024096386,-5.265060240963856,1.8516247700797055,8.899448191293684,-4.723482526057633,2.0,2.2322344322344323,447.9816212668198,0.19521006934327773,0.1956762426432028,-0.12143814463026635,1286.4468864468863,-1.0,-1.0,2.2335128513639204,
2023-08-10 17:19:28.591000,8.25301204819277,1.6626506024096386,-5.265060240963856,1.8050275904353157,8.852851011649294,-4.716125076640098,2.0,2.2322344322344323,447.9816212668198,0.08647514713594728,0.05605733931588995,-0.1499912592506264,1286.4468864468863,-1.0,-1.0,2.2335046278144324,
2023-08-10 17:19:28.599000,8.25301204819277,1.63855421686747,-5.240963855421687,1.8197424892703862,8.936235438381361,-4.72838749233599,2.0,2.2322344322344323,447.9816212668198,-0.14509643960142257,0.2366994930365371,-0.16479226152322082,1287.179487179487,-1.0,-1.0,2.2334964924591696,
2023-08-10 17:19:28.606000,8.25301204819277,1.6265060240963856,-5.253012048192772,1.8221949724095645,8.955855303494788,-4.6253832004904964,2.0,2.2322344322344323,447.9816212668198,0.3755025930889806,0.17143523104714195,-0.19357846279354385,1287.9120879120878,-1.0,-1.0,2.233488434671869,
2023-08-10 17:19:28.614000,8.240963855421688,1.6506024096385543,-5.27710843373494,1.824647455548743,8.879828326180258,-4.686695278969957,2.0,2.2336996336996338,447.68776648081337,-0.02330866499621242,-0.016316065497348348,-0.023541751646174527,1287.179487179487,-1.0,-1.0,2.2334804438166818,
2023-08-10 17:19:28.622000,8.240963855421688,1.6506024096385543,-5.265060240963856,1.854077253218884,8.89209074187615,-4.659717964438994,2.0,2.2322344322344323,447.9816212668198,-0.17481498747159316,-0.03659460404405381,0.06724549851407281,1285.7142857142856,-1.0,-1.0,2.233472509761785,
2023-08-10 17:19:28.629000,8.265060240963855,1.6506024096385543,-5.253012048192772,1.8320049049662783,8.909258123850398,-4.5812385039852845,2.0,2.2322344322344323,447.9816212668198,-0.09824602295903433,0.4461278480275046,0.051861779616572026,1284.9816849816848,-1.0,-1.0,2.2334646224794237,
2023-08-10 17:19:28.637000,8.25301204819277,1.63855421686747,-5.240963855421687,1.7559779276517473,8.933782955242183,-4.667075413856529,2.0,2.2322344322344323,447.9816212668198,-0.050929433016724465,0.36233319736612,-0.08472699726123213,1284.2490842490843,-1.0,-1.0,2.2334567715415172,
2023-08-10 17:19:28.645000,8.265060240963855,1.6265060240963856,-5.253012048192772,1.8344573881054567,8.882280809319436,-4.689147762109135,2.0,2.2322344322344323,447.9816212668198,-0.11048307208204645,0.34322009206922643,-0.022376318396363993,1282.7838827838827,-1.0,-1.0,2.2334489465978353,
2023-08-10 17:19:28.652000,8.265060240963855,1.63855421686747,-5.228915662650603,1.836909871244635,8.90680564071122,-4.647455548743102,2.0,2.2322344322344323,447.9816212668198,-0.10931763883223636,0.33739292582017416,-0.022026688421420616,1280.5860805860805,-1.0,-1.0,2.233441137395851,
2023-08-10 17:19:28.660000,8.25301204819277,1.6506024096385543,-5.265060240963856,1.8197424892703862,8.84304107909258,-4.654812998160637,2.0,2.2322344322344323,447.9816212668198,-0.12330283782996276,0.2849484295786954,-0.2978847386515934,1280.5860805860805,-1.0,-1.0,2.2334333338001695,
2023-08-10 17:19:28.668000,8.265060240963855,1.6506024096385543,-5.240963855421687,1.7903126916002452,8.923973022685468,-4.659717964438994,2.0,2.2322344322344323,447.9816212668198,0.10710331565759526,0.36944234018996497,0.024823728220965898,1282.051282051282,-1.0,-1.0,2.233425525811526,
2023-08-10 17:19:28.675000,8.25301204819277,1.6506024096385543,-5.216867469879518,1.7976701410177804,8.950950337216431,-4.645003065603924,2.0,2.2322344322344323,447.9816212668198,0.3185129071732422,0.19660858924305122,-0.2174698444146613,1281.3186813186812,-1.0,-1.0,2.2334177035853493,
2023-08-10 17:19:28.683000,8.27710843373494,1.6506024096385543,-5.240963855421687,1.8172900061312078,8.977927651747393,-4.667075413856529,2.0,2.2336996336996338,447.68776648081337,0.13239321717848537,0.20802983509119577,-0.04603461336751979,1280.5860805860805,-1.0,-1.0,2.233409857449908,
2023-08-10 17:19:28.691000,8.25301204819277,1.6626506024096386,-5.216867469879518,1.8270999386879214,8.92152053954629,-4.667075413856529,2.0,2.230769230769231,448.2758620689655,-0.3560398578171427,0.06771167181399616,0.016432608822330053,1279.8534798534797,-1.0,-1.0,2.2334019784167167,
2023-08-10 17:19:28.698000,8.265060240963855,1.6506024096385543,-5.240963855421687,1.841814837522992,8.946045370938075,-4.652360515021459,2.0,2.2322344322344323,447.9816212668198,-0.13798729677757768,0.0181807586970452,-0.08787366703572036,1279.8534798534797,-1.0,-1.0,2.2333940572847073,
2023-08-10 17:19:28.706000,8.265060240963855,1.63855421686747,-5.253012048192772,1.778050275904353,8.867565910484364,-4.6695278969957075,2.0,2.2322344322344323,447.9816212668198,0.03100052444496325,-0.19870636909270975,-0.04113979371831468,1281.3186813186812,-1.0,-1.0,2.233386084553144,
2023-08-10 17:19:28.714000,8.25301204819277,1.63855421686747,-5.265060240963856,1.812385039852851,8.874923359901901,-4.674432863274065,2.0,2.2322344322344323,447.9816212668198,-0.12027271138045581,0.0015150632247543454,-0.17516461744653566,1283.5164835164835,-1.0,-1.0,2.2333780514211097,
2023-08-10 17:19:28.721000,8.228915662650603,1.6265060240963856,-5.228915662650603,1.8663396689147762,8.904353157572041,-4.6817903126916,2.0,2.2322344322344323,447.9816212668198,-0.04207214031816354,-0.1658411514480514,0.07190723151331495,1284.9816849816848,-1.0,-1.0,2.233369949345757,
2023-08-10 17:19:28.729000,8.240963855421688,1.63855421686747,-5.253012048192772,1.7731453096259961,8.884733292458614,-4.698957694665849,2.0,2.2322344322344323,447.9816212668198,0.049880543091895206,0.04778276324223494,-0.172017947672047,1287.179487179487,-1.0,-1.0,2.2333617700580084,
2023-08-10 17:19:28.737000,8.240963855421688,1.6265060240963856,-5.265060240963856,1.7927651747394235,8.960760269773145,-4.642550582464746,2.0,2.2322344322344323,447.9816212668198,-0.19474389604335438,0.03239904434473502,-0.29298991900238913,1289.3772893772893,-1.0,-1.0,2.2333535055778744,
2023-08-10 17:19:28.744000,8.27710843373494,1.63855421686747,-5.253012048192772,1.7805027590435314,8.874923359901901,-4.6817903126916,2.0,2.2322344322344323,447.9816212668198,-0.45253773090146276,0.32130994697278753,-0.306042771400268,1290.8424908424909,-1.0,-1.0,2.2333451482293913,
2023-08-10 17:19:28.752000,8.25301204819277,1.6506024096385543,-5.253012048192772,1.78295524218271,8.936235438381361,-4.667075413856529,2.0,2.2322344322344323,447.9816212668198,0.008158032748674174,0.01083852922323862,-0.5174523629159141,1294.5054945054944,-1.0,-1.0,2.2333366906551424,
2023-08-10 17:19:28.760000,8.240963855421688,1.6265060240963856,-5.27710843373494,1.841814837522992,8.960760269773145,-4.686695278969957,2.0,2.2322344322344323,447.9816212668198,0.13087815395373276,-0.05116251966668614,-0.19276265951867583,1296.7032967032967,-1.0,-1.0,2.2333281258304143,
2023-08-10 17:19:28.767000,8.289156626506024,1.63855421686747,-5.265060240963856,1.841814837522992,8.899448191293684,-4.725935009196811,2.0,2.2322344322344323,447.9816212668198,-0.16036361517394165,0.09964454285880783,-0.31291882757415035,1295.970695970696,-1.0,-1.0,2.233319447076922,
2023-08-10 17:19:28.775000,8.265060240963855,1.6506024096385543,-5.240963855421687,1.8687921520539545,8.909258123850398,-4.694052728387492,2.0,2.2322344322344323,447.9816212668198,-0.035662257444205384,-0.04020744711846669,0.07318920808810632,1291.5750915750914,-1.0,-1.0,2.2333106480761558,
