Shimmer_F5D4_Timestamp_FormattedUnix_CAL,Shimmer_F5D4_Accel_LN_X_CAL,Shimmer_F5D4_Accel_LN_Y_CAL,Shimmer_F5D4_Accel_LN_Z_CAL,Shimmer_F5D4_Accel_WR_X_CAL,Shimmer_F5D4_Accel_WR_Y_CAL,Shimmer_F5D4_Accel_WR_Z_CAL,Shimmer_F5D4_GSR_Range_CAL,Shimmer_F5D4_GSR_Skin_Conductance_CAL,Shimmer_F5D4_GSR_Skin_Resistance_CAL,Shimmer_F5D4_Gyro_X_CAL,Shimmer_F5D4_Gyro_Y_CAL,Shimmer_F5D4_Gyro_Z_CAL,Shimmer_F5D4_PPG_A13_CAL,Shimmer_F5D4_PPG_IBI_CAL,Shimmer_F5D4_PPGtoHR_CAL,Shimmer_F5D4_GSR_Skin_Conductance_LPF_CAL,
yyyy/mm/dd hh:mm:ss.000,m/(s^2),m/(s^2),m/(s^2),m/(s^2),m/(s^2),m/(s^2),no_units,uS,kOhms,deg/s,deg/s,deg/s,mV,ms,BPM,uS,
2023-08-09 09:32:25.658000,9.63855421686747,0.7349397590361446,-1.8433734939759037,0.8927038626609441,10.24095646842428,-1.1820968730839976,2.0,3.2622710622710622,306.53492027846397,0.013052852397879719,-0.4041722510343219,-0.2700308839811201,1173.6263736263736,-1.0,83.32966008307197,3.254767149460002,
2023-08-09 09:32:25.666000,9.63855421686747,0.7590361445783133,-1.8674698795180724,0.9147762109135499,10.27038626609442,-1.2237890864500305,2.0,3.2637362637362632,306.3973063973064,0.19555969931822195,-0.1713186877221611,-0.31198648097430237,1184.6153846153845,-1.0,83.32966008307197,3.254989043829653,
2023-08-09 09:32:25.673000,9.66265060240964,0.7349397590361446,-1.8433734939759037,0.8779889638258737,10.282648681790311,-1.213979153893317,2.0,3.2637362637362632,306.3973063973064,0.19217994289377077,-0.21222539479051283,-0.26070741798263497,1194.8717948717947,-1.0,83.32966008307197,3.2552082242437805,
2023-08-09 09:32:25.681000,9.66265060240964,0.746987951807229,-1.8915662650602412,0.9589209074187615,10.297363580625383,-1.25567136725935,2.0,3.2622710622710622,306.53492027846397,0.3569722044169912,-0.2235300973136765,-0.17959326379581614,1202.197802197802,-1.0,83.32966008307197,3.2554246761229146,
2023-08-09 09:32:25.689000,9.66265060240964,0.7590361445783133,-1.8915662650602412,0.8706315144083384,10.272838749233598,-1.25567136725935,2.0,3.2637362637362632,306.3973063973064,0.17003671114736846,-0.40545422760911287,-0.04009090379348541,1210.2564102564102,-1.0,83.32966008307197,3.255638383168881,
2023-08-09 09:32:25.696000,9.650602409638555,0.7590361445783133,-1.9036144578313254,0.8976088289393009,10.236051502145923,-1.196811771919068,2.0,3.2637362637362632,306.3973063973064,0.3042946215255524,-0.21828564768952846,-0.17807820057106222,1214.6520146520145,-1.0,83.32966008307197,3.2558493278088325,
2023-08-09 09:32:25.704000,9.66265060240964,0.783132530120482,-1.9036144578313254,0.9760882893930104,10.25567136725935,-1.2385039852851012,2.0,3.2637362637362632,306.3973063973064,0.5164034729910844,-0.35499096789231344,-0.28320027970397976,1216.117216117216,-1.0,83.32966008307197,3.2560574912967915,
2023-08-09 09:32:25.712000,9.66265060240964,0.7951807228915663,-1.9156626506024097,0.956468424279583,10.221336603310851,-1.2679337829552422,2.0,3.2637362637362632,306.3973063973064,0.28285064972903684,-0.2018530388671993,-0.15791620534933845,1216.8498168498168,-1.0,83.32966008307197,3.256262853368288,
2023-08-09 09:32:25.719000,9.650602409638555,0.783132530120482,-1.927710843373494,0.9834457388105456,10.30226854690374,-1.2924586143470262,2.0,3.265201465201465,306.2598160197442,0.28110249985432084,-0.20173649554221845,-0.15791620534933845,1217.5824175824175,-1.0,83.32966008307197,3.2564653923267013,
2023-08-09 09:32:25.727000,9.66265060240964,0.7951807228915663,-1.927710843373494,0.9883507050889024,10.282648681790311,-1.2434089515634579,2.0,3.265201465201465,306.2598160197442,0.1434648330516874,0.11875764815570147,0.1614125050987705,1219.7802197802198,-1.0,83.32966008307197,3.256665085665413,
2023-08-09 09:32:25.735000,9.650602409638555,0.7951807228915663,-1.927710843373494,0.956468424279583,10.245861434702636,-1.2875536480686696,2.0,3.2637362637362632,306.3973063973064,-0.14731076277606195,0.2530155585338854,0.40160829788473873,1224.1758241758241,-1.0,83.32966008307197,3.256861910700804,
2023-08-09 09:32:25.742000,9.686746987951807,0.783132530120482,-1.9156626506024097,0.9417535254445125,10.267933782955241,-1.1870018393623543,2.0,3.2637362637362632,306.3973063973064,-0.18914981644426382,0.06759512848901532,0.3493968882932229,1227.106227106227,-1.0,83.32966008307197,3.257055843705644,
2023-08-09 09:32:25.750000,9.650602409638555,0.7710843373493976,-1.8674698795180724,0.9319435928877988,10.299816063764561,-1.1894543225015328,2.0,3.2637362637362632,306.3973063973064,-0.32154303362274916,-0.010022725948371029,0.31443389079890427,1227.106227106227,-1.0,83.32966008307197,3.2572468594732005,
2023-08-09 09:32:25.758000,9.674698795180724,0.7590361445783133,-1.8915662650602412,0.9074187614960146,10.250766400980993,-1.2041692213366033,2.0,3.2637362637362632,306.3973063973064,-0.14731076277606195,-0.11910727813064571,0.4161762135073715,1227.106227106227,-1.0,83.32966008307197,3.2574349319404536,
2023-08-09 09:32:25.765000,9.650602409638555,0.746987951807229,-1.8795180722891567,0.9196811771919068,10.263028816676885,-1.213979153893317,2.0,3.2637362637362632,306.3973063973064,-0.15861546529922566,0.049647456441931796,0.4411164850533187,1226.3736263736264,-1.0,83.32966008307197,3.257620034324851,
2023-08-09 09:32:25.773000,9.674698795180724,0.746987951807229,-1.8674698795180724,0.9221336603310851,10.25567136725935,-1.196811771919068,2.0,3.2637362637362632,306.3973063973064,-0.2631548278072373,-0.16316065497348695,0.49670765106928483,1227.8388278388277,-1.0,83.32966008307197,3.257802139301494,
2023-08-09 09:32:25.781000,9.686746987951807,0.7349397590361446,-1.9036144578313254,0.9196811771919068,10.312078479460453,-1.1992642550582464,2.0,3.2637362637362632,306.3973063973064,0.04358720354291789,0.08158032748674347,0.6448342171202144,1231.5018315018315,-1.0,83.32966008307197,3.257981219608674,
2023-08-09 09:32:25.788000,9.698795180722891,0.7349397590361446,-1.8915662650602412,0.9466584917228693,10.280196198651133,-1.1305947271612506,2.0,3.2637362637362632,306.3973063973064,-0.15465299224986853,0.09405046325971728,0.3182798205232797,1239.5604395604396,-1.0,83.32966008307197,3.2581572477098244,
2023-08-09 09:32:25.796000,9.698795180722891,0.7349397590361446,-1.8795180722891567,0.9196811771919068,10.277743715511955,-1.1698344573881054,2.0,3.2622710622710622,306.53492027846397,0.03251558766971586,0.3958976749606669,-0.09743021968416761,1256.4102564102564,-1.0,83.32966008307197,3.2583301959867113,
2023-08-09 09:32:25.804000,9.686746987951807,0.7349397590361446,-1.8795180722891567,0.927038626609442,10.358675659104843,-1.2213366033108521,2.0,3.2637362637362632,306.3973063973064,0.01503408892255741,0.575490938756483,-0.20511625196666877,1289.3772893772893,-1.0,83.32966008307197,3.2585000364083707,
2023-08-09 09:32:25.811000,9.698795180722891,0.7349397590361446,-1.8915662650602412,0.8706315144083384,10.343960760269773,-1.1453096259963211,2.0,3.2622710622710622,306.53492027846397,0.12237049123011434,0.6316648213973538,-0.29357263562729463,1344.3223443223442,-1.0,83.32966008307197,3.2586667411505714,
2023-08-09 09:32:25.819000,9.674698795180724,0.7349397590361446,-1.8674698795180724,0.9393010423053341,10.307173513182097,-1.1870018393623543,2.0,3.2622710622710622,306.53492027846397,0.5340015150632255,0.44577821805256035,-0.6872559874133208,1426.3736263736262,-1.0,83.32966008307197,3.258830283251616,
2023-08-09 09:32:25.827000,9.650602409638555,0.746987951807229,-1.8674698795180724,0.9221336603310851,10.253218884120171,-1.1698344573881054,2.0,3.2622710622710622,306.53492027846397,0.13285939047841044,0.41163102383310934,-0.6364430977215781,1539.194139194139,-1.0,83.32966008307197,3.2589906357587153,
2023-08-09 09:32:25.834000,9.602409638554217,0.7228915662650602,-1.8795180722891567,0.973635806253832,10.231146535867566,-1.179644389944819,2.0,3.2608058608058603,306.6726578297012,0.4490414311520307,0.19742439251791882,-0.6465823669949304,1677.6556776556774,-1.0,83.32966008307197,3.25914777238443,
2023-08-09 09:32:25.842000,9.590361445783133,0.7349397590361446,-1.8674698795180724,0.9245861434702636,10.199264255058246,-1.1870018393623543,2.0,3.2608058608058603,306.6726578297012,0.0779674844123306,-0.2132742847153421,-0.7623098887011245,1840.2930402930401,-1.0,83.32966008307197,3.2593016680925575,
2023-08-09 09:32:25.850000,9.614457831325302,0.7590361445783133,-1.8915662650602412,0.8338442673206621,10.267933782955241,-1.2237890864500305,2.0,3.2608058608058603,306.6726578297012,-0.01503408892255741,-0.36035196084144233,-0.6196608589243051,2017.5824175824175,-1.0,83.32966008307197,3.259452298629422,
2023-08-09 09:32:25.857000,9.626506024096386,0.746987951807229,-1.9036144578313254,0.9074187614960146,10.211526670754138,-1.231146535867566,2.0,3.2608058608058603,306.6726578297012,0.21199230814055114,-0.34123885554454875,-0.4935609812947962,2199.267399267399,-1.0,83.32966008307197,3.2595996402254634,
2023-08-09 09:32:25.865000,9.626506024096386,0.7590361445783133,-1.9036144578313254,0.9343960760269773,10.20907418761496,-1.2360515021459226,2.0,3.2608058608058603,306.6726578297012,0.010372355923315273,-0.5817842783054603,-0.28902744595303287,2373.6263736263736,-1.0,83.32966008307197,3.2597436702751965,
2023-08-09 09:32:25.873000,9.602409638554217,0.7590361445783133,-1.927710843373494,0.8853464132434089,10.24095646842428,-1.2728387492335989,2.0,3.2608058608058603,306.6726578297012,0.45078958102674677,-0.3020802983509113,-0.1185245615057398,2524.5421245421244,-1.0,83.32966008307197,3.2598843674848608,
2023-08-09 09:32:25.880000,9.626506024096386,0.7590361445783133,-1.9156626506024097,0.9123237277743715,10.218884120171673,-1.2581238503985284,2.0,3.2608058608058603,306.6726578297012,-0.04148942369325762,-0.48225627877163335,0.05104597634170487,2643.223443223443,-1.0,83.32966008307197,3.2600217120493293,
2023-08-09 09:32:25.888000,9.602409638554217,0.7590361445783133,-1.9397590361445785,0.956468424279583,10.265481299816063,-1.2630288166768853,2.0,3.2608058608058603,306.6726578297012,0.307557834625021,-0.0055940795990905645,0.0657304352893189,2718.6813186813183,-1.0,83.32966008307197,3.260155685788165,
2023-08-09 09:32:25.896000,9.650602409638555,0.783132530120482,-1.927710843373494,0.9417535254445125,10.25567136725935,-1.2630288166768853,2.0,3.2608058608058603,306.6726578297012,5.82716624905918E-4,-0.15884855194918732,0.1258667909795468,2752.3809523809523,-1.0,83.32966008307197,3.2602862723098553,
2023-08-09 09:32:25.903000,9.650602409638555,0.783132530120482,-1.9156626506024097,0.9319435928877988,10.304721030042918,-1.2777437155119558,2.0,3.2608058608058603,306.6726578297012,-0.3956645883107052,-0.21933453761435773,0.04813239321717832,2744.322344322344,-1.0,83.32966008307197,3.2604134575920356,
2023-08-09 09:32:25.911000,9.686746987951807,0.783132530120482,-1.927710843373494,1.032495401594114,10.324340895156345,-1.2777437155119558,2.0,3.2593406593406593,306.81051921780175,0.05069634636676106,-0.15943126857409323,0.3073247479750598,2694.5054945054944,-1.0,83.32966008307197,3.260537230063775,
2023-08-09 09:32:25.919000,9.674698795180724,0.7951807228915663,-1.9397590361445785,0.9785407725321887,10.334150827713058,-1.2752912323727774,2.0,3.2593406593406593,306.81051921780175,-0.08507662723617551,0.08344502068644033,0.22982343686265383,2609.523809523809,735.3515625,81.59362549800797,3.2606575801891515,
2023-08-09 09:32:25.926000,9.686746987951807,0.7951807228915663,-1.8915662650602412,0.9221336603310851,10.361128142244022,-1.2115266707541386,2.0,3.2593406593406593,306.81051921780175,-0.09941145620884616,0.6458831070450436,0.4112813938581668,2498.9010989010985,-1.0,81.59362549800797,3.260774500006697,
2023-08-09 09:32:25.934000,9.66265060240964,0.783132530120482,-1.9156626506024097,0.9687308399754752,10.34886572654813,-1.2483139178418148,2.0,3.2593406593406593,306.81051921780175,-0.4168754734572574,0.5328360818134136,0.5617388264087174,2369.9633699633696,-1.0,81.59362549800797,3.2608879837110187,
2023-08-09 09:32:25.942000,9.674698795180724,0.7590361445783133,-1.8915662650602412,0.9613733905579399,10.275291232372776,-1.196811771919068,2.0,3.2593406593406593,306.81051921780175,0.07423809801293689,0.036944234018996325,0.006176796223996482,2227.106227106227,-1.0,81.59362549800797,3.260998028188985,
2023-08-09 09:32:25.949000,9.650602409638555,0.7710843373493976,-1.8915662650602412,0.9393010423053341,10.265481299816063,-1.2115266707541386,2.0,3.2578754578754574,306.94850460984935,0.15069051920051313,0.17061942777227437,0.09509935318454654,2076.9230769230767,-1.0,81.59362549800797,3.2611046325968176,
2023-08-09 09:32:25.957000,9.650602409638555,0.746987951807229,-1.8915662650602412,0.8951563458001226,10.231146535867566,-1.1477621091354997,2.0,3.2578754578754574,306.94850460984935,-0.10687022900763359,0.21374045801526717,0.19858982576772935,1926.007326007326,-1.0,81.59362549800797,3.2612077979605467,
2023-08-09 09:32:25.965000,9.650602409638555,0.746987951807229,-1.8674698795180724,0.9613733905579399,10.265481299816063,-1.1943592887798895,2.0,3.2578754578754574,306.94850460984935,-0.2884447293281274,0.16269448167356187,0.07400501136297435,1777.2893772893772,-1.0,81.59362549800797,3.261307527608577,
2023-08-09 09:32:25.972000,9.626506024096386,0.7590361445783133,-1.8554216867469882,0.9025137952176578,10.22378908645003,-1.179644389944819,2.0,3.2578754578754574,306.94850460984935,0.07948254763708494,0.26478643435697247,0.19532661266825943,1638.095238095238,-1.0,81.59362549800797,3.2614038271689902,
2023-08-09 09:32:25.980000,9.626506024096386,0.7349397590361446,-1.8795180722891567,0.9760882893930104,10.265481299816063,-1.1698344573881054,2.0,3.256410256410257,307.0866141732283,-0.0427714002680503,-0.0768020511625205,-0.11153196200687615,1512.087912087912,-1.0,81.59362549800797,3.2614967046239745,
2023-08-09 09:32:25.987000,9.63855421686747,0.7349397590361446,-1.8674698795180724,0.9172286940527283,10.204169221336603,-1.1722869405272838,2.0,3.2549450549450545,307.2248480756246,0.07843365771225394,0.014801002272594002,-0.018297302022026906,1400.7326007326005,-1.0,81.59362549800797,3.261586169824495,
2023-08-09 09:32:25.995000,9.626506024096386,0.7349397590361446,-1.8674698795180724,0.9172286940527283,10.211526670754138,-1.1673819742489269,2.0,3.2549450549450545,307.2248480756246,0.07586970456267034,0.015500262222480757,-0.018180758697045635,1309.1575091575091,-1.0,81.59362549800797,3.2616722348711367,
2023-08-09 09:32:26.003000,9.626506024096386,0.746987951807229,-1.8674698795180724,0.9000613120784794,10.248313917841815,-1.1820968730839976,2.0,3.2549450549450545,307.2248480756246,0.44030068177845066,-0.11934036478060739,0.05978672571528453,1232.2344322344322,-1.0,81.59362549800797,3.26175491434304,
2023-08-09 09:32:26.010000,9.63855421686747,0.7349397590361446,-1.8795180722891567,0.9319435928877988,10.25567136725935,-1.213979153893317,2.0,3.2549450549450545,307.2248480756246,0.22166540411397967,-0.2821513897791501,0.30767437795000274,1169.9633699633698,-1.0,81.59362549800797,3.261834224315926,
2023-08-09 09:32:26.018000,9.66265060240964,0.7228915662650602,-1.8795180722891567,0.9000613120784794,10.263028816676885,-1.179644389944819,2.0,3.2549450549450545,307.2248480756246,0.21665404113979328,-0.3223588368976168,0.14358137637666823,1121.6117216117216,-1.0,81.59362549800797,3.261910182842165,
2023-08-09 09:32:26.026000,9.674698795180724,0.7349397590361446,-1.8554216867469882,0.8927038626609441,10.319435928877988,-1.1943592887798895,2.0,3.2549450549450545,307.2248480756246,0.19754093584289967,-0.0882232970106633,0.25394790513373344,1083.5164835164835,-1.0,81.59362549800797,3.261982810348463,
2023-08-09 09:32:26.033000,9.650602409638555,0.710843373493976,-1.8915662650602412,0.9196811771919068,10.304721030042918,-1.2777437155119558,2.0,3.2549450549450545,307.2248480756246,0.1636268282734103,-0.22108268748907375,0.24217702931064639,1052.7472527472528,-1.0,81.59362549800797,3.262052129530995,
2023-08-09 09:32:26.041000,9.650602409638555,0.7349397590361446,-1.927710843373494,0.927038626609442,10.28510116492949,-1.213979153893317,2.0,3.2534798534798535,307.3632064850259,0.3589534409416706,-0.13822038342753934,0.2918244857525786,1026.3736263736264,-1.0,81.59362549800797,3.262118165240989,
2023-08-09 09:32:26.049000,9.674698795180724,0.7590361445783133,-1.927710843373494,0.8632740649908032,10.343960760269773,-1.2924586143470262,2.0,3.2549450549450545,307.2248480756246,-0.05815511916555022,-0.47013577297360204,0.01946273527183744,1004.3956043956043,-1.0,81.59362549800797,3.2621809434106703,
2023-08-09 09:32:26.056000,9.674698795180724,0.746987951807229,-1.927710843373494,0.8902513795217657,10.324340895156345,-1.2581238503985284,2.0,3.2534798534798535,307.3632064850259,0.4010255812598341,-0.3424042887943588,-0.006642969523920696,986.080586080586,-1.0,81.59362549800797,3.262240491408906,
2023-08-09 09:32:26.064000,9.66265060240964,0.746987951807229,-1.9397590361445785,0.8927038626609441,10.263028816676885,-1.2286940527283874,2.0,3.2534798534798535,307.3632064850259,-0.04300448691801197,-0.354058621292465,-0.06631315191422396,972.8937728937728,-1.0,81.59362549800797,3.262296838421269,
2023-08-09 09:32:26.072000,9.650602409638555,0.7590361445783133,-1.9397590361445785,0.8804414469650521,10.258123850398528,-1.2458614347026364,2.0,3.2520146520146525,307.5016895697229,0.11223122195676248,-0.07505390128780448,-0.09556552648447075,964.8351648351647,-1.0,81.59362549800797,3.2623500143103628,
2023-08-09 09:32:26.079000,9.650602409638555,0.7590361445783133,-1.9397590361445785,0.956468424279583,10.28510116492949,-1.280196198651134,2.0,3.2520146520146525,307.5016895697229,0.08309539071149782,0.29112522580269184,-0.21758638773964215,964.1025641025641,-1.0,81.59362549800797,3.262400049484962,
2023-08-09 09:32:26.087000,9.674698795180724,0.746987951807229,-1.927710843373494,0.9540159411404046,10.294911097486205,-1.2728387492335989,2.0,3.2520146520146525,307.5016895697229,0.11875764815570147,0.014218285647689819,-0.4775945457723908,972.1611721611721,-1.0,81.59362549800797,3.2624469751470375,
2023-08-09 09:32:26.095000,9.674698795180724,0.7590361445783133,-1.9156626506024097,0.9491109748620478,10.248313917841815,-1.2213366033108521,2.0,3.2520146520146525,307.5016895697229,0.1828564768952865,0.2104772449157968,-0.38331099586271183,988.2783882783882,-1.0,81.59362549800797,3.262490823566256,
2023-08-09 09:32:26.102000,9.66265060240964,0.7590361445783133,-1.9156626506024097,0.9834457388105456,10.263028816676885,-1.1820968730839976,2.0,3.2520146520146525,307.5016895697229,0.2150224345900581,0.4943767845696629,-0.13985198997727408,1011.7216117216117,-1.0,81.59362549800797,3.262531627434657,
2023-08-09 09:32:26.110000,9.66265060240964,0.783132530120482,-1.8915662650602412,0.9613733905579399,10.275291232372776,-1.2115266707541386,2.0,3.2505494505494505,307.6402974983097,0.1881009265194328,0.4251500495309124,-0.14311520307674358,1043.2234432234432,-1.0,81.59362549800797,3.262569419743317,
2023-08-09 09:32:26.118000,9.63855421686747,0.7590361445783133,-1.8795180722891567,0.9687308399754752,10.297363580625383,-1.1330472103004292,2.0,3.2505494505494505,307.6402974983097,0.146028786201271,0.7807237340481318,-0.07004253831361809,1078.3882783882784,-1.0,81.59362549800797,3.2626042335853302,
2023-08-09 09:32:26.125000,9.626506024096386,0.7710843373493976,-1.8554216867469882,0.9196811771919068,10.199264255058246,-1.184549356223176,2.0,3.2505494505494505,307.6402974983097,-0.037293863993940565,0.41629275683235323,0.17120214439717985,1117.2161172161173,-1.0,81.59362549800797,3.2626361018861623,
2023-08-09 09:32:26.133000,9.626506024096386,0.783132530120482,-1.9036144578313254,0.9245861434702636,10.228694052728386,-1.1771919068056407,2.0,3.2505494505494505,307.6402974983097,-0.3104714177495489,0.16525843482314548,0.21105996154070272,1159.7069597069597,-1.0,81.59362549800797,3.262665057201202,
2023-08-09 09:32:26.141000,9.63855421686747,0.7590361445783133,-1.9036144578313254,0.9319435928877988,10.326793378295523,-1.1870018393623543,2.0,3.247619047619047,307.91788856304987,-0.32026105704795826,0.052677582891440485,0.15989744187401658,1203.6630036630036,-1.0,81.59362549800797,3.262691131581611,
2023-08-09 09:32:26.148000,9.626506024096386,0.746987951807229,-1.8674698795180724,0.9196811771919068,10.272838749233598,-1.179644389944819,2.0,3.247619047619047,307.91788856304987,-0.07575316123768949,-0.0712079715634282,0.24753802225977525,1246.153846153846,-1.0,81.59362549800797,3.262714356336017,
2023-08-09 09:32:26.156000,9.66265060240964,0.746987951807229,-1.9036144578313254,0.9294911097486205,10.228694052728386,-1.2213366033108521,2.0,3.249084249084249,307.77903043968433,-0.4897150515704208,-0.007458772798787419,0.1519724957753045,1286.4468864468863,-1.0,81.59362549800797,3.262734761161391,
2023-08-09 09:32:26.164000,9.674698795180724,0.7590361445783133,-1.8915662650602412,0.9515634580012262,10.28510116492949,-1.2213366033108521,2.0,3.249084249084249,307.77903043968433,-0.3053435114503817,0.05384301614125059,0.6085892430511044,1322.3443223443223,-1.0,81.59362549800797,3.2627523749246445,
2023-08-09 09:32:26.171000,9.698795180722891,0.7590361445783133,-1.8674698795180724,0.9147762109135499,10.292458614347026,-1.2507664009809931,2.0,3.247619047619047,307.91788856304987,-0.10768603228250118,-0.2949711555270664,0.04055707709340963,1353.113553113553,-1.0,81.59362549800797,3.2627672255681883,
2023-08-09 09:32:26.179000,9.674698795180724,0.7590361445783133,-1.8795180722891567,0.8706315144083384,10.267933782955241,-1.1943592887798895,2.0,3.247619047619047,307.91788856304987,0.05792203251558681,0.2291241769127671,0.11805838820581559,1379.4871794871794,-1.0,81.59362549800797,3.2627793390368534,
2023-08-09 09:32:26.187000,9.650602409638555,0.746987951807229,-1.9036144578313254,0.9000613120784794,10.304721030042918,-1.2213366033108521,2.0,3.247619047619047,307.91788856304987,0.12738185420430073,0.1968416758930129,0.1629275683235244,1397.069597069597,-1.0,81.59362549800797,3.262788739512124,
2023-08-09 09:32:26.194000,9.650602409638555,0.7590361445783133,-1.8915662650602412,0.9638258736971183,10.265481299816063,-1.196811771919068,2.0,3.247619047619047,307.91788856304987,0.10407318920808831,0.04498572344268966,0.1767962239962704,1405.128205128205,-1.0,81.59362549800797,3.262795449687752,
2023-08-09 09:32:26.202000,9.63855421686747,0.746987951807229,-1.8795180722891567,0.9294911097486205,10.272838749233598,-1.2507664009809931,2.0,3.247619047619047,307.91788856304987,0.0067595128489024,0.22982343686265383,0.08565934386108055,1406.5934065934066,-1.0,81.59362549800797,3.262799490597541,
2023-08-09 09:32:26.210000,9.650602409638555,0.746987951807229,-1.8795180722891567,0.9049662783568363,10.326793378295523,-1.1820968730839976,2.0,3.247619047619047,307.91788856304987,-0.12038925470543665,0.19917254239263485,-0.12644950760445187,1399.2673992673992,-1.0,81.59362549800797,3.262800880996326,
2023-08-09 09:32:26.217000,9.63855421686747,0.746987951807229,-1.9156626506024097,0.9245861434702636,10.199264255058246,-1.2213366033108521,2.0,3.247619047619047,307.91788856304987,-0.09451663655964061,0.16945399452246426,-0.29240720237748363,1384.6153846153845,-1.0,81.59362549800797,3.2627996372781713,
2023-08-09 09:32:26.225000,9.674698795180724,0.746987951807229,-1.8915662650602412,0.8755364806866952,10.282648681790311,-1.2335990190067443,2.0,3.2461538461538466,308.0568720379147,0.1157275217061945,-0.18227376027038059,-0.30615931472524927,1367.032967032967,-1.0,81.59362549800797,3.262795773828716,
2023-08-09 09:32:26.233000,9.66265060240964,0.746987951807229,-1.9036144578313254,0.9589209074187615,10.218884120171673,-1.20907418761496,2.0,3.2461538461538466,308.0568720379147,0.14229939980187556,-0.027970397995454557,0.04661732999242484,1350.9157509157508,-1.0,81.59362549800797,3.262789301948897,
2023-08-09 09:32:26.240000,9.66265060240964,0.746987951807229,-1.9036144578313254,0.9417535254445125,10.27038626609442,-1.2360515021459226,2.0,3.2446886446886447,308.19598103409345,0.1537206456500201,0.002447409824602773,0.215605151214964,1332.6007326007325,-1.0,81.59362549800797,3.2627802301975835,
2023-08-09 09:32:26.248000,9.674698795180724,0.7590361445783133,-1.8915662650602412,0.9025137952176578,10.27038626609442,-1.2066217044757817,2.0,3.2446886446886447,308.19598103409345,-0.09370083328477302,-0.198007109142823,-0.003496299749432037,1313.5531135531135,-1.0,81.59362549800797,3.2627685642203215,
2023-08-09 09:32:26.256000,9.63855421686747,0.7710843373493976,-1.8915662650602412,0.9466584917228693,10.294911097486205,-1.2286940527283874,2.0,3.2446886446886447,308.19598103409345,-0.397063108210477,-0.12132160130528508,-0.0017481498747160184,1293.040293040293,-1.0,81.59362549800797,3.2627543061689503,
2023-08-09 09:32:26.263000,9.63855421686747,0.7590361445783133,-1.8915662650602412,0.927038626609442,10.25567136725935,-1.2041692213366033,2.0,3.2446886446886447,308.19598103409345,-0.22411281393858243,-0.18250684692034225,-0.018064215372064367,1272.5274725274724,-1.0,81.59362549800797,3.2627374555763455,
2023-08-09 09:32:26.271000,9.66265060240964,0.746987951807229,-1.9397590361445785,0.9981606376456161,10.265481299816063,-1.226241569589209,2.0,3.2432234432234432,308.3352157217077,-0.21910145096439607,-0.1835557368451715,-0.018180758697045635,1253.4798534798533,-1.0,81.59362549800797,3.262718008840245,
2023-08-09 09:32:26.279000,9.650602409638555,0.7710843373493976,-1.927710843373494,0.9515634580012262,10.267933782955241,-1.2066217044757817,2.0,3.2432234432234432,308.3352157217077,-0.12295320785502026,-0.03193287104481168,0.20919526834100588,1232.2344322344322,-1.0,81.59362549800797,3.2626959587574427,
2023-08-09 09:32:26.286000,9.650602409638555,0.7590361445783133,-1.9036144578313254,0.8976088289393009,10.31698344573881,-1.2041692213366033,2.0,3.2432234432234432,308.3352157217077,-0.14824310937591037,-0.0802983509119508,0.2049997086416875,1210.2564102564102,-1.0,81.59362549800797,3.262671294917929,
2023-08-09 09:32:26.294000,9.686746987951807,0.7590361445783133,-1.9036144578313254,0.8877988963825874,10.260576333537706,-1.1870018393623543,2.0,3.241758241758242,308.47457627118644,-0.2368160363615179,-0.17481498747159316,0.23483479983683936,1188.278388278388,-1.0,81.59362549800797,3.2626440041501388,
2023-08-09 09:32:26.302000,9.674698795180724,0.746987951807229,-1.8674698795180724,0.9343960760269773,10.341508277130593,-1.2237890864500305,2.0,3.241758241758242,308.47457627118644,0.042654856943067726,0.036244974069109565,0.29124176912767313,1167.7655677655678,-1.0,81.59362549800797,3.2626140704924143,
2023-08-09 09:32:26.309000,9.66265060240964,0.746987951807229,-1.8915662650602412,0.9294911097486205,10.258123850398528,-1.1894543225015328,2.0,3.241758241758242,308.47457627118644,0.09183614008507618,0.36827690694015486,-0.19987180234252072,1150.18315018315,-1.0,81.59362549800797,3.2625814750788544,
2023-08-09 09:32:26.317000,9.66265060240964,0.746987951807229,-1.8915662650602412,0.9343960760269773,10.277743715511955,-1.1992642550582464,2.0,3.241758241758242,308.47457627118644,0.06246722218984984,0.07202377483829579,-0.04754967659227327,1134.065934065934,-1.0,81.59362549800797,3.262546195689723,
2023-08-09 09:32:26.325000,9.650602409638555,0.7590361445783133,-1.8915662650602412,0.927038626609442,10.25567136725935,-1.2066217044757817,2.0,3.241758241758242,308.47457627118644,0.11129887535691405,0.08519317056115634,-0.24858691218460452,1120.14652014652,-1.0,81.59362549800797,3.2625082068795,
2023-08-09 09:32:26.332000,9.650602409638555,0.746987951807229,-1.9036144578313254,0.9515634580012262,10.297363580625383,-1.2115266707541386,2.0,3.2402930402930408,308.614062853267,-0.025289901520890112,0.32935143639648085,-0.3260882232970105,1110.6227106227107,-1.0,81.59362549800797,3.2624674800858315,
2023-08-09 09:32:26.340000,9.650602409638555,0.746987951807229,-1.8795180722891567,0.9000613120784794,10.28755364806867,-1.1820968730839976,2.0,3.2402930402930408,308.614062853267,0.09626478643435664,0.11467863178136525,-0.264786434356972,1106.227106227106,-1.0,81.59362549800797,3.262423983296335,
2023-08-09 09:32:26.347000,9.650602409638555,0.7349397590361446,-1.8915662650602412,0.9123237277743715,10.309625996321275,-1.184549356223176,2.0,3.2402930402930408,308.614062853267,-0.07132451488840903,0.3601188741914807,-0.2961365887768778,1103.2967032967033,-1.0,81.59362549800797,3.262377681574769,
2023-08-09 09:32:26.355000,9.66265060240964,0.7349397590361446,-1.8674698795180724,0.8632740649908032,10.253218884120171,-1.184549356223176,2.0,3.2402930402930408,308.614062853267,-0.00967309597342852,0.37410407318920885,-0.02191014509643978,1105.4945054945053,-1.0,81.59362549800797,3.262328537637104,
2023-08-09 09:32:26.363000,9.686746987951807,0.746987951807229,-1.8915662650602412,0.9515634580012262,10.243408951563458,-1.1820968730839976,2.0,3.2388278388278393,308.7536756389957,-0.009906182623390191,0.023774838296135765,-0.23937998951110065,1109.89010989011,-1.0,81.59362549800797,3.2622765119867014,
2023-08-09 09:32:26.370000,9.674698795180724,0.746987951807229,-1.8915662650602412,0.851011649294911,10.290006131207848,-1.1575720416922133,2.0,3.2388278388278393,308.7536756389957,0.12994580735388434,0.04090670706835344,-0.3304003263213101,1119.4139194139193,-1.0,81.59362549800797,3.262221562573295,
2023-08-09 09:32:26.378000,9.66265060240964,0.7228915662650602,-1.8795180722891567,0.9196811771919068,10.263028816676885,-1.2017167381974247,2.0,3.237362637362638,308.8934147997284,0.11328011188159173,0.029019287920283823,-0.20733057514130857,1131.8681318681317,-1.0,81.59362549800797,3.262163644888304,
2023-08-09 09:32:26.386000,9.66265060240964,0.7349397590361446,-1.8795180722891567,0.9908031882280809,10.243408951563458,-1.2286940527283874,2.0,3.237362637362638,308.8934147997284,0.01992890857176122,-0.045684983392576414,-0.08519317056115591,1145.054945054945,-1.0,81.59362549800797,3.2621027116492862,
2023-08-09 09:32:26.393000,9.674698795180724,0.746987951807229,-1.8795180722891567,0.927038626609442,10.245861434702636,-1.1747394236664623,2.0,3.237362637362638,308.8934147997284,0.26163976458248295,-0.35067886486801386,-0.0984791096089973,1158.2417582417581,-1.0,81.59362549800797,3.2620387129859356,
2023-08-09 09:32:26.401000,9.63855421686747,0.7590361445783133,-1.9156626506024097,0.9343960760269773,10.263028816676885,-1.2115266707541386,2.0,3.237362637362638,308.8934147997284,-0.1086183788823496,-0.013169395722860555,-0.2919410290775594,1171.4285714285713,-1.0,81.59362549800797,3.2619715975846963,
2023-08-09 09:32:26.409000,9.626506024096386,0.746987951807229,-1.8795180722891567,1.0079705702023298,10.245861434702636,-1.1894543225015328,2.0,3.237362637362638,308.8934147997284,0.04382029019287956,-0.07283957811316338,-0.056173882640871656,1180.2197802197802,-1.0,81.59362549800797,3.2619013128950605,
2023-08-09 09:32:26.416000,9.66265060240964,0.7590361445783133,-1.8795180722891567,0.927038626609442,10.314530962599632,-1.2164316370324952,2.0,3.2358974358974364,309.0332805071315,-0.2631548278072373,-0.16525843482314548,-0.35941961424159435,1190.4761904761904,-1.0,81.59362549800797,3.2618278053471452,
2023-08-09 09:32:26.424000,9.674698795180724,0.746987951807229,-1.8674698795180724,0.9981606376456161,10.250766400980993,-1.213979153893317,2.0,3.2358974358974364,309.0332805071315,-0.29427189557718136,-0.07004253831361809,0.22807528698793783,1200.0,-1.0,81.59362549800797,3.2617510200870097,
2023-08-09 09:32:26.432000,9.63855421686747,0.7590361445783133,-1.9036144578313254,0.944206008583691,10.213979153893316,-1.2385039852851012,2.0,3.2358974358974364,309.0332805071315,0.05687314259075754,-0.17761202727113842,-0.09102033681020902,1210.2564102564102,-1.0,81.59362549800797,3.261670900683933,
2023-08-09 09:32:26.439000,9.650602409638555,0.7710843373493976,-1.9156626506024097,0.8853464132434089,10.248313917841815,-1.2066217044757817,2.0,3.2358974358974364,309.0332805071315,-0.036478060719072974,-0.13006235067886518,-0.1334421071033155,1221.245421245421,-1.0,81.59362549800797,3.261587390353585,
2023-08-09 09:32:26.447000,9.63855421686747,0.7590361445783133,-1.9156626506024097,0.9491109748620478,10.233599019006745,-1.2532188841201717,2.0,3.232967032967033,309.31339225016995,0.06957636501369302,-0.20465007866674456,-0.22318046733873315,1230.03663003663,-1.0,81.59362549800797,3.261500432168132,
2023-08-09 09:32:26.455000,9.63855421686747,0.7590361445783133,-1.9036144578313254,0.9368485591661557,10.277743715511955,-1.2409564684242795,2.0,3.2344322344322345,309.1732729331823,-0.008391119398635847,-0.5076627236175043,-0.052677582891440054,1237.3626373626373,-1.0,81.59362549800797,3.261409968356509,
2023-08-09 09:32:26.462000,9.650602409638555,0.7590361445783133,-1.9036144578313254,0.9147762109135499,10.272838749233598,-1.1820968730839976,2.0,3.2344322344322345,309.1732729331823,0.26630149758172683,-0.028203484645416232,0.05605733931589082,1243.2234432234432,-1.0,81.59362549800797,3.2613159413315445,
2023-08-09 09:32:26.470000,9.63855421686747,0.7590361445783133,-1.8915662650602412,0.9368485591661557,10.272838749233598,-1.2115266707541386,2.0,3.232967032967033,309.31339225016995,-0.04067362041839003,-0.5622049997086417,-0.09486626653458444,1249.084249084249,-1.0,81.59362549800797,3.261218293978037,
2023-08-09 09:32:26.478000,9.63855421686747,0.7590361445783133,-1.9036144578313254,0.956468424279583,10.324340895156345,-1.2041692213366033,2.0,3.2344322344322345,309.1732729331823,-0.16036361517394165,-0.5102266767670879,-0.22842491696288075,1252.7472527472526,-1.0,81.59362549800797,3.261116969026868,
2023-08-09 09:32:26.485000,9.650602409638555,0.783132530120482,-1.9036144578313254,1.0055180870631515,10.260576333537706,-1.2164316370324952,2.0,3.232967032967033,309.31339225016995,0.08426082396130792,-0.1681720179476716,-0.3484645416933745,1254.9450549450548,-1.0,81.59362549800797,3.261011910221948,
2023-08-09 09:32:26.493000,9.66265060240964,0.7710843373493976,-1.9156626506024097,0.9196811771919068,10.297363580625383,-1.2237890864500305,2.0,3.232967032967033,309.31339225016995,0.0533768428413255,-0.3810966726880712,-0.008274576073655443,1254.9450549450548,-1.0,81.59362549800797,3.260903062148244,
2023-08-09 09:32:26.501000,9.686746987951807,0.783132530120482,-1.927710843373494,0.944206008583691,10.321888412017167,-1.1870018393623543,2.0,3.232967032967033,309.31339225016995,-0.08239613076161106,-0.4551016840510464,-0.053027212866383,1254.9450549450548,-1.0,81.59362549800797,3.260790370479556,
2023-08-09 09:32:26.508000,9.674698795180724,0.7590361445783133,-1.9036144578313254,0.9368485591661557,10.28510116492949,-1.2458614347026364,2.0,3.231501831501831,309.453638630696,-0.32399044344735195,-0.05477536274109902,0.14532952625138382,1253.4798534798533,-1.0,81.59362549800797,3.2606737826449947,
2023-08-09 09:32:26.516000,9.686746987951807,0.7590361445783133,-1.8915662650602412,0.944206008583691,10.290006131207848,-1.1771919068056407,2.0,3.231501831501831,309.453638630696,-0.10547170910786008,0.2515004953091311,0.25138395198415026,1251.2820512820513,-1.0,81.59362549800797,3.260553247153537,
2023-08-09 09:32:26.524000,9.686746987951807,0.783132530120482,-1.927710843373494,0.9098712446351931,10.292458614347026,-1.2286940527283874,2.0,3.231501831501831,309.453638630696,-0.027620768020512047,-0.11829147485577812,0.4316764757298527,1247.6190476190475,-1.0,81.59362549800797,3.2604287142485022,
2023-08-09 09:32:26.531000,9.686746987951807,0.7590361445783133,-1.8795180722891567,0.8877988963825874,10.321888412017167,-1.20907418761496,2.0,3.231501831501831,309.453638630696,-0.27119631723093063,0.3401899656197195,0.2608239613076162,1239.5604395604396,-1.0,81.59362549800797,3.2603001365892417,
2023-08-09 09:32:26.539000,9.674698795180724,0.7349397590361446,-1.8795180722891567,0.86817903126916,10.383200490496627,-1.1870018393623543,2.0,3.23003663003663,309.5940122476752,-0.2387972728861956,0.21339082804032466,0.24404172251034323,1229.3040293040292,-1.0,81.59362549800797,3.260167469468851,
2023-08-09 09:32:26.547000,9.698795180722891,0.7349397590361446,-1.8915662650602412,0.9393010423053341,10.297363580625383,-1.20907418761496,2.0,3.23003663003663,309.5940122476752,-0.23786492628634717,0.21164267816560864,0.24322591923547562,1221.9780219780218,-1.0,81.59362549800797,3.260030670532276,
2023-08-09 09:32:26.554000,9.686746987951807,0.7349397590361446,-1.8915662650602412,0.9613733905579399,10.304721030042918,-1.2483139178418148,2.0,3.23003663003663,309.5940122476752,-0.4049880543091895,0.11759221490589136,0.2433424625604569,1220.5128205128203,-1.0,81.59362549800797,3.2598896999072067,
2023-08-09 09:32:26.562000,9.650602409638555,0.7228915662650602,-1.8915662650602412,0.9368485591661557,10.351318209687308,-1.1870018393623543,2.0,3.23003663003663,309.5940122476752,-0.08227958743663023,0.11514480508128859,-0.09055416351028481,1227.8388278388277,-1.0,81.59362549800797,3.25974452085104,
2023-08-09 09:32:26.570000,9.66265060240964,0.7349397590361446,-1.9156626506024097,0.9491109748620478,10.250766400980993,-1.20907418761496,2.0,3.2285714285714286,309.7345132743363,-0.21863527766447097,0.3755025930889806,0.23098887011246438,1246.8864468864467,-1.0,81.59362549800797,3.2595950994723943,
2023-08-09 09:32:26.577000,9.66265060240964,0.7349397590361446,-1.9156626506024097,0.9245861434702636,10.253218884120171,-1.2752912323727774,2.0,3.2285714285714286,309.7345132743363,-0.2346017131868768,0.20558242526659298,-0.10803566225744411,1282.051282051282,-1.0,81.59362549800797,3.2594414044748143,
2023-08-09 09:32:26.585000,9.66265060240964,0.7710843373493976,-1.927710843373494,0.9589209074187615,10.282648681790311,-1.1820968730839976,2.0,3.2285714285714286,309.7345132743363,0.16455917487325872,0.31280228424916906,-0.1984732824427481,1339.194139194139,-1.0,81.59362549800797,3.259283407731257,
2023-08-09 09:32:26.593000,9.626506024096386,0.7710843373493976,-1.9156626506024097,0.9147762109135499,10.275291232372776,-1.2507664009809931,2.0,3.2285714285714286,309.7345132743363,0.02330866499621242,0.542625721111823,-0.12155468795524718,1424.1758241758241,-1.0,81.59362549800797,3.2591210844219662,
2023-08-09 09:32:26.600000,9.626506024096386,0.7590361445783133,-1.8915662650602412,0.9785407725321887,10.221336603310851,-1.1820968730839976,2.0,3.2256410256410257,310.01589825119237,0.08286230406153441,0.4188567099819351,-0.16374337159839156,1536.9963369963368,-1.0,81.59362549800797,3.2589544132279915,
2023-08-09 09:32:26.608000,9.626506024096386,0.746987951807229,-1.8674698795180724,0.9957081545064377,10.206621704475781,-1.2115266707541386,2.0,3.2271062271062276,309.87514188422244,0.003146669774489527,0.0510459763417053,-0.3770176563137345,1680.5860805860805,-1.0,81.59362549800797,3.2587833764065053,
2023-08-09 09:32:26.616000,9.614457831325302,0.7590361445783133,-1.8795180722891567,0.9858982219497241,10.265481299816063,-1.20907418761496,2.0,3.2271062271062276,309.87514188422244,-0.04498572344268966,-0.17423227084668724,-0.02074471184662881,1846.153846153846,-1.0,81.59362549800797,3.2586079597126516,
2023-08-09 09:32:26.623000,9.626506024096386,0.7590361445783133,-1.8795180722891567,0.9491109748620478,10.20907418761496,-1.2164316370324952,2.0,3.2271062271062276,309.87514188422244,0.10628751238272767,-0.051395606316647816,-0.38785618553697354,2023.4432234432234,-1.0,81.59362549800797,3.258428153042287,
2023-08-09 09:32:26.631000,9.626506024096386,0.746987951807229,-1.8674698795180724,0.9147762109135499,10.265481299816063,-1.2286940527283874,2.0,3.2271062271062276,309.87514188422244,-0.06386574208962162,-0.4484587145271248,-0.11269739525668669,2199.267399267399,-1.0,81.59362549800797,3.258243950534766,
2023-08-09 09:32:26.639000,9.614457831325302,0.7710843373493976,-1.8915662650602412,0.956468424279583,10.248313917841815,-1.2630288166768853,2.0,3.2256410256410257,310.01589825119237,-0.12668259425441397,-0.32399044344735195,0.1450964396014217,2364.102564102564,-1.0,81.59362549800797,3.258055350628628,
2023-08-09 09:32:26.646000,9.614457831325302,0.7590361445783133,-1.9036144578313254,0.927038626609442,10.233599019006745,-1.2532188841201717,2.0,3.2256410256410257,310.01589825119237,-0.17271720762193288,-0.4711846628984331,0.5400617679622397,2506.227106227106,-1.0,81.59362549800797,3.257862355154592,
2023-08-09 09:32:26.654000,9.650602409638555,0.7590361445783133,-1.9397590361445785,0.9343960760269773,10.258123850398528,-1.2213366033108521,2.0,3.2256410256410257,310.01589825119237,0.10267466930831479,-0.7289784977565414,0.3993939747100985,2617.5824175824173,-1.0,81.59362549800797,3.257664969362137,
2023-08-09 09:32:26.662000,9.66265060240964,0.746987951807229,-1.927710843373494,0.8804414469650521,10.243408951563458,-1.2630288166768853,2.0,3.2256410256410257,310.01589825119237,-0.03496299749431863,-0.3279529164967073,0.288910902628052,2690.10989010989,-1.0,81.59362549800797,3.2574632028798605,
2023-08-09 09:32:26.669000,9.674698795180724,0.746987951807229,-1.963855421686747,0.9785407725321887,10.341508277130593,-1.2949110974862048,2.0,3.2256410256410257,310.01589825119237,0.2399627061360057,-0.17586387739642242,0.14731076277606195,2718.6813186813183,-1.0,81.59362549800797,3.2572570692559184,
2023-08-09 09:32:26.677000,9.686746987951807,0.7349397590361446,-1.9156626506024097,0.9343960760269773,10.253218884120171,-1.1992642550582464,2.0,3.2256410256410257,310.01589825119237,0.04090670706835344,0.09894528290892109,0.2506846920342639,2705.494505494505,743.011474609375,80.75245410112129,3.257046586012456,
2023-08-09 09:32:26.685000,9.686746987951807,0.7590361445783133,-1.927710843373494,0.9785407725321887,10.309625996321275,-1.2360515021459226,2.0,3.2241758241758243,310.1567825494206,-0.29403880892721795,0.2644368043820282,0.3993939747100985,2653.4798534798533,-1.0,80.75245410112129,3.2568317751104034,
2023-08-09 09:32:26.692000,9.674698795180724,0.7590361445783133,-1.9156626506024097,0.9172286940527283,10.277743715511955,-1.2286940527283874,2.0,3.2241758241758243,310.1567825494206,-0.289260532602995,0.09265194335994377,0.10477244915797462,2567.032967032967,-1.0,80.75245410112129,3.2566126624192937,
2023-08-09 09:32:26.700000,9.686746987951807,0.746987951807229,-1.8795180722891567,0.8927038626609441,10.243408951563458,-1.2041692213366033,2.0,3.2241758241758243,310.1567825494206,-0.2858807761785438,0.47036885962356545,0.3019637550259309,2449.0842490842488,-1.0,80.75245410112129,3.256389277598448,
2023-08-09 09:32:26.708000,9.66265060240964,0.7590361445783133,-1.9036144578313254,0.9540159411404046,10.30226854690374,-1.2115266707541386,2.0,3.2241758241758243,310.1567825494206,-0.44939106112697325,0.34275391876930306,0.14544606957636508,2310.6227106227107,-1.0,80.75245410112129,3.2561616544940324,
2023-08-09 09:32:26.715000,9.66265060240964,0.7590361445783133,-1.9156626506024097,0.9613733905579399,10.292458614347026,-1.2066217044757817,2.0,3.2227106227106233,310.29779495339847,0.046500786667444005,0.24555678573509626,0.14194976982693305,2158.974358974359,-1.0,80.75245410112129,3.2559298310696327,
2023-08-09 09:32:26.723000,9.674698795180724,0.7590361445783133,-1.9036144578313254,0.9123237277743715,10.324340895156345,-1.2164316370324952,2.0,3.2212454212454213,310.43893563793495,-0.2722452071557599,0.6540411397937178,0.16992016782238803,2003.6630036630036,-1.0,80.75245410112129,3.2556938488361156,
2023-08-09 09:32:26.730000,9.650602409638555,0.7349397590361446,-1.8915662650602412,0.9049662783568363,10.221336603310851,-1.1919068056407112,2.0,3.2227106227106233,310.29779495339847,-0.20686440184138394,0.5402948546122027,0.029718547870170576,1846.8864468864467,-1.0,80.75245410112129,3.2554537522019635,
2023-08-09 09:32:26.738000,9.650602409638555,0.746987951807229,-1.8433734939759037,0.8632740649908032,10.228694052728386,-1.1771919068056407,2.0,3.2212454212454213,310.43893563793495,-0.12773148417924324,0.5366820115377898,-0.13752112347765302,1693.7728937728937,-1.0,80.75245410112129,3.255209589254521,
2023-08-09 09:32:26.746000,9.614457831325302,0.7228915662650602,-1.8795180722891567,0.8804414469650521,10.258123850398528,-1.2385039852851012,2.0,3.2212454212454213,310.43893563793495,-0.09719713303420506,0.24404172251034367,-0.026804964745644023,1553.113553113553,-1.0,80.75245410112129,3.2549614116881362,
2023-08-09 09:32:26.753000,9.626506024096386,0.7228915662650602,-1.8795180722891567,0.927038626609442,10.258123850398528,-1.184549356223176,2.0,3.2183150183150184,310.7216025495106,0.11596060835615618,0.31862945049822305,-0.06992599498863683,1428.5714285714284,-1.0,80.75245410112129,3.254709273706045,
2023-08-09 09:32:26.761000,9.614457831325302,0.7349397590361446,-1.8674698795180724,0.944206008583691,10.31698344573881,-1.1649294911097485,2.0,3.2183150183150184,310.7216025495106,-0.19264611619369584,0.22411281393858243,0.20768020511625196,1321.6117216117216,-1.0,80.75245410112129,3.2544532323550475,
2023-08-09 09:32:26.769000,9.63855421686747,0.7349397590361446,-1.8433734939759037,0.9025137952176578,10.260576333537706,-1.1870018393623543,2.0,3.2183150183150184,310.7216025495106,-0.0090903793485226,0.23634986306159284,-0.06561389196433763,1230.03663003663,-1.0,80.75245410112129,3.2541933471513613,
2023-08-09 09:32:26.776000,9.650602409638555,0.7349397590361446,-1.8674698795180724,0.9319435928877988,10.204169221336603,-1.1453096259963211,2.0,3.2183150183150184,310.7216025495106,-0.16292756832352354,0.06654623856418607,0.3504457782180526,1154.5787545787546,-1.0,80.75245410112129,3.2539296799421784,
2023-08-09 09:32:26.784000,9.66265060240964,0.7349397590361446,-1.8433734939759037,0.8755364806866952,10.324340895156345,-1.1722869405272838,2.0,3.2183150183150184,310.7216025495106,0.12633296427947147,-0.027271138045567803,0.3058096847503059,1090.10989010989,-1.0,80.75245410112129,3.2536622952527505,
2023-08-09 09:32:26.792000,9.66265060240964,0.7590361445783133,-1.8795180722891567,0.9196811771919068,10.329245861434702,-1.1992642550582464,2.0,3.2183150183150184,310.7216025495106,-0.011770875823087047,-0.19486043936833522,-0.14952508595070219,1037.3626373626373,-1.0,80.75245410112129,3.2533912601371604,
2023-08-09 09:32:26.799000,9.63855421686747,0.7349397590361446,-1.8915662650602412,0.8877988963825874,10.28755364806867,-1.1453096259963211,2.0,3.2183150183150184,310.7216025495106,0.20080414894237003,0.20383427539187698,0.22061651418914996,995.6043956043956,-1.0,80.75245410112129,3.2531166440262895,
2023-08-09 09:32:26.807000,9.650602409638555,0.746987951807229,-1.9036144578313254,0.9098712446351931,10.265481299816063,-1.196811771919068,2.0,3.2183150183150184,310.7216025495106,-0.07540353126274699,0.02167705844647724,0.0657304352893189,961.172161172161,-1.0,80.75245410112129,3.252838518573922,
2023-08-09 09:32:26.815000,9.66265060240964,0.7228915662650602,-1.8915662650602412,0.8657265481299815,10.341508277130593,-1.2164316370324952,2.0,3.216849816849817,310.86312912776134,-0.013752112347764738,0.1934619194685617,0.09440009323465978,935.5311355311354,-1.0,80.75245410112129,3.25255695750183,
2023-08-09 09:32:26.822000,9.686746987951807,0.7590361445783133,-1.9156626506024097,0.9687308399754752,10.243408951563458,-1.231146535867566,2.0,3.216849816849817,310.86312912776134,-0.01281976574791631,0.1964920459180704,0.0916030534351145,917.9487179487179,-1.0,80.75245410112129,3.2522720359521182,
2023-08-09 09:32:26.830000,9.66265060240964,0.746987951807229,-1.8915662650602412,0.9785407725321887,10.292458614347026,-1.1722869405272838,2.0,3.216849816849817,310.86312912776134,0.08286230406153441,0.32026105704795826,-0.021094341821572188,910.6227106227105,-1.0,80.75245410112129,3.251983830260791,
2023-08-09 09:32:26.838000,9.674698795180724,0.7590361445783133,-1.8915662650602412,0.9343960760269773,10.248313917841815,-1.2041692213366033,2.0,3.2153846153846155,311.0047846889952,0.052677582891440485,0.21385700134024802,-0.056290425965852924,909.8901098901098,-1.0,80.75245410112129,3.2516924177996027,
2023-08-09 09:32:26.845000,9.674698795180724,0.7710843373493976,-1.9036144578313254,0.9858982219497241,10.294911097486205,-1.226241569589209,2.0,3.2153846153846155,311.0047846889952,-0.05116251966668614,0.24404172251034367,-0.21350737136530507,916.4835164835164,-1.0,80.75245410112129,3.2513978763943405,
2023-08-09 09:32:26.853000,9.650602409638555,0.7590361445783133,-1.8915662650602412,0.9687308399754752,10.324340895156345,-1.231146535867566,2.0,3.2153846153846155,311.0047846889952,-0.09591515645941413,0.49985432084377435,-0.06514771866441342,930.4029304029303,-1.0,80.75245410112129,3.251100284587446,
2023-08-09 09:32:26.861000,9.650602409638555,0.783132530120482,-1.9156626506024097,0.9343960760269773,10.282648681790311,-1.2041692213366033,2.0,3.2139194139194145,311.1465694096193,0.042188683643144376,-0.07190723151331495,-0.1306450673037702,951.6483516483515,-1.0,80.75245410112129,3.250799721936622,
2023-08-09 09:32:26.868000,9.63855421686747,0.7590361445783133,-1.8915662650602412,0.9638258736971183,10.250766400980993,-1.2286940527283874,2.0,3.2139194139194145,311.1465694096193,-0.07855020103723478,0.24625604568498302,-0.28634694947846845,981.6849816849816,-1.0,80.75245410112129,3.2504962688251595,
2023-08-09 09:32:26.876000,9.650602409638555,0.7710843373493976,-1.8433734939759037,0.9834457388105456,10.267933782955241,-1.213979153893317,2.0,3.212454212454212,311.2884834663626,-0.07773439776236893,0.14789347940096786,-0.2103607015908164,1020.5128205128204,-1.0,80.75245410112129,3.250190005714875,
2023-08-09 09:32:26.884000,9.66265060240964,0.7710843373493976,-1.8674698795180724,0.8877988963825874,10.245861434702636,-1.1771919068056407,2.0,3.2139194139194145,311.1465694096193,-0.25674494493327915,-0.11561097838121367,0.06479808868947047,1065.9340659340658,-1.0,80.75245410112129,3.2498810129986495,
2023-08-09 09:32:26.891000,9.66265060240964,0.746987951807229,-1.8795180722891567,0.927038626609442,10.28510116492949,-1.213979153893317,2.0,3.212454212454212,311.2884834663626,-0.31594895402365863,0.3084901812248712,0.0032632130994699297,1114.2857142857142,-1.0,80.75245410112129,3.2495693717022163,
2023-08-09 09:32:26.899000,9.63855421686747,0.7349397590361446,-1.8554216867469882,0.9760882893930104,10.228694052728386,-1.074187614960147,2.0,3.212454212454212,311.2884834663626,-0.2346017131868768,0.07645242118757625,-0.10349047258318282,1166.3003663003662,-1.0,80.75245410112129,3.2492551628901705,
2023-08-09 09:32:26.907000,9.63855421686747,0.7590361445783133,-1.8554216867469882,0.9074187614960146,10.27038626609442,-1.1624770079705702,2.0,3.2109890109890116,311.4305270362765,-0.2172367577646992,-0.26187285123244636,-0.010488899248295677,1219.047619047619,-1.0,80.75245410112129,3.2489384665509182,
2023-08-09 09:32:26.914000,9.650602409638555,0.746987951807229,-1.8433734939759037,0.9098712446351931,10.275291232372776,-1.2286940527283874,2.0,3.2109890109890116,311.4305270362765,-0.20301847211700938,-0.01794767204708353,0.06596352193928101,1271.7948717948716,-1.0,80.75245410112129,3.248619362419484,
2023-08-09 09:32:26.922000,9.626506024096386,0.746987951807229,-1.8674698795180724,0.8877988963825874,10.321888412017167,-1.1698344573881054,2.0,3.2109890109890116,311.4305270362765,-0.5214148359652707,-0.01969582192179955,0.18961598974418759,1319.4139194139193,-1.0,80.75245410112129,3.2482979301410078,
2023-08-09 09:32:26.930000,9.674698795180724,0.746987951807229,-1.8915662650602412,0.9074187614960146,10.292458614347026,-1.1624770079705702,2.0,3.2109890109890116,311.4305270362765,-0.19719130586795713,-0.35545714119223853,0.082745760736554,1361.904761904762,-1.0,80.75245410112129,3.2479742481744047,
2023-08-09 09:32:26.937000,9.650602409638555,0.746987951807229,-1.8795180722891567,0.9000613120784794,10.351318209687308,-1.2041692213366033,2.0,3.2109890109890116,311.4305270362765,-0.3335469960957979,-0.3331973661208554,0.16129596177378921,1396.3369963369962,-1.0,80.75245410112129,3.2476483937556044,
2023-08-09 09:32:26.945000,9.66265060240964,0.746987951807229,-1.8915662650602412,0.8559166155732679,10.277743715511955,-1.2066217044757817,2.0,3.2095238095238097,311.5727002967359,-0.13542334362799405,-0.2966027620768016,-0.1717848610220849,1422.7106227106226,-1.0,80.75245410112129,3.2473204432894445,
2023-08-09 09:32:26.953000,9.650602409638555,0.746987951807229,-1.8554216867469882,0.956468424279583,10.319435928877988,-1.0839975475168608,2.0,3.2095238095238097,311.5727002967359,-0.2556960550084499,-0.08076452421187588,0.012586679097954637,1438.8278388278388,-1.0,80.75245410112129,3.246990471764814,
2023-08-09 09:32:26.960000,9.66265060240964,0.746987951807229,-1.8554216867469882,0.8927038626609441,10.30226854690374,-1.20907418761496,2.0,3.2095238095238097,311.5727002967359,-0.130178894003846,-0.06398228541460245,0.18099178369558877,1447.6190476190475,-1.0,80.75245410112129,3.2466585525992975,
2023-08-09 09:32:26.968000,9.66265060240964,0.7590361445783133,-1.8674698795180724,0.9466584917228693,10.290006131207848,-1.2066217044757817,2.0,3.2095238095238097,311.5727002967359,0.4962414777693615,-0.21490589126507728,-0.0327486743196784,1448.3516483516482,-1.0,80.75245410112129,3.2463247580177224,
2023-08-09 09:32:26.976000,9.66265060240964,0.746987951807229,-1.8915662650602412,0.9785407725321887,10.307173513182097,-1.1943592887798895,2.0,3.2095238095238097,311.5727002967359,0.03251558766971586,-0.10547170910786008,-0.16945399452246382,1442.4908424908424,-1.0,80.75245410112129,3.2459891589819057,
2023-08-09 09:32:26.983000,9.66265060240964,0.783132530120482,-1.8795180722891567,0.9491109748620478,10.250766400980993,-1.2041692213366033,2.0,3.2080586080586078,311.7150034254396,0.03309830429462177,-0.31664821397354537,-0.2431093759104948,1430.03663003663,-1.0,80.75245410112129,3.2456518251298343,
2023-08-09 09:32:26.991000,9.66265060240964,0.7710843373493976,-1.9036144578313254,0.9540159411404046,10.280196198651133,-1.1894543225015328,2.0,3.2080586080586078,311.7150034254396,0.09381737660975387,-0.2234135539886957,-0.5933220674785853,1411.7216117216117,-1.0,80.75245410112129,3.245312824231836,
2023-08-09 09:32:26.999000,9.66265060240964,0.7710843373493976,-1.8674698795180724,0.9540159411404046,10.248313917841815,-1.1820968730839976,2.0,3.2080586080586078,311.7150034254396,-0.07400501136297348,-0.2370491230114796,-0.14626187285123224,1385.3479853479853,-1.0,80.75245410112129,3.2449722220770956,
2023-08-09 09:32:27.006000,9.650602409638555,0.7710843373493976,-1.9036144578313254,0.9049662783568363,10.258123850398528,-1.2409564684242795,2.0,3.2080586080586078,311.7150034254396,-0.026804964745644456,0.20744711846628985,-0.3132684575490937,1354.5787545787546,-1.0,80.75245410112129,3.2446300828947376,
2023-08-09 09:32:27.014000,9.650602409638555,0.7710843373493976,-1.9036144578313254,0.9294911097486205,10.282648681790311,-1.2385039852851012,2.0,3.2065934065934067,311.85743660041123,0.06864401841384458,-0.1769127673212517,-0.31047141774954845,1323.076923076923,-1.0,80.75245410112129,3.244286469326583,
2023-08-09 09:32:27.022000,9.66265060240964,0.7590361445783133,-1.9156626506024097,0.9662783568362967,10.28510116492949,-1.184549356223176,2.0,3.2065934065934067,311.85743660041123,0.3907697686614997,-0.25429753510867636,-0.2905425091777868,1290.10989010989,-1.0,80.75245410112129,3.2439414419169053,
2023-08-09 09:32:27.029000,9.650602409638555,0.7590361445783133,-1.9156626506024097,0.8779889638258737,10.250766400980993,-1.2532188841201717,2.0,3.205128205128205,312.0,0.0844939106112696,-0.1177087582308722,-0.1956762426432028,1257.8754578754579,-1.0,80.75245410112129,3.243595059032398,
2023-08-09 09:32:27.037000,9.674698795180724,0.7590361445783133,-1.9036144578313254,0.9515634580012262,10.250766400980993,-1.2360515021459226,2.0,3.205128205128205,312.0,0.16211176504865768,-0.11782530155585304,-0.11596060835615618,1226.3736263736264,-1.0,80.75245410112129,3.2432473768236902,
2023-08-09 09:32:27.045000,9.650602409638555,0.7590361445783133,-1.9156626506024097,0.9613733905579399,10.324340895156345,-1.2458614347026364,2.0,3.205128205128205,312.0,-0.0816968708117243,-0.27166249053085395,0.14626187285123224,1197.8021978021977,-1.0,80.75245410112129,3.2428984496164794,
2023-08-09 09:32:27.052000,9.63855421686747,0.7590361445783133,-1.9156626506024097,0.9319435928877988,10.30226854690374,-1.2752912323727774,2.0,3.205128205128205,312.0,-0.2152555212400215,-0.04207214031816354,-0.03589534409416706,1171.4285714285713,-1.0,80.75245410112129,3.242548330311098,
2023-08-09 09:32:27.060000,9.650602409638555,0.7710843373493976,-1.9036144578313254,1.0177805027590434,10.248313917841815,-1.196811771919068,2.0,3.2021978021978024,312.2855181880576,-0.10663714235767191,-0.0916030534351145,-0.0050113629741855145,1146.5201465201465,-1.0,80.75245410112129,3.2421970699114557,
2023-08-09 09:32:27.068000,9.650602409638555,0.7710843373493976,-1.8915662650602412,0.927038626609442,10.272838749233598,-1.2188841201716738,2.0,3.203663003663004,312.1426938028813,-0.17854437387098687,-0.27725657012994626,-0.050929433016724035,1127.4725274725274,-1.0,80.75245410112129,3.2418447170268814,
2023-08-09 09:32:27.075000,9.66265060240964,0.7710843373493976,-1.9156626506024097,0.8706315144083384,10.25567136725935,-1.2434089515634579,2.0,3.203663003663004,312.1426938028813,0.08262921741157274,-0.2631548278072373,-0.21910145096439607,1111.3553113553112,-1.0,80.75245410112129,3.241491318189993,
2023-08-09 09:32:27.083000,9.626506024096386,0.7590361445783133,-1.9156626506024097,0.9074187614960146,10.321888412017167,-1.2115266707541386,2.0,3.203663003663004,312.1426938028813,-0.49670765106928483,0.012470135772973802,0.04125633704329595,1099.6336996336995,-1.0,80.75245410112129,3.2411369179315317,
2023-08-09 09:32:27.091000,9.66265060240964,0.7590361445783133,-1.9156626506024097,1.0226854690374003,10.28510116492949,-1.2041692213366033,2.0,3.203663003663004,312.1426938028813,-0.27795583007983304,-0.0012819765747909368,0.20709748849134646,1091.5750915750914,-1.0,80.75245410112129,3.240781558438149,
2023-08-09 09:32:27.098000,9.650602409638555,0.7710843373493976,-1.9156626506024097,0.9638258736971183,10.319435928877988,-1.1600245248313916,2.0,3.2021978021978024,312.2855181880576,-0.2743429870054184,-0.0017481498747160184,0.201736495542218,1087.9120879120878,-1.0,80.75245410112129,3.2404252800951228,
2023-08-09 09:32:27.106000,9.674698795180724,0.746987951807229,-1.9156626506024097,1.0006131207847946,10.297363580625383,-1.2286940527283874,2.0,3.2021978021978024,312.2855181880576,-0.422935726356273,0.24357554921041857,0.013868655672746442,1087.179487179487,-1.0,80.75245410112129,3.2400681210501574,
2023-08-09 09:32:27.113000,9.66265060240964,0.7590361445783133,-1.8795180722891567,0.9172286940527283,10.28510116492949,-1.213979153893317,2.0,3.2021978021978024,312.2855181880576,0.055824252665928276,0.07703513781248217,-0.03333139094458345,1088.6446886446886,-1.0,80.75245410112129,3.2397101172039635,
2023-08-09 09:32:27.121000,9.66265060240964,0.7710843373493976,-1.8915662650602412,0.9957081545064377,10.280196198651133,-1.2188841201716738,2.0,3.2021978021978024,312.2855181880576,0.01165433249810621,-0.027620768020512047,-0.0801818075869704,1093.7728937728937,-1.0,80.75245410112129,3.23935130318934,
2023-08-09 09:32:27.129000,9.63855421686747,0.7710843373493976,-1.8674698795180724,0.9172286940527283,10.30226854690374,-1.1575720416922133,2.0,3.200732600732601,312.42847333485923,-0.0019812365246776914,0.42095448983159534,0.026571878095681917,1100.3663003663003,-1.0,80.75245410112129,3.238991712372642,
2023-08-09 09:32:27.136000,9.650602409638555,0.7710843373493976,-1.8795180722891567,0.8927038626609441,10.253218884120171,-1.1673819742489269,2.0,3.200732600732601,312.42847333485923,0.212108851465532,0.13064506730376935,-0.09463317988462189,1107.6923076923076,-1.0,80.75245410112129,3.238631375488768,
2023-08-09 09:32:27.144000,9.66265060240964,0.746987951807229,-1.8795180722891567,0.9098712446351931,10.294911097486205,-1.155119558553035,2.0,3.200732600732601,312.42847333485923,0.04079016374337087,0.28343336635394273,0.24345900588543773,1115.018315018315,-1.0,80.75245410112129,3.2382703207188532,
2023-08-09 09:32:27.152000,9.63855421686747,0.7710843373493976,-1.9156626506024097,0.9760882893930104,10.216431637032494,-1.2335990190067443,2.0,3.200732600732601,312.42847333485923,-0.11409591515645932,-0.10011071615873118,0.19695821921799417,1124.5421245421244,-1.0,80.75245410112129,3.2379085747178125,
2023-08-09 09:32:27.159000,9.650602409638555,0.7590361445783133,-1.8795180722891567,0.944206008583691,10.24095646842428,-1.2115266707541386,2.0,3.1992673992673994,312.5715594229448,0.19206339956878993,0.15954781189907408,0.0599032690402658,1135.5311355311355,-1.0,80.75245410112129,3.2375461626954642,
2023-08-09 09:32:27.167000,9.66265060240964,0.7590361445783133,-1.8915662650602412,0.9515634580012262,10.290006131207848,-1.226241569589209,2.0,3.1992673992673994,312.5715594229448,-0.3011479517510629,-0.34566750189382917,-0.015733348872443296,1147.2527472527472,-1.0,80.75245410112129,3.2371831084668656,
2023-08-09 09:32:27.175000,9.650602409638555,0.746987951807229,-1.8795180722891567,0.9074187614960146,10.299816063764561,-1.2188841201716738,2.0,3.1992673992673994,312.5715594229448,0.15733348872443298,-0.29695239205174584,0.004312103024299194,1160.4395604395604,-1.0,80.75245410112129,3.236819433943949,
2023-08-09 09:32:27.182000,9.650602409638555,0.746987951807229,-1.8915662650602412,0.9368485591661557,10.321888412017167,-1.2409564684242795,2.0,3.197802197802198,312.7147766323024,0.23215430336227577,-0.46500786667443655,0.035196084144280736,1172.161172161172,-1.0,80.75245410112129,3.236455159717278,
2023-08-09 09:32:27.190000,9.63855421686747,0.7590361445783133,-1.9397590361445785,0.8976088289393009,10.27038626609442,-1.2164316370324952,2.0,3.1992673992673994,312.5715594229448,-0.07400501136297348,-0.12400209777984952,-0.040440533768428356,1183.8827838827838,-1.0,80.75245410112129,3.2360903046203737,
2023-08-09 09:32:27.198000,9.63855421686747,0.7590361445783133,-1.8915662650602412,0.9123237277743715,10.27038626609442,-1.1722869405272838,2.0,3.197802197802198,312.7147766323024,0.09603169978439496,0.12260357788007775,0.02225977507138272,1193.4065934065934,-1.0,80.75245410112129,3.235724885821357,
2023-08-09 09:32:27.205000,9.63855421686747,0.7710843373493976,-1.9156626506024097,0.9172286940527283,10.280196198651133,-1.2703862660944205,2.0,3.197802197802198,312.7147766323024,-0.20861255171609994,0.07610279121263375,0.054076102791212693,1200.0,-1.0,80.75245410112129,3.235358918983992,
2023-08-09 09:32:27.213000,9.63855421686747,0.7349397590361446,-1.8915662650602412,0.9025137952176578,10.248313917841815,-1.2213366033108521,2.0,3.1963369963369965,312.85812514325005,0.5418099178369553,0.016082978847386676,0.2834333663539419,1202.9304029304028,-1.0,80.75245410112129,3.2349924179013443,
2023-08-09 09:32:27.221000,9.650602409638555,0.7349397590361446,-1.927710843373494,0.9466584917228693,10.236051502145923,-1.2335990190067443,2.0,3.194871794871795,313.0016051364366,-0.07318920808810589,-0.07423809801293689,0.21933453761435817,1205.8608058608058,-1.0,80.75245410112129,3.2346253955007196,
2023-08-09 09:32:27.228000,9.63855421686747,0.7590361445783133,-1.9036144578313254,0.9687308399754752,10.27038626609442,-1.1992642550582464,2.0,3.1963369963369965,312.85812514325005,0.23273701998717997,0.01911310529689363,0.09335120330983052,1209.5238095238094,-1.0,80.75245410112129,3.234257862845448,
2023-08-09 09:32:27.236000,9.650602409638555,0.7590361445783133,-1.927710843373494,0.9515634580012262,10.314530962599632,-1.1943592887798895,2.0,3.1963369963369965,312.85812514325005,0.2478876522347182,0.18542043004486836,-0.04708350329234905,1214.6520146520145,-1.0,80.75245410112129,3.233889829680818,
2023-08-09 09:32:27.244000,9.63855421686747,0.7590361445783133,-1.9397590361445785,0.9858982219497241,10.272838749233598,-1.2483139178418148,2.0,3.1963369963369965,312.85812514325005,0.20208612551716096,-0.1827399335703039,0.02995163452013268,1219.7802197802198,-1.0,80.75245410112129,3.2335213055411214,
2023-08-09 09:32:27.251000,9.650602409638555,0.7590361445783133,-1.9156626506024097,0.9294911097486205,10.27038626609442,-1.20907418761496,2.0,3.194871794871795,313.0016051364366,0.2941553522522005,0.33762601247013585,-0.21292465474039957,1224.9084249084249,-1.0,80.75245410112129,3.2331522993828625,
2023-08-09 09:32:27.259000,9.626506024096386,0.7590361445783133,-1.963855421686747,0.9638258736971183,10.275291232372776,-1.2458614347026364,2.0,3.194871794871795,313.0016051364366,0.07831711438727311,0.27236175048074074,-0.2723617504807412,1230.7692307692307,-1.0,80.75245410112129,3.232782818727111,
2023-08-09 09:32:27.267000,9.63855421686747,0.7590361445783133,-1.9036144578313254,0.9221336603310851,10.206621704475781,-1.2213366033108521,2.0,3.194871794871795,313.0016051364366,-0.30615931472524927,0.16234485169861934,-0.14812656605092953,1232.967032967033,-1.0,80.75245410112129,3.2324128697492354,
2023-08-09 09:32:27.274000,9.63855421686747,0.7710843373493976,-1.927710843373494,0.9294911097486205,10.30226854690374,-1.2066217044757817,2.0,3.193406593406594,313.14521679284235,0.031117067769944086,0.327486743196784,0.18880018646932,1233.6996336996335,-1.0,80.75245410112129,3.2320424587739054,
2023-08-09 09:32:27.282000,9.66265060240964,0.7710843373493976,-1.9397590361445785,0.944206008583691,10.297363580625383,-1.2188841201716738,2.0,3.193406593406594,313.14521679284235,0.04521881009265133,0.4302779558300796,0.1872851232445661,1236.6300366300366,-1.0,80.75245410112129,3.2316715918035457,
2023-08-09 09:32:27.290000,9.66265060240964,0.7710843373493976,-1.9036144578313254,0.9147762109135499,10.299816063764561,-1.213979153893317,2.0,3.193406593406594,313.14521679284235,-0.4439135248528635,0.39601421828564776,0.23331973661208544,1238.8278388278388,-1.0,80.75245410112129,3.2313002740479275,
2023-08-09 09:32:27.297000,9.674698795180724,0.7590361445783133,-1.8795180722891567,0.9785407725321887,10.272838749233598,-1.2115266707541386,2.0,3.193406593406594,313.14521679284235,-0.0745877279878794,0.42270263970631133,0.3553405978672573,1241.7582417582416,-1.0,80.75245410112129,3.2309285104720504,
2023-08-09 09:32:27.305000,9.650602409638555,0.7590361445783133,-1.8554216867469882,0.973635806253832,10.28755364806867,-1.1919068056407112,2.0,3.193406593406594,313.14521679284235,-0.5331857117883578,0.295786958801934,0.40032632130994694,1245.4212454212454,-1.0,80.75245410112129,3.230556305886641,
2023-08-09 09:32:27.313000,9.66265060240964,0.7590361445783133,-1.8554216867469882,0.9393010423053341,10.22378908645003,-1.1575720416922133,2.0,3.1919413919413917,313.2889602937801,-0.3755025930889806,0.7515879028028671,0.4148942369325797,1247.6190476190475,-1.0,80.75245410112129,3.2301836650391715,
2023-08-09 09:32:27.320000,9.66265060240964,0.746987951807229,-1.8674698795180724,0.9172286940527283,10.319435928877988,-1.1771919068056407,2.0,3.1919413919413917,313.2889602937801,-0.32550550667210454,0.275158790280286,0.44088339840335655,1248.3516483516482,-1.0,80.75245410112129,3.2298105922127163,
2023-08-09 09:32:27.328000,9.686746987951807,0.746987951807229,-1.8674698795180724,0.86817903126916,10.280196198651133,-1.1722869405272838,2.0,3.1919413919413917,313.2889602937801,-0.24555678573509626,0.30394499155060817,0.2693316240312338,1249.8168498168498,-1.0,80.75245410112129,3.2294370912458197,
2023-08-09 09:32:27.336000,9.674698795180724,0.7349397590361446,-1.8795180722891567,0.9074187614960146,10.282648681790311,-1.1526670754138564,2.0,3.1919413919413917,313.2889602937801,-0.2421770293106468,0.25627877163335405,0.3265543965969347,1252.7472527472526,-1.0,80.75245410112129,3.2290631665352736,
2023-08-09 09:32:27.343000,9.66265060240964,0.7349397590361446,-1.8674698795180724,0.8485591661557327,10.319435928877988,-1.155119558553035,2.0,3.1904761904761907,313.4328358208955,-0.07190723151331495,0.11922382145562654,0.2605908746576541,1263.003663003663,-1.0,80.75245410112129,3.2286888225979613,
2023-08-09 09:32:27.351000,9.66265060240964,0.746987951807229,-1.8554216867469882,0.9049662783568363,10.282648681790311,-1.20907418761496,2.0,3.1904761904761907,313.4328358208955,0.08274576073655357,0.3632655439659685,0.11922382145562611,1283.5164835164835,-1.0,80.75245410112129,3.228314063701859,
2023-08-09 09:32:27.359000,9.66265060240964,0.7349397590361446,-1.8795180722891567,0.9098712446351931,10.258123850398528,-1.2041692213366033,2.0,3.1904761904761907,313.4328358208955,0.3723559233144928,0.11875764815570147,-0.23506788648680146,1322.3443223443223,-1.0,80.75245410112129,3.227938894305573,
2023-08-09 09:32:27.366000,9.66265060240964,0.746987951807229,-1.8554216867469882,0.9123237277743715,10.216431637032494,-1.1943592887798895,2.0,3.1890109890109892,313.5768435561681,-0.11840801818075895,0.3647806071907228,-0.3250393333721812,1383.150183150183,-1.0,80.75245410112129,3.22756331910856,
2023-08-09 09:32:27.374000,9.63855421686747,0.7349397590361446,-1.8433734939759037,0.8927038626609441,10.25567136725935,-1.1330472103004292,2.0,3.1890109890109892,313.5768435561681,-0.11689295495600462,0.36198356739117754,-0.3243400734222949,1473.9926739926739,-1.0,80.75245410112129,3.2271873431002,
2023-08-09 09:32:27.382000,9.650602409638555,0.7349397590361446,-1.8313253012048194,0.9294911097486205,10.282648681790311,-1.1453096259963211,2.0,3.1890109890109892,313.5768435561681,0.20628168521647974,0.31350154419905585,-0.35487442456733304,1594.139194139194,-1.0,80.75245410112129,3.2268109715030575,
2023-08-09 09:32:27.389000,9.626506024096386,0.7349397590361446,-1.8554216867469882,0.9466584917228693,10.221336603310851,-1.1354996934396075,2.0,3.1890109890109892,313.5768435561681,0.2368160363615179,0.26525260765689584,-0.6895868539129419,1742.8571428571427,-1.0,80.75245410112129,3.2264342098184677,
2023-08-09 09:32:27.397000,9.626506024096386,0.7349397590361446,-1.8554216867469882,0.9540159411404046,10.243408951563458,-1.1281422440220723,2.0,3.1890109890109892,313.5768435561681,0.5717615523570894,-0.18017598042072205,-0.6696579453411807,1912.087912087912,-1.0,80.75245410112129,3.2260570639046455,
2023-08-09 09:32:27.405000,9.614457831325302,0.7349397590361446,-1.8915662650602412,0.9172286940527283,10.27038626609442,-1.1624770079705702,2.0,3.1890109890109892,313.5768435561681,0.35638948779208696,-0.639822854146028,-0.40568731425907584,2092.3076923076924,-1.0,80.75245410112129,3.2256795400526626,
2023-08-09 09:32:27.412000,9.63855421686747,0.7349397590361446,-1.8915662650602412,0.9368485591661557,10.27038626609442,-1.2017167381974247,2.0,3.1875457875457878,313.7209836819122,0.3077909212749844,-0.589592681079192,-0.08414428063632665,2273.9926739926736,-1.0,80.75245410112129,3.2253016450603997,
2023-08-09 09:32:27.420000,9.63855421686747,0.746987951807229,-1.9156626506024097,0.927038626609442,10.248313917841815,-1.231146535867566,2.0,3.1875457875457878,313.7209836819122,0.4439135248528635,-0.70811724258493,-0.32818600314666985,2440.29304029304,-1.0,80.75245410112129,3.2249233858119206,
2023-08-09 09:32:27.428000,9.626506024096386,0.7590361445783133,-1.9156626506024097,0.8976088289393009,10.27038626609442,-1.2385039852851012,2.0,3.1890109890109892,313.5768435561681,0.2865800361284305,-0.6584697861429982,-0.25208321193403654,2578.7545787545787,-1.0,80.75245410112129,3.2245447692755955,
2023-08-09 09:32:27.435000,9.650602409638555,0.7590361445783133,-1.9397590361445785,0.9147762109135499,10.221336603310851,-1.2188841201716738,2.0,3.1875457875457878,313.7209836819122,0.06911019171376967,-0.5168696462910095,-0.4011421245848145,2680.5860805860802,-1.0,80.75245410112129,3.2241658035177934,
2023-08-09 09:32:27.443000,9.650602409638555,0.7710843373493976,-1.9397590361445785,0.9123237277743715,10.250766400980993,-1.226241569589209,2.0,3.1890109890109892,313.5768435561681,0.22236466406386643,-0.22446244391352496,0.1355398869529749,2743.589743589743,-1.0,80.75245410112129,3.223786497343512,
2023-08-09 09:32:27.451000,9.66265060240964,0.7590361445783133,-1.9397590361445785,0.9074187614960146,10.309625996321275,-1.2703862660944205,2.0,3.1860805860805863,313.86525638077717,0.083678107336402,-0.3614008507662716,-0.06503117533943259,2761.904761904762,758.331298828125,79.12109139200773,3.2234068607816853,
2023-08-09 09:32:27.458000,9.674698795180724,0.783132530120482,-1.8915662650602412,0.9711833231146535,10.277743715511955,-1.2409564684242795,2.0,3.1860805860805863,313.86525638077717,-0.16001398519899743,0.06701241186411114,-0.264786434356972,2739.194139194139,-1.0,79.12109139200773,3.2230269046208684,
2023-08-09 09:32:27.466000,9.674698795180724,0.7710843373493976,-1.9036144578313254,0.9638258736971183,10.28755364806867,-1.2973635806253832,2.0,3.1860805860805863,313.86525638077717,-0.11234776528174331,-0.16665695472291897,0.04207214031816311,2676.9230769230767,-1.0,79.12109139200773,3.222646639380916,
2023-08-09 09:32:27.474000,9.674698795180724,0.7710843373493976,-1.9036144578313254,0.9491109748620478,10.297363580625383,-1.1894543225015328,2.0,3.1860805860805863,313.86525638077717,-0.3377425557951167,-0.1048889924829559,0.08787366703572036,2580.9523809523807,-1.0,79.12109139200773,3.2222660762828585,
2023-08-09 09:32:27.481000,9.66265060240964,0.7349397590361446,-1.9156626506024097,0.9147762109135499,10.277743715511955,-1.2115266707541386,2.0,3.184615384615385,314.0096618357488,-0.15150632247538073,-0.215605151214964,0.31536623739875314,2457.875457875458,-1.0,79.12109139200773,3.221885227300658,
2023-08-09 09:32:27.489000,9.63855421686747,0.7590361445783133,-1.8915662650602412,0.9981606376456161,10.272838749233598,-1.2164316370324952,2.0,3.1860805860805863,313.86525638077717,-0.3187459938232039,-0.4472932812773147,-0.20802983509119533,2316.4835164835163,-1.0,79.12109139200773,3.2215041051760185,
2023-08-09 09:32:27.496000,9.650602409638555,0.783132530120482,-1.8795180722891567,0.9172286940527283,10.250766400980993,-1.1649294911097485,2.0,3.184615384615385,314.0096618357488,-0.39123594196142475,-0.33879144571994596,0.17236757764699037,2161.904761904762,-1.0,79.12109139200773,3.221122723819277,
2023-08-09 09:32:27.504000,9.650602409638555,0.7710843373493976,-1.9036144578313254,0.9172286940527283,10.321888412017167,-1.1649294911097485,2.0,3.184615384615385,314.0096618357488,-0.3565060311170678,0.05733931589068263,0.04859856651710253,2005.128205128205,-1.0,79.12109139200773,3.220741097898822,
2023-08-09 09:32:27.512000,9.66265060240964,0.7590361445783133,-1.8795180722891567,0.9589209074187615,10.28510116492949,-1.2385039852851012,2.0,3.184615384615385,314.0096618357488,0.1960258726181453,-0.344035895344094,0.12388555445486868,1852.7472527472526,-1.0,79.12109139200773,3.2203592423585796,
2023-08-09 09:32:27.519000,9.63855421686747,0.783132530120482,-1.9036144578313254,0.8951563458001226,10.307173513182097,-1.2458614347026364,2.0,3.1816849816849824,314.29887174763985,-0.12773148417924324,0.024007924946099175,0.07796748441233016,1709.1575091575091,-1.0,79.12109139200773,3.2199771733738825,
2023-08-09 09:32:27.527000,9.66265060240964,0.7710843373493976,-1.8795180722891567,0.9515634580012262,10.304721030042918,-1.1698344573881054,2.0,3.1816849816849824,314.29887174763985,0.010605442573276946,0.23891381621117644,0.01794767204708353,1582.4175824175823,-1.0,79.12109139200773,3.2195949077946517,
2023-08-09 09:32:27.535000,9.650602409638555,0.7710843373493976,-1.8433734939759037,0.9540159411404046,10.238503985285101,-1.2188841201716738,2.0,3.1816849816849824,314.29887174763985,0.0874074937357957,0.09824602295903433,0.14299865975176274,1469.5970695970695,-1.0,79.12109139200773,3.219212462481368,
2023-08-09 09:32:27.542000,9.650602409638555,0.7590361445783133,-1.8674698795180724,0.9466584917228693,10.263028816676885,-1.137952176578786,2.0,3.1816849816849824,314.29887174763985,0.25336518850882794,-0.083678107336402,-0.3448516986189616,1371.4285714285713,-1.0,79.12109139200773,3.2188298547592313,
2023-08-09 09:32:27.550000,9.63855421686747,0.7590361445783133,-1.8795180722891567,0.9172286940527283,10.250766400980993,-1.1919068056407112,2.0,3.1816849816849824,314.29887174763985,0.2350678864868019,0.2234135539886957,-0.004661732999242571,1284.2490842490843,-1.0,79.12109139200773,3.218447102445367,
2023-08-09 09:32:27.558000,9.626506024096386,0.7590361445783133,-1.8313253012048194,0.9294911097486205,10.309625996321275,-1.1404046597179645,2.0,3.1816849816849824,314.29887174763985,-0.042654856943067726,-0.11304702523163007,0.10395664588310703,1208.7912087912086,-1.0,79.12109139200773,3.2180642238724397,
2023-08-09 09:32:27.565000,9.66265060240964,0.7590361445783133,-1.8915662650602412,0.8853464132434089,10.280196198651133,-1.155119558553035,2.0,3.1816849816849824,314.29887174763985,0.44379698152788266,-0.34077268224462365,-0.337859099120098,1147.2527472527472,-1.0,79.12109139200773,3.2176812379090975,
2023-08-09 09:32:27.573000,9.650602409638555,0.746987951807229,-1.8674698795180724,0.9319435928877988,10.258123850398528,-1.179644389944819,2.0,3.1802197802197805,314.44367657221835,0.4098828739583933,-0.10873492220733044,-0.1834391935201911,1101.098901098901,-1.0,79.12109139200773,3.217298163977593,
2023-08-09 09:32:27.581000,9.626506024096386,0.7590361445783133,-1.8554216867469882,0.9368485591661557,10.275291232372776,-1.184549356223176,2.0,3.1802197802197805,314.44367657221835,0.03927510051861826,0.01666569547229259,0.21653749781481246,1068.8644688644688,-1.0,79.12109139200773,3.2169150220341978,
2023-08-09 09:32:27.588000,9.650602409638555,0.7590361445783133,-1.8795180722891567,0.9491109748620478,10.221336603310851,-1.1575720416922133,2.0,3.1802197802197805,314.44367657221835,0.46524095332439824,-0.24182739933570255,0.15290484237515295,1046.1538461538462,-1.0,79.12109139200773,3.216531831985137,
2023-08-09 09:32:27.596000,9.650602409638555,0.746987951807229,-1.9036144578313254,0.9393010423053341,10.31698344573881,-1.196811771919068,2.0,3.1802197802197805,314.44367657221835,-0.11665986830604294,-0.5280578054891906,0.05850474914049316,1027.8388278388277,-1.0,79.12109139200773,3.2161486141872877,
2023-08-09 09:32:27.604000,9.66265060240964,0.7590361445783133,-1.9156626506024097,0.8583690987124463,10.265481299816063,-1.2507664009809931,2.0,3.178754578754579,314.58861488822305,0.03764349396888308,-0.5202494027154589,0.33179884622108274,1011.7216117216117,-1.0,79.12109139200773,3.2157653898773093,
2023-08-09 09:32:27.611000,9.686746987951807,0.7228915662650602,-1.9036144578313254,0.9368485591661557,10.309625996321275,-1.2409564684242795,2.0,3.178754578754579,314.58861488822305,0.3286521764465941,-0.6507779266942492,-0.14544606957636508,997.069597069597,-1.0,79.12109139200773,3.215382180650887,
2023-08-09 09:32:27.619000,9.66265060240964,0.7349397590361446,-1.9036144578313254,0.8779889638258737,10.334150827713058,-1.2458614347026364,2.0,3.178754578754579,314.58861488822305,0.03671114736903465,-0.38610803566225754,0.06631315191422396,985.3479853479853,-1.0,79.12109139200773,3.214999008328493,
2023-08-09 09:32:27.627000,9.686746987951807,0.746987951807229,-1.963855421686747,0.927038626609442,10.336603310852237,-1.226241569589209,2.0,3.178754578754579,314.58861488822305,-0.23809801293630886,-0.09463317988462146,0.08064798088689461,979.4871794871794,-1.0,79.12109139200773,3.2146158949235577,
2023-08-09 09:32:27.634000,9.66265060240964,0.746987951807229,-1.9156626506024097,0.9417535254445125,10.248313917841815,-1.25567136725935,2.0,3.178754578754579,314.58861488822305,0.4369209253540012,0.19555969931822195,-0.3659460404405338,980.9523809523808,-1.0,79.12109139200773,3.2142328626435925,
2023-08-09 09:32:27.642000,9.674698795180724,0.7710843373493976,-1.9518072289156627,0.9785407725321887,10.326793378295523,-1.2066217044757817,2.0,3.1772893772893775,314.733686880332,-0.024241011596060846,0.12936309072897842,-0.2116426781656082,989.7435897435897,-1.0,79.12109139200773,3.2138499338900313,
2023-08-09 09:32:27.650000,9.66265060240964,0.7590361445783133,-1.927710843373494,0.9589209074187615,10.309625996321275,-1.260576333537707,2.0,3.1772893772893775,314.733686880332,-0.024357554921041684,0.1256337043295847,-0.20919526834100588,1004.3956043956043,-1.0,79.12109139200773,3.2134671312224454,
2023-08-09 09:32:27.657000,9.650602409638555,0.7590361445783133,-1.9036144578313254,0.9221336603310851,10.275291232372776,-1.2532188841201717,2.0,3.1772893772893775,314.733686880332,0.2805197832294149,0.5329526251383944,-0.1121146786317812,1027.8388278388277,-1.0,79.12109139200773,3.2130844772178317,
2023-08-09 09:32:27.665000,9.63855421686747,0.7590361445783133,-1.9397590361445785,0.927038626609442,10.282648681790311,-1.2335990190067443,2.0,3.1772893772893775,314.733686880332,0.32562204999708716,0.6450673037701761,-0.3373929258201738,1057.8754578754579,-1.0,79.12109139200773,3.2127019944334476,
2023-08-09 09:32:27.673000,9.63855421686747,0.783132530120482,-1.9156626506024097,0.973635806253832,10.228694052728386,-1.2213366033108521,2.0,3.175824175824176,314.878892733564,0.09451663655964061,0.14859273935085288,0.09474972320960316,1091.5750915750914,-1.0,79.12109139200773,3.2123197054038983,
2023-08-09 09:32:27.680000,9.626506024096386,0.7710843373493976,-1.9156626506024097,0.9809932556713672,10.226241569589208,-1.196811771919068,2.0,3.175824175824176,314.878892733564,-0.11747567158091053,0.46617329992424666,-0.04230522696812521,1128.2051282051282,-1.0,79.12109139200773,3.2119376330612353,
2023-08-09 09:32:27.688000,9.63855421686747,0.7710843373493976,-1.8674698795180724,0.9491109748620478,10.25567136725935,-1.2286940527283874,2.0,3.175824175824176,314.878892733564,-0.1003438028086946,-0.05629042596585336,-0.28436571295379076,1168.4981684981685,-1.0,79.12109139200773,3.211555800525757,
2023-08-09 09:32:27.696000,9.626506024096386,0.7590361445783133,-1.9036144578313254,0.9515634580012262,10.213979153893316,-1.20907418761496,2.0,3.174358974358975,315.02423263327944,-0.16222830837363852,0.08297884738651524,-0.08064798088689461,1210.2564102564102,-1.0,79.12109139200773,3.211174230122155,
2023-08-09 09:32:27.703000,9.626506024096386,0.7590361445783133,-1.9036144578313254,0.8951563458001226,10.27038626609442,-1.179644389944819,2.0,3.175824175824176,314.878892733564,-0.1931122894936192,0.05197832294155373,0.1956762426432028,1251.2820512820513,-1.0,79.12109139200773,3.2107929429551327,
2023-08-09 09:32:27.711000,9.63855421686747,0.746987951807229,-1.9036144578313254,0.9957081545064377,10.211526670754138,-1.2286940527283874,2.0,3.174358974358975,315.02423263327944,-0.3917021152613481,-0.052211409591515406,0.2729444671056466,1290.10989010989,-1.0,79.12109139200773,3.2104119602772667,
2023-08-09 09:32:27.719000,9.650602409638555,0.7590361445783133,-1.8674698795180724,0.9098712446351931,10.20907418761496,-1.1943592887798895,2.0,3.174358974358975,315.02423263327944,-0.2541809917836955,-0.3397237923197944,0.11945690810558822,1325.2747252747251,-1.0,79.12109139200773,3.210031303451652,
2023-08-09 09:32:27.726000,9.63855421686747,0.7590361445783133,-1.8554216867469882,0.9000613120784794,10.277743715511955,-1.1747394236664623,2.0,3.174358974358975,315.02423263327944,0.19136413961890317,-0.030301264495076495,0.012936309072898016,1356.7765567765566,-1.0,79.12109139200773,3.2096509929326844,
2023-08-09 09:32:27.734000,9.650602409638555,0.746987951807229,-1.9036144578313254,0.9049662783568363,10.277743715511955,-1.213979153893317,2.0,3.174358974358975,315.02423263327944,-0.407085834158848,-0.3612843074412908,0.441815745003205,1383.150183150183,-1.0,79.12109139200773,3.2092710487235463,
2023-08-09 09:32:27.742000,9.650602409638555,0.746987951807229,-1.8674698795180724,0.8706315144083384,10.24095646842428,-1.179644389944819,2.0,3.174358974358975,315.02423263327944,-0.053959559466231426,-0.09509935318454654,0.2098945282908922,1403.6630036630036,-1.0,79.12109139200773,3.208891490377321,
2023-08-09 09:32:27.749000,9.686746987951807,0.7590361445783133,-1.8554216867469882,0.9343960760269773,10.294911097486205,-1.2483139178418148,2.0,3.172893772893773,315.1697067651812,-0.3594196142415939,-0.19730784919293798,0.4364547520540761,1416.117216117216,-1.0,79.12109139200773,3.208512337000162,
2023-08-09 09:32:27.757000,9.650602409638555,0.746987951807229,-1.8915662650602412,0.9049662783568363,10.253218884120171,-1.1747394236664623,2.0,3.172893772893773,315.1697067651812,0.009440009323466846,-0.42305226968125387,0.11246430860672459,1419.7802197802198,-1.0,79.12109139200773,3.2081336067643016,
2023-08-09 09:32:27.765000,9.650602409638555,0.746987951807229,-1.9036144578313254,0.8828939301042305,10.263028816676885,-1.1526670754138564,2.0,3.172893772893773,315.1697067651812,-0.0045451896742613,-0.20371773206689614,-0.01095507254821989,1413.9194139194137,-1.0,79.12109139200773,3.2077553173024405,
2023-08-09 09:32:27.772000,9.66265060240964,0.7590361445783133,-1.8795180722891567,0.9025137952176578,10.324340895156345,-1.1894543225015328,2.0,3.172893772893773,315.1697067651812,0.13192704387856202,0.1048889924829559,-0.07027562496358021,1401.4652014652013,-1.0,79.12109139200773,3.20737748610493,
2023-08-09 09:32:27.780000,9.66265060240964,0.7590361445783133,-1.8795180722891567,0.944206008583691,10.30226854690374,-1.179644389944819,2.0,3.172893772893773,315.1697067651812,0.1466115028261752,-0.07726822446244384,0.021443971796515564,1383.150183150183,-1.0,79.12109139200773,3.2070001304991367,
2023-08-09 09:32:27.788000,9.66265060240964,0.746987951807229,-1.8795180722891567,0.9393010423053341,10.211526670754138,-1.2237890864500305,2.0,3.172893772893773,315.1697067651812,0.3279529164967073,0.13763766680263342,-0.17446535749664935,1358.974358974359,-1.0,79.12109139200773,3.2066232675993875,
2023-08-09 09:32:27.795000,9.66265060240964,0.7590361445783133,-1.8795180722891567,0.9393010423053341,10.24095646842428,-1.1820968730839976,2.0,3.171428571428572,315.3153153153153,0.37270555328943533,-0.07726822446244384,-0.04859856651710253,1331.8681318681317,-1.0,79.12109139200773,3.2062469138392347,
2023-08-09 09:32:27.803000,9.626506024096386,0.746987951807229,-1.8795180722891567,0.944206008583691,10.294911097486205,-1.1575720416922133,2.0,3.171428571428572,315.3153153153153,-0.05722277256570179,-0.0017481498747160184,-0.36990851348989,1301.8315018315018,-1.0,79.12109139200773,3.2058710845069127,
2023-08-09 09:32:27.811000,9.63855421686747,0.7590361445783133,-1.9036144578313254,0.9172286940527283,10.204169221336603,-1.1894543225015328,2.0,3.171428571428572,315.3153153153153,0.5406444845871452,0.07621933453761458,-0.22795874366295654,1271.062271062271,-1.0,79.12109139200773,3.205495794162652,
2023-08-09 09:32:27.818000,9.63855421686747,0.746987951807229,-1.9156626506024097,0.9491109748620478,10.231146535867566,-1.2458614347026364,2.0,3.171428571428572,315.3153153153153,0.10896800885729212,-0.18367228017015408,-0.10349047258318282,1244.6886446886447,-1.0,79.12109139200773,3.205121057059243,
2023-08-09 09:32:27.826000,9.650602409638555,0.7590361445783133,-1.9036144578313254,1.0104230533415082,10.218884120171673,-1.184549356223176,2.0,3.168498168498169,315.60693641618496,0.24590641571004052,-0.36396480391585523,-0.2545306217586389,1219.047619047619,-1.0,79.12109139200773,3.2047468866871025,
2023-08-09 09:32:27.834000,9.66265060240964,0.7590361445783133,-1.9156626506024097,0.9172286940527283,10.282648681790311,-1.213979153893317,2.0,3.168498168498169,315.60693641618496,-0.07621933453761458,-0.19171376959384567,-0.2517335819590932,1197.069597069597,-1.0,79.12109139200773,3.204373295287778,
2023-08-09 09:32:27.841000,9.63855421686747,0.746987951807229,-1.9156626506024097,0.9368485591661557,10.258123850398528,-1.25567136725935,2.0,3.16996336996337,315.46105847007163,0.35289318804265496,-0.03507954081929947,-0.11234776528174331,1177.2893772893772,-1.0,79.12109139200773,3.204000293686718,
2023-08-09 09:32:27.849000,9.674698795180724,0.7590361445783133,-1.927710843373494,1.0374003678724708,10.297363580625383,-1.2213366033108521,2.0,3.16996336996337,315.46105847007163,0.13728803682769092,-0.23157158673736986,0.10209195268341018,1160.4395604395604,-1.0,79.12109139200773,3.2036278922502985,
2023-08-09 09:32:27.856000,9.686746987951807,0.7590361445783133,-1.9397590361445785,0.9858982219497241,10.277743715511955,-1.2164316370324952,2.0,3.16996336996337,315.46105847007163,0.12097197133034257,0.2607074179826345,-0.03741040731892097,1148.7179487179487,-1.0,79.12109139200773,3.2032561010013705,
2023-08-09 09:32:27.864000,9.650602409638555,0.7590361445783133,-1.9036144578313254,0.9172286940527283,10.339055793991415,-1.2532188841201717,2.0,3.168498168498169,315.60693641618496,-0.3535924479925417,-0.08845638366062497,0.3291183497465183,1136.2637362637363,-1.0,79.12109139200773,3.2028849292126247,
2023-08-09 09:32:27.872000,9.63855421686747,0.783132530120482,-1.9156626506024097,0.9343960760269773,10.250766400980993,-1.2041692213366033,2.0,3.168498168498169,315.60693641618496,-0.28914398927801416,0.17143523104714195,0.2649029776819533,1125.2747252747251,-1.0,79.12109139200773,3.2025143854262366,
2023-08-09 09:32:27.879000,9.66265060240964,0.7590361445783133,-1.9156626506024097,0.9540159411404046,10.265481299816063,-1.1943592887798895,2.0,3.168498168498169,315.60693641618496,0.2013868655672742,0.08064798088689504,0.32212575024765466,1118.6813186813185,-1.0,79.12109139200773,3.2021444773722396,
2023-08-09 09:32:27.887000,9.674698795180724,0.7590361445783133,-1.927710843373494,0.9466584917228693,10.20907418761496,-1.226241569589209,2.0,3.168498168498169,315.60693641618496,-0.014101742322708983,0.3104714177495489,0.3489307149932987,1112.8205128205127,-1.0,79.12109139200773,3.201775211993868,
2023-08-09 09:32:27.895000,9.626506024096386,0.7710843373493976,-1.9036144578313254,0.9221336603310851,10.304721030042918,-1.260576333537707,2.0,3.168498168498169,315.60693641618496,-0.16828856127265243,0.17015325447234927,-0.20255229881708517,1106.227106227106,-1.0,79.12109139200773,3.201406595510159,
2023-08-09 09:32:27.902000,9.674698795180724,0.7710843373493976,-1.927710843373494,0.9613733905579399,10.321888412017167,-1.1943592887798895,2.0,3.167032967032967,315.7529493407356,0.014101742322708983,0.38529223238738997,-0.04801584989219748,1101.8315018315018,-1.0,79.12109139200773,3.201038633939072,
2023-08-09 09:32:27.910000,9.66265060240964,0.746987951807229,-1.8795180722891567,0.956468424279583,10.24095646842428,-1.2237890864500305,2.0,3.167032967032967,315.7529493407356,-0.1707359710972552,0.36804382029019317,0.0282034846454171,1099.6336996336995,-1.0,79.12109139200773,3.2006713326056158,
2023-08-09 09:32:27.918000,9.66265060240964,0.7590361445783133,-1.8433734939759037,0.9172286940527283,10.319435928877988,-1.1747394236664623,2.0,3.165567765567766,315.89909743115015,0.05815511916555022,0.012470135772973802,0.0282034846454171,1098.9010989010987,-1.0,79.12109139200773,3.200304696110101,
2023-08-09 09:32:27.925000,9.63855421686747,0.7710843373493976,-1.8795180722891567,0.9343960760269773,10.277743715511955,-1.2164316370324952,2.0,3.167032967032967,315.7529493407356,0.0564069692908342,0.012586679097954637,0.028786201270322147,1099.6336996336995,-1.0,79.12109139200773,3.1999387282981706,
2023-08-09 09:32:27.933000,9.63855421686747,0.7590361445783133,-1.8795180722891567,0.9589209074187615,10.260576333537706,-1.120784794604537,2.0,3.165567765567766,315.89909743115015,0.036944234018996325,-0.21630441116485077,-0.21397354466522928,1104.029304029304,-1.0,79.12109139200773,3.199573432266812,
2023-08-09 09:32:27.941000,9.626506024096386,0.7349397590361446,-1.8554216867469882,0.9393010423053341,10.258123850398528,-1.1894543225015328,2.0,3.165567765567766,315.89909743115015,0.0658469786142993,0.16467571819823956,0.17026979779733098,1113.5531135531135,-1.0,79.12109139200773,3.199208810475712,
2023-08-09 09:32:27.948000,9.66265060240964,0.7710843373493976,-1.8795180722891567,0.9417535254445125,10.253218884120171,-1.2188841201716738,2.0,3.165567765567766,315.89909743115015,0.0018646931996968547,0.13064506730376935,0.017831128722102258,1124.5421245421244,-1.0,79.12109139200773,3.198844864297509,
2023-08-09 09:32:27.956000,9.66265060240964,0.7590361445783133,-1.8915662650602412,0.86817903126916,10.243408951563458,-1.1771919068056407,2.0,3.165567765567766,315.89909743115015,-0.014334828972670657,0.1276149408542624,-0.18180758697045635,1139.194139194139,-1.0,79.12109139200773,3.198481595009792,
2023-08-09 09:32:27.964000,9.674698795180724,0.7349397590361446,-1.8795180722891567,0.8706315144083384,10.272838749233598,-1.1624770079705702,2.0,3.165567765567766,315.89909743115015,0.04498572344268966,-0.3012644950760437,0.20161995221723675,1156.7765567765566,-1.0,79.12109139200773,3.1981190038050933,
2023-08-09 09:32:27.971000,9.66265060240964,0.7710843373493976,-1.8915662650602412,0.8951563458001226,10.282648681790311,-1.179644389944819,2.0,3.165567765567766,315.89909743115015,0.10477244915797505,0.006060252899015646,0.18646931996969893,1175.8241758241757,-1.0,79.12109139200773,3.197757091380839,
2023-08-09 09:32:27.979000,9.66265060240964,0.7349397590361446,-1.8674698795180724,0.9343960760269773,10.248313917841815,-1.1600245248313916,2.0,3.162637362637363,316.19179986101454,-0.12120505798030425,-0.20919526834100588,0.12400209777984952,1191.2087912087911,-1.0,79.12109139200773,3.1973958580225004,
2023-08-09 09:32:27.987000,9.63855421686747,0.7590361445783133,-1.8674698795180724,0.8877988963825874,10.245861434702636,-1.226241569589209,2.0,3.1641025641025644,316.04538087520257,-0.1199230814055133,-0.1471942194510811,0.030417807820056895,1204.3956043956043,-1.0,79.12109139200773,3.1970353036177657,
2023-08-09 09:32:27.994000,9.63855421686747,0.746987951807229,-1.8915662650602412,0.9025137952176578,10.27038626609442,-1.150214592274678,2.0,3.1641025641025644,316.04538087520257,-0.2713128605559115,-0.1636268282734103,0.3644309772157799,1217.5824175824175,-1.0,79.12109139200773,3.1966754274969054,
2023-08-09 09:32:28.002000,9.650602409638555,0.7590361445783133,-1.8915662650602412,0.9393010423053341,10.272838749233598,-1.150214592274678,2.0,3.1641025641025644,316.04538087520257,0.342287745469378,-0.3777169162636217,0.09777984965911098,1229.3040293040292,-1.0,79.12109139200773,3.1963162285853275,
2023-08-09 09:32:28.010000,9.66265060240964,0.7590361445783133,-1.8915662650602412,0.927038626609442,10.292458614347026,-1.2041692213366033,2.0,3.1641025641025644,316.04538087520257,0.43086067245498555,-0.37655148301380986,-0.056640055940795866,1238.8278388278388,-1.0,79.12109139200773,3.195957705978526,
2023-08-09 09:32:28.017000,9.674698795180724,0.746987951807229,-1.9036144578313254,0.9343960760269773,10.324340895156345,-1.2581238503985284,2.0,3.1641025641025644,316.04538087520257,0.366412213740458,-0.12773148417924324,-0.36384826059087483,1245.4212454212454,-1.0,79.12109139200773,3.195599858498958,
2023-08-09 09:32:28.025000,9.686746987951807,0.7349397590361446,-1.9156626506024097,0.9613733905579399,10.282648681790311,-1.2458614347026364,2.0,3.162637362637363,316.19179986101454,0.2878620127032232,-0.28063632655439574,-0.04277140026804986,1249.8168498168498,-1.0,79.12109139200773,3.1952426848146107,
2023-08-09 09:32:28.033000,9.66265060240964,0.746987951807229,-1.9036144578313254,0.9098712446351931,10.309625996321275,-1.2164316370324952,2.0,3.162637362637363,316.19179986101454,0.4718839228483181,-0.06654623856418607,-0.27364372705553297,1252.014652014652,-1.0,79.12109139200773,3.194886183452841,
2023-08-09 09:32:28.040000,9.650602409638555,0.7590361445783133,-1.9156626506024097,0.9172286940527283,10.243408951563458,-1.2115266707541386,2.0,3.162637362637363,316.19179986101454,0.02622224812073854,-0.2041839053668195,-0.22725948371307023,1253.4798534798533,-1.0,79.12109139200773,3.1945303523209296,
2023-08-09 09:32:28.048000,9.650602409638555,0.746987951807229,-1.9156626506024097,0.9417535254445125,10.282648681790311,-1.1600245248313916,2.0,3.162637362637363,316.19179986101454,0.1188741914806823,0.05617388264087252,-0.25697803158324123,1254.9450549450548,-1.0,79.12109139200773,3.1941751897011774,
2023-08-09 09:32:28.056000,9.626506024096386,0.746987951807229,-1.927710843373494,0.956468424279583,10.236051502145923,-1.3341508277130594,2.0,3.162637362637363,316.19179986101454,0.3158324106986778,0.17598042072140324,-0.49822271429403875,1253.4798534798533,-1.0,79.12109139200773,3.193820694261966,
2023-08-09 09:32:28.063000,9.626506024096386,0.7590361445783133,-1.9397590361445785,0.9343960760269773,10.263028816676885,-1.2826486817903127,2.0,3.162637362637363,316.19179986101454,0.036944234018996325,0.32713711322183975,-0.25045160538430183,1250.5494505494505,-1.0,79.12109139200773,3.193466864646823,
2023-08-09 09:32:28.071000,9.650602409638555,0.7590361445783133,-1.9156626506024097,0.8608215818516247,10.236051502145923,-1.1894543225015328,2.0,3.1611721611721615,316.33835457705675,-0.10162577938348553,-0.1339082804032397,0.026222248120738974,1247.6190476190475,-1.0,79.12109139200773,3.193113699554754,
2023-08-09 09:32:28.079000,9.66265060240964,0.7951807228915663,-1.9036144578313254,0.9908031882280809,10.218884120171673,-1.2115266707541386,2.0,3.1611721611721615,316.33835457705675,-0.1786609171959677,0.41477769360759886,0.02563953149583349,1243.956043956044,-1.0,79.12109139200773,3.192761197784494,
2023-08-09 09:32:28.086000,9.63855421686747,0.783132530120482,-1.8915662650602412,0.9343960760269773,10.250766400980993,-1.2213366033108521,2.0,3.1611721611721615,316.33835457705675,-0.4363382087290953,0.1960258726181453,0.00850766272361755,1243.956043956044,-1.0,79.12109139200773,3.192409358172981,
2023-08-09 09:32:28.094000,9.66265060240964,0.7590361445783133,-1.9156626506024097,0.9613733905579399,10.267933782955241,-1.1698344573881054,2.0,3.1611721611721615,316.33835457705675,-0.36058504749140574,0.21001107161587346,0.14614532952625142,1245.4212454212454,-1.0,79.12109139200773,3.192058179636215,
2023-08-09 09:32:28.102000,9.66265060240964,0.7951807228915663,-1.9036144578313254,0.973635806253832,10.250766400980993,-1.1992642550582464,2.0,3.15970695970696,316.48504521214926,-0.14637841617621353,0.040557077093409194,0.25348173183380923,1246.8864468864467,-1.0,79.12109139200773,3.191707661242788,
2023-08-09 09:32:28.109000,9.650602409638555,0.783132530120482,-1.8674698795180724,0.9662783568362967,10.231146535867566,-1.20907418761496,2.0,3.15970695970696,316.48504521214926,-0.10174232270846637,0.20826292174115743,0.34473515529398036,1249.084249084249,-1.0,79.12109139200773,3.1913578022506535,
2023-08-09 09:32:28.117000,9.674698795180724,0.7710843373493976,-1.8554216867469882,0.8755364806866952,10.28510116492949,-1.20907418761496,2.0,3.15970695970696,316.48504521214926,-0.42503350620593155,0.1475438494260236,0.81557018821747,1248.3516483516482,-1.0,79.12109139200773,3.1910086020375084,
2023-08-09 09:32:28.125000,9.674698795180724,0.7590361445783133,-1.8674698795180724,0.9074187614960146,10.253218884120171,-1.155119558553035,2.0,3.15970695970696,316.48504521214926,-0.13157741390361952,0.08600897383602393,0.4427480916030534,1246.8864468864467,-1.0,79.12109139200773,3.1906600601329154,
2023-08-09 09:32:28.132000,9.66265060240964,0.746987951807229,-1.8795180722891567,0.9319435928877988,10.309625996321275,-1.1820968730839976,2.0,3.156776556776557,316.77883499651887,-0.4208379465066145,0.2836664530039044,0.16397645824835366,1246.8864468864467,-1.0,79.12109139200773,3.190312176282571,
2023-08-09 09:32:28.140000,9.674698795180724,0.746987951807229,-1.8674698795180724,0.8853464132434089,10.248313917841815,-1.1477621091354997,2.0,3.156776556776557,316.77883499651887,0.13169395722860036,0.26944816735621463,0.02552298817085265,1254.212454212454,-1.0,79.12109139200773,3.189964950440527,
2023-08-09 09:32:28.148000,9.66265060240964,0.746987951807229,-1.8433734939759037,0.9221336603310851,10.307173513182097,-1.2237890864500305,2.0,3.158241758241759,316.6318719554627,0.055707709340947445,0.207330575141309,0.07039216828856147,1274.7252747252746,-1.0,79.12109139200773,3.1896183820919846,
2023-08-09 09:32:28.155000,9.66265060240964,0.7349397590361446,-1.8795180722891567,0.9196811771919068,10.321888412017167,-1.1477621091354997,2.0,3.158241758241759,316.6318719554627,0.2690985373812721,0.3147835207738485,-0.26420371773206697,1314.2857142857142,-1.0,79.12109139200773,3.1892724707986795,
2023-08-09 09:32:28.163000,9.63855421686747,0.7349397590361446,-1.8674698795180724,0.8902513795217657,10.282648681790311,-1.1305947271612506,2.0,3.158241758241759,316.6318719554627,0.20488316531670625,0.14369791970164908,-0.26070741798263497,1378.021978021978,-1.0,79.12109139200773,3.1889272168101908,
2023-08-09 09:32:28.171000,9.650602409638555,0.7349397590361446,-1.9036144578313254,0.9294911097486205,10.248313917841815,-1.1943592887798895,2.0,3.158241758241759,316.6318719554627,0.3572052910669546,-0.06992599498863726,-0.4414661150282616,1467.3992673992673,-1.0,79.12109139200773,3.18858262065479,
2023-08-09 09:32:28.178000,9.626506024096386,0.7349397590361446,-1.8795180722891567,0.8730839975475169,10.236051502145923,-1.1747394236664623,2.0,3.158241758241759,316.6318719554627,0.15348755900005842,-0.2704970572810439,-0.6214090087990212,1582.4175824175823,-1.0,79.12109139200773,3.1882386836436503,
2023-08-09 09:32:28.186000,9.614457831325302,0.746987951807229,-1.8795180722891567,0.9147762109135499,10.233599019006745,-1.196811771919068,2.0,3.158241758241759,316.6318719554627,0.565468212808112,-0.2096614416409292,-0.6471650836198355,1724.5421245421244,-1.0,79.12109139200773,3.18789540784788,
2023-08-09 09:32:28.194000,9.626506024096386,0.746987951807229,-1.8915662650602412,0.9025137952176578,10.260576333537706,-1.2213366033108521,2.0,3.156776556776557,316.77883499651887,0.5779383485810858,-0.28797855602820405,-0.855661092010955,1887.9120879120878,-1.0,79.12109139200773,3.187552795652705,
2023-08-09 09:32:28.201000,9.626506024096386,0.746987951807229,-1.9036144578313254,0.9098712446351931,10.253218884120171,-1.2703862660944205,2.0,3.156776556776557,316.77883499651887,0.5726938989569378,-0.2868131227783922,-0.8493677524619777,2063.7362637362635,-1.0,79.12109139200773,3.187210849309591,
2023-08-09 09:32:28.209000,9.614457831325302,0.7590361445783133,-1.927710843373494,0.9343960760269773,10.204169221336603,-1.2458614347026364,2.0,3.156776556776557,316.77883499651887,0.446594021327428,-0.4975234543441524,-0.9189441174756715,2241.7582417582416,-1.0,79.12109139200773,3.186869570907143,
2023-08-09 09:32:28.217000,9.626506024096386,0.7710843373493976,-1.9518072289156627,0.9123237277743715,10.243408951563458,-1.2875536480686696,2.0,3.156776556776557,316.77883499651887,-0.01678223879727343,-0.6306159314725246,-0.5144222364664063,2408.058608058608,-1.0,79.12109139200773,3.1865289628651006,
2023-08-09 09:32:28.224000,9.614457831325302,0.783132530120482,-1.927710843373494,0.9196811771919068,10.211526670754138,-1.2188841201716738,2.0,3.156776556776557,316.77883499651887,0.2771400268049654,-0.4730493560981299,-0.44706019462735264,2550.915750915751,773.651123046875,77.55433710701747,3.1861890284266705,
2023-08-09 09:32:28.232000,9.626506024096386,0.7590361445783133,-1.9397590361445785,0.9147762109135499,10.213979153893316,-1.2458614347026364,2.0,3.156776556776557,316.77883499651887,0.09090379348522774,-0.25627877163335405,0.07738476778742512,2661.5384615384614,-1.0,77.55433710701747,3.1858497716244294,
2023-08-09 09:32:28.239000,9.650602409638555,0.7710843373493976,-1.963855421686747,0.9711833231146535,10.30226854690374,-1.2752912323727774,2.0,3.155311355311356,316.9259345251915,0.10687022900763359,-0.31524969407377185,0.13891964337742566,2732.6007326007325,-1.0,77.55433710701747,3.185511196824142,
2023-08-09 09:32:28.247000,9.650602409638555,0.7951807228915663,-1.927710843373494,0.9172286940527283,10.28510116492949,-1.213979153893317,2.0,3.156776556776557,316.77883499651887,-0.19777402249286133,0.0397412738185416,0.16840510459763414,2761.172161172161,-1.0,77.55433710701747,3.185173308267335,
2023-08-09 09:32:28.255000,9.674698795180724,0.783132530120482,-1.9156626506024097,0.927038626609442,10.297363580625383,-1.2360515021459226,2.0,3.155311355311356,316.9259345251915,-0.3630324573160068,0.0075753161237682555,0.30511042480041956,2748.7179487179487,-1.0,77.55433710701747,3.184836110983975,
2023-08-09 09:32:28.262000,9.674698795180724,0.783132530120482,-1.927710843373494,0.9417535254445125,10.314530962599632,-1.1992642550582464,2.0,3.155311355311356,316.9259345251915,0.22178194743896051,-0.24940271545947254,0.4847036885962357,2694.5054945054944,-1.0,77.55433710701747,3.184499611248674,
2023-08-09 09:32:28.270000,9.686746987951807,0.7710843373493976,-1.927710843373494,1.0177805027590434,10.334150827713058,-1.2115266707541386,2.0,3.155311355311356,316.9259345251915,-0.5582425266592863,0.09055416351028524,0.4181574500320492,2606.5934065934066,-1.0,77.55433710701747,3.1841638150700238,
2023-08-09 09:32:28.278000,9.674698795180724,0.7951807228915663,-1.9036144578313254,0.956468424279583,10.294911097486205,-1.2017167381974247,2.0,3.155311355311356,316.9259345251915,-0.541343744537032,0.19812365246780558,0.3377425557951167,2494.5054945054944,-1.0,77.55433710701747,3.183828728716298,
2023-08-09 09:32:28.285000,9.674698795180724,0.7590361445783133,-1.9036144578313254,0.9834457388105456,10.290006131207848,-1.179644389944819,2.0,3.1523809523809527,317.2205438066465,-0.5067303770176559,0.21455626129013475,0.27574150690519195,2361.172161172161,-1.0,77.55433710701747,3.183494359170448,
2023-08-09 09:32:28.293000,9.674698795180724,0.7710843373493976,-1.9156626506024097,0.9491109748620478,10.27038626609442,-1.20907418761496,2.0,3.1538461538461537,317.0731707317073,-0.5027679039683005,-0.012586679097954637,0.09206922673503871,2215.3846153846152,-1.0,77.55433710701747,3.1831607136012012,
2023-08-09 09:32:28.301000,9.686746987951807,0.7590361445783133,-1.9036144578313254,0.9491109748620478,10.307173513182097,-1.155119558553035,2.0,3.1538461538461537,317.0731707317073,-0.38039741273818617,0.26560223763184004,-0.22725948371307023,2063.7362637362635,-1.0,77.55433710701747,3.1828277996093592,
2023-08-09 09:32:28.308000,9.674698795180724,0.7710843373493976,-1.8795180722891567,0.9393010423053341,10.309625996321275,-1.1575720416922133,2.0,3.1538461538461537,317.0731707317073,-0.11875764815570147,0.5419264611619362,0.06747858516403492,1913.5531135531135,-1.0,77.55433710701747,3.1824956252598318,
2023-08-09 09:32:28.316000,9.686746987951807,0.7590361445783133,-1.8915662650602412,0.9638258736971183,10.324340895156345,-1.1453096259963211,2.0,3.1538461538461537,317.0731707317073,-0.07633587786259542,0.47934269564710724,-0.1281976574791679,1767.7655677655675,-1.0,77.55433710701747,3.1821641986560483,
2023-08-09 09:32:28.324000,9.650602409638555,0.7590361445783133,-1.8554216867469882,0.8853464132434089,10.204169221336603,-1.1870018393623543,2.0,3.1523809523809527,317.2205438066465,-0.07889983101217903,0.5733931589068227,-0.032165957694772915,1632.9670329670328,-1.0,77.55433710701747,3.1818335279704475,
2023-08-09 09:32:28.331000,9.626506024096386,0.7590361445783133,-1.8554216867469882,0.9393010423053341,10.346413243408952,-1.1992642550582464,2.0,3.1523809523809527,317.2205438066465,0.2089621816910442,0.403589534409416,-0.2114095915156461,1512.8205128205127,-1.0,77.55433710701747,3.1815036209809198,
2023-08-09 09:32:28.339000,9.63855421686747,0.746987951807229,-1.8795180722891567,0.9196811771919068,10.275291232372776,-1.2017167381974247,2.0,3.1523809523809527,317.2205438066465,0.02191014509643891,0.28110249985432084,-0.49740691101917117,1410.2564102564102,-1.0,77.55433710701747,3.181174485026632,
2023-08-09 09:32:28.347000,9.626506024096386,0.746987951807229,-1.8674698795180724,0.9589209074187615,10.250766400980993,-1.20907418761496,2.0,3.1523809523809527,317.2205438066465,-0.07214031816327662,0.22026688421420615,0.05897092244041737,1326.7399267399267,-1.0,77.55433710701747,3.1808461274876536,
2023-08-09 09:32:28.354000,9.63855421686747,0.7710843373493976,-1.8674698795180724,0.9319435928877988,10.236051502145923,-1.1771919068056407,2.0,3.1523809523809527,317.2205438066465,0.15640114212458453,0.2657187809568209,-0.12213740458015267,1257.8754578754579,-1.0,77.55433710701747,3.180518556263605,
2023-08-09 09:32:28.362000,9.650602409638555,0.7710843373493976,-1.8915662650602412,0.9711833231146535,10.245861434702636,-1.179644389944819,2.0,3.1523809523809527,317.2205438066465,0.04848202319212169,0.037876580618844746,0.2161878678398695,1201.4652014652013,-1.0,77.55433710701747,3.1801917797265933,
2023-08-09 09:32:28.370000,9.63855421686747,0.7590361445783133,-1.8795180722891567,0.973635806253832,10.24095646842428,-1.2237890864500305,2.0,3.1509157509157513,317.3680539409439,0.4626770001748146,-0.23588368976166948,-0.09195268341005788,1153.113553113553,-1.0,77.55433710701747,3.179865806252782,
2023-08-09 09:32:28.377000,9.614457831325302,0.7590361445783133,-1.8674698795180724,0.9098712446351931,10.228694052728386,-1.1477621091354997,2.0,3.1509157509157513,317.3680539409439,-0.32084377367286243,-0.215605151214964,0.05955363906532242,1114.2857142857142,-1.0,77.55433710701747,3.1795406442113485,
2023-08-09 09:32:28.385000,9.66265060240964,0.7710843373493976,-1.8795180722891567,0.9172286940527283,10.24095646842428,-1.20907418761496,2.0,3.1523809523809527,317.2205438066465,-0.16712312802284232,-0.36338208729095106,0.25569605500844944,1079.8534798534797,-1.0,77.55433710701747,3.1792163018486246,
2023-08-09 09:32:28.393000,9.63855421686747,0.7590361445783133,-1.8795180722891567,0.956468424279583,10.28510116492949,-1.1526670754138564,2.0,3.1509157509157513,317.3680539409439,0.01841384534700861,-0.3424042887943588,0.2821513897791505,1050.5494505494505,-1.0,77.55433710701747,3.1788927877684645,
2023-08-09 09:32:28.400000,9.66265060240964,0.7590361445783133,-1.9036144578313254,0.9147762109135499,10.260576333537706,-1.2041692213366033,2.0,3.1509157509157513,317.3680539409439,-0.056756599265776704,-0.4898315948954016,0.33634403589534406,1023.4432234432234,-1.0,77.55433710701747,3.1785701109914353,
2023-08-09 09:32:28.408000,9.674698795180724,0.7710843373493976,-1.9397590361445785,0.956468424279583,10.297363580625383,-1.1992642550582464,2.0,3.1509157509157513,317.3680539409439,0.10022725948371375,-0.6089388730260473,0.37491987646407554,998.5347985347985,-1.0,77.55433710701747,3.178248280384465,
2023-08-09 09:32:28.416000,9.698795180722891,0.7710843373493976,-1.9397590361445785,0.973635806253832,10.25567136725935,-1.2286940527283874,2.0,3.1494505494505494,317.5157013258897,0.04067362041839003,-0.25732766155818504,0.1250509877046792,978.7545787545787,-1.0,77.55433710701747,3.1779273051102246,
2023-08-09 09:32:28.423000,9.686746987951807,0.783132530120482,-1.9156626506024097,0.973635806253832,10.277743715511955,-1.2826486817903127,2.0,3.1494505494505494,317.5157013258897,-0.17143523104714195,-0.1828564768952865,0.35277664471767367,964.1025641025641,-1.0,77.55433710701747,3.1776071936352865,
2023-08-09 09:32:28.431000,9.686746987951807,0.7710843373493976,-1.927710843373494,0.944206008583691,10.297363580625383,-1.20907418761496,2.0,3.1494505494505494,317.5157013258897,-0.06025289901520874,0.25651185828331746,0.3020802983509117,958.9743589743589,-1.0,77.55433710701747,3.177287953720617,
2023-08-09 09:32:28.439000,9.698795180722891,0.7710843373493976,-1.9156626506024097,0.9049662783568363,10.280196198651133,-1.2532188841201717,2.0,3.1479853479853483,317.66348615313007,0.24742147893479485,0.2501019754093576,-0.007225686148825746,964.8351648351647,-1.0,77.55433710701747,3.1769695933249165,
2023-08-09 09:32:28.446000,9.674698795180724,0.7710843373493976,-1.927710843373494,0.8976088289393009,10.324340895156345,-1.2581238503985284,2.0,3.1479853479853483,317.66348615313007,-0.22749257036303192,0.3363440358953449,0.21898490763941478,979.4871794871794,-1.0,77.55433710701747,3.1766521201015085,
2023-08-09 09:32:28.454000,9.698795180722891,0.7590361445783133,-1.9156626506024097,0.956468424279583,10.326793378295523,-1.2385039852851012,2.0,3.1494505494505494,317.5157013258897,0.3100052444496238,0.5615057397587548,0.02004545189674249,999.2673992673992,-1.0,77.55433710701747,3.1763355412829988,
2023-08-09 09:32:28.462000,9.674698795180724,0.7590361445783133,-1.927710843373494,0.9343960760269773,10.292458614347026,-1.2213366033108521,2.0,3.1479853479853483,317.66348615313007,0.1553522521997553,0.35638948779208696,-0.5300390420138688,1025.6410256410256,-1.0,77.55433710701747,3.1760198641620083,
2023-08-09 09:32:28.469000,9.650602409638555,0.746987951807229,-1.9156626506024097,0.9760882893930104,10.297363580625383,-1.2507664009809931,2.0,3.1479853479853483,317.66348615313007,-0.015267175572519083,0.4919293747450619,-0.08507662723617508,1057.8754578754579,-1.0,77.55433710701747,3.1757050956927473,
2023-08-09 09:32:28.477000,9.626506024096386,0.7710843373493976,-1.8915662650602412,0.9074187614960146,10.280196198651133,-1.184549356223176,2.0,3.1479853479853483,317.66348615313007,-0.12318629450498193,0.41093176388322433,-0.35872035429170807,1096.7032967032967,-1.0,77.55433710701747,3.175391241988024,
2023-08-09 09:32:28.485000,9.626506024096386,0.746987951807229,-1.9036144578313254,0.9491109748620478,10.263028816676885,-1.1820968730839976,2.0,3.1479853479853483,317.66348615313007,-0.12516753102965963,0.40731892080881144,-0.35510751121729517,1140.6593406593406,-1.0,77.55433710701747,3.1750783092570014,
2023-08-09 09:32:28.492000,9.626506024096386,0.746987951807229,-1.8915662650602412,0.944206008583691,10.272838749233598,-1.1992642550582464,2.0,3.1479853479853483,317.66348615313007,-0.14101742322708463,0.15861546529922566,0.1388031000524444,1185.3479853479853,-1.0,77.55433710701747,3.174766303760158,
2023-08-09 09:32:28.500000,9.614457831325302,0.7710843373493976,-1.8674698795180724,0.8927038626609441,10.211526670754138,-1.1354996934396075,2.0,3.1479853479853483,317.66348615313007,-0.17329992424683882,0.10850183555736877,0.09067070683526607,1229.3040293040292,-1.0,77.55433710701747,3.1744552313436496,
2023-08-09 09:32:28.508000,9.650602409638555,0.7349397590361446,-1.8795180722891567,0.9491109748620478,10.191906805640711,-1.1649294911097485,2.0,3.1479853479853483,317.66348615313007,-0.3891381621117645,-0.06258376551483068,-0.04580152671755725,1273.9926739926739,-1.0,77.55433710701747,3.174145097466637,
2023-08-09 09:32:28.515000,9.66265060240964,0.746987951807229,-1.8674698795180724,0.927038626609442,10.339055793991415,-1.1894543225015328,2.0,3.1479853479853483,317.66348615313007,-0.2366994930365371,-3.496299749425094E-4,-0.02948546122020847,1313.5531135531135,-1.0,77.55433710701747,3.1738359072291655,
2023-08-09 09:32:28.523000,9.650602409638555,0.7349397590361446,-1.8915662650602412,0.8951563458001226,10.253218884120171,-1.1600245248313916,2.0,3.1479853479853483,317.66348615313007,-0.21863527766447097,-0.01794767204708353,0.17050288444729308,1346.5201465201465,-1.0,77.55433710701747,3.173527665858865,
2023-08-09 09:32:28.531000,9.650602409638555,0.7349397590361446,-1.8795180722891567,0.8828939301042305,10.233599019006745,-1.2066217044757817,2.0,3.1479853479853483,317.66348615313007,-0.05046325971679939,0.05897092244041781,0.2159547811899074,1372.161172161172,-1.0,77.55433710701747,3.17322037867376,
2023-08-09 09:32:28.538000,9.626506024096386,0.746987951807229,-1.8915662650602412,0.8927038626609441,10.218884120171673,-1.231146535867566,2.0,3.1465201465201464,317.8114086146682,-0.1420663131519139,-0.30580968475030673,0.12318629450498236,1390.4761904761904,-1.0,77.55433710701747,3.1729140506255202,
2023-08-09 09:32:28.546000,9.626506024096386,0.746987951807229,-1.8795180722891567,0.9098712446351931,10.282648681790311,-1.1673819742489269,2.0,3.1465201465201464,317.8114086146682,-0.07971563428704662,-0.0734222947380693,0.15418681894994474,1402.197802197802,-1.0,77.55433710701747,3.1726086858438967,
2023-08-09 09:32:28.554000,9.63855421686747,0.783132530120482,-1.8915662650602412,0.9319435928877988,10.290006131207848,-1.2017167381974247,2.0,3.1465201465201464,317.8114086146682,0.02925237457024723,0.01841384534700861,0.28809509935318445,1406.5934065934066,-1.0,77.55433710701747,3.1723042880610013,
2023-08-09 09:32:28.561000,9.674698795180724,0.783132530120482,-1.9036144578313254,0.9515634580012262,10.290006131207848,-1.184549356223176,2.0,3.1465201465201464,317.8114086146682,0.060952158965095496,0.06608006526426272,0.08764058038575825,1405.128205128205,-1.0,77.55433710701747,3.172000861036676,
2023-08-09 09:32:28.569000,9.674698795180724,0.7951807228915663,-1.9036144578313254,0.9540159411404046,10.336603310852237,-1.1698344573881054,2.0,3.1465201465201464,317.8114086146682,-0.12341938115494361,-0.13344210710331636,-0.11048307208204645,1397.8021978021977,-1.0,77.55433710701747,3.171698408564114,
2023-08-09 09:32:28.577000,9.66265060240964,0.7590361445783133,-1.8674698795180724,0.927038626609442,10.275291232372776,-1.2237890864500305,2.0,3.145054945054946,317.95946890286507,0.26222248120738884,-0.21105996154070272,0.20861255171610038,1384.6153846153845,-1.0,77.55433710701747,3.171396934443984,
2023-08-09 09:32:28.584000,9.66265060240964,0.7710843373493976,-1.8915662650602412,0.9319435928877988,10.33169834457388,-1.1109748620478233,2.0,3.145054945054946,317.95946890286507,-0.011770875823087047,-0.30161412505098795,-0.2521997552590174,1365.5677655677655,-1.0,77.55433710701747,3.171096441545971,
2023-08-09 09:32:28.592000,9.674698795180724,0.783132530120482,-1.8915662650602412,0.9221336603310851,10.245861434702636,-1.179644389944819,2.0,3.143589743589744,318.1076672104404,0.11048307208204645,0.06747858516403449,-0.11106578870695194,1342.1245421245421,-1.0,77.55433710701747,3.1707969317842224,
2023-08-09 09:32:28.600000,9.66265060240964,0.7710843373493976,-1.8915662650602412,0.9589209074187615,10.258123850398528,-1.1870018393623543,2.0,3.143589743589744,318.1076672104404,0.2961365887768782,-0.010955072548219456,-0.032515587669716295,1317.9487179487178,-1.0,77.55433710701747,3.1704984070413675,
2023-08-09 09:32:28.607000,9.650602409638555,0.746987951807229,-1.8795180722891567,0.9196811771919068,10.250766400980993,-1.20907418761496,2.0,3.145054945054946,317.95946890286507,0.26222248120738884,-0.1826233902453231,-0.031583241069867866,1290.8424908424909,-1.0,77.55433710701747,3.1702008685475667,
2023-08-09 09:32:28.615000,9.674698795180724,0.7590361445783133,-1.8795180722891567,0.9172286940527283,10.294911097486205,-1.2017167381974247,2.0,3.143589743589744,318.1076672104404,0.10756948895752033,-0.07820057106229227,-0.028553114620360042,1261.5384615384614,-1.0,77.55433710701747,3.16990431696041,
2023-08-09 09:32:28.622000,9.650602409638555,0.7590361445783133,-1.8915662650602412,0.9319435928877988,10.267933782955241,-1.2188841201716738,2.0,3.143589743589744,318.1076672104404,0.06316648213973486,-0.1741157275217064,-0.44134957170328076,1231.5018315018315,-1.0,77.55433710701747,3.1696087524793404,
2023-08-09 09:32:28.630000,9.650602409638555,0.746987951807229,-1.9156626506024097,0.956468424279583,10.243408951563458,-1.179644389944819,2.0,3.145054945054946,317.95946890286507,0.1695705378474451,-0.19101450964396066,0.24986888875939633,1202.9304029304028,-1.0,77.55433710701747,3.1693141743633446,
2023-08-09 09:32:28.638000,9.66265060240964,0.7349397590361446,-1.9156626506024097,0.9172286940527283,10.304721030042918,-1.2115266707541386,2.0,3.143589743589744,318.1076672104404,0.19672513256803206,-0.34298700541926475,0.050463259716799824,1178.021978021978,-1.0,77.55433710701747,3.1690205823823874,
2023-08-09 09:32:28.645000,9.63855421686747,0.7349397590361446,-1.9156626506024097,0.9785407725321887,10.25567136725935,-1.2237890864500305,2.0,3.143589743589744,318.1076672104404,0.12190431793019099,-0.048831653167064205,-0.05920400909037948,1158.2417582417581,-1.0,77.55433710701747,3.168727976373107,
2023-08-09 09:32:28.653000,9.63855421686747,0.746987951807229,-1.8915662650602412,0.9319435928877988,10.253218884120171,-1.2213366033108521,2.0,3.143589743589744,318.1076672104404,0.212108851465532,-0.1848377134199642,-0.21269156809043746,1142.1245421245421,-1.0,77.55433710701747,3.1684363552699972,
2023-08-09 09:32:28.661000,9.66265060240964,0.7590361445783133,-1.8915662650602412,0.8559166155732679,10.297363580625383,-1.2041692213366033,2.0,3.143589743589744,318.1076672104404,-0.15640114212458453,-0.04498572344268966,0.06246722218984897,1128.2051282051282,-1.0,77.55433710701747,3.168145717612474,
