Shimmer_F5D4_Timestamp_FormattedUnix_CAL,Shimmer_F5D4_Accel_LN_X_CAL,Shimmer_F5D4_Accel_LN_Y_CAL,Shimmer_F5D4_Accel_LN_Z_CAL,Shimmer_F5D4_Accel_WR_X_CAL,Shimmer_F5D4_Accel_WR_Y_CAL,Shimmer_F5D4_Accel_WR_Z_CAL,Shimmer_F5D4_GSR_Range_CAL,Shimmer_F5D4_GSR_Skin_Conductance_CAL,Shimmer_F5D4_GSR_Skin_Resistance_CAL,Shimmer_F5D4_Gyro_X_CAL,Shimmer_F5D4_Gyro_Y_CAL,Shimmer_F5D4_Gyro_Z_CAL,Shimmer_F5D4_PPG_A13_CAL,Shimmer_F5D4_PPG_IBI_CAL,Shimmer_F5D4_PPGtoHR_CAL,Shimmer_F5D4_GSR_Skin_Conductance_LPF_CAL,
yyyy/mm/dd hh:mm:ss.000,m/(s^2),m/(s^2),m/(s^2),m/(s^2),m/(s^2),m/(s^2),no_units,uS,kOhms,deg/s,deg/s,deg/s,mV,ms,BPM,uS,
2023-08-10 11:00:54.826000,-4.903614457831326,-3.1204819277108435,7.843373493975904,-3.0484365419987736,-4.92274678111588,8.539546290619251,2.0,1.753113553113553,570.4137066443794,0.08379465066138284,0.012120505798029556,-0.1364722335528229,1317.9487179487178,-1.0,62.16657180800607,1.7550788678597167,
2023-08-10 11:00:54.834000,-4.927710843373494,-3.132530120481928,7.843373493975904,-3.0582464745554874,-4.964438994481912,8.502759043531576,2.0,1.753113553113553,570.4137066443794,0.2666511275566693,-0.14824310937591037,-0.17504807412155526,1319.4139194139193,-1.0,62.16657180800607,1.7550830311235877,
2023-08-10 11:00:54.841000,-4.9156626506024095,-3.132530120481928,7.83132530120482,-3.063151440833844,-4.90557939914163,8.456161863887186,2.0,1.753113553113553,570.4137066443794,0.2041839053668195,-0.31909562379814643,0.07610279121263287,1321.6117216117216,-1.0,62.16657180800607,1.7550872942523286,
2023-08-10 11:00:54.849000,-4.9397590361445785,-3.144578313253012,7.807228915662651,-3.0410790925812385,-4.915389331698345,8.51256897608829,2.0,1.753113553113553,570.4137066443794,0.20383427539187698,-0.1503408892255689,0.01864693199696985,1323.076923076923,-1.0,62.16657180800607,1.7550916212205523,
2023-08-10 11:00:54.857000,-4.903614457831326,-3.132530120481928,7.819277108433735,-3.0533415082771302,-4.9448191293684856,8.480686695278969,2.0,1.7516483516483519,570.8908406524466,0.43016141250509876,-0.010955072548219456,0.34473515529398036,1320.8791208791208,-1.0,62.16657180800607,1.7550959757713096,
2023-08-10 11:00:54.864000,-4.951807228915663,-3.108433734939759,7.819277108433735,-2.9724095646842428,-4.947271612507664,8.456161863887186,2.0,1.7516483516483519,570.8908406524466,0.608472699726124,-0.11561097838121367,-0.02109434182157262,1316.4835164835165,-1.0,62.16657180800607,1.7551003210474774,
2023-08-10 11:00:54.872000,-4.9397590361445785,-3.096385542168675,7.783132530120482,-3.014101778050276,-4.9742489270386265,8.490496627835682,2.0,1.7516483516483519,570.8908406524466,0.1576831186993772,-0.6603344793426952,0.1680554746226912,1314.2857142857142,-1.0,62.16657180800607,1.7551046200323142,
2023-08-10 11:00:54.880000,-4.951807228915663,-3.072289156626506,7.783132530120482,-3.0484365419987736,-4.920294297976701,8.475781729000612,2.0,1.7516483516483519,570.8908406524466,0.5957694773031867,-0.5291066954140199,0.050463259716799824,1309.1575091575091,-1.0,62.16657180800607,1.7551088351432849,
2023-08-10 11:00:54.887000,-4.9397590361445785,-3.0843373493975905,7.783132530120482,-3.009196811771919,-4.930104230533415,8.4316370324954,2.0,1.7516483516483519,570.8908406524466,0.20663131519142225,-0.5670998193578455,-0.09708058970922423,1304.7619047619046,-1.0,62.16657180800607,1.7551129283847124,
2023-08-10 11:00:54.895000,-4.951807228915663,-3.096385542168675,7.83132530120482,-2.9871244635193133,-4.949724095646842,8.438994481912937,2.0,1.753113553113553,570.4137066443794,0.44566167472757956,-0.4351727754792852,-0.029951634520133115,1298.168498168498,-1.0,62.16657180800607,1.7551168619202628,
2023-08-10 11:00:54.903000,-4.951807228915663,-3.0843373493975905,7.83132530120482,-3.014101778050276,-4.881054567749846,8.465971796443899,2.0,1.753113553113553,570.4137066443794,0.3813297593380346,-0.8091603053435115,0.0226094050463261,1296.7032967032967,-1.0,62.16657180800607,1.7551205986445675,
2023-08-10 11:00:54.910000,-4.9397590361445785,-3.096385542168675,7.83132530120482,-3.0312691600245247,-4.986511342734518,8.480686695278969,2.0,1.753113553113553,570.4137066443794,0.13274284715342963,-1.2868713944408834,0.01142124584814367,1294.5054945054944,-1.0,62.16657180800607,1.7551241023333208,
2023-08-10 11:00:54.918000,-4.927710843373494,-3.108433734939759,7.843373493975904,-2.9478847332924585,-4.949724095646842,8.539546290619251,2.0,1.753113553113553,570.4137066443794,0.10244158265835313,-0.8962181691043646,0.18577006001981217,1294.5054945054944,-1.0,62.16657180800607,1.755127337267641,
2023-08-10 11:00:54.926000,-4.927710843373494,-3.1204819277108435,7.879518072289157,-3.0165542611894542,-4.98405885959534,8.519926425505824,2.0,1.753113553113553,570.4137066443794,0.03927510051861826,-1.0428296719305399,0.09812947963405436,1295.2380952380952,-1.0,62.16657180800607,1.7551302683154868,
2023-08-10 11:00:54.933000,-4.903614457831326,-3.1204819277108435,7.855421686746988,-2.9993868792152054,-4.932556713672593,8.502759043531576,2.0,1.753113553113553,570.4137066443794,0.5884272478293802,-0.8548452887360878,0.10302429928325817,1293.040293040293,-1.0,62.16657180800607,1.7551328614699333,
2023-08-10 11:00:54.941000,-4.903614457831326,-3.1204819277108435,7.843373493975904,-3.014101778050276,-4.866339668914776,8.52728387492336,2.0,1.753113553113553,570.4137066443794,0.3095390711497005,-0.45498514072606555,0.26012470135772947,1292.3076923076922,-1.0,62.16657180800607,1.7551350834032267,
2023-08-10 11:00:54.949000,-4.879518072289157,-3.096385542168675,7.819277108433735,-3.0410790925812385,-4.878602084610668,8.47823421213979,2.0,1.7516483516483519,570.8908406524466,0.29112522580269184,0.03076743779499984,0.369325796864985,1290.8424908424909,-1.0,62.16657180800607,1.7551369011234108,
2023-08-10 11:00:54.956000,-4.867469879518072,-3.108433734939759,7.83132530120482,-2.9895769466584916,-4.866339668914776,8.505211526670754,2.0,1.753113553113553,570.4137066443794,0.1480100227259487,0.6011304702523157,0.6437853271953847,1291.5750915750914,-1.0,62.16657180800607,1.7551382820498014,
2023-08-10 11:00:54.964000,-4.867469879518072,-3.096385542168675,7.843373493975904,-3.026364193746168,-4.915389331698345,8.522378908645003,2.0,1.7516483516483519,570.8908406524466,0.11467863178136525,0.9824602295903502,0.7811899073480564,1290.10989010989,957.489013671875,62.66390438247012,1.7551391945071115,
2023-08-10 11:00:54.972000,-4.879518072289157,-3.1204819277108435,7.807228915662651,-3.0312691600245247,-4.878602084610668,8.49540159411404,2.0,1.7516483516483519,570.8908406524466,0.11094924538197154,0.9647456441932284,0.7793252141483595,1286.4468864468863,-1.0,62.66390438247012,1.7551396082867758,
2023-08-10 11:00:54.979000,-4.927710843373494,-3.132530120481928,7.819277108433735,-3.004291845493562,-4.912936848559166,8.46351931330472,2.0,1.7516483516483519,570.8908406524466,-0.10360701590816322,1.3245148884097666,0.8233785909912008,1287.179487179487,-1.0,62.66390438247012,1.7551394936605829,
2023-08-10 11:00:54.987000,-4.9397590361445785,-3.132530120481928,7.795180722891566,-3.0606989576946657,-4.930104230533415,8.480686695278969,2.0,1.7516483516483519,570.8908406524466,0.17271720762193288,1.210069343278363,1.1869937649321132,1290.10989010989,-1.0,62.66390438247012,1.7551388219361854,
2023-08-10 11:00:54.995000,-4.963855421686747,-3.144578313253012,7.807228915662651,-3.0386266094420598,-4.912936848559166,8.441446965052116,2.0,1.7516483516483519,570.8908406524466,-0.33308082279587453,1.372647281626944,0.9075228716275274,1298.168498168498,-1.0,62.66390438247012,1.7551375659396227,
2023-08-10 11:00:55.002000,-4.963855421686747,-3.144578313253012,7.783132530120482,-3.063151440833844,-4.998773758430411,8.429184549356222,2.0,1.753113553113553,570.4137066443794,0.1729502942718963,0.7913291766214088,0.769885204824894,1310.6227106227104,-1.0,62.66390438247012,1.755135699580775,
2023-08-10 11:00:55.010000,-4.927710843373494,-3.132530120481928,7.795180722891566,-3.0606989576946657,-4.947271612507664,8.436541998773757,2.0,1.7516483516483519,570.8908406524466,0.21665404113979328,0.18600314666977427,0.6765340015150635,1325.2747252747251,-1.0,62.66390438247012,1.7551331984001168,
2023-08-10 11:00:55.018000,-4.927710843373494,-3.132530120481928,7.807228915662651,-3.055793991416309,-4.903126916002452,8.436541998773757,2.0,1.7516483516483519,570.8908406524466,0.6562554629683589,-0.13600606025289824,0.5104597634170505,1350.9157509157508,-1.0,62.66390438247012,1.7551300391981817,
2023-08-10 11:00:55.025000,-4.9156626506024095,-3.108433734939759,7.807228915662651,-2.9871244635193133,-4.893316983445739,8.461066830165542,2.0,1.7516483516483519,570.8908406524466,0.4056873142590763,-0.6661616455917491,0.7112639123594195,1385.3479853479853,-1.0,62.66390438247012,1.7551261995567753,
2023-08-10 11:00:55.033000,-4.9156626506024095,-3.108433734939759,7.807228915662651,-2.9675045984058857,-4.98405885959534,8.458614347026364,2.0,1.7516483516483519,570.8908406524466,0.5985665171027338,-0.9328127731484185,0.6331798846221082,1424.1758241758241,-1.0,62.66390438247012,1.7551216583388896,
2023-08-10 11:00:55.041000,-4.903614457831326,-3.108433734939759,7.819277108433735,-2.9969343960760266,-4.858982219497241,8.539546290619251,2.0,1.7516483516483519,570.8908406524466,0.8218635277664469,-1.0902628051978323,0.7511217295029429,1463.003663003663,-1.0,62.66390438247012,1.7551163957263727,
2023-08-10 11:00:55.048000,-4.891566265060241,-3.096385542168675,7.783132530120482,-2.982219497240956,-4.888412017167382,8.47823421213979,2.0,1.7516483516483519,570.8908406524466,0.6018297302022024,-0.9105529980770353,0.5186177961657242,1506.227106227106,-1.0,62.66390438247012,1.7551103932532115,
2023-08-10 11:00:55.056000,-4.927710843373494,-3.0843373493975905,7.819277108433735,-2.94543225015328,-4.898221949724095,8.475781729000612,2.0,1.7516483516483519,570.8908406524466,0.3228250101975401,-0.9150981877512966,0.5916904609288501,1555.311355311355,-1.0,62.66390438247012,1.7551036338344215,
2023-08-10 11:00:55.064000,-4.927710843373494,-3.0843373493975905,7.867469879518072,-2.8841201716738194,-4.881054567749846,8.507664009809933,2.0,1.7516483516483519,570.8908406524466,0.48854961832061067,-0.8569430685857463,0.6801468445894764,1601.4652014652013,-1.0,62.66390438247012,1.7550961017905327,
2023-08-10 11:00:55.071000,-4.927710843373494,-3.072289156626506,7.83132530120482,-2.9993868792152054,-4.920294297976701,8.502759043531576,2.0,1.7516483516483519,570.8908406524466,0.4390187052036597,-0.49729036769419077,0.784103490472583,1649.084249084249,-1.0,62.66390438247012,1.75508778286773,
2023-08-10 11:00:55.079000,-4.951807228915663,-3.072289156626506,7.879518072289157,-2.99202942979767,-4.961986511342734,8.517473942366646,2.0,1.7516483516483519,570.8908406524466,0.4208379465066145,-0.4251500495309124,0.8095099353184544,1699.6336996336995,-1.0,62.66390438247012,1.7550786642536707,
2023-08-10 11:00:55.087000,-4.9156626506024095,-3.0843373493975905,7.855421686746988,-3.011649294911097,-4.9448191293684856,8.490496627835682,2.0,1.7516483516483519,570.8908406524466,0.12913000407901673,-0.43086067245498555,1.1093759104947267,1749.4505494505493,-1.0,62.66390438247012,1.7550687345890534,
2023-08-10 11:00:55.094000,-4.927710843373494,-3.096385542168675,7.83132530120482,-3.026364193746168,-4.92274678111588,8.421827099938687,2.0,1.7501831501831502,571.3687735454165,0.17598042072140324,-0.4645416933745115,0.7662723617504812,1791.2087912087911,-1.0,62.66390438247012,1.7550579839750247,
2023-08-10 11:00:55.102000,-4.9156626506024095,-3.096385542168675,7.795180722891566,-2.974862047823421,-4.920294297976701,8.500306560392398,2.0,1.7516483516483519,570.8908406524466,-0.023075578346250746,-0.31723093059844953,0.7321251675310296,1828.5714285714284,-1.0,62.66390438247012,1.7550464034838444,
2023-08-10 11:00:55.109000,-4.903614457831326,-3.072289156626506,7.819277108433735,-2.9944819129368483,-4.927651747394236,8.473329245861434,2.0,1.7516483516483519,570.8908406524466,0.2534817318338088,-0.32515587669716206,0.7423809801293628,1862.2710622710622,-1.0,62.66390438247012,1.7550339855787418,
2023-08-10 11:00:55.117000,-4.903614457831326,-3.1204819277108435,7.819277108433735,-3.009196811771919,-4.952176578786021,8.470876762722256,2.0,1.7516483516483519,570.8908406524466,0.0397412738185416,-0.3363440358953449,0.28180175980420713,1887.9120879120878,-1.0,62.66390438247012,1.7550207246339646,
2023-08-10 11:00:55.125000,-4.903614457831326,-3.108433734939759,7.855421686746988,-3.026364193746168,-4.932556713672593,8.52728387492336,2.0,1.7516483516483519,570.8908406524466,0.4843540586212919,-0.2847153429287337,0.5089447001922961,1905.4945054945053,-1.0,62.66390438247012,1.7550066164681564,
2023-08-10 11:00:55.132000,-4.9156626506024095,-3.096385542168675,7.83132530120482,-2.9650521152667073,-4.888412017167382,8.429184549356222,2.0,1.7516483516483519,570.8908406524466,0.2518501252840736,-0.08286230406153441,0.3972961948604391,1915.7509157509155,-1.0,62.66390438247012,1.754991658332102,
2023-08-10 11:00:55.140000,-4.951807228915663,-3.096385542168675,7.807228915662651,-2.9675045984058857,-4.895769466584917,8.564071122011036,2.0,1.7516483516483519,570.8908406524466,0.480741215546879,-0.09673095973428172,0.5168696462910091,1917.9487179487178,-1.0,62.66390438247012,1.7549758488931384,
2023-08-10 11:00:55.148000,-4.963855421686747,-3.0843373493975905,7.843373493975904,-3.009196811771919,-4.957081545064377,8.473329245861434,2.0,1.7501831501831502,571.3687735454165,0.33855835906998427,0.2685158207563662,0.39251791853621615,1916.4835164835163,-1.0,62.66390438247012,1.7549591882164022,
2023-08-10 11:00:55.155000,-4.951807228915663,-3.108433734939759,7.819277108433735,-3.014101778050276,-4.961986511342734,8.465971796443899,2.0,1.7516483516483519,570.8908406524466,0.16689004137288066,0.0813472408367818,0.36070159081638614,1910.6227106227104,-1.0,62.66390438247012,1.7549416772504418,
2023-08-10 11:00:55.163000,-4.963855421686747,-3.0843373493975905,7.819277108433735,-2.9675045984058857,-4.986511342734518,8.44880441446965,2.0,1.7501831501831502,571.3687735454165,0.3626828273410643,0.3218926635976917,0.3118699376493211,1901.098901098901,-1.0,62.66390438247012,1.754923318223202,
2023-08-10 11:00:55.171000,-4.951807228915663,-3.0843373493975905,7.795180722891566,-2.9699570815450644,-4.954629061925199,8.475781729000612,2.0,1.7501831501831502,571.3687735454165,0.2997494318512911,0.1364722335528233,0.44857525785210695,1890.8424908424906,-1.0,62.66390438247012,1.7549041151046432,
2023-08-10 11:00:55.178000,-4.963855421686747,-3.0843373493975905,7.795180722891566,-3.0410790925812385,-4.930104230533415,8.458614347026364,2.0,1.7501831501831502,571.3687735454165,0.17679622399627085,0.09008799021036015,0.01654915214731132,1875.4578754578754,-1.0,62.66390438247012,1.754884072979377,
2023-08-10 11:00:55.186000,-4.951807228915663,-3.108433734939759,7.807228915662651,-2.9969343960760266,-4.954629061925199,8.426732066217044,2.0,1.7501831501831502,571.3687735454165,0.6638307790921272,-0.381213216013052,0.12493444437969752,1858.6080586080584,-1.0,62.66390438247012,1.7548631979783924,
2023-08-10 11:00:55.194000,-4.963855421686747,-3.0843373493975905,7.819277108433735,-2.9969343960760266,-4.952176578786021,8.453709380748007,2.0,1.7516483516483519,570.8908406524466,0.41337917370782534,-0.31373463084901754,0.003496299749432037,1841.7582417582416,-1.0,62.66390438247012,1.7548414972424042,
2023-08-10 11:00:55.201000,-4.927710843373494,-3.0843373493975905,7.819277108433735,-3.0288166768853464,-4.976701410177805,8.49540159411404,2.0,1.7516483516483519,570.8908406524466,0.6056756599265769,-0.6869063574383779,-0.16490880484820253,1826.3736263736262,-1.0,62.66390438247012,1.754818978917052,
2023-08-10 11:00:55.209000,-4.927710843373494,-3.0843373493975905,7.819277108433735,-2.9969343960760266,-4.917841814837523,8.468424279583077,2.0,1.7501831501831502,571.3687735454165,0.26222248120738884,-0.7346891206806129,0.033447934269565154,1810.989010989011,-1.0,62.66390438247012,1.7547956527079398,
2023-08-10 11:00:55.217000,-4.9397590361445785,-3.072289156626506,7.843373493975904,-2.979767014101778,-5.008583690987124,8.443899448191294,2.0,1.7501831501831502,571.3687735454165,0.4251500495309124,-0.6324806246722214,0.2153720645650019,1797.8021978021977,-1.0,62.66390438247012,1.7547715288542234,
2023-08-10 11:00:55.224000,-4.951807228915663,-3.0843373493975905,7.843373493975904,-2.9699570815450644,-4.964438994481912,8.470876762722256,2.0,1.7501831501831502,571.3687735454165,0.5278247188392289,-0.7437795000291355,-0.0017481498747164523,1783.8827838827838,-1.0,62.66390438247012,1.7547466175910136,
2023-08-10 11:00:55.232000,-4.963855421686747,-3.0843373493975905,7.807228915662651,-3.009196811771919,-4.971796443899448,8.453709380748007,2.0,1.7501831501831502,571.3687735454165,0.34007342229473864,-0.5950702173533018,0.07365538138803097,1769.230769230769,-1.0,62.66390438247012,1.7547209305066658,
2023-08-10 11:00:55.240000,-4.9397590361445785,-3.0843373493975905,7.807228915662651,-3.0459840588595952,-4.915389331698345,8.488044144696504,2.0,1.7501831501831502,571.3687735454165,0.5039333372181106,-0.5398286813122777,-0.035196084144280736,1752.3809523809523,-1.0,62.66390438247012,1.7546944799655781,
2023-08-10 11:00:55.247000,-4.927710843373494,-3.0843373493975905,7.83132530120482,-2.9699570815450644,-4.920294297976701,8.490496627835682,2.0,1.7501831501831502,571.3687735454165,0.4979896276440775,-0.5319037352135652,-0.03589534409416706,1736.9963369963368,-1.0,62.66390438247012,1.7546672790921483,
2023-08-10 11:00:55.255000,-4.903614457831326,-3.096385542168675,7.83132530120482,-2.9773145309625995,-4.920294297976701,8.488044144696504,2.0,1.7501831501831502,571.3687735454165,0.3224753802225976,-0.5064972903676942,-0.053609929491288046,1725.2747252747251,-1.0,62.66390438247012,1.7546393416844592,
2023-08-10 11:00:55.263000,-4.9156626506024095,-3.096385542168675,7.867469879518072,-3.0190067443286326,-4.952176578786021,8.475781729000612,2.0,1.7501831501831502,571.3687735454165,0.242759745935551,-0.863003321484762,0.35778800769186003,1716.4835164835163,-1.0,62.66390438247012,1.7546106817391605,
2023-08-10 11:00:55.270000,-4.927710843373494,-3.0843373493975905,7.855421686746988,-3.043531575720417,-4.912936848559166,8.475781729000612,2.0,1.7501831501831502,571.3687735454165,0.10255812598333396,-0.24136122603577922,0.46244391352485253,1706.9597069597069,-1.0,62.66390438247012,1.7545813143474538,
2023-08-10 11:00:55.278000,-4.927710843373494,-3.0843373493975905,7.867469879518072,-2.962599632127529,-4.917841814837523,8.55916615573268,2.0,1.7501831501831502,571.3687735454165,0.0666627818891669,-0.08123069751179923,0.8708117242584928,1698.9010989010987,-1.0,62.66390438247012,1.754551255573687,
2023-08-10 11:00:55.286000,-4.927710843373494,-3.096385542168675,7.855421686746988,-3.011649294911097,-4.893316983445739,8.446351931330472,2.0,1.7501831501831502,571.3687735454165,0.09358428995979219,0.07750131111240552,0.8163859914923371,1689.3772893772893,-1.0,62.66390438247012,1.7545205219134425,
2023-08-10 11:00:55.293000,-4.9397590361445785,-3.0843373493975905,7.867469879518072,-2.9724095646842428,-4.925199264255058,8.49785407725322,2.0,1.7501831501831502,571.3687735454165,-0.231455043412389,-0.0896218169104368,0.5038167938931297,1680.5860805860805,-1.0,62.66390438247012,1.754489130244535,
2023-08-10 11:00:55.301000,-4.9156626506024095,-3.1204819277108435,7.891566265060241,-3.014101778050276,-4.947271612507664,8.529736358062538,2.0,1.7501831501831502,571.3687735454165,-0.11013344210710395,0.23297010663714163,0.42480041955596987,1673.260073260073,-1.0,62.66390438247012,1.7544570977784695,
2023-08-10 11:00:55.309000,-4.9156626506024095,-3.132530120481928,7.843373493975904,-3.102391171060699,-4.959534028203556,8.49294911097486,2.0,1.7501831501831502,571.3687735454165,-0.12213740458015267,0.017831128722102692,0.603577880076918,1668.8644688644688,-1.0,62.66390438247012,1.7544244420125892,
2023-08-10 11:00:55.316000,-4.927710843373494,-3.132530120481928,7.855421686746988,-2.9871244635193133,-4.986511342734518,8.519926425505824,2.0,1.7487179487179487,571.8475073313783,-0.16700658469786148,-0.5458889342112933,0.2629217411572756,1661.5384615384614,-1.0,62.66390438247012,1.7543911802252758,
2023-08-10 11:00:55.324000,-4.891566265060241,-3.132530120481928,7.855421686746988,-3.0533415082771302,-4.910484365419988,8.534641324340894,2.0,1.7487179487179487,571.8475073313783,-0.09067070683526607,-0.2963696754268399,0.1555853388497178,1656.4102564102564,-1.0,62.66390438247012,1.75435732946259,
2023-08-10 11:00:55.332000,-4.879518072289157,-3.108433734939759,7.83132530120482,-2.9650521152667073,-4.900674432863274,8.55916615573268,2.0,1.7501831501831502,571.3687735454165,0.060602528990151255,-0.0023308664996219363,-0.24567332906007755,1652.0146520146518,-1.0,62.66390438247012,1.7543229068427326,
2023-08-10 11:00:55.339000,-4.879518072289157,-3.1204819277108435,7.83132530120482,-2.979767014101778,-4.908031882280809,8.502759043531576,2.0,1.7501831501831502,571.3687735454165,-0.08041489423693338,0.0768020511625205,0.02948546122020847,1648.3516483516482,-1.0,62.66390438247012,1.754287929966038,
2023-08-10 11:00:55.347000,-4.879518072289157,-3.096385542168675,7.843373493975904,-2.9650521152667073,-4.836909871244635,8.488044144696504,2.0,1.7501831501831502,571.3687735454165,-0.09661441640930088,-0.10500553580793673,-0.03321484761960261,1644.6886446886447,-1.0,62.66390438247012,1.7542524169403861,
2023-08-10 11:00:55.355000,-4.867469879518072,-3.0843373493975905,7.843373493975904,-2.950337216431637,-4.851624770079705,8.47823421213979,2.0,1.7501831501831502,571.3687735454165,-0.23355282326204754,0.8596235650603108,0.36128430744129164,1641.0256410256409,-1.0,62.66390438247012,1.7542163858833886,
2023-08-10 11:00:55.362000,-4.879518072289157,-3.0843373493975905,7.807228915662651,-2.916002452483139,-4.908031882280809,8.458614347026364,2.0,1.7487179487179487,571.8475073313783,-0.10943418215721719,0.8698793776586452,0.2672338441815748,1641.0256410256409,-1.0,62.66390438247012,1.7541798548845267,
2023-08-10 11:00:55.370000,-4.903614457831326,-3.0843373493975905,7.83132530120482,-2.9380748007357447,-4.92274678111588,8.414469650521152,2.0,1.7501831501831502,571.3687735454165,-0.1707359710972552,1.444437969815278,0.12458481440475457,1642.4908424908424,-1.0,62.66390438247012,1.7541428414768343,
2023-08-10 11:00:55.378000,-4.927710843373494,-3.0843373493975905,7.795180722891566,-2.9773145309625995,-4.949724095646842,8.485591661557326,2.0,1.7501831501831502,571.3687735454165,-0.1557018821746978,1.4680962647864348,0.19660858924305122,1641.0256410256409,-1.0,62.66390438247012,1.7541053625662109,
2023-08-10 11:00:55.385000,-4.9397590361445785,-3.072289156626506,7.783132530120482,-2.99202942979767,-4.912936848559166,8.412017167381974,2.0,1.7487179487179487,571.8475073313783,-0.3406561389196428,0.9395722859973191,0.25348173183380923,1637.3626373626373,-1.0,62.66390438247012,1.754067435450216,
2023-08-10 11:00:55.393000,-4.9397590361445785,-3.0843373493975905,7.807228915662651,-2.9871244635193133,-4.9963212752912325,8.480686695278969,2.0,1.7501831501831502,571.3687735454165,-0.18611968999475512,0.4602295903502119,0.20313501544199022,1632.9670329670328,-1.0,62.66390438247012,1.7540290772597718,
2023-08-10 11:00:55.401000,-4.963855421686747,-3.108433734939759,7.83132530120482,-3.050889025137952,-4.979153893316983,8.49294911097486,2.0,1.7487179487179487,571.8475073313783,0.07260649146320171,0.6701241186411044,-0.016782238797272996,1627.8388278388277,-1.0,62.66390438247012,1.7539903048614354,
2023-08-10 11:00:55.408000,-4.963855421686747,-3.108433734939759,7.867469879518072,-2.984671980380135,-4.988963825873697,8.49294911097486,2.0,1.7487179487179487,571.8475073313783,0.17737894062117676,0.08239613076161106,0.4072023774838293,1622.7106227106226,-1.0,62.66390438247012,1.7539511348664343,
2023-08-10 11:00:55.416000,-4.975903614457832,-3.096385542168675,7.843373493975904,-2.99202942979767,-4.932556713672593,8.483139178418147,2.0,1.7487179487179487,571.8475073313783,0.0374104073189214,-0.23809801293630886,0.0657304352893189,1615.3846153846152,-1.0,62.66390438247012,1.7539115830799943,
2023-08-10 11:00:55.424000,-4.951807228915663,-3.096385542168675,7.855421686746988,-2.952789699570815,-4.9816063764561616,8.461066830165542,2.0,1.7487179487179487,571.8475073313783,0.2178194743896051,-0.40650311753394386,0.07715168113746301,1609.5238095238094,-1.0,62.66390438247012,1.7538716649359123,
2023-08-10 11:00:55.431000,-4.951807228915663,-3.096385542168675,7.843373493975904,-2.952789699570815,-5.013488657265481,8.47823421213979,2.0,1.7487179487179487,571.8475073313783,0.39683002156051533,-0.48202319212167166,0.2869296661033735,1604.3956043956043,-1.0,62.66390438247012,1.7538313954755138,
2023-08-10 11:00:55.439000,-4.927710843373494,-3.0843373493975905,7.855421686746988,-3.033721643163703,-4.90557939914163,8.51011649294911,2.0,1.7487179487179487,571.8475073313783,0.6210593788240786,-0.14532952625138426,0.43307499562962576,1597.069597069597,-1.0,62.66390438247012,1.7537907893289242,
2023-08-10 11:00:55.447000,-4.9397590361445785,-3.0843373493975905,7.83132530120482,-2.952789699570815,-4.954629061925199,8.515021459227468,2.0,1.7487179487179487,571.8475073313783,0.5231629858399868,0.28308373637899853,0.24637258900996473,1585.3479853479853,-1.0,62.66390438247012,1.7537498606986677,
2023-08-10 11:00:55.454000,-4.9397590361445785,-3.072289156626506,7.83132530120482,-2.9356223175965663,-4.939914163090129,8.461066830165542,2.0,1.7487179487179487,571.8475073313783,0.5333022551133386,0.2018530388671993,0.2424101159606085,1571.4285714285713,-1.0,62.66390438247012,1.7537086233456123,
2023-08-10 11:00:55.462000,-4.951807228915663,-3.072289156626506,7.795180722891566,-2.940527283874923,-4.9448191293684856,8.4316370324954,2.0,1.7487179487179487,571.8475073313783,0.2988170852514427,0.4736320727230341,0.3610512207913291,1560.4395604395604,-1.0,62.66390438247012,1.753667090577259,
2023-08-10 11:00:55.470000,-4.951807228915663,-3.0843373493975905,7.807228915662651,-3.026364193746168,-4.976701410177805,8.461066830165542,2.0,1.7472527472527475,572.3270440251572,-0.1343744537031648,0.5169861896159903,0.3563894877920865,1550.9157509157508,-1.0,62.66390438247012,1.753625275238371,
2023-08-10 11:00:55.477000,-4.975903614457832,-3.0843373493975905,7.795180722891566,-2.920907418761496,-4.9668914776210915,8.441446965052116,2.0,1.7472527472527475,572.3270440251572,-0.19555969931822195,0.4231688130062347,0.4127964570829203,1545.7875457875457,-1.0,62.66390438247012,1.753583189669142,
2023-08-10 11:00:55.485000,-4.963855421686747,-3.0843373493975905,7.795180722891566,-3.014101778050276,-4.976701410177805,8.470876762722256,2.0,1.7487179487179487,571.8475073313783,-0.05943709574034115,0.03752695064390224,0.16246139502359974,1541.3919413919414,-1.0,62.66390438247012,1.7535408451031405,
2023-08-10 11:00:55.492000,-4.963855421686747,-3.072289156626506,7.807228915662651,-3.009196811771919,-4.964438994481912,8.394849785407725,2.0,1.7487179487179487,571.8475073313783,-0.22784220033797614,0.12703222422935648,0.17376609754676345,1537.7289377289376,-1.0,62.66390438247012,1.7534982521886897,
2023-08-10 11:00:55.500000,-4.9397590361445785,-3.0843373493975905,7.795180722891566,-2.99202942979767,-4.90557939914163,8.385039852851012,2.0,1.7487179487179487,571.8475073313783,-0.36396480391585523,-0.382262105937883,0.016782238797272996,1530.4029304029302,-1.0,62.66390438247012,1.7534554215466658,
2023-08-10 11:00:55.508000,-4.927710843373494,-3.096385542168675,7.783132530120482,-3.0018393623543838,-4.925199264255058,8.502759043531576,2.0,1.7487179487179487,571.8475073313783,-0.34671639181865843,-0.41337917370782534,0.1938115494435055,1523.0769230769229,-1.0,62.66390438247012,1.7534123633127212,
2023-08-10 11:00:55.515000,-4.9397590361445785,-3.0843373493975905,7.819277108433735,-2.962599632127529,-4.986511342734518,8.46351931330472,2.0,1.7487179487179487,571.8475073313783,-0.16013052852397824,-0.43260882232970155,0.04964745644193223,1513.5531135531135,-1.0,62.66390438247012,1.7533690871395877,
2023-08-10 11:00:55.523000,-4.951807228915663,-3.0843373493975905,7.83132530120482,-3.043531575720417,-4.998773758430411,8.475781729000612,2.0,1.7487179487179487,571.8475073313783,-0.06782821513897873,-0.5387797913874484,0.34788182506846943,1502.5641025641025,-1.0,62.66390438247012,1.7533256022015211,
2023-08-10 11:00:55.531000,-4.951807228915663,-3.0843373493975905,7.83132530120482,-2.9699570815450644,-4.9742489270386265,8.483139178418147,2.0,1.7487179487179487,571.8475073313783,-0.06841093176388291,-0.5324864518384711,0.34298700541926475,1491.5750915750914,-1.0,62.66390438247012,1.753281917200864,
2023-08-10 11:00:55.538000,-4.9156626506024095,-3.108433734939759,7.843373493975904,-2.9993868792152054,-4.9742489270386265,8.507664009809933,2.0,1.7487179487179487,571.8475073313783,0.08437736728628875,-0.7078841559349685,0.23122195676242605,1478.3882783882782,-1.0,62.66390438247012,1.753238040376641,
2023-08-10 11:00:55.546000,-4.927710843373494,-3.0843373493975905,7.855421686746988,-3.0312691600245247,-4.947271612507664,8.490496627835682,2.0,1.7487179487179487,571.8475073313783,-0.22271429403880894,-0.7853854670473757,0.07528698793776573,1463.003663003663,-1.0,62.66390438247012,1.7531939795151399,
2023-08-10 11:00:55.554000,-4.9397590361445785,-3.0843373493975905,7.867469879518072,-2.952789699570815,-4.93746167995095,8.49785407725322,2.0,1.7487179487179487,571.8475073313783,-0.174931530796574,-0.5735097022318053,0.11700949828098632,1446.153846153846,-1.0,62.66390438247012,1.753149741962399,
2023-08-10 11:00:55.561000,-4.927710843373494,-3.0843373493975905,7.855421686746988,-2.9699570815450644,-4.878602084610668,8.465971796443899,2.0,1.7487179487179487,571.8475073313783,0.08600897383602393,-0.6092885030009898,-0.11677641163102377,1429.3040293040292,-1.0,62.66390438247012,1.7531053346385257,
2023-08-10 11:00:55.569000,-4.9156626506024095,-3.096385542168675,7.807228915662651,-2.9993868792152054,-4.93746167995095,8.549356223175964,2.0,1.7472527472527475,572.3270440251572,0.02330866499621242,-0.661499912592507,-0.04405337684284123,1416.117216117216,-1.0,62.66390438247012,1.753060764053765,
2023-08-10 11:00:55.577000,-4.903614457831326,-3.096385542168675,7.819277108433735,-2.9944819129368483,-4.971796443899448,8.485591661557326,2.0,1.7487179487179487,571.8475073313783,0.20465007866674456,-0.548336344035896,0.165491521473108,1405.8608058608058,-1.0,62.66390438247012,1.7530160358335467,
2023-08-10 11:00:55.584000,-4.9156626506024095,-3.0843373493975905,7.83132530120482,-2.9380748007357447,-4.863887185775598,8.47823421213979,2.0,1.7472527472527475,572.3270440251572,0.32352427014742685,-0.3482314550434128,-0.3438028086941319,1397.8021978021977,-1.0,62.66390438247012,1.7529711551582525,
2023-08-10 11:00:55.592000,-4.9156626506024095,-3.0843373493975905,7.855421686746988,-2.916002452483139,-4.893316983445739,8.556713672593501,2.0,1.7487179487179487,571.8475073313783,0.3674611036652873,-0.0564069692908342,-0.20872909504108123,1391.2087912087911,-1.0,62.66390438247012,1.7529261268157934,
2023-08-10 11:00:55.600000,-4.9156626506024095,-3.072289156626506,7.891566265060241,-2.982219497240956,-4.834457388105457,8.490496627835682,2.0,1.7487179487179487,571.8475073313783,0.27166249053085395,-0.07167414486335329,-0.08892255696055006,1384.6153846153845,-1.0,62.66390438247012,1.7528809551857096,
2023-08-10 11:00:55.607000,-4.903614457831326,-3.0843373493975905,7.891566265060241,-3.009196811771919,-4.888412017167382,8.480686695278969,2.0,1.7472527472527475,572.3270440251572,0.054192646116193094,0.462443913524853,-0.47328244274809156,1378.7545787545787,-1.0,62.66390438247012,1.752835644786452,
2023-08-10 11:00:55.615000,-4.927710843373494,-3.0843373493975905,7.843373493975904,-2.9650521152667073,-4.878602084610668,8.434089515634579,2.0,1.7487179487179487,571.8475073313783,0.3080240079249461,0.7618437154011998,-0.35137812481790126,1375.091575091575,-1.0,62.66390438247012,1.752790198890322,
2023-08-10 11:00:55.623000,-4.927710843373494,-3.0843373493975905,7.83132530120482,-2.9601471489883506,-4.9448191293684856,8.441446965052116,2.0,1.7472527472527475,572.3270440251572,-0.07761785443738635,0.4207214031816319,-0.07680205116251984,1371.4285714285713,-1.0,62.66390438247012,1.7527446204935322,
2023-08-10 11:00:55.630000,-4.9397590361445785,-3.072289156626506,7.795180722891566,-2.9895769466584916,-4.942366646229307,8.438994481912937,2.0,1.7472527472527475,572.3270440251572,-0.18949944641920632,0.772798787949421,-0.003379756424450549,1370.6959706959706,-1.0,62.66390438247012,1.752698912794613,
2023-08-10 11:00:55.638000,-4.975903614457832,-3.0843373493975905,7.819277108433735,-2.974862047823421,-4.900674432863274,8.490496627835682,2.0,1.7472527472527475,572.3270440251572,0.053143756191363835,0.23565060311170608,0.13099469727871316,1369.230769230769,-1.0,62.66390438247012,1.752653078198087,
2023-08-10 11:00:55.646000,-4.975903614457832,-3.1204819277108435,7.83132530120482,-3.021459227467811,-4.9816063764561616,8.49540159411404,2.0,1.7472527472527475,572.3270440251572,0.022376318396363993,0.3460171318687717,-0.3014975817260065,1369.9633699633698,-1.0,62.66390438247012,1.752607118793992,
2023-08-10 11:00:55.653000,-4.951807228915663,-3.1204819277108435,7.807228915662651,-2.952789699570815,-4.92274678111588,8.51011649294911,2.0,1.7472527472527475,572.3270440251572,0.2022026688421418,-0.049647456441931796,0.17143523104714173,1372.161172161172,-1.0,62.66390438247012,1.7525610363796416,
2023-08-10 11:00:55.661000,-4.963855421686747,-3.096385542168675,7.819277108433735,-2.94543225015328,-4.917841814837523,8.485591661557326,2.0,1.7487179487179487,571.8475073313783,0.2313385000874082,-0.27341064040557,-0.38144630266301477,1373.6263736263736,-1.0,62.66390438247012,1.7525148320235384,
2023-08-10 11:00:55.669000,-4.963855421686747,-3.108433734939759,7.807228915662651,-2.9675045984058857,-4.961986511342734,8.502759043531576,2.0,1.7472527472527475,572.3270440251572,-0.04626770001748233,-0.1466115028261752,-0.44239846162811003,1375.091575091575,-1.0,62.66390438247012,1.7524685066470393,
2023-08-10 11:00:55.676000,-4.927710843373494,-3.096385542168675,7.819277108433735,-3.0288166768853464,-4.939914163090129,8.515021459227468,2.0,1.7472527472527475,572.3270440251572,0.0734222947380693,-0.024823728220966765,-0.28891090262805186,1375.091575091575,-1.0,62.66390438247012,1.7524220615717505,
2023-08-10 11:00:55.684000,-4.951807228915663,-3.0843373493975905,7.843373493975904,-2.9871244635193133,-4.903126916002452,8.470876762722256,2.0,1.7472527472527475,572.3270440251572,0.28401608297884695,0.09964454285880783,-0.1545364489248879,1373.6263736263736,-1.0,62.66390438247012,1.7523754979455988,
2023-08-10 11:00:55.692000,-4.927710843373494,-3.1204819277108435,7.843373493975904,-2.9944819129368483,-4.92274678111588,8.537093807480073,2.0,1.7472527472527475,572.3270440251572,0.3854087757123708,-0.08507662723617551,0.16327719829846735,1369.9633699633698,-1.0,62.66390438247012,1.7523288162733066,
2023-08-10 11:00:55.699000,-4.903614457831326,-3.096385542168675,7.819277108433735,-2.952789699570815,-4.9668914776210915,8.473329245861434,2.0,1.7472527472527475,572.3270440251572,0.0597867257152854,-0.06969290833867559,-0.207796748441233,1364.8351648351647,-1.0,62.66390438247012,1.7522820165064834,
2023-08-10 11:00:55.707000,-4.927710843373494,-3.0843373493975905,7.819277108433735,-2.962599632127529,-4.912936848559166,8.485591661557326,2.0,1.7472527472527475,572.3270440251572,-0.1412505098770463,0.09824602295903433,0.15675077209952792,1356.7765567765566,-1.0,62.66390438247012,1.7522350990123459,
2023-08-10 11:00:55.715000,-4.951807228915663,-3.0843373493975905,7.855421686746988,-2.9478847332924585,-4.920294297976701,8.517473942366646,2.0,1.7472527472527475,572.3270440251572,-0.022376318396363993,-0.22481207388846747,-0.24648913233494535,1350.18315018315,-1.0,62.66390438247012,1.7521880640670027,
2023-08-10 11:00:55.722000,-4.951807228915663,-3.0843373493975905,7.855421686746988,-2.9969343960760266,-4.959534028203556,8.49785407725322,2.0,1.7472527472527475,572.3270440251572,-0.10115960608356218,-0.2835499096789236,0.34671639181865865,1344.3223443223442,-1.0,62.66390438247012,1.7521409114529185,
2023-08-10 11:00:55.730000,-4.9397590361445785,-3.072289156626506,7.855421686746988,-2.99202942979767,-4.903126916002452,8.524831391784181,2.0,1.7472527472527475,572.3270440251572,-0.1471942194510811,-0.21910145096439607,-0.1146786317813646,1339.9267399267399,-1.0,62.66390438247012,1.7520936409696666,
2023-08-10 11:00:55.738000,-4.9156626506024095,-3.096385542168675,7.843373493975904,-3.0165542611894542,-4.861434702636419,8.49540159411404,2.0,1.7472527472527475,572.3270440251572,-0.0090903793485226,0.5312044752636784,0.21886836431443374,1338.4615384615383,-1.0,62.66390438247012,1.7520462524520963,
2023-08-10 11:00:55.745000,-4.9156626506024095,-3.096385542168675,7.843373493975904,-2.950337216431637,-4.898221949724095,8.529736358062538,2.0,1.7472527472527475,572.3270440251572,-0.40731892080881144,0.05687314259075754,-0.12178777460520951,1336.9963369963368,-1.0,62.66390438247012,1.7519987462464282,
2023-08-10 11:00:55.753000,-4.9397590361445785,-3.108433734939759,7.819277108433735,-2.99202942979767,-4.888412017167382,8.470876762722256,2.0,1.7472527472527475,572.3270440251572,-0.2534817318338088,0.0597867257152854,-0.06304993881475446,1333.3333333333333,-1.0,62.66390438247012,1.751951122703357,
2023-08-10 11:00:55.761000,-4.9156626506024095,-3.1204819277108435,7.819277108433735,-2.962599632127529,-4.873697118332311,8.441446965052116,2.0,1.7472527472527475,572.3270440251572,-0.17831128722102518,0.04754967659227327,0.07120797156342885,1328.2051282051282,-1.0,62.66390438247012,1.7519033817751384,
2023-08-10 11:00:55.768000,-4.9397590361445785,-3.1204819277108435,7.807228915662651,-2.933169834457388,-4.947271612507664,8.399754751686082,2.0,1.7472527472527475,572.3270440251572,-0.08880601363556921,-0.011421245848144537,0.2781889167297943,1325.2747252747251,-1.0,62.66390438247012,1.751855523525738,
2023-08-10 11:00:55.776000,-4.927710843373494,-3.1204819277108435,7.83132530120482,-2.9773145309625995,-4.976701410177805,8.480686695278969,2.0,1.7457875457875458,572.8073856483425,0.12435172775479203,-0.026105704795757703,0.028553114620360042,1323.8095238095236,-1.0,62.66390438247012,1.7518075481482123,
2023-08-10 11:00:55.784000,-4.9397590361445785,-3.108433734939759,7.83132530120482,-2.982219497240956,-4.952176578786021,8.473329245861434,2.0,1.7457875457875458,572.8073856483425,0.1962589592681087,-0.5143056931414258,0.10115960608356175,1323.8095238095236,-1.0,62.66390438247012,1.7517594554892755,
2023-08-10 11:00:55.791000,-4.9397590361445785,-3.0843373493975905,7.83132530120482,-3.043531575720417,-4.998773758430411,8.480686695278969,2.0,1.7457875457875458,572.8073856483425,0.3286521764465941,-0.9378241361226031,-0.07202377483829622,1323.8095238095236,-1.0,62.66390438247012,1.7517112449941767,
2023-08-10 11:00:55.799000,-4.9397590361445785,-3.060240963855422,7.843373493975904,-2.8890251379521765,-4.986511342734518,8.51256897608829,2.0,1.7457875457875458,572.8073856483425,0.23250393333721828,-1.1607715168113755,-0.10640405570770937,1322.3443223443223,-1.0,62.66390438247012,1.7516629161758657,
2023-08-10 11:00:55.807000,-4.9156626506024095,-3.036144578313253,7.83132530120482,-2.923359901900674,-4.839362354383813,8.537093807480073,2.0,1.7457875457875458,572.8073856483425,0.22865800361284375,-1.1529631140376437,-0.10931763883223593,1320.8791208791208,-1.0,62.66390438247012,1.7516144686254405,
2023-08-10 11:00:55.814000,-4.891566265060241,-3.060240963855422,7.855421686746988,-2.89883507050889,-4.915389331698345,8.485591661557326,2.0,1.7457875457875458,572.8073856483425,0.3143173474739234,-0.9305984499737774,0.05524153604102323,1320.8791208791208,-1.0,62.66390438247012,1.751565902021739,
2023-08-10 11:00:55.822000,-4.891566265060241,-3.072289156626506,7.843373493975904,-2.9061925199264254,-4.895769466584917,8.49785407725322,2.0,1.7457875457875458,572.8073856483425,0.12773148417924324,-0.6012470135772965,-0.177612027271138,1318.6813186813185,-1.0,62.66390438247012,1.751517216140096,
2023-08-10 11:00:55.830000,-4.891566265060241,-3.072289156626506,7.855421686746988,-2.950337216431637,-4.89086450030656,8.488044144696504,2.0,1.7457875457875458,572.8073856483425,-0.05827166249053105,0.015849892197425,-0.300448691801177,1320.14652014652,-1.0,62.66390438247012,1.7514684108602565,
2023-08-10 11:00:55.837000,-4.891566265060241,-3.096385542168675,7.819277108433735,-3.0312691600245247,-4.839362354383813,8.505211526670754,2.0,1.7472527472527475,572.3270440251572,0.15407027562496434,0.002447409824602773,-0.3319153895460638,1319.4139194139193,-1.0,62.66390438247012,1.7514194861734695,
2023-08-10 11:00:55.845000,-4.9156626506024095,-3.096385542168675,7.83132530120482,-2.9552421827099935,-4.888412017167382,8.554261189454323,2.0,1.7457875457875458,572.8073856483425,0.07610279121263375,0.01853038867198945,-0.24136122603577856,1320.14652014652,-1.0,62.66390438247012,1.7513704426814685,
2023-08-10 11:00:55.853000,-4.9397590361445785,-3.0843373493975905,7.855421686746988,-3.021459227467811,-4.89086450030656,8.519926425505824,2.0,1.7472527472527475,572.3270440251572,0.12038925470543665,0.04848202319212169,-0.256511858283317,1318.6813186813185,-1.0,62.66390438247012,1.7513212811815255,
2023-08-10 11:00:55.860000,-4.951807228915663,-3.072289156626506,7.843373493975904,-2.950337216431637,-4.957081545064377,8.534641324340894,2.0,1.7472527472527475,572.3270440251572,0.14905891265077795,0.06421537206456586,0.0180642153720648,1316.4835164835165,-1.0,62.66390438247012,1.7512720026394484,
2023-08-10 11:00:55.868000,-4.963855421686747,-3.0843373493975905,7.843373493975904,-2.9699570815450644,-4.935009196811771,8.438994481912937,2.0,1.7457875457875458,572.8073856483425,0.04183905366820187,-0.14812656605092953,0.1555853388497176,1311.3553113553112,-1.0,62.66390438247012,1.7512226091822403,
2023-08-10 11:00:55.875000,-4.9397590361445785,-3.060240963855422,7.843373493975904,-2.911097486204782,-4.935009196811771,8.446351931330472,2.0,1.7472527472527475,572.3270440251572,0.22690985373812772,-0.3443855253190365,-0.6115028261756307,1306.227106227106,-1.0,62.66390438247012,1.751173102632069,
2023-08-10 11:00:55.883000,-4.927710843373494,-3.060240963855422,7.855421686746988,-2.9675045984058857,-4.93746167995095,8.488044144696504,2.0,1.7472527472527475,572.3270440251572,0.3155993240487144,-0.23798146961132802,-0.36373171726589354,1302.5641025641025,-1.0,62.66390438247012,1.7511234845152372,
2023-08-10 11:00:55.891000,-4.9156626506024095,-3.0481927710843375,7.855421686746988,-2.920907418761496,-4.942366646229307,8.49294911097486,2.0,1.7472527472527475,572.3270440251572,0.376434939688829,0.2044169920167829,-0.2561622283083739,1298.9010989010987,-1.0,62.66390438247012,1.751073757546171,
2023-08-10 11:00:55.898000,-4.9156626506024095,-3.060240963855422,7.83132530120482,-2.962599632127529,-4.908031882280809,8.485591661557326,2.0,1.7457875457875458,572.8073856483425,0.2354175164617444,0.09346774663481136,-0.013169395722860121,1295.2380952380952,-1.0,62.66390438247012,1.7510239246527883,
2023-08-10 11:00:55.906000,-4.927710843373494,-3.072289156626506,7.855421686746988,-2.9871244635193133,-4.903126916002452,8.480686695278969,2.0,1.7457875457875458,572.8073856483425,0.0973136763591859,0.2743429870054184,0.16735621467280443,1293.040293040293,-1.0,62.66390438247012,1.7509739885289943,
2023-08-10 11:00:55.914000,-4.975903614457832,-3.072289156626506,7.867469879518072,-3.009196811771919,-5.038013488657265,8.515021459227468,2.0,1.7457875457875458,572.8073856483425,0.02086125517160965,0.31350154419905585,-0.1569838587494898,1295.970695970696,-1.0,62.66390438247012,1.750923951537884,
2023-08-10 11:00:55.921000,-4.963855421686747,-3.0843373493975905,7.83132530120482,-2.913549969343961,-4.957081545064377,8.51256897608829,2.0,1.7457875457875458,572.8073856483425,-0.17901054717091022,0.2569780315832408,-0.05151214964162908,1300.3663003663003,-1.0,62.66390438247012,1.7508738157508557,
2023-08-10 11:00:55.929000,-4.963855421686747,-3.096385542168675,7.83132530120482,-2.974862047823421,-4.949724095646842,8.441446965052116,2.0,1.7443223443223446,573.2885342293154,0.3246897033972387,0.08158032748674347,-0.5867956412796457,1312.087912087912,980.46875,61.19521912350598,1.7508235834415093,
2023-08-10 11:00:55.937000,-4.927710843373494,-3.0843373493975905,7.83132530120482,-2.979767014101778,-4.949724095646842,8.412017167381974,2.0,1.7457875457875458,572.8073856483425,0.014917545597576574,0.272711380455685,-0.1416001398519901,1331.135531135531,-1.0,61.19521912350598,1.75077325705161,
2023-08-10 11:00:55.944000,-4.9156626506024095,-3.0843373493975905,7.83132530120482,-2.9724095646842428,-4.949724095646842,8.480686695278969,2.0,1.7457875457875458,572.8073856483425,0.2765573101800595,-0.13169395722860036,-0.5089447001922961,1357.5091575091574,-1.0,61.19521912350598,1.7507228395446757,
2023-08-10 11:00:55.952000,-4.9156626506024095,-3.108433734939759,7.807228915662651,-2.9969343960760266,-4.888412017167382,8.412017167381974,2.0,1.7457875457875458,572.8073856483425,0.32037760037293905,-0.04148942369325762,-0.15476953557485001,1389.7435897435896,-1.0,61.19521912350598,1.7506723344420985,
2023-08-10 11:00:55.960000,-4.9397590361445785,-3.096385542168675,7.795180722891566,-2.9576946658491723,-4.949724095646842,8.443899448191294,2.0,1.7457875457875458,572.8073856483425,0.3179301905483363,-0.29939980187634685,-0.27574150690519195,1430.7692307692307,-1.0,61.19521912350598,1.7506217449101265,
2023-08-10 11:00:55.967000,-4.951807228915663,-3.0843373493975905,7.795180722891566,-2.9944819129368483,-4.930104230533415,8.46351931330472,2.0,1.7457875457875458,572.8073856483425,0.6045102266767669,-0.550900297185478,-0.30208029835091194,1482.7838827838827,-1.0,61.19521912350598,1.7505710742868472,
2023-08-10 11:00:55.975000,-4.9397590361445785,-3.0843373493975905,7.795180722891566,-2.9993868792152054,-4.932556713672593,8.412017167381974,2.0,1.7457875457875458,572.8073856483425,0.5985665171027338,-1.0111298875356916,-0.4492745178019933,1539.194139194139,-1.0,61.19521912350598,1.7505203265043512,
2023-08-10 11:00:55.983000,-4.927710843373494,-3.060240963855422,7.807228915662651,-2.9258123850398525,-4.957081545064377,8.461066830165542,2.0,1.7457875457875458,572.8073856483425,0.8216304411164852,-1.0249985432084372,-0.030417807820056895,1596.3369963369962,-1.0,61.19521912350598,1.7504695051391492,
2023-08-10 11:00:55.990000,-4.927710843373494,-3.060240963855422,7.843373493975904,-2.9993868792152054,-4.888412017167382,8.488044144696504,2.0,1.7457875457875458,572.8073856483425,0.5069634636676192,-0.8830487733815041,0.049763999766913286,1654.212454212454,-1.0,61.19521912350598,1.750418613479719,
2023-08-10 11:00:55.998000,-4.903614457831326,-3.0481927710843375,7.855421686746988,-2.974862047823421,-4.851624770079705,8.438994481912937,2.0,1.7457875457875458,572.8073856483425,0.3493968882932229,-1.0022725948371307,-0.09684750305926212,1711.3553113553112,-1.0,61.19521912350598,1.750367655472459,
2023-08-10 11:00:56.006000,-4.9156626506024095,-3.0481927710843375,7.891566265060241,-2.9724095646842428,-4.895769466584917,8.546903740036786,2.0,1.7457875457875458,572.8073856483425,-0.05512499271604152,-0.8442398461628109,0.2136239146902859,1764.102564102564,-1.0,61.19521912350598,1.7503166356499873,
2023-08-10 11:00:56.013000,-4.891566265060241,-3.060240963855422,7.843373493975904,-2.9675045984058857,-4.93746167995095,8.529736358062538,2.0,1.7457875457875458,572.8073856483425,0.005244449624148055,-0.7221024415826582,0.35277664471767367,1813.9194139194137,-1.0,61.19521912350598,1.7502655586385407,
2023-08-10 11:00:56.021000,-4.903614457831326,-3.0843373493975905,7.855421686746988,-2.933169834457388,-4.920294297976701,8.517473942366646,2.0,1.7457875457875458,572.8073856483425,-0.16351028494842945,-0.696929083386749,-0.013635569022784335,1856.4102564102564,-1.0,61.19521912350598,1.750214429157681,
2023-08-10 11:00:56.029000,-4.9156626506024095,-3.0843373493975905,7.855421686746988,-2.911097486204782,-4.949724095646842,8.51256897608829,2.0,1.7443223443223446,573.2885342293154,-0.32760328652176485,-0.4300448691801179,0.4000932346599848,1892.3076923076922,-1.0,61.19521912350598,1.7501632520197123,
2023-08-10 11:00:56.036000,-4.9156626506024095,-3.072289156626506,7.879518072289157,-2.974862047823421,-4.908031882280809,8.49294911097486,2.0,1.7457875457875458,572.8073856483425,-0.018996561971912792,-0.4745644193228825,0.04883165316706464,1924.5421245421244,-1.0,61.19521912350598,1.7501120316362224,
2023-08-10 11:00:56.044000,-4.903614457831326,-3.072289156626506,7.867469879518072,-2.962599632127529,-4.927651747394236,8.51256897608829,2.0,1.7457875457875458,572.8073856483425,-0.10815220558242453,-0.35289318804265496,0.1271487675543384,1947.9853479853477,-1.0,61.19521912350598,1.7500607724376198,
2023-08-10 11:00:56.052000,-4.903614457831326,-3.0843373493975905,7.867469879518072,-3.0067443286327404,-4.885959534028204,8.544451256897608,2.0,1.7457875457875458,572.8073856483425,0.41582658353242813,0.01083852922323862,0.31268574092418866,1962.6373626373625,-1.0,61.19521912350598,1.7500094793966119,
2023-08-10 11:00:56.059000,-4.879518072289157,-3.0843373493975905,7.879518072289157,-2.9576946658491723,-4.920294297976701,8.564071122011036,2.0,1.7457875457875458,572.8073856483425,0.2013868655672742,0.006642969523919828,0.29660276207680225,1967.032967032967,-1.0,61.19521912350598,1.7499581575687118,
2023-08-10 11:00:56.067000,-4.9156626506024095,-3.072289156626506,7.843373493975904,-2.9724095646842428,-4.910484365419988,8.55916615573268,2.0,1.7457875457875458,572.8073856483425,-0.08985490356039848,0.6282850649729044,-0.08519317056115591,1966.3003663003662,-1.0,61.19521912350598,1.749906812090707,
2023-08-10 11:00:56.075000,-4.9156626506024095,-3.072289156626506,7.855421686746988,-2.99202942979767,-4.908031882280809,8.537093807480073,2.0,1.7457875457875458,572.8073856483425,-0.545539304236349,1.0775595827748967,-0.09696404638424339,1965.5677655677655,-1.0,61.19521912350598,1.7498554481792927,
2023-08-10 11:00:56.082000,-4.879518072289157,-3.072289156626506,7.83132530120482,-2.9944819129368483,-4.942366646229307,8.52728387492336,2.0,1.7443223443223446,573.2885342293154,-0.5400617679622394,1.0680030301264491,-0.09253540003496293,1957.5091575091574,-1.0,61.19521912350598,1.7498040706720819,
2023-08-10 11:00:56.090000,-4.879518072289157,-3.072289156626506,7.855421686746988,-2.9552421827099935,-4.849172286940527,8.507664009809933,2.0,1.7443223443223446,573.2885342293154,-0.6110366528757059,0.8299050171901402,-0.04207214031816311,1947.9853479853477,-1.0,61.19521912350598,1.7497526845171203,
2023-08-10 11:00:56.098000,-4.879518072289157,-3.0843373493975905,7.843373493975904,-2.9944819129368483,-4.873697118332311,8.483139178418147,2.0,1.7443223443223446,573.2885342293154,-0.8668492512091366,0.9293164733989864,-0.24916962880951002,1934.7985347985348,-1.0,61.19521912350598,1.7497012945962471,
2023-08-10 11:00:56.105000,-4.891566265060241,-3.072289156626506,7.819277108433735,-2.9552421827099935,-4.895769466584917,8.517473942366646,2.0,1.7457875457875458,572.8073856483425,-0.44857525785210567,1.1496999009381734,-0.1213216013052853,1920.14652014652,-1.0,61.19521912350598,1.749649905264241,
2023-08-10 11:00:56.113000,-4.927710843373494,-3.0843373493975905,7.795180722891566,-2.982219497240956,-4.939914163090129,8.51256897608829,2.0,1.7457875457875458,572.8073856483425,0.10244158265835313,1.0793077326496128,-0.07097488491346653,1901.098901098901,-1.0,61.19521912350598,1.7495985213284466,
2023-08-10 11:00:56.121000,-4.963855421686747,-3.072289156626506,7.807228915662651,-2.940527283874923,-4.986511342734518,8.488044144696504,2.0,1.7457875457875458,572.8073856483425,-0.43260882232970155,1.3451430569314144,-0.11246430860672459,1882.7838827838827,-1.0,61.19521912350598,1.749547148115188,
2023-08-10 11:00:56.128000,-4.951807228915663,-3.072289156626506,7.843373493975904,-2.984671980380135,-5.013488657265481,8.532188841201716,2.0,1.7443223443223446,573.2885342293154,-0.47666219917254277,0.9522755084202545,0.02610570479575792,1868.8644688644688,-1.0,61.19521912350598,1.7494957910117095,
2023-08-10 11:00:56.136000,-4.951807228915663,-3.0843373493975905,7.867469879518072,-3.0459840588595952,-4.900674432863274,8.490496627835682,2.0,1.7457875457875458,572.8073856483425,-0.19637550259308956,0.608472699726124,0.21117650486568376,1860.8058608058607,-1.0,61.19521912350598,1.7494444549740142,
2023-08-10 11:00:56.144000,-4.951807228915663,-3.072289156626506,7.819277108433735,-2.974862047823421,-4.976701410177805,8.470876762722256,2.0,1.7443223443223446,573.2885342293154,0.14113396655206545,0.299283258551366,-0.033447934269564716,1854.212454212454,-1.0,61.19521912350598,1.7493931449486089,
2023-08-10 11:00:56.151000,-4.975903614457832,-3.072289156626506,7.867469879518072,-2.9724095646842428,-4.991416309012875,8.480686695278969,2.0,1.7457875457875458,572.8073856483425,-0.33133267292115853,0.37398752986422623,0.10640405570770937,1849.8168498168498,-1.0,61.19521912350598,1.7493418659063844,
2023-08-10 11:00:56.159000,-4.975903614457832,-3.060240963855422,7.83132530120482,-2.9258123850398525,-4.925199264255058,8.524831391784181,2.0,1.7457875457875458,572.8073856483425,-0.09894528290892109,0.42037177320668945,0.015267175572519083,1846.153846153846,-1.0,61.19521912350598,1.7492906228074847,
2023-08-10 11:00:56.167000,-4.963855421686747,-3.096385542168675,7.843373493975904,-2.9552421827099935,-4.959534028203556,8.488044144696504,2.0,1.7443223443223446,573.2885342293154,-0.2970689353767267,-0.34415243866907486,-0.16700658469786148,1843.956043956044,-1.0,61.19521912350598,1.749239421586809,
2023-08-10 11:00:56.174000,-4.951807228915663,-3.0843373493975905,7.83132530120482,-2.962599632127529,-4.9742489270386265,8.500306560392398,2.0,1.7457875457875458,572.8073856483425,-0.14101742322708463,-0.551366470485403,-0.1344909970281452,1838.8278388278386,-1.0,61.19521912350598,1.7491882676817598,
2023-08-10 11:00:56.182000,-4.9156626506024095,-3.0843373493975905,7.819277108433735,-2.9380748007357447,-4.876149601471489,8.488044144696504,2.0,1.7443223443223446,573.2885342293154,0.10500553580793673,-0.8499504690868823,-0.48283899539653863,1827.8388278388277,-1.0,61.19521912350598,1.7491371660359434,
2023-08-10 11:00:56.190000,-4.9156626506024095,-3.0843373493975905,7.843373493975904,-3.014101778050276,-4.871244635193133,8.49540159411404,2.0,1.7443223443223446,573.2885342293154,0.08868947031058838,-0.7343394907056704,-0.16001398519899784,1815.3846153846152,-1.0,61.19521912350598,1.749086121628291,
2023-08-10 11:00:56.197000,-4.891566265060241,-3.096385542168675,7.855421686746988,-2.984671980380135,-4.841814837522992,8.505211526670754,2.0,1.7443223443223446,573.2885342293154,-0.030650894470019004,-0.592622807528699,0.03904201386865572,1799.2673992673992,-1.0,61.19521912350598,1.749035138947954,
2023-08-10 11:00:56.205000,-4.879518072289157,-3.096385542168675,7.867469879518072,-2.974862047823421,-4.824647455548742,8.551808706315144,2.0,1.742857142857143,573.7704918032787,0.23075578346250228,-0.359885787541519,0.05244449624147773,1781.6849816849815,-1.0,61.19521912350598,1.7489842224525225,
2023-08-10 11:00:56.213000,-4.9156626506024095,-3.072289156626506,7.879518072289157,-2.9086450030656037,-4.876149601471489,8.519926425505824,2.0,1.7443223443223446,573.2885342293154,0.01841384534700861,0.7536856826525257,0.033914107569488934,1760.4395604395604,-1.0,61.19521912350598,1.7489333760760417,
2023-08-10 11:00:56.220000,-4.9156626506024095,-3.072289156626506,7.879518072289157,-2.9601471489883506,-4.868792152053954,8.539546290619251,2.0,1.7443223443223446,573.2885342293154,-0.05745585921566346,0.6979779733115782,-0.19672513256803206,1739.9267399267399,-1.0,61.19521912350598,1.748882603650533,
2023-08-10 11:00:56.228000,-4.951807228915663,-3.072289156626506,7.83132530120482,-2.974862047823421,-4.949724095646842,8.49294911097486,2.0,1.7443223443223446,573.2885342293154,-0.20779674844123236,0.5211817493153074,-0.19521006934327836,1723.0769230769229,-1.0,61.19521912350598,1.7488319098897647,
2023-08-10 11:00:56.235000,-4.963855421686747,-3.0843373493975905,7.867469879518072,-2.979767014101778,-4.979153893316983,8.475781729000612,2.0,1.742857142857143,573.7704918032787,0.025522988170851784,0.7111473690344388,-0.4090670706835266,1706.227106227106,-1.0,61.19521912350598,1.748781299407403,
2023-08-10 11:00:56.243000,-4.9397590361445785,-3.0843373493975905,7.855421686746988,-2.9650521152667073,-4.988963825873697,8.52728387492336,2.0,1.742857142857143,573.7704918032787,-0.034380280869412715,0.8701124643086069,-0.5749082221315776,1692.3076923076922,-1.0,61.19521912350598,1.7487307762626496,
2023-08-10 11:00:56.251000,-4.951807228915663,-3.072289156626506,7.855421686746988,-2.99202942979767,-4.939914163090129,8.49294911097486,2.0,1.7443223443223446,573.2885342293154,0.12120505798030425,0.6006642969523923,-0.4502068644018415,1679.8534798534797,-1.0,61.19521912350598,1.7486803443147692,
2023-08-10 11:00:56.258000,-4.951807228915663,-3.072289156626506,7.843373493975904,-2.979767014101778,-4.964438994481912,8.461066830165542,2.0,1.7443223443223446,573.2885342293154,-0.16712312802284232,0.28739583940329816,-0.14323174640172487,1666.6666666666665,-1.0,61.19521912350598,1.7486300076813892,
2023-08-10 11:00:56.266000,-4.975903614457832,-3.060240963855422,7.843373493975904,-2.916002452483139,-4.920294297976701,8.46351931330472,2.0,1.742857142857143,573.7704918032787,-0.36291591399102596,0.3735213565643029,-0.38832235883689736,1653.4798534798533,-1.0,61.19521912350598,1.7485797708102673,
2023-08-10 11:00:56.274000,-4.9397590361445785,-3.072289156626506,7.843373493975904,-2.9184549356223175,-4.9448191293684856,8.51011649294911,2.0,1.7443223443223446,573.2885342293154,-0.42037177320668945,0.16607423809801306,-0.33832527242002197,1642.4908424908424,-1.0,61.19521912350598,1.7485296375330792,
2023-08-10 11:00:56.281000,-4.927710843373494,-3.072289156626506,7.83132530120482,-2.9969343960760266,-4.888412017167382,8.458614347026364,2.0,1.7443223443223446,573.2885342293154,-0.508944700192297,0.28541460287862047,-0.36419789056581775,1632.9670329670328,-1.0,61.19521912350598,1.7484796114900512,
2023-08-10 11:00:56.289000,-4.9397590361445785,-3.072289156626506,7.819277108433735,-2.9478847332924585,-4.871244635193133,8.485591661557326,2.0,1.7443223443223446,573.2885342293154,-0.4901812248703459,0.14544606957636508,-0.0050113629741855145,1623.4432234432234,-1.0,61.19521912350598,1.7484296966584763,
2023-08-10 11:00:56.297000,-4.927710843373494,-3.060240963855422,7.83132530120482,-2.9944819129368483,-4.900674432863274,8.505211526670754,2.0,1.7443223443223446,573.2885342293154,-0.41023250393333754,0.022959035021269912,0.030534351145038167,1616.117216117216,-1.0,61.19521912350598,1.7483798968981308,
2023-08-10 11:00:56.304000,-4.903614457831326,-3.072289156626506,7.843373493975904,-2.920907418761496,-4.942366646229307,8.544451256897608,2.0,1.742857142857143,573.7704918032787,-0.08903910028553089,-0.25254938523396037,-0.028086941320435828,1611.7216117216117,-1.0,61.19521912350598,1.7483302159545098,
2023-08-10 11:00:56.312000,-4.903614457831326,-3.096385542168675,7.843373493975904,-2.942979767014102,-4.903126916002452,8.546903740036786,2.0,1.7443223443223446,573.2885342293154,-0.212108851465532,-0.1418332265019522,0.23378590991200965,1610.2564102564102,-1.0,61.19521912350598,1.7482806569693792,
2023-08-10 11:00:56.320000,-4.9156626506024095,-3.0843373493975905,7.83132530120482,-2.89883507050889,-4.932556713672593,8.49294911097486,2.0,1.7443223443223446,573.2885342293154,0.07785094108734976,-0.09463317988462146,0.17446535749664935,1606.5934065934066,-1.0,61.19521912350598,1.748231222904499,
2023-08-10 11:00:56.327000,-4.927710843373494,-3.0843373493975905,7.83132530120482,-2.8767627222562844,-4.900674432863274,8.502759043531576,2.0,1.7443223443223446,573.2885342293154,0.31944525377309063,0.08530971388613719,-0.34496824194394243,1603.6630036630036,-1.0,61.19521912350598,1.7481819170694326,
2023-08-10 11:00:56.335000,-4.9156626506024095,-3.060240963855422,7.819277108433735,-2.974862047823421,-4.885959534028204,8.505211526670754,2.0,1.742857142857143,573.7704918032787,0.407085834158848,0.1741157275217064,-0.2963696754268399,1602.197802197802,-1.0,61.19521912350598,1.7481327426664888,
2023-08-10 11:00:56.343000,-4.9397590361445785,-3.0843373493975905,7.819277108433735,-2.9675045984058857,-4.949724095646842,8.490496627835682,2.0,1.742857142857143,573.7704918032787,0.05244449624147708,0.12703222422935648,0.03892547054367445,1599.2673992673992,-1.0,61.19521912350598,1.748083702301054,
2023-08-10 11:00:56.350000,-4.9156626506024095,-3.0843373493975905,7.83132530120482,-2.9724095646842428,-4.881054567749846,8.483139178418147,2.0,1.742857142857143,573.7704918032787,0.17271720762193288,0.12668259425441397,-0.02319212167123115,1594.139194139194,-1.0,61.19521912350598,1.7480347979126385,
2023-08-10 11:00:56.358000,-4.927710843373494,-3.096385542168675,7.807228915662651,-2.891477621091355,-4.930104230533415,8.468424279583077,2.0,1.7443223443223446,573.2885342293154,0.16980362449740677,0.12493444437969795,-0.024241011596060846,1586.080586080586,-1.0,61.19521912350598,1.7479860312307025,
2023-08-10 11:00:56.366000,-4.9397590361445785,-3.096385542168675,7.843373493975904,-2.979767014101778,-4.935009196811771,8.4316370324954,2.0,1.742857142857143,573.7704918032787,0.3337800827457613,0.1610628751238267,-0.09859565293397814,1579.4871794871794,-1.0,61.19521912350598,1.747937404265015,
2023-08-10 11:00:56.373000,-4.951807228915663,-3.072289156626506,7.855421686746988,-2.9895769466584916,-4.939914163090129,8.49294911097486,2.0,1.7443223443223446,573.2885342293154,0.10046034613367542,0.3192121671231272,-0.20360118874191488,1572.8937728937728,-1.0,61.19521912350598,1.7478889188826598,
2023-08-10 11:00:56.381000,-4.963855421686747,-3.072289156626506,7.83132530120482,-2.9724095646842428,-4.9816063764561616,8.473329245861434,2.0,1.742857142857143,573.7704918032787,0.08216304411164765,0.2516170386341119,-0.17143523104714195,1567.7655677655678,-1.0,61.19521912350598,1.7478405767735787,
2023-08-10 11:00:56.389000,-4.951807228915663,-3.072289156626506,7.855421686746988,-3.011649294911097,-4.942366646229307,8.49294911097486,2.0,1.742857142857143,573.7704918032787,0.10990035545714054,0.32224229357263595,-0.07785094108734933,1558.974358974359,-1.0,61.19521912350598,1.7477923794859263,
2023-08-10 11:00:56.396000,-4.951807228915663,-3.0843373493975905,7.83132530120482,-3.0361741263028814,-4.932556713672593,8.51011649294911,2.0,1.7413919413919414,574.2532604122844,-0.276207680205117,-0.19171376959384567,-0.35091195151797683,1551.6483516483515,-1.0,61.19521912350598,1.7477443283574297,
2023-08-10 11:00:56.404000,-4.927710843373494,-3.0843373493975905,7.843373493975904,-2.974862047823421,-4.908031882280809,8.49294911097486,2.0,1.742857142857143,573.7704918032787,-0.35289318804265496,-0.12516753102965963,-0.1489423693257967,1541.3919413919414,-1.0,61.19521912350598,1.747696424412057,
2023-08-10 11:00:56.412000,-4.9156626506024095,-3.0843373493975905,7.855421686746988,-2.9282648681790313,-4.885959534028204,8.49540159411404,2.0,1.742857142857143,573.7704918032787,-0.16747275799778483,-0.042188683643144376,-0.33179884622108274,1530.4029304029302,-1.0,61.19521912350598,1.747648668291004,
2023-08-10 11:00:56.419000,-4.9156626506024095,-3.072289156626506,7.843373493975904,-2.9895769466584916,-4.908031882280809,8.51256897608829,2.0,1.742857142857143,573.7704918032787,-0.21164267816560864,-0.28483188625371453,-0.06724549851407281,1520.14652014652,-1.0,61.19521912350598,1.7476010607799737,
2023-08-10 11:00:56.427000,-4.927710843373494,-3.0843373493975905,7.867469879518072,-2.940527283874923,-4.959534028203556,8.505211526670754,2.0,1.742857142857143,573.7704918032787,-0.4702523162985846,0.06736204183905366,-0.49426024124468293,1509.1575091575091,-1.0,61.19521912350598,1.7475536023531657,
2023-08-10 11:00:56.435000,-4.9156626506024095,-3.096385542168675,7.867469879518072,-2.9675045984058857,-4.888412017167382,8.522378908645003,2.0,1.742857142857143,573.7704918032787,-0.26746693083153694,0.1713186877221611,-0.36827690694015486,1502.5641025641025,-1.0,61.19521912350598,1.7475062927170708,
2023-08-10 11:00:56.442000,-4.927710843373494,-3.0843373493975905,7.843373493975904,-2.9773145309625995,-4.952176578786021,8.465971796443899,2.0,1.742857142857143,573.7704918032787,-0.2938057222772563,0.48761727172076225,-0.07365538138803097,1495.2380952380952,-1.0,61.19521912350598,1.7474591308793033,
2023-08-10 11:00:56.450000,-4.9156626506024095,-3.096385542168675,7.855421686746988,-3.0484365419987736,-4.927651747394236,8.505211526670754,2.0,1.742857142857143,573.7704918032787,-0.37923197948837434,0.6208262921741152,-0.16176213507371343,1486.4468864468863,-1.0,61.19521912350598,1.7474121156385745,
2023-08-10 11:00:56.458000,-4.9397590361445785,-3.096385542168675,7.83132530120482,-2.9773145309625995,-4.930104230533415,8.505211526670754,2.0,1.742857142857143,573.7704918032787,-0.14404754967659159,0.8631198648097428,-0.6627818891672979,1478.3882783882782,-1.0,61.19521912350598,1.7473652455827917,
2023-08-10 11:00:56.465000,-4.9156626506024095,-3.108433734939759,7.795180722891566,-2.982219497240956,-4.932556713672593,8.453709380748007,2.0,1.742857142857143,573.7704918032787,0.05897092244041781,0.3090728978497754,-0.3813297593380337,1470.3296703296703,-1.0,61.19521912350598,1.7473185190880576,
2023-08-10 11:00:56.473000,-4.879518072289157,-3.0843373493975905,7.807228915662651,-2.940527283874923,-4.888412017167382,8.453709380748007,2.0,1.742857142857143,573.7704918032787,-0.0924188567099821,0.3414719421945104,-0.39111939863644307,1459.3406593406592,-1.0,61.19521912350598,1.7472719343186824,
2023-08-10 11:00:56.481000,-4.903614457831326,-3.096385542168675,7.783132530120482,-3.0459840588595952,-4.881054567749846,8.434089515634579,2.0,1.742857142857143,573.7704918032787,0.05943709574034115,0.6182623390245315,-0.0801818075869704,1447.6190476190475,-1.0,61.19521912350598,1.7472254892283356,
2023-08-10 11:00:56.488000,-4.9156626506024095,-3.096385542168675,7.783132530120482,-2.9601471489883506,-4.895769466584917,8.382587369711834,2.0,1.742857142857143,573.7704918032787,0.1333255637783338,0.41897325330691765,-0.3970631082104774,1437.3626373626373,-1.0,61.19521912350598,1.7471791820202751,
2023-08-10 11:00:56.496000,-4.927710843373494,-3.108433734939759,7.759036144578314,-2.9650521152667073,-4.9448191293684856,8.409564684242795,2.0,1.742857142857143,573.7704918032787,-0.006060252899015646,0.5541635102849483,-0.22481207388846833,1427.8388278388277,-1.0,61.19521912350598,1.7471330106259035,
2023-08-10 11:00:56.504000,-4.951807228915663,-3.0843373493975905,7.807228915662651,-2.9356223175965663,-4.917841814837523,8.426732066217044,2.0,1.742857142857143,573.7704918032787,-0.023541751646174093,0.1699201678223876,0.14474680962647876,1416.8498168498168,-1.0,61.19521912350598,1.747086972746599,
2023-08-10 11:00:56.511000,-4.963855421686747,-3.096385542168675,7.795180722891566,-2.9969343960760266,-4.9668914776210915,8.436541998773757,2.0,1.742857142857143,573.7704918032787,-0.37783345958860254,-0.047316589942311596,0.3882058155119165,1405.128205128205,-1.0,61.19521912350598,1.7470410662850173,
2023-08-10 11:00:56.519000,-4.9879518072289155,-3.060240963855422,7.819277108433735,-2.9650521152667073,-5.008583690987124,8.453709380748007,2.0,1.742857142857143,573.7704918032787,-0.46978614299865956,-0.2478876522347182,0.4785268923722392,1393.4065934065934,-1.0,61.19521912350598,1.746995288864147,
2023-08-10 11:00:56.527000,-5.024096385542169,-3.0481927710843375,7.843373493975904,-2.9650521152667073,-5.0331085223789085,8.49785407725322,2.0,1.7413919413919414,574.2532604122844,-0.4680379931239435,-0.41652584348231486,0.704504399510518,1378.7545787545787,-1.0,61.19521912350598,1.7469496378399683,
2023-08-10 11:00:56.534000,-5.024096385542169,-3.060240963855422,7.879518072289157,-2.950337216431637,-4.957081545064377,8.544451256897608,2.0,1.742857142857143,573.7704918032787,-0.694598216887127,-0.40149175455975744,0.8241943942660684,1367.7655677655678,-1.0,61.19521912350598,1.7469041098224256,
2023-08-10 11:00:56.542000,-4.9879518072289155,-3.072289156626506,7.867469879518072,-2.9944819129368483,-4.957081545064377,8.49540159411404,2.0,1.7413919413919414,574.2532604122844,-0.5835324281801764,-0.6003146669774481,0.8208146378416177,1359.7069597069597,-1.0,61.19521912350598,1.7468587006527128,
2023-08-10 11:00:56.550000,-4.963855421686747,-3.060240963855422,7.843373493975904,-3.009196811771919,-4.986511342734518,8.517473942366646,2.0,1.7413919413919414,574.2532604122844,-0.9148651011013349,-0.7990210360701595,0.755550375852223,1356.7765567765566,-1.0,61.19521912350598,1.7468134059759621,
2023-08-10 11:00:56.557000,-4.963855421686747,-3.072289156626506,7.867469879518072,-3.0190067443286326,-4.954629061925199,8.554261189454323,2.0,1.7413919413919414,574.2532604122844,-0.7879494201969576,-1.0121787774605209,0.8117242584930946,1353.8461538461538,-1.0,61.19521912350598,1.7467682211485407,
2023-08-10 11:00:56.565000,-4.927710843373494,-3.0843373493975905,7.843373493975904,-2.891477621091355,-4.898221949724095,8.490496627835682,2.0,1.7413919413919414,574.2532604122844,-0.6310821047724496,-1.0389837422061652,0.5166365596410465,1355.3113553113553,-1.0,61.19521912350598,1.7467231412157238,
2023-08-10 11:00:56.573000,-4.879518072289157,-3.108433734939759,7.843373493975904,-3.0386266094420598,-4.912936848559166,8.51011649294911,2.0,1.7413919413919414,574.2532604122844,-0.7482081463784159,-0.9285006701241189,0.5578928966843425,1356.7765567765566,-1.0,61.19521912350598,1.7466781609247248,
2023-08-10 11:00:56.580000,-4.843373493975903,-3.108433734939759,7.879518072289157,-3.0067443286327404,-4.809932556713672,8.475781729000612,2.0,1.7413919413919414,574.2532604122844,-0.14731076277606195,-0.5597575898840389,0.4161762135073715,1356.7765567765566,-1.0,61.19521912350598,1.74663327473835,
2023-08-10 11:00:56.588000,-4.83132530120482,-3.108433734939759,7.855421686746988,-2.9969343960760266,-4.809932556713672,8.517473942366646,2.0,1.7413919413919414,574.2532604122844,-0.3587203542917072,-0.5441407843365773,0.8572926985606898,1353.8461538461538,-1.0,61.19521912350598,1.7465884768492785,
2023-08-10 11:00:56.596000,-4.843373493975903,-3.108433734939759,7.867469879518072,-3.026364193746168,-4.822194972409564,8.507664009809933,2.0,1.742857142857143,573.7704918032787,-0.3232911834974652,0.06829438843890208,0.2835499096789232,1348.7179487179487,-1.0,61.19521912350598,1.7465437611950418,
2023-08-10 11:00:56.603000,-4.843373493975903,-3.1204819277108435,7.855421686746988,-3.021459227467811,-4.78295524218271,8.549356223175964,2.0,1.7413919413919414,574.2532604122844,-0.6388905075461796,0.14393100635161074,0.5853971213798728,1347.2527472527472,-1.0,61.19521912350598,1.7464991219663868,
2023-08-10 11:00:56.611000,-4.819277108433735,-3.1204819277108435,7.855421686746988,-2.9944819129368483,-4.819742489270386,8.485591661557326,2.0,1.7413919413919414,574.2532604122844,-0.18938290309422548,0.8448225627877168,0.4278305460054777,1343.5897435897434,-1.0,61.19521912350598,1.7464545532032303,
2023-08-10 11:00:56.618000,-4.855421686746988,-3.0843373493975905,7.819277108433735,-2.9699570815450644,-4.84426732066217,8.46351931330472,2.0,1.7413919413919414,574.2532604122844,-0.20290192879202854,1.0558825243284196,0.48225627877163335,1340.6593406593406,-1.0,61.19521912350598,1.746410048287395,
2023-08-10 11:00:56.626000,-4.927710843373494,-3.096385542168675,7.807228915662651,-3.0165542611894542,-4.917841814837523,8.434089515634579,2.0,1.7413919413919414,574.2532604122844,-0.16852164792261584,1.053901287803742,0.8119573451430567,1336.9963369963368,-1.0,61.19521912350598,1.7463656004191177,
2023-08-10 11:00:56.634000,-4.9156626506024095,-3.096385542168675,7.771084337349398,-2.9773145309625995,-4.949724095646842,8.515021459227468,2.0,1.7413919413919414,574.2532604122844,-0.16782238797272908,1.0493560981294787,0.8053143756191364,1334.065934065934,-1.0,61.19521912350598,1.7463212030943562,
2023-08-10 11:00:56.641000,-4.963855421686747,-3.072289156626506,7.795180722891566,-2.940527283874923,-4.988963825873697,8.40220723482526,2.0,1.7413919413919414,574.2532604122844,0.10687022900763359,1.07802575607482,0.43284190897966324,1331.135531135531,-1.0,61.19521912350598,1.7462768495999135,
2023-08-10 11:00:56.649000,-4.9879518072289155,-3.072289156626506,7.819277108433735,-2.9380748007357447,-4.9963212752912325,8.41692213366033,2.0,1.7413919413919414,574.2532604122844,0.5950702173533018,1.0871161354233445,0.5222306392401375,1330.4029304029302,-1.0,61.19521912350598,1.7462325326133659,
2023-08-10 11:00:56.657000,-5.0,-3.072289156626506,7.807228915662651,-2.9356223175965663,-5.0036787247087675,8.49540159411404,2.0,1.7413919413919414,574.2532604122844,0.37701765631373496,0.913699667851523,0.3175805605733931,1328.2051282051282,-1.0,61.19521912350598,1.746188244716959,
2023-08-10 11:00:56.664000,-5.0,-3.072289156626506,7.819277108433735,-2.962599632127529,-5.038013488657265,8.453709380748007,2.0,1.7413919413919414,574.2532604122844,0.329934153021385,0.6163976458248347,0.16385991492337282,1325.2747252747251,-1.0,61.19521912350598,1.7461439784196364,
2023-08-10 11:00:56.672000,-5.024096385542169,-3.072289156626506,7.819277108433735,-2.9993868792152054,-5.015941140404659,8.47823421213979,2.0,1.7413919413919414,574.2532604122844,0.4208379465066145,-0.138453470077501,-0.13029543732882706,1320.8791208791208,-1.0,61.19521912350598,1.7460997261798776,
2023-08-10 11:00:56.680000,-5.0,-3.0843373493975905,7.83132530120482,-2.9993868792152054,-4.98405885959534,8.500306560392398,2.0,1.7413919413919414,574.2532604122844,0.7226851582075642,-0.2607074179826345,-0.28529805955363896,1315.018315018315,-1.0,61.19521912350598,1.746055480429336,
2023-08-10 11:00:56.687000,-4.975903614457832,-3.0843373493975905,7.819277108433735,-2.9724095646842428,-4.959534028203556,8.49540159411404,2.0,1.7413919413919414,574.2532604122844,0.3513781248179006,-0.90018064215372,-0.13262630382844812,1308.4249084249084,-1.0,61.19521912350598,1.7460112340551202,
2023-08-10 11:00:56.695000,-4.9397590361445785,-3.072289156626506,7.807228915662651,-2.9895769466584916,-5.015941140404659,8.52728387492336,2.0,1.73992673992674,574.7368421052631,0.6867898141133971,-0.938406852747509,-0.102208496008391,1304.0293040293038,-1.0,61.19521912350598,1.745966979899855,
2023-08-10 11:00:56.703000,-4.9397590361445785,-3.0843373493975905,7.855421686746988,-2.920907418761496,-4.993868792152053,8.475781729000612,2.0,1.7413919413919414,574.2532604122844,0.24182739933570255,-0.9013460754035318,0.05256103956645878,1302.5641025641025,-1.0,61.19521912350598,1.7459227103316546,
2023-08-10 11:00:56.710000,-4.951807228915663,-3.096385542168675,7.843373493975904,-2.9675045984058857,-4.986511342734518,8.475781729000612,2.0,1.7413919413919414,574.2532604122844,0.1794767204708353,-0.8796690169570546,-0.1325097605034673,1300.3663003663003,-1.0,61.19521912350598,1.7458784181159703,
2023-08-10 11:00:56.718000,-4.927710843373494,-3.0843373493975905,7.819277108433735,-3.004291845493562,-4.979153893316983,8.429184549356222,2.0,1.7413919413919414,574.2532604122844,0.5282908921391523,-0.7957578229706892,0.236233319736612,1298.168498168498,-1.0,61.19521912350598,1.7458340964783035,
2023-08-10 11:00:56.726000,-4.903614457831326,-3.0843373493975905,7.807228915662651,-2.952789699570815,-4.903126916002452,8.441446965052116,2.0,1.7413919413919414,574.2532604122844,0.3868072956121443,-0.7454111065788707,0.15640114212458497,1293.040293040293,-1.0,61.19521912350598,1.7457897386765648,
2023-08-10 11:00:56.733000,-4.891566265060241,-3.0843373493975905,7.83132530120482,-2.881667688534641,-4.89086450030656,8.475781729000612,2.0,1.7413919413919414,574.2532604122844,0.3984616281102505,-0.5584756133092479,0.28017015325447236,1287.179487179487,-1.0,61.19521912350598,1.745745337573372,
2023-08-10 11:00:56.741000,-4.927710843373494,-3.072289156626506,7.819277108433735,-2.9675045984058857,-4.952176578786021,8.47823421213979,2.0,1.7413919413919414,574.2532604122844,0.4401841384534698,-0.26560223763184004,0.4605792203251557,1282.051282051282,-1.0,61.19521912350598,1.7457008857333642,
2023-08-10 11:00:56.749000,-4.927710843373494,-3.096385542168675,7.819277108433735,-2.9356223175965663,-4.942366646229307,8.451256897608829,2.0,1.7413919413919414,574.2532604122844,0.29939980187634685,-0.6409882873958398,0.41314608705786365,1274.7252747252746,-1.0,61.19521912350598,1.7456563763993678,
2023-08-10 11:00:56.756000,-4.963855421686747,-3.1204819277108435,7.819277108433735,-2.9993868792152054,-4.957081545064377,8.458614347026364,2.0,1.7413919413919414,574.2532604122844,0.15663422877454622,-0.5132568032165966,0.47036885962356484,1269.5970695970695,-1.0,61.19521912350598,1.7456118034512216,
2023-08-10 11:00:56.764000,-5.0,-3.108433734939759,7.843373493975904,-3.0165542611894542,-4.988963825873697,8.529736358062538,2.0,1.7413919413919414,574.2532604122844,0.4588310704504401,-0.9513431618204061,0.11537789173125114,1265.9340659340658,-1.0,61.19521912350598,1.745567160943906,
2023-08-10 11:00:56.772000,-4.975903614457832,-3.096385542168675,7.855421686746988,-2.982219497240956,-4.949724095646842,8.49785407725322,2.0,1.7413919413919414,574.2532604122844,0.5913408309539063,-1.4930365363323805,-0.2969523920517452,1265.9340659340658,-1.0,61.19521912350598,1.7455224431380396,
2023-08-10 11:00:56.779000,-4.9397590361445785,-3.096385542168675,7.855421686746988,-2.99202942979767,-4.949724095646842,8.524831391784181,2.0,1.7413919413919414,574.2532604122844,0.49449332789464545,-2.0615348755900014,-0.3838937124876171,1265.2014652014652,-1.0,61.19521912350598,1.745477644530048,
2023-08-10 11:00:56.787000,-4.9397590361445785,-3.0843373493975905,7.867469879518072,-2.9724095646842428,-4.866339668914776,8.451256897608829,2.0,1.7413919413919414,574.2532604122844,0.6747858516403467,-2.457782180525611,-0.3193287104481092,1265.2014652014652,-1.0,61.19521912350598,1.745432759881917,
2023-08-10 11:00:56.795000,-4.903614457831326,-3.060240963855422,7.843373493975904,-2.974862047823421,-4.836909871244635,8.524831391784181,2.0,1.7413919413919414,574.2532604122844,0.854262572111182,-2.503467163918187,-0.3767845696637726,1264.4688644688645,-1.0,61.19521912350598,1.7453877842504912,
2023-08-10 11:00:56.802000,-4.879518072289157,-3.036144578313253,7.867469879518072,-2.9993868792152054,-4.851624770079705,8.490496627835682,2.0,1.7413919413919414,574.2532604122844,0.7433133267292121,-2.582483538255347,-0.02284249169628799,1263.003663003663,-1.0,61.19521912350598,1.7453427130162462,
2023-08-10 11:00:56.810000,-4.855421686746988,-3.036144578313253,7.855421686746988,-2.9061925199264254,-4.883507050889025,8.54199877375843,2.0,1.7413919413919414,574.2532604122844,0.5714119223821451,-1.6243808635860384,-0.12982926402890285,1260.07326007326,-1.0,61.19521912350598,1.745297541911481,
2023-08-10 11:00:56.818000,-4.83132530120482,-3.024096385542169,7.867469879518072,-2.9307173513182097,-4.834457388105457,8.52728387492336,2.0,1.7413919413919414,574.2532604122844,0.5839986014800997,-1.3757939514014335,-0.3276032865217644,1258.6080586080586,-1.0,61.19521912350598,1.745252267047864,
2023-08-10 11:00:56.825000,-4.855421686746988,-3.024096385542169,7.879518072289157,-2.923359901900674,-4.792765174739423,8.500306560392398,2.0,1.7413919413919414,574.2532604122844,0.13915273002738776,-0.3640813472408378,-0.21723675776469897,1254.9450549450548,-1.0,61.19521912350598,1.74520688494328,
2023-08-10 11:00:56.833000,-4.843373493975903,-3.060240963855422,7.879518072289157,-2.903740036787247,-4.841814837522992,8.598405885959533,2.0,1.7413919413919414,574.2532604122844,0.2611735912825596,-0.22784220033797614,-0.32317464017248393,1250.5494505494505,-1.0,61.19521912350598,1.7451613925479144,
2023-08-10 11:00:56.841000,-4.879518072289157,-3.072289156626506,7.903614457831326,-2.9012875536480687,-4.856529736358063,8.571428571428571,2.0,1.7413919413919414,574.2532604122844,-8.15803274867591E-4,0.5074296369675426,-0.23075578346250228,1246.8864468864467,-1.0,61.19521912350598,1.7451157872695058,
2023-08-10 11:00:56.848000,-4.9156626506024095,-3.072289156626506,7.91566265060241,-3.0067443286327404,-4.861434702636419,8.568976088289393,2.0,1.73992673992674,574.7368421052631,0.09195268341005701,0.7179068818833394,0.013402482372822011,1242.4908424908424,-1.0,61.19521912350598,1.745070066997722,
2023-08-10 11:00:56.856000,-4.927710843373494,-3.072289156626506,7.903614457831326,-2.974862047823421,-4.92274678111588,8.52728387492336,2.0,1.73992673992674,574.7368421052631,-0.04556844006759558,1.0795408192995744,0.1342579103781831,1238.8278388278388,965.14892578125,62.16657180800607,1.745024230092781,
2023-08-10 11:00:56.864000,-4.9397590361445785,-3.072289156626506,7.879518072289157,-2.9773145309625995,-4.930104230533415,8.539546290619251,2.0,1.73992673992674,574.7368421052631,-0.12062234135539832,1.453877979138745,0.4220033797564244,1233.6996336996335,-1.0,62.16657180800607,1.7449782752684286,
2023-08-10 11:00:56.871000,-4.9397590361445785,-3.096385542168675,7.903614457831326,-2.9969343960760266,-4.979153893316983,8.554261189454323,2.0,1.7413919413919414,574.2532604122844,-0.14905891265077795,1.978089854903561,0.32795291649670777,1230.03663003663,-1.0,62.16657180800607,1.744932201119336,
2023-08-10 11:00:56.879000,-4.975903614457832,-3.096385542168675,7.927710843373494,-3.0288166768853464,-4.9742489270386265,8.549356223175964,2.0,1.73992673992674,574.7368421052631,-0.5444904143115198,1.9469727871336169,0.23565060311170674,1229.3040293040292,-1.0,62.16657180800607,1.7448860066987064,
2023-08-10 11:00:56.887000,-4.963855421686747,-3.0843373493975905,7.879518072289157,-2.9969343960760266,-4.949724095646842,8.52728387492336,2.0,1.73992673992674,574.7368421052631,-0.5232795291649677,2.1434648330516874,0.6115028261756307,1228.5714285714284,-1.0,62.16657180800607,1.7448396916014286,
2023-08-10 11:00:56.894000,-4.963855421686747,-3.1204819277108435,7.855421686746988,-2.9969343960760266,-4.9816063764561616,8.468424279583077,2.0,1.73992673992674,574.7368421052631,-0.7457607365538131,2.690286113862829,0.360351960841443,1227.106227106227,-1.0,62.16657180800607,1.7447932554487757,
2023-08-10 11:00:56.902000,-4.9879518072289155,-3.108433734939759,7.807228915662651,-2.9944819129368483,-5.0551808706315144,8.480686695278969,2.0,1.73992673992674,574.7368421052631,-0.7064856360351967,2.045335353417632,0.8752403706077735,1225.6410256410256,-1.0,62.16657180800607,1.7447466988121652,
2023-08-10 11:00:56.910000,-5.0,-3.096385542168675,7.83132530120482,-3.0190067443286326,-5.0551808706315144,8.507664009809933,2.0,1.73992673992674,574.7368421052631,-0.6990268632364075,2.030301264495076,0.8689470310587961,1227.8388278388277,-1.0,62.16657180800607,1.7447000226942522,
2023-08-10 11:00:56.917000,-5.0120481927710845,-3.096385542168675,7.83132530120482,-3.0410790925812385,-5.064990803188228,8.49540159411404,2.0,1.7413919413919414,574.2532604122844,-0.4636093467746631,1.8487267641745826,0.7724491579744772,1237.3626373626373,-1.0,62.16657180800607,1.744653228112226,
2023-08-10 11:00:56.925000,-5.024096385542169,-3.072289156626506,7.855421686746988,-2.9356223175965663,-4.998773758430411,8.534641324340894,2.0,1.73992673992674,574.7368421052631,-0.49006468154536503,0.7069518093351199,0.5978672571528464,1254.9450549450548,-1.0,62.16657180800607,1.7446063175430235,
2023-08-10 11:00:56.933000,-4.975903614457832,-3.072289156626506,7.843373493975904,-2.9282648681790313,-5.006131207847946,8.470876762722256,2.0,1.7413919413919414,574.2532604122844,-0.548336344035896,0.3826117359128255,0.2727113804556843,1276.923076923077,-1.0,62.16657180800607,1.7445592939779713,
2023-08-10 11:00:56.940000,-4.9397590361445785,-3.072289156626506,7.843373493975904,-2.9356223175965663,-4.915389331698345,8.458614347026364,2.0,1.73992673992674,574.7368421052631,-0.8313035370899138,-0.688654507313094,0.5718780956820695,1308.4249084249084,-1.0,62.16657180800607,1.7445121609262384,
2023-08-10 11:00:56.948000,-4.927710843373494,-3.0843373493975905,7.855421686746988,-2.923359901900674,-4.903126916002452,8.485591661557326,2.0,1.73992673992674,574.7368421052631,-0.5953033040032634,-0.7273468912068063,0.3682769069401551,1347.2527472527472,-1.0,62.16657180800607,1.7444649228744762,
2023-08-10 11:00:56.956000,-4.891566265060241,-3.0843373493975905,7.855421686746988,-3.0067443286327404,-4.824647455548742,8.54199877375843,2.0,1.73992673992674,574.7368421052631,-0.40487151098420865,-1.4710098479109608,0.49927160421886846,1393.4065934065934,-1.0,62.16657180800607,1.7444175842691152,
2023-08-10 11:00:56.963000,-4.879518072289157,-3.072289156626506,7.855421686746988,-2.9724095646842428,-4.832004904966278,8.453709380748007,2.0,1.73992673992674,574.7368421052631,-0.44449624147776945,-1.3685682652526079,0.5555620301847212,1444.6886446886447,-1.0,62.16657180800607,1.744370149972081,
2023-08-10 11:00:56.971000,-4.843373493975903,-3.060240963855422,7.795180722891566,-2.9307173513182097,-4.851624770079705,8.524831391784181,2.0,1.7413919413919414,574.2532604122844,-0.4074354641337923,-1.5436163393741626,0.6409882873958391,1501.098901098901,-1.0,62.16657180800607,1.7443226252564181,
2023-08-10 11:00:56.979000,-4.807228915662651,-3.072289156626506,7.795180722891566,-2.9601471489883506,-4.802575107296137,8.51256897608829,2.0,1.73992673992674,574.7368421052631,-0.32259192354757843,-1.230697511800011,0.6796806712895518,1564.102564102564,-1.0,62.16657180800607,1.744275016292447,
2023-08-10 11:00:56.986000,-4.795180722891566,-3.060240963855422,7.843373493975904,-2.942979767014102,-4.812385039852851,8.480686695278969,2.0,1.73992673992674,574.7368421052631,-0.40627003088398045,-1.0611269739525675,0.5947205873783582,1630.7692307692307,-1.0,62.16657180800607,1.7442273297187139,
2023-08-10 11:00:56.994000,-4.795180722891566,-3.060240963855422,7.83132530120482,-2.9282648681790313,-4.780502759043531,8.46351931330472,2.0,1.73992673992674,574.7368421052631,-0.41116485053318597,-0.4655905832993408,0.8493677524619775,1696.7032967032967,-1.0,62.16657180800607,1.7441795721069513,
2023-08-10 11:00:57.001000,-4.807228915662651,-3.072289156626506,7.819277108433735,-2.9699570815450644,-4.834457388105457,8.534641324340894,2.0,1.73992673992674,574.7368421052631,-0.47934269564710724,0.09579861313443329,1.2858225045160536,1758.974358974359,-1.0,62.16657180800607,1.744131750408152,
2023-08-10 11:00:57.009000,-4.843373493975903,-3.096385542168675,7.795180722891566,-3.026364193746168,-4.836909871244635,8.46351931330472,2.0,1.73992673992674,574.7368421052631,-0.5023017306683754,0.45335353417633034,1.6261290134607536,1817.5824175824175,-1.0,62.16657180800607,1.7440838723968624,
2023-08-10 11:00:57.017000,-4.891566265060241,-3.0843373493975905,7.783132530120482,-3.0361741263028814,-4.895769466584917,8.404659717964439,2.0,1.73992673992674,574.7368421052631,-0.29905017190140437,0.7786259541984732,1.553872151972496,1872.5274725274724,-1.0,62.16657180800607,1.7440359465886666,
2023-08-10 11:00:57.024000,-4.9156626506024095,-3.096385542168675,7.807228915662651,-2.9871244635193133,-4.942366646229307,8.49294911097486,2.0,1.73992673992674,574.7368421052631,-0.5243284190897969,0.9189441174756712,1.6816036361517388,1917.9487179487178,-1.0,62.16657180800607,1.7439879812771428,
2023-08-10 11:00:57.032000,-4.951807228915663,-3.108433734939759,7.783132530120482,-3.0190067443286326,-4.988963825873697,8.360515021459227,2.0,1.73992673992674,574.7368421052631,-0.44379698152788266,1.1040149175455969,1.8207563661791273,1951.6483516483515,-1.0,62.16657180800607,1.7439399845865293,
2023-08-10 11:00:57.040000,-4.963855421686747,-3.1204819277108435,7.746987951807229,-3.0239117106069893,-4.98405885959534,8.419374616799509,2.0,1.73992673992674,574.7368421052631,-0.5330691684633769,0.8010022725948373,2.221432317464017,1972.161172161172,-1.0,62.16657180800607,1.7438919649435891,
2023-08-10 11:00:57.047000,-5.0120481927710845,-3.144578313253012,7.771084337349398,-3.0386266094420598,-5.008583690987124,8.4316370324954,2.0,1.73992673992674,574.7368421052631,-0.7414486335295153,0.6525260765689652,2.1582658353242823,1986.080586080586,-1.0,62.16657180800607,1.7438439310556753,
2023-08-10 11:00:57.055000,-5.048192771084338,-3.144578313253012,7.710843373493976,-3.0386266094420598,-5.096873083997547,8.38749233599019,2.0,1.73992673992674,574.7368421052631,-0.9641629275683242,0.2464891323349447,2.2792378066546237,1994.139194139194,-1.0,62.16657180800607,1.7437958918878231,
2023-08-10 11:00:57.063000,-5.096385542168675,-3.168674698795181,7.710843373493976,-2.9773145309625995,-5.12385039852851,8.38749233599019,2.0,1.73992673992674,574.7368421052631,-0.814754384942602,-0.29112522580269184,2.354757881242351,1999.9999999999998,-1.0,62.16657180800607,1.7437478566390425,
2023-08-10 11:00:57.070000,-5.120481927710844,-3.144578313253012,7.746987951807229,-3.075413856529736,-5.155732679337829,8.362967504598405,2.0,1.73992673992674,574.7368421052631,-0.7138278655090032,-1.5422178194743892,2.4141949769826927,2002.197802197802,-1.0,62.16657180800607,1.7436998347179737,
2023-08-10 11:00:57.078000,-5.072289156626506,-3.168674698795181,7.771084337349398,-3.0705088902513795,-5.116492949110975,8.421827099938687,2.0,1.73992673992674,574.7368421052631,-0.890624089505274,-2.7179068818833394,2.424334246256045,1998.5347985347985,-1.0,62.16657180800607,1.743651835718079,
2023-08-10 11:00:57.086000,-5.0602409638554215,-3.1566265060240966,7.771084337349398,-3.0067443286327404,-5.101778050275904,8.426732066217044,2.0,1.73992673992674,574.7368421052631,-0.62677000174815,-3.3924596468737263,1.9608414428063634,1991.2087912087911,-1.0,62.16657180800607,1.7436038693925258,
2023-08-10 11:00:57.093000,-5.0361445783132535,-3.144578313253012,7.795180722891566,-3.072961373390558,-5.0257510729613735,8.534641324340894,2.0,1.73992673992674,574.7368421052631,-0.8687139444088334,-4.534933861663074,2.2182856476895285,1977.2893772893772,-1.0,62.16657180800607,1.7435559456289587,
2023-08-10 11:00:57.101000,-4.975903614457832,-3.132530120481928,7.83132530120482,-3.0165542611894542,-4.912936848559166,8.468424279583077,2.0,1.73992673992674,574.7368421052631,-0.8651011013344205,-5.151098420837947,1.9396305576598107,1961.172161172161,-1.0,62.16657180800607,1.7435080744242846,
2023-08-10 11:00:57.109000,-4.927710843373494,-3.096385542168675,7.83132530120482,-2.9724095646842428,-4.957081545064377,8.446351931330472,2.0,1.73992673992674,574.7368421052631,-1.0466756016549144,-6.234718256511857,2.302546471650837,1938.4615384615383,-1.0,62.16657180800607,1.7434602663175531,
2023-08-10 11:00:57.116000,-4.903614457831326,-3.096385542168675,7.843373493975904,-2.99202942979767,-4.89086450030656,8.49540159411404,2.0,1.73992673992674,574.7368421052631,-0.817667968067128,-6.417924363382086,2.3941495250859517,1912.8205128205127,-1.0,62.16657180800607,1.7434125318401674,
2023-08-10 11:00:57.124000,-4.855421686746988,-3.096385542168675,7.879518072289157,-2.9552421827099935,-4.898221949724095,8.51256897608829,2.0,1.73992673992674,574.7368421052631,-1.0161412505098761,-6.1889167297943,2.42468387623099,1887.9120879120878,-1.0,62.16657180800607,1.743364881528502,
2023-08-10 11:00:57.132000,-4.807228915662651,-3.0481927710843375,7.879518072289157,-2.886572654812998,-4.814837522992029,8.52728387492336,2.0,1.73992673992674,574.7368421052631,-0.985606899364838,-5.68509993590117,2.42468387623099,1865.9340659340658,-1.0,62.16657180800607,1.7433173258673034,
2023-08-10 11:00:57.139000,-4.759036144578314,-3.036144578313253,7.879518072289157,-2.950337216431637,-4.7363580625383195,8.556713672593501,2.0,1.73992673992674,574.7368421052631,-1.4741565176854488,-5.303420546588193,2.821630441116486,1846.153846153846,-1.0,62.16657180800607,1.7432698748452187,
2023-08-10 11:00:57.147000,-4.795180722891566,-3.024096385542169,7.927710843373494,-2.962599632127529,-4.78295524218271,8.595953402820355,2.0,1.73992673992674,574.7368421052631,-1.5199580444030059,-4.234718256511857,3.0964396014218294,1832.234432234432,-1.0,62.16657180800607,1.7432225388822817,
2023-08-10 11:00:57.155000,-4.783132530120482,-3.036144578313253,7.903614457831326,-2.9307173513182097,-4.851624770079705,8.551808706315144,2.0,1.7384615384615385,575.221238938053,-1.5962939222656014,-3.3339548977332316,3.1117067769943487,1824.1758241758241,-1.0,62.16657180800607,1.743175328282784,
2023-08-10 11:00:57.162000,-4.807228915662651,-3.0,7.903614457831326,-2.923359901900674,-4.84426732066217,8.583690987124463,2.0,1.7384615384615385,575.221238938053,-1.8100343802808685,-2.5247945923897204,3.0353708991317534,1819.7802197802196,-1.0,62.16657180800607,1.7431282527585408,
2023-08-10 11:00:57.170000,-4.843373493975903,-3.024096385542169,7.879518072289157,-2.8841201716738194,-4.866339668914776,8.54199877375843,2.0,1.73992673992674,574.7368421052631,-2.069576365013693,-1.8683060427713996,3.203309830429463,1816.117216117216,-1.0,62.16657180800607,1.74308132176197,
2023-08-10 11:00:57.178000,-4.855421686746988,-3.024096385542169,7.891566265060241,-2.903740036787247,-4.885959534028204,8.515021459227468,2.0,1.73992673992674,574.7368421052631,-2.3749198764640744,-1.5324281801759798,3.3407144105821347,1809.5238095238094,-1.0,62.16657180800607,1.7430345449239424,
2023-08-10 11:00:57.185000,-4.867469879518072,-3.036144578313253,7.903614457831326,-2.9601471489883506,-4.885959534028204,8.534641324340894,2.0,1.7384615384615385,575.221238938053,-2.3749198764640744,-1.5324281801759798,3.3407144105821347,1804.3956043956043,-1.0,62.16657180800607,1.742987932106202,
2023-08-10 11:00:57.193000,-4.879518072289157,-3.036144578313253,7.91566265060241,-2.9969343960760266,-4.917841814837523,8.529736358062538,2.0,1.73992673992674,574.7368421052631,-2.252782471883922,-1.4102907755958272,3.325447235009616,1795.6043956043954,-1.0,62.16657180800607,1.7429414924370061,
2023-08-10 11:00:57.201000,-4.891566265060241,-3.0120481927710845,7.91566265060241,-2.886572654812998,-4.893316983445739,8.544451256897608,2.0,1.7384615384615385,575.221238938053,-2.1153778917312502,-1.3644892488782698,3.2796457082920587,1785.3479853479853,-1.0,62.16657180800607,1.7428952342609894,
2023-08-10 11:00:57.208000,-4.867469879518072,-3.036144578313253,7.891566265060241,-2.974862047823421,-4.868792152053954,8.568976088289393,2.0,1.73992673992674,574.7368421052631,-2.45125575432667,-1.9446419206339949,3.493386166307326,1772.8937728937728,-1.0,62.16657180800607,1.7428491656845808,
2023-08-10 11:00:57.216000,-4.855421686746988,-3.036144578313253,7.903614457831326,-2.913549969343961,-4.8295524218271,8.571428571428571,2.0,1.73992673992674,574.7368421052631,-2.45125575432667,-1.5629625313210178,3.615523570887478,1756.0439560439559,-1.0,62.16657180800607,1.7428032949488597,
2023-08-10 11:00:57.224000,-4.867469879518072,-3.060240963855422,7.891566265060241,-2.9552421827099935,-4.856529736358063,8.568976088289393,2.0,1.7384615384615385,575.221238938053,-2.466522929899189,-1.013344210710331,3.4781189907348065,1736.9963369963368,-1.0,62.16657180800607,1.7427576304525259,
2023-08-10 11:00:57.231000,-4.891566265060241,-3.060240963855422,7.891566265060241,-2.9576946658491723,-4.942366646229307,8.556713672593501,2.0,1.73992673992674,574.7368421052631,-2.634461861196899,-1.2576190198706363,3.905599906765341,1717.216117216117,-1.0,62.16657180800607,1.7427121797933591,
2023-08-10 11:00:57.239000,-4.927710843373494,-3.0843373493975905,7.83132530120482,-2.9478847332924585,-4.939914163090129,8.52728387492336,2.0,1.7384615384615385,575.221238938053,-2.817667968067128,-0.9217411572752164,4.0277373113454935,1700.3663003663003,-1.0,62.16657180800607,1.742666950182231,
2023-08-10 11:00:57.247000,-4.927710843373494,-3.096385542168675,7.891566265060241,-3.0018393623543838,-4.993868792152053,8.568976088289393,2.0,1.73992673992674,574.7368421052631,-3.2146145329526243,-1.227084668725598,3.875065555620303,1686.4468864468863,-1.0,62.16657180800607,1.7426219484700542,
2023-08-10 11:00:57.254000,-4.9397590361445785,-3.1204819277108435,7.903614457831326,-3.0312691600245247,-4.96934396076027,8.571428571428571,2.0,1.73992673992674,574.7368421052631,-3.2146145329526243,-1.1965503175805599,4.195676242643204,1673.260073260073,-1.0,62.16657180800607,1.7425771811065558,
2023-08-10 11:00:57.262000,-4.9397590361445785,-3.108433734939759,7.91566265060241,-3.0606989576946657,-4.964438994481912,8.522378908645003,2.0,1.7384615384615385,575.221238938053,-2.802400792494609,-1.3644892488782698,4.073538838063051,1660.8058608058607,-1.0,62.16657180800607,1.7425326546626299,
2023-08-10 11:00:57.270000,-4.951807228915663,-3.132530120481928,7.867469879518072,-3.009196811771919,-4.932556713672593,8.519926425505824,2.0,1.7384615384615385,575.221238938053,-3.107744303944991,-1.8530388671988804,4.348347998368395,1649.084249084249,-1.0,62.16657180800607,1.7424883748787932,
2023-08-10 11:00:57.277000,-4.903614457831326,-3.108433734939759,7.855421686746988,-3.0018393623543838,-4.9448191293684856,8.554261189454323,2.0,1.73992673992674,574.7368421052631,-3.2604160596701814,-2.127848027504224,4.2567449449332795,1638.095238095238,-1.0,62.16657180800607,1.7424443465937711,
2023-08-10 11:00:57.285000,-4.867469879518072,-3.132530120481928,7.83132530120482,-2.9895769466584916,-4.883507050889025,8.519926425505824,2.0,1.7384615384615385,575.221238938053,-3.184080181807586,-2.2041839053668193,4.149874715925646,1629.3040293040292,-1.0,62.16657180800607,1.74240057469206,
2023-08-10 11:00:57.293000,-4.843373493975903,-3.1204819277108435,7.855421686746988,-3.0312691600245247,-4.854077253218884,8.461066830165542,2.0,1.7384615384615385,575.221238938053,-3.0466756016549144,-3.043878561855369,4.516286929666104,1621.245421245421,-1.0,62.16657180800607,1.7423570636816652,
2023-08-10 11:00:57.300000,-4.807228915662651,-3.1204819277108435,7.843373493975904,-3.0067443286327404,-4.841814837522992,8.519926425505824,2.0,1.7384615384615385,575.221238938053,-3.2146145329526243,-2.69273352368743,4.8063632655439665,1613.9194139194137,-1.0,62.16657180800607,1.7423138171690544,
2023-08-10 11:00:57.308000,-4.819277108433735,-3.096385542168675,7.83132530120482,-2.9895769466584916,-4.858982219497241,8.453709380748007,2.0,1.7384615384615385,575.221238938053,-2.817667968067128,-2.937008332847735,5.065905250276791,1605.8608058608058,-1.0,62.16657180800607,1.7422708383183139,
2023-08-10 11:00:57.316000,-4.807228915662651,-3.096385542168675,7.855421686746988,-2.9601471489883506,-4.819742489270386,8.49540159411404,2.0,1.7384615384615385,575.221238938053,-3.1382786550900286,-3.3797564244507887,5.447584639589769,1601.4652014652013,-1.0,62.16657180800607,1.742228130311562,
2023-08-10 11:00:57.323000,-4.855421686746988,-3.072289156626506,7.843373493975904,-2.984671980380135,-4.822194972409564,8.446351931330472,2.0,1.736996336996337,575.7064529734289,-3.153545830662548,-3.4255579511683463,5.340714410582135,1597.8021978021977,-1.0,62.16657180800607,1.7421856962854438,
2023-08-10 11:00:57.331000,-4.83132530120482,-3.096385542168675,7.819277108433735,-3.0165542611894542,-4.824647455548742,8.534641324340894,2.0,1.7384615384615385,575.221238938053,-3.0619427772274332,-3.272886195443155,5.707126624322592,1596.3369963369962,-1.0,62.16657180800607,1.7421435383550692,
2023-08-10 11:00:57.339000,-4.855421686746988,-3.096385542168675,7.83132530120482,-3.0410790925812385,-4.876149601471489,8.465971796443899,2.0,1.7384615384615385,575.221238938053,-3.199347357380105,-3.4866266534584223,5.569722044169921,1594.8717948717947,-1.0,62.16657180800607,1.7421016580443385,
2023-08-10 11:00:57.346000,-4.867469879518072,-3.0843373493975905,7.843373493975904,-2.952789699570815,-4.888412017167382,8.537093807480073,2.0,1.7384615384615385,575.221238938053,-3.2298817085251432,-3.562962531321018,5.615523570887478,1591.2087912087911,-1.0,62.16657180800607,1.7420600568208364,
2023-08-10 11:00:57.354000,-4.855421686746988,-3.072289156626506,7.879518072289157,-2.9478847332924585,-4.861434702636419,8.534641324340894,2.0,1.7384615384615385,575.221238938053,-3.0772099527999526,-3.8835732183439187,5.615523570887478,1581.6849816849815,-1.0,62.16657180800607,1.74201873564831,
2023-08-10 11:00:57.362000,-4.855421686746988,-3.108433734939759,7.927710843373494,-3.0361741263028814,-4.841814837522992,8.556713672593501,2.0,1.7384615384615385,575.221238938053,-2.9550725482197997,-3.70036711147369,5.554454868597402,1568.4981684981683,-1.0,62.16657180800607,1.7419776949975727,
2023-08-10 11:00:57.369000,-4.83132530120482,-3.108433734939759,7.927710843373494,-2.9773145309625995,-4.841814837522992,8.583690987124463,2.0,1.7384615384615385,575.221238938053,-3.3062175863877385,-3.4866266534584223,5.569722044169921,1554.5787545787546,-1.0,62.16657180800607,1.7419369348580034,
2023-08-10 11:00:57.377000,-4.867469879518072,-3.0843373493975905,7.927710843373494,-3.009196811771919,-4.822194972409564,8.605763335377068,2.0,1.7384615384615385,575.221238938053,-2.970339723792319,-3.4866266534584223,5.432317464017249,1539.9267399267399,-1.0,62.16657180800607,1.7418964542917372,
2023-08-10 11:00:57.384000,-4.843373493975903,-3.0843373493975905,7.91566265060241,-2.9282648681790313,-4.836909871244635,8.539546290619251,2.0,1.7384615384615385,575.221238938053,-3.2756832352427003,-3.36448924887827,6.043004486918012,1524.5421245421244,-1.0,62.16657180800607,1.741856251971453,
2023-08-10 11:00:57.392000,-4.855421686746988,-3.0843373493975905,7.927710843373494,-2.9576946658491723,-4.871244635193133,8.544451256897608,2.0,1.7384615384615385,575.221238938053,-3.4741565176854485,-2.677466348114911,5.9208670823378595,1506.9597069597069,-1.0,62.16657180800607,1.7418163261568864,
2023-08-10 11:00:57.400000,-4.83132530120482,-3.0843373493975905,7.891566265060241,-2.9576946658491723,-4.827099938687922,8.568976088289393,2.0,1.7384615384615385,575.221238938053,-3.9932404871510974,-2.0667793252141475,5.9208670823378595,1490.8424908424906,-1.0,62.16657180800607,1.7417766742839205,
2023-08-10 11:00:57.407000,-4.843373493975903,-3.072289156626506,7.891566265060241,-2.933169834457388,-4.817290006131207,8.54199877375843,2.0,1.736996336996337,575.7064529734289,-4.161179418448808,-1.6392984091836134,6.287279296078318,1476.923076923077,-1.0,62.16657180800607,1.7417372939259799,
2023-08-10 11:00:57.415000,-4.855421686746988,-3.072289156626506,7.867469879518072,-3.0067443286327404,-4.84426732066217,8.507664009809933,2.0,1.7384615384615385,575.221238938053,-4.374919876464075,-1.547695355748499,6.2567449449332795,1468.131868131868,-1.0,62.16657180800607,1.741698181788347,
2023-08-10 11:00:57.423000,-4.867469879518072,-3.060240963855422,7.855421686746988,-2.9356223175965663,-4.778050275904353,8.502759043531576,2.0,1.7384615384615385,575.221238938053,-4.344385525319036,-1.7003671114736896,6.577355631956181,1464.4688644688645,-1.0,62.16657180800607,1.7416593337209214,
2023-08-10 11:00:57.430000,-4.867469879518072,-3.0843373493975905,7.855421686746988,-2.940527283874923,-4.903126916002452,8.46351931330472,2.0,1.736996336996337,575.7064529734289,-4.405454227609113,-1.9904434473515522,6.6842258609638145,1463.003663003663,-1.0,62.16657180800607,1.741620745749391,
2023-08-10 11:00:57.438000,-4.891566265060241,-3.0843373493975905,7.855421686746988,-2.9650521152667073,-4.856529736358063,8.502759043531576,2.0,1.7384615384615385,575.221238938053,-4.481790105471708,-2.509527416817201,6.8063632655439665,1462.2710622710622,-1.0,62.16657180800607,1.7415824135972522,
2023-08-10 11:00:57.446000,-4.891566265060241,-3.072289156626506,7.855421686746988,-2.9773145309625995,-4.876149601471489,8.500306560392398,2.0,1.7384615384615385,575.221238938053,-4.43598857875415,-2.9828098595652928,6.623157158673738,1461.5384615384614,-1.0,62.16657180800607,1.7415443330549882,
2023-08-10 11:00:57.453000,-4.867469879518072,-3.0481927710843375,7.867469879518072,-2.9380748007357447,-4.903126916002452,8.480686695278969,2.0,1.736996336996337,575.7064529734289,-4.45125575432667,-3.2881533710156745,6.714760212108852,1459.3406593406592,-1.0,62.16657180800607,1.741506500033425,
2023-08-10 11:00:57.461000,-4.891566265060241,-3.060240963855422,7.879518072289157,-2.920907418761496,-4.878602084610668,8.534641324340894,2.0,1.736996336996337,575.7064529734289,-4.45125575432667,-3.2881533710156745,6.714760212108852,1456.4102564102564,-1.0,62.16657180800607,1.7414689096346883,
2023-08-10 11:00:57.469000,-4.879518072289157,-3.060240963855422,7.879518072289157,-2.940527283874923,-4.807480073574494,8.551808706315144,2.0,1.736996336996337,575.7064529734289,-4.512324456616747,-3.776702989336285,6.6842258609638145,1448.3516483516482,-1.0,62.16657180800607,1.7414315565600156,
2023-08-10 11:00:57.476000,-4.867469879518072,-3.072289156626506,7.879518072289157,-2.9478847332924585,-4.895769466584917,8.524831391784181,2.0,1.736996336996337,575.7064529734289,-4.680263387914456,-3.410290775595827,6.485752578521066,1436.6300366300366,-1.0,62.16657180800607,1.7413944350596058,
2023-08-10 11:00:57.484000,-4.83132530120482,-3.072289156626506,7.879518072289157,-3.0018393623543838,-4.797670141017781,8.537093807480073,2.0,1.736996336996337,575.7064529734289,-4.817667968067128,-3.53242818017598,6.562088456383662,1423.4432234432234,-1.0,62.16657180800607,1.7413575385285813,
2023-08-10 11:00:57.492000,-4.855421686746988,-3.060240963855422,7.879518072289157,-2.9993868792152054,-4.868792152053954,8.605763335377068,2.0,1.736996336996337,575.7064529734289,-4.8634694947846855,-3.3492220733057505,6.6842258609638145,1413.1868131868132,-1.0,62.16657180800607,1.7413208600160122,
2023-08-10 11:00:57.499000,-4.83132530120482,-3.072289156626506,7.91566265060241,-3.0459840588595952,-4.841814837522992,8.568976088289393,2.0,1.736996336996337,575.7064529734289,-5.031408426082395,-2.6621991725423917,6.989569372414196,1405.128205128205,-1.0,62.16657180800607,1.7412843922412455,
2023-08-10 11:00:57.507000,-4.855421686746988,-3.072289156626506,7.903614457831326,-3.0018393623543838,-4.856529736358063,8.564071122011036,2.0,1.736996336996337,575.7064529734289,-5.352019113105296,-2.3568556610920104,6.836897616689005,1400.0,-1.0,62.16657180800607,1.7412481276102274,
2023-08-10 11:00:57.515000,-4.843373493975903,-3.096385542168675,7.9397590361445785,-2.9552421827099935,-4.900674432863274,8.578786020846106,2.0,1.736996336996337,575.7064529734289,-5.336751937532777,-1.8225045160538422,7.050638074704272,1394.8717948717947,-1.0,62.16657180800607,1.7412120582318218,
2023-08-10 11:00:57.522000,-4.867469879518072,-3.060240963855422,7.9397590361445785,-2.9552421827099935,-4.827099938687922,8.586143470263641,2.0,1.736996336996337,575.7064529734289,-5.504690868830487,-1.2881533710156745,7.569722044169921,1388.278388278388,-1.0,62.16657180800607,1.7411761759341926,
2023-08-10 11:00:57.530000,-4.855421686746988,-3.0481927710843375,7.91566265060241,-3.0190067443286326,-4.893316983445739,8.551808706315144,2.0,1.736996336996337,575.7064529734289,-5.764232853563311,-1.1049472641454454,7.203309830429463,1378.7545787545787,-1.0,62.16657180800607,1.7411404722812647,
2023-08-10 11:00:57.538000,-4.867469879518072,-3.0481927710843375,7.903614457831326,-2.9724095646842428,-4.878602084610668,8.529736358062538,2.0,1.736996336996337,575.7064529734289,-5.733698502418273,-0.9675426839927737,7.264378532719539,1369.9633699633698,-1.0,62.16657180800607,1.7411049385893034,
2023-08-10 11:00:57.545000,-4.891566265060241,-3.0481927710843375,7.927710843373494,-2.9773145309625995,-4.84426732066217,8.549356223175964,2.0,1.736996336996337,575.7064529734289,-6.008507662723616,-0.9828098595652928,7.386515937299692,1363.3699633699632,-1.0,62.16657180800607,1.741069565943668,
2023-08-10 11:00:57.553000,-4.867469879518072,-3.0481927710843375,7.903614457831326,-2.8890251379521765,-4.805027590435316,8.571428571428571,2.0,1.736996336996337,575.7064529734289,-5.8711030825709445,-1.1965503175805599,7.096439601421829,1355.3113553113553,-1.0,62.16657180800607,1.7410343452157744,
2023-08-10 11:00:57.561000,-4.891566265060241,-3.024096385542169,7.903614457831326,-2.9969343960760266,-4.827099938687922,8.564071122011036,2.0,1.736996336996337,575.7064529734289,-5.703164151273235,-1.2881533710156745,7.188042654856944,1349.4505494505493,-1.0,62.16657180800607,1.7409992670803107,
2023-08-10 11:00:57.568000,-4.867469879518072,-3.024096385542169,7.879518072289157,-2.9478847332924585,-4.856529736358063,8.546903740036786,2.0,1.736996336996337,575.7064529734289,-5.932171784861021,-1.7309014626187278,7.096439601421829,1343.5897435897434,-1.0,62.16657180800607,1.740964322490631,
2023-08-10 11:00:57.576000,-4.867469879518072,-3.060240963855422,7.903614457831326,-2.974862047823421,-4.888412017167382,8.627835683629675,2.0,1.736996336996337,575.7064529734289,-5.672629800128196,-1.6392984091836134,7.096439601421829,1336.263736263736,-1.0,62.16657180800607,1.7409295021715039,
2023-08-10 11:00:57.584000,-4.855421686746988,-3.0481927710843375,7.91566265060241,-2.982219497240956,-4.856529736358063,8.566523605150214,2.0,1.736996336996337,575.7064529734289,-5.840568731425907,-1.8683060427713996,7.111706776994349,1328.937728937729,-1.0,62.16657180800607,1.7408947962162482,
2023-08-10 11:00:57.591000,-4.879518072289157,-3.0481927710843375,7.879518072289157,-2.9258123850398525,-4.873697118332311,8.54199877375843,2.0,1.736996336996337,575.7064529734289,-5.6420954489831585,-1.3339548977332316,6.852164792261524,1324.5421245421244,-1.0,62.16657180800607,1.7408601945974573,
2023-08-10 11:00:57.599000,-4.855421686746988,-3.060240963855422,7.891566265060241,-2.984671980380135,-4.827099938687922,8.549356223175964,2.0,1.736996336996337,575.7064529734289,-5.840568731425907,-0.9370083328477354,7.020103723559234,1323.8095238095236,-1.0,62.16657180800607,1.7408256871855332,
2023-08-10 11:00:57.607000,-4.843373493975903,-3.0481927710843375,7.879518072289157,-3.0582464745554874,-4.873697118332311,8.571428571428571,2.0,1.736996336996337,575.7064529734289,-5.61156109783812,-0.9217411572752164,7.157508303711905,1324.5421245421244,-1.0,62.16657180800607,1.740791263767753,
2023-08-10 11:00:57.614000,-4.879518072289157,-3.0481927710843375,7.855421686746988,-2.984671980380135,-4.888412017167382,8.49785407725322,2.0,1.7355311355311358,576.1924862811312,-5.703164151273235,-0.3415884855194912,6.928500670124119,1326.7399267399267,-1.0,62.16657180800607,1.740756914067904,
2023-08-10 11:00:57.622000,-4.891566265060241,-3.060240963855422,7.867469879518072,-2.984671980380135,-4.895769466584917,8.537093807480073,2.0,1.7355311355311358,576.1924862811312,-6.176446594021327,-0.0057106229240714,7.111706776994349,1326.007326007326,-1.0,62.16657180800607,1.7407226277317376,
2023-08-10 11:00:57.630000,-4.9156626506024095,-3.072289156626506,7.879518072289157,-3.050889025137952,-4.898221949724095,8.568976088289393,2.0,1.7355311355311358,576.1924862811312,-6.161179418448807,0.024823728220966765,7.3712487617271725,1319.4139194139193,-1.0,62.16657180800607,1.7406883942084235,
2023-08-10 11:00:57.637000,-4.927710843373494,-3.0843373493975905,7.891566265060241,-3.0459840588595952,-4.89086450030656,8.534641324340894,2.0,1.736996336996337,575.7064529734289,-5.916904609288502,0.2690985373812721,7.600256395314959,1312.8205128205127,-1.0,62.16657180800607,1.7406542027360496,
2023-08-10 11:00:57.645000,-4.9156626506024095,-3.072289156626506,7.855421686746988,-2.9724095646842428,-4.942366646229307,8.519926425505824,2.0,1.7355311355311358,576.1924862811312,-6.405454227609113,0.16222830837363852,7.737660975467631,1306.9597069597069,-1.0,62.16657180800607,1.7406200423961575,
2023-08-10 11:00:57.653000,-4.9397590361445785,-3.0843373493975905,7.855421686746988,-2.94543225015328,-4.90557939914163,8.51011649294911,2.0,1.736996336996337,575.7064529734289,-5.901637433715983,0.009556552648447682,7.75292815104015,1303.2967032967033,-1.0,62.16657180800607,1.740585901779734,
2023-08-10 11:00:57.660000,-4.963855421686747,-3.0843373493975905,7.843373493975904,-3.0165542611894542,-4.9668914776210915,8.475781729000612,2.0,1.736996336996337,575.7064529734289,-6.268049647456441,-0.49426024124468204,8.149874715925645,1300.3663003663003,-1.0,62.16657180800607,1.7405517694625312,
2023-08-10 11:00:57.668000,-4.9397590361445785,-3.060240963855422,7.83132530120482,-2.9993868792152054,-5.006131207847946,8.488044144696504,2.0,1.736996336996337,575.7064529734289,-6.023774838296135,-1.02861138628285,8.043004486918012,1295.970695970696,-1.0,62.16657180800607,1.740517635008331,
2023-08-10 11:00:57.676000,-4.951807228915663,-3.0843373493975905,7.83132530120482,-2.9724095646842428,-4.939914163090129,8.414469650521152,2.0,1.736996336996337,575.7064529734289,-6.191713769593846,-1.395023600023308,8.348347998368393,1290.8424908424909,-1.0,62.16657180800607,1.7404834880071451,
2023-08-10 11:00:57.683000,-4.927710843373494,-3.108433734939759,7.795180722891566,-3.014101778050276,-4.90557939914163,8.490496627835682,2.0,1.736996336996337,575.7064529734289,-6.344385525319036,-1.3339548977332316,7.90559990676534,1284.9816849816848,-1.0,62.16657180800607,1.7404493181341147,
2023-08-10 11:00:57.691000,-4.9397590361445785,-3.108433734939759,7.819277108433735,-2.9724095646842428,-4.89086450030656,8.456161863887186,2.0,1.736996336996337,575.7064529734289,-6.069576365013693,-2.2194510809393386,7.783462502185188,1279.120879120879,-1.0,62.16657180800607,1.7404151151395373,
2023-08-10 11:00:57.699000,-4.927710843373494,-3.108433734939759,7.83132530120482,-3.0410790925812385,-4.930104230533415,8.500306560392398,2.0,1.7355311355311358,576.1924862811312,-6.573393158906822,-2.0362449740691093,7.646057922032516,1274.7252747252746,-1.0,62.16657180800607,1.7403808684512256,
2023-08-10 11:00:57.706000,-4.891566265060241,-3.132530120481928,7.83132530120482,-3.0190067443286326,-4.917841814837523,8.529736358062538,2.0,1.7355311355311358,576.1924862811312,-6.710797739059494,-1.7309014626187278,7.722393799895112,1272.5274725274724,-1.0,62.16657180800607,1.740346567656223,
2023-08-10 11:00:57.714000,-4.903614457831326,-3.1204819277108435,7.879518072289157,-3.0067443286327404,-4.930104230533415,8.485591661557326,2.0,1.736996336996337,575.7064529734289,-6.664996212341937,-2.0362449740691093,7.707126624322592,1269.5970695970695,-1.0,62.16657180800607,1.7403122019283355,
2023-08-10 11:00:57.722000,-4.867469879518072,-3.1566265060240966,7.855421686746988,-3.08522378908645,-4.942366646229307,8.49294911097486,2.0,1.7355311355311358,576.1924862811312,-7.10774430394499,-1.8835732183439187,7.75292815104015,1265.2014652014652,-1.0,62.16657180800607,1.740277761035709,
2023-08-10 11:00:57.729000,-4.903614457831326,-3.144578313253012,7.843373493975904,-3.033721643163703,-4.873697118332311,8.502759043531576,2.0,1.7355311355311358,576.1924862811312,-7.153545830662548,-1.4560923023133843,7.90559990676534,1260.07326007326,-1.0,62.16657180800607,1.740243235365769,
2023-08-10 11:00:57.737000,-4.879518072289157,-3.144578313253012,7.843373493975904,-3.0361741263028814,-4.964438994481912,8.468424279583077,2.0,1.7355311355311358,576.1924862811312,-7.153545830662548,-1.4560923023133843,7.90559990676534,1257.8754578754579,-1.0,62.16657180800607,1.7402086149327385,
2023-08-10 11:00:57.745000,-4.879518072289157,-3.1566265060240966,7.843373493975904,-3.0705088902513795,-4.915389331698345,8.47823421213979,2.0,1.7355311355311358,576.1924862811312,-6.6497290367694175,-1.4713594778859034,8.210943418215722,1254.212454212454,-1.0,62.16657180800607,1.7401738903183772,
2023-08-10 11:00:57.752000,-4.903614457831326,-3.132530120481928,7.807228915662651,-3.0606989576946657,-4.883507050889025,8.502759043531576,2.0,1.7355311355311358,576.1924862811312,-6.939805372647281,-1.2881533710156745,8.25674494493328,1252.7472527472526,-1.0,62.16657180800607,1.740139052171556,
2023-08-10 11:00:57.760000,-4.927710843373494,-3.168674698795181,7.819277108433735,-3.0606989576946657,-4.9448191293684856,8.44880441446965,2.0,1.7355311355311358,576.1924862811312,-7.077209952799953,-0.8912068061301782,8.714760212108851,1252.7472527472526,-1.0,62.16657180800607,1.7401040908114898,
2023-08-10 11:00:57.767000,-4.927710843373494,-3.144578313253012,7.807228915662651,-3.0459840588595952,-4.93746167995095,8.47823421213979,2.0,1.7340659340659341,576.6793409378961,-6.787133616922089,-0.9064739817026973,8.959035021269157,1252.014652014652,-1.0,62.16657180800607,1.7400689967437903,
2023-08-10 11:00:57.775000,-4.903614457831326,-3.1566265060240966,7.783132530120482,-3.072961373390558,-4.964438994481912,8.456161863887186,2.0,1.7355311355311358,576.1924862811312,-7.458889342112929,-0.6469319969698729,9.142241128139386,1251.2820512820513,-1.0,62.16657180800607,1.7400337606486966,
2023-08-10 11:00:57.783000,-4.927710843373494,-3.180722891566265,7.783132530120482,-3.114653586756591,-4.915389331698345,8.389944819129369,2.0,1.7355311355311358,576.1924862811312,-7.474156517685448,-0.35685566109201033,9.523920517452362,1250.5494505494505,-1.0,62.16657180800607,1.7399983737569853,
2023-08-10 11:00:57.790000,-4.963855421686747,-3.180722891566265,7.734939759036145,-3.1072961373390555,-4.925199264255058,8.434089515634579,2.0,1.7355311355311358,576.1924862811312,-7.4130878153953725,-1.02861138628285,9.462851815162287,1251.2820512820513,-1.0,62.16657180800607,1.7399628274505452,
2023-08-10 11:00:57.798000,-4.975903614457832,-3.168674698795181,7.734939759036145,-3.1122011036174126,-4.9816063764561616,8.338442673206622,2.0,1.7355311355311358,576.1924862811312,-7.550492395548044,-0.9217411572752164,9.936134257910378,1252.7472527472526,-1.0,62.16657180800607,1.7399271128967742,
2023-08-10 11:00:57.806000,-4.951807228915663,-3.216867469879518,7.746987951807229,-3.114653586756591,-4.991416309012875,8.389944819129369,2.0,1.7355311355311358,576.1924862811312,-7.840568731425907,-1.1049472641454454,10.07353883806305,1254.212454212454,-1.0,62.16657180800607,1.739891222018852,
2023-08-10 11:00:57.813000,-4.963855421686747,-3.204819277108434,7.734939759036145,-3.1244635193133043,-5.015941140404659,8.380134886572653,2.0,1.7355311355311358,576.1924862811312,-7.733698502418273,-1.8835732183439187,10.272012120505797,1254.9450549450548,-1.0,62.16657180800607,1.7398551469900478,
2023-08-10 11:00:57.821000,-4.975903614457832,-3.180722891566265,7.698795180722892,-3.1195585530349477,-5.015941140404659,8.338442673206622,2.0,1.7355311355311358,576.1924862811312,-7.62682827341064,-2.158382378649262,10.348347998368393,1253.4798534798533,-1.0,62.16657180800607,1.739818879831715,
2023-08-10 11:00:57.829000,-5.0120481927710845,-3.180722891566265,7.662650602409639,-3.139178418148375,-5.018393623543838,8.301655426118945,2.0,1.7355311355311358,576.1924862811312,-7.489423693257968,-2.3568556610920104,10.180409067070684,1249.8168498168498,-1.0,62.16657180800607,1.7397824129241524,
2023-08-10 11:00:57.836000,-5.0120481927710845,-3.168674698795181,7.686746987951808,-3.114653586756591,-5.018393623543838,8.306560392397301,2.0,1.7355311355311358,576.1924862811312,-7.565759571120563,-3.3797564244507887,10.485752578521065,1249.084249084249,-1.0,62.16657180800607,1.7397457390245237,
2023-08-10 11:00:57.844000,-5.024096385542169,-3.168674698795181,7.686746987951808,-3.097486204782342,-4.993868792152053,8.348252605763335,2.0,1.7355311355311358,576.1924862811312,-7.123011479517509,-4.1736495542217815,10.40941670065847,1246.153846153846,-1.0,62.16657180800607,1.7397088517423887,
2023-08-10 11:00:57.852000,-5.0,-3.180722891566265,7.746987951807229,-3.0901287553648067,-5.008583690987124,8.360515021459227,2.0,1.7355311355311358,576.1924862811312,-7.245148884097662,-5.1812831420080405,10.317813647223355,1243.2234432234432,926.849365234375,64.73543841164269,1.7396717450319972,
2023-08-10 11:00:57.859000,-4.9879518072289155,-3.180722891566265,7.795180722891566,-3.0656039239730224,-4.947271612507664,8.443899448191294,2.0,1.7355311355311358,576.1924862811312,-7.260416059670181,-5.8530388671988804,9.997202960200454,1241.7582417582416,-1.0,64.73543841164269,1.7396344127883505,
