Shimmer_F5D4_Timestamp_FormattedUnix_CAL,Shimmer_F5D4_Accel_LN_X_CAL,Shimmer_F5D4_Accel_LN_Y_CAL,Shimmer_F5D4_Accel_LN_Z_CAL,Shimmer_F5D4_Accel_WR_X_CAL,Shimmer_F5D4_Accel_WR_Y_CAL,Shimmer_F5D4_Accel_WR_Z_CAL,Shimmer_F5D4_GSR_Range_CAL,Shimmer_F5D4_GSR_Skin_Conductance_CAL,Shimmer_F5D4_GSR_Skin_Resistance_CAL,Shimmer_F5D4_Gyro_X_CAL,Shimmer_F5D4_Gyro_Y_CAL,Shimmer_F5D4_Gyro_Z_CAL,Shimmer_F5D4_PPG_A13_CAL,Shimmer_F5D4_PPG_IBI_CAL,Shimmer_F5D4_PPGtoHR_CAL,Shimmer_F5D4_GSR_Skin_Conductance_LPF_CAL,Shimmer_F5D4_GSR_Skin_Resistance_LPF_CAL,
yyyy/mm/dd hh:mm:ss.000,m/(s^2),m/(s^2),m/(s^2),m/(s^2),m/(s^2),m/(s^2),no_units,uS,kOhms,deg/s,deg/s,deg/s,mV,ms,BPM,uS,kOhms,
2023-12-18 15:33:17.084000,-8.132530120481928,-4.759036144578314,-2.5903614457831328,-4.772532188841201,-7.993255671367259,-2.160637645616186,2.0,2.8857142857142857,346.53465346534654,-14.7156925587087,-6.810675368568264,-5.37206456500204,1500.3663003663003,-1.0,110.32377532125021,2.8919488786066374,345.78768381557455,
2023-12-18 15:33:17.092000,-8.120481927710843,-4.72289156626506,-2.5903614457831328,-4.792152053954629,-7.998160637645616,-2.1851624770079705,2.0,2.8857142857142857,346.53465346534654,-14.776761260998775,-6.413728803682767,-5.631606549734864,1465.9340659340658,-1.0,110.32377532125021,2.8918981866645583,345.7937457327428,
2023-12-18 15:33:17.099000,-8.156626506024097,-4.759036144578314,-2.626506024096386,-4.831391784181483,-8.027590435315757,-2.153280196198651,2.0,2.8857142857142857,346.53465346534654,-14.654623856418624,-6.780141017423226,-6.013285939047841,1433.6996336996335,-1.0,110.32377532125021,2.891847342977887,345.79982601830613,
2023-12-18 15:33:17.107000,-8.144578313253012,-4.72289156626506,-2.63855421686747,-4.748007357449417,-7.9736358062538315,-2.1949724095646843,2.0,2.8857142857142857,346.53465346534654,-14.547753627410989,-6.932812773148417,-6.425499679505856,1406.5934065934066,-1.0,110.32377532125021,2.891796345574519,345.805924908482,
2023-12-18 15:33:17.115000,-8.180722891566266,-4.710843373493976,-2.6506024096385543,-4.593500919681177,-8.076640098099325,-2.27835683629675,2.0,2.8857142857142857,346.53465346534654,-14.410349047258318,-8.001515063224753,-6.837713419963872,1384.6153846153845,-1.0,110.32377532125021,2.891745192367245,345.81204265305195,
2023-12-18 15:33:17.122000,-8.19277108433735,-4.746987951807229,-2.674698795180723,-4.8779889638258735,-8.032495401594113,-2.1851624770079705,2.0,2.8857142857142857,346.53465346534654,-15.066837596876638,-8.642736437270553,-6.7003088398112,1364.8351648351647,-1.0,110.32377532125021,2.8916938812301596,345.8181795062524,
2023-12-18 15:33:17.130000,-8.132530120481928,-4.746987951807229,-2.674698795180723,-4.797057020232986,-8.034947884733292,-2.1729000613120784,2.0,2.8857142857142857,346.53465346534654,-14.837829963288852,-8.948079948720935,-6.715576015383719,1349.4505494505493,-1.0,110.32377532125021,2.891642410493497,345.82433566780173,
2023-12-18 15:33:17.138000,-8.216867469879519,-4.674698795180723,-2.6506024096385543,-4.571428571428571,-8.0226854690374,-2.2685469037400368,2.0,2.8857142857142857,346.53465346534654,-14.013402482372822,-10.123652467804904,-6.3949653283608185,1339.9267399267399,-1.0,110.32377532125021,2.8915907789438116,345.8305112828769,
2023-12-18 15:33:17.145000,-8.228915662650603,-4.698795180722891,-2.6506024096385543,-4.730839975475169,-8.096259963212752,-2.199877375843041,2.0,2.8857142857142857,346.53465346534654,-15.250043703746867,-9.86411048307208,-6.440766855078375,1332.6007326007325,-1.0,110.32377532125021,2.8915389862801693,345.83670638774674,
2023-12-18 15:33:17.153000,-8.19277108433735,-4.698795180722891,-2.662650602409639,-4.605763335377069,-8.012875536480687,-2.280809319435929,2.0,2.8857142857142857,346.53465346534654,-14.501952100693432,-10.474797505972845,-5.891148534467688,1332.6007326007325,-1.0,110.32377532125021,2.891487032585552,345.8429209727692,
2023-12-18 15:33:17.160000,-8.228915662650603,-4.626506024096386,-2.674698795180723,-4.659717964438994,-8.03740036787247,-2.21704475781729,2.0,2.8857142857142857,346.53465346534654,-15.082104772449158,-10.36792727696521,-5.555270671872269,1334.7985347985348,-1.0,110.32377532125021,2.891434918358482,345.849154978623,
2023-12-18 15:33:17.168000,-8.19277108433735,-4.602409638554217,-2.662650602409639,-4.497854077253218,-8.010423053341508,-2.27835683629675,2.0,2.8857142857142857,346.53465346534654,-14.685158207563662,-9.803041780782005,-4.440766855078375,1339.9267399267399,-1.0,110.32377532125021,2.891382644473249,345.85540830105174,
2023-12-18 15:33:17.176000,-8.156626506024097,-4.542168674698796,-2.6867469879518073,-4.62047823421214,-8.017780502759043,-2.2366646229307174,2.0,2.8857142857142857,346.53465346534654,-15.051570421304119,-8.53586620826292,-3.6926752520249404,1347.2527472527472,-1.0,110.32377532125021,2.891330211750059,345.86168084209396,
2023-12-18 15:33:17.183000,-8.108433734939759,-4.433734939759036,-2.674698795180723,-4.463519313304721,-7.9809932556713665,-2.180257510729614,2.0,2.8857142857142857,346.53465346534654,-14.792028436571295,-7.20762193345376,-4.715576015383719,1358.2417582417581,-1.0,110.32377532125021,2.891277621894911,345.8679723980742,
2023-12-18 15:33:17.191000,-8.060240963855422,-4.734939759036145,-2.710843373493976,-4.797057020232986,-7.919681177191906,-2.280809319435929,2.0,2.8857142857142857,346.53465346534654,-14.486684925120914,-5.100751704446126,-5.249927160421887,1370.6959706959706,-1.0,110.32377532125021,2.891224876962701,345.8742827235941,
2023-12-18 15:33:17.199000,-7.987951807228916,-4.686746987951808,-2.662650602409639,-4.5665236051502145,-7.851011649294911,-2.2342121397915387,2.0,2.8857142857142857,346.53465346534654,-14.471417749548394,-4.581667734980478,-3.830079832177612,1386.8131868131868,-1.0,110.32377532125021,2.891171979381213,345.8806115286755,
2023-12-18 15:33:17.206000,-7.975903614457832,-4.795180722891566,-2.674698795180723,-4.792152053954629,-7.848559166155733,-2.2440220723482525,2.0,2.8857142857142857,346.53465346534654,-14.471417749548394,-3.4976982693316225,-3.219392809276849,1405.8608058608058,-1.0,110.32377532125021,2.8911189323623296,345.88695842976,
2023-12-18 15:33:17.214000,-7.951807228915663,-4.795180722891566,-2.710843373493976,-4.860821581851624,-7.794604537093807,-2.3126916002452482,2.0,2.8857142857142857,346.53465346534654,-15.143173474739234,-1.2228891090262792,-4.578171435231047,1426.3736263736262,-1.0,110.32377532125021,2.8910657393987775,345.89332300968715,
2023-12-18 15:33:17.222000,-7.927710843373494,-4.795180722891566,-2.7590361445783134,-4.767627222562845,-7.75781729000613,-2.342121397915389,2.0,2.884249084249084,346.71069342138685,-15.402715459472057,-0.06258376551482894,-4.837713419963872,1444.6886446886447,-1.0,110.32377532125021,2.891012404252433,345.8997048190965,
2023-12-18 15:33:17.229000,-7.9397590361445785,-4.795180722891566,-2.7951807228915664,-4.833844267320662,-7.728387492335989,-2.3347639484978537,2.0,2.8857142857142857,346.53465346534654,-15.70805897092244,0.2732940970805909,-5.051453877979139,1459.3406593406592,-1.0,110.32377532125021,2.8909589304489702,345.9061034371337,
2023-12-18 15:33:17.237000,-7.963855421686747,-4.807228915662651,-2.879518072289157,-4.890251379521765,-7.794604537093807,-2.4451256897608826,2.0,2.884249084249084,346.71069342138685,-16.18134141367053,0.36489715051570537,-5.830079832177612,1469.5970695970695,-1.0,110.32377532125021,2.890905321684862,345.91251842254354,
2023-12-18 15:33:17.245000,-8.120481927710843,-4.807228915662651,-2.927710843373494,-4.860821581851624,-8.000613120784795,-2.4451256897608826,2.0,2.884249084249084,346.71069342138685,-16.425616222830836,-0.7648738418507067,-6.578171435231047,1478.3882783882782,536.19384765625,111.89982925441093,2.8908515823029863,345.9189492569072,
2023-12-18 15:33:17.252000,-8.228915662650603,-4.83132530120482,-2.91566265060241,-4.912323727774371,-8.03740036787247,-2.459840588595953,2.0,2.8857142857142857,346.53465346534654,-16.24241011596061,-3.4366295670415465,-7.478934794009673,1484.2490842490843,-1.0,111.89982925441093,2.890797716680153,345.9253954181623,
2023-12-18 15:33:17.260000,-8.240963855421688,-4.83132530120482,-2.951807228915663,-4.83629675045984,-8.0226854690374,-2.4966278356836296,2.0,2.8857142857142857,346.53465346534654,-16.3950818716858,-5.8793776586446,-8.349163801643261,1489.3772893772893,-1.0,111.89982925441093,2.890743729210437,345.93185638179125,
2023-12-18 15:33:17.268000,-8.25301204819277,-4.795180722891566,-2.9397590361445785,-4.83629675045984,-8.071735131820969,-2.440220723482526,2.0,2.8857142857142857,346.53465346534654,-16.86836431443389,-8.352660101392692,-8.562904259658527,1495.970695970696,-1.0,111.89982925441093,2.8906896244266354,345.9383316062777,
2023-12-18 15:33:17.275000,-8.409638554216867,-4.614457831325302,-2.8674698795180724,-4.6106683016554255,-8.319435928877988,-2.4377682403433476,2.0,2.8857142857142857,346.53465346534654,-17.143173474739235,-12.642736437270553,-8.303362274925703,1502.5641025641025,-1.0,111.89982925441093,2.890635407017258,345.94482053147294,
2023-12-18 15:33:17.283000,-8.373493975903616,-4.879518072289157,-2.8313253012048194,-4.983445738810546,-8.14530962599632,-2.376456161863887,2.0,2.8857142857142857,346.53465346534654,-17.72332614649496,-15.406095215896508,-8.654507313093642,1506.227106227106,-1.0,111.89982925441093,2.8905810818090933,345.95132258067684,
2023-12-18 15:33:17.291000,-8.433734939759036,-4.759036144578314,-2.807228915662651,-4.718577559779276,-8.33169834457388,-2.4058859595340283,2.0,2.884249084249084,346.71069342138685,-18.37981469611328,-17.741973078491927,-7.204125633704329,1512.8205128205127,-1.0,111.89982925441093,2.890526653750359,345.957837162651,
2023-12-18 15:33:17.298000,-8.337349397590362,-4.795180722891566,-2.771084337349398,-4.863274064990803,-8.213979153893316,-2.347026364193746,2.0,2.884249084249084,346.71069342138685,-18.730959734281218,-18.596934910552996,-6.593438610803567,1517.216117216117,-1.0,111.89982925441093,2.890472127401984,345.96436373272707,
2023-12-18 15:33:17.306000,-8.3855421686747,-4.771084337349397,-2.7590361445783134,-4.811771919068057,-8.191906805640711,-2.2685469037400368,2.0,2.884249084249084,346.71069342138685,-18.730959734281218,-18.596934910552996,-6.593438610803567,1521.6117216117216,-1.0,111.89982925441093,2.890417506850309,345.9709018032828,
2023-12-18 15:33:17.314000,-8.337349397590362,-4.674698795180723,-2.710843373493976,-4.62047823421214,-8.238503985285101,-2.2244022072348253,2.0,2.8857142857142857,346.53465346534654,-19.17370782588427,-19.925179185362158,-5.585805023017307,1522.3443223443223,-1.0,111.89982925441093,2.890362796145451,345.97745089106235,
2023-12-18 15:33:17.321000,-8.313253012048193,-4.746987951807229,-2.6144578313253013,-4.787247087676272,-8.101164929491109,-2.0968730839975476,2.0,2.884249084249084,346.71069342138685,-19.40271545947206,-20.932812773148417,-4.746110366528757,1520.8791208791208,-1.0,111.89982925441093,2.8903079997751595,345.98401046023065,
2023-12-18 15:33:17.329000,-8.361445783132531,-4.746987951807229,-2.566265060240964,-4.772532188841201,-8.236051502145923,-2.0797057020232983,2.0,2.884249084249084,346.71069342138685,-19.70805897092244,-19.711438727346888,-4.7003088398112,1516.4835164835163,-1.0,111.89982925441093,2.8902531222264174,345.99057997503576,
2023-12-18 15:33:17.337000,-8.337349397590362,-4.662650602409639,-2.4939759036144578,-4.828939301042305,-8.08399754751686,-2.099325567136726,2.0,2.884249084249084,346.71069342138685,-19.280578054891905,-20.04731658994231,-3.784278305460055,1512.087912087912,-1.0,111.89982925441093,2.890198167444087,345.9971589648388,
2023-12-18 15:33:17.344000,-8.19277108433735,-4.807228915662651,-2.4457831325301207,-4.762722256284488,-8.042305334150827,-1.9448191293684856,2.0,2.884249084249084,346.71069342138685,-20.150807062525494,-19.680904376201852,-4.104888992482956,1504.0293040293038,-1.0,111.89982925441093,2.890143139731644,346.0037469162723,
2023-12-18 15:33:17.352000,-8.265060240963855,-4.216867469879518,-2.36144578313253,-4.085836909871245,-8.14530962599632,-1.9374616799509503,2.0,2.884249084249084,346.71069342138685,-19.479051337334653,-20.612202086125514,-3.662140900879902,1496.7032967032967,-1.0,111.89982925441093,2.890088043212415,346.0103433375149,
2023-12-18 15:33:17.360000,-8.337349397590362,-4.795180722891566,-2.397590361445783,-4.998160637645616,-8.182096873083998,-1.8908645003065603,2.0,2.884249084249084,346.71069342138685,-16.349280344968243,-18.612202086125514,-4.914049297826467,1484.9816849816848,-1.0,111.89982925441093,2.8900328818541783,346.01694775535725,
2023-12-18 15:33:17.367000,-8.361445783132531,-4.674698795180723,-2.3493975903614457,-4.686695278969957,-8.05211526670754,-1.942366646229307,2.0,2.884249084249084,346.71069342138685,-19.265310879319387,-17.299224986888873,-6.349163801643261,1468.8644688644688,-1.0,111.89982925441093,2.8899776598834475,346.02355966577943,
2023-12-18 15:33:17.375000,-8.25301204819277,-4.807228915662651,-2.397590361445783,-4.954015941140405,-8.03740036787247,-1.9276517473942365,2.0,2.884249084249084,346.71069342138685,-18.669891031991142,-17.31449216246139,-6.089621816910436,1449.084249084249,-1.0,111.89982925441093,2.889922381287712,346.0301785933321,
2023-12-18 15:33:17.383000,-8.204819277108435,-4.614457831325302,-2.397590361445783,-4.451256897608829,-8.091354996934395,-1.858982219497241,2.0,2.884249084249084,346.71069342138685,-17.21950935260183,-17.100751704446125,-6.36443097721578,1430.03663003663,-1.0,111.89982925441093,2.8898670493536978,346.0368041462194,
2023-12-18 15:33:17.390000,-8.289156626506024,-4.337349397590362,-2.168674698795181,-4.338442673206622,-8.010423053341508,-1.9693439607602696,2.0,2.8827838827838828,346.8869123252859,-12.929433016723967,-18.428995979255287,-3.601072198589826,1409.5238095238094,-1.0,111.89982925441093,2.8898116667320948,346.0434360085759,
2023-12-18 15:33:17.398000,-8.204819277108435,-5.0361445783132535,-2.5542168674698797,-5.167381974248927,-8.093807480073574,-2.1017780502759043,2.0,2.8827838827838828,346.8869123252859,-18.608822329701066,-11.72670590291941,-8.074354641337917,1394.8717948717947,-1.0,111.89982925441093,2.8897562358900197,346.0500738869647,
2023-12-18 15:33:17.406000,-8.228915662650603,-4.746987951807229,-2.4698795180722892,-4.637645616186388,-8.157572041692212,-1.8982219497240955,2.0,2.8827838827838828,346.8869123252859,-17.90653225336519,-11.86411048307208,-6.547637084086009,1380.952380952381,-1.0,111.89982925441093,2.8897007589683446,346.0567175274635,
2023-12-18 15:33:17.413000,-8.204819277108435,-4.759036144578314,-2.4096385542168677,-4.801961986511342,-8.074187614960147,-1.908031882280809,2.0,2.884249084249084,346.71069342138685,-16.959967367869005,-11.589301322766737,-4.120156168055475,1369.9633699633698,-1.0,111.89982925441093,2.8896452377446162,346.06336671964465,
2023-12-18 15:33:17.421000,-8.096385542168676,-4.903614457831326,-2.566265060240964,-4.77498467198038,-8.049662783568362,-2.106683016554261,2.0,2.884249084249084,346.71069342138685,-15.311112406036944,-7.222889109026279,-4.791911893246314,1361.904761904762,-1.0,111.89982925441093,2.8895896741244993,346.07002123746975,
2023-12-18 15:33:17.429000,-8.301204819277109,-4.253012048192772,-2.3373493975903616,-4.1814837522992025,-8.047210300429184,-2.0159411404046597,2.0,2.884249084249084,346.71069342138685,-13.250043703746867,-6.001515063224752,-2.349163801643261,1358.2417582417581,-1.0,111.89982925441093,2.8895340702138466,346.076680830621,
2023-12-18 15:33:17.436000,-8.301204819277109,-4.578313253012048,-2.4216867469879517,-4.654812998160637,-8.152667075413856,-2.038013488657265,2.0,2.884249084249084,346.71069342138685,-19.112639123594196,-4.917545597575898,-3.921682885612727,1360.4395604395604,-1.0,111.89982925441093,2.8894784278674526,346.08334527877196,
2023-12-18 15:33:17.444000,-8.27710843373494,-4.590361445783133,-2.5783132530120483,-4.5297363580625385,-8.123237277743716,-2.1213979153893314,2.0,2.884249084249084,346.71069342138685,-18.349280344968243,-3.680904376201852,-3.631606549734864,1367.7655677655678,-1.0,111.89982925441093,2.889422748697562,346.09001439056766,
2023-12-18 15:33:17.452000,-8.19277108433735,-4.72289156626506,-2.710843373493976,-4.865726548129981,-8.076640098099325,-2.1753525444512567,2.0,2.8827838827838828,346.8869123252859,-17.20424217702931,-3.8641104830720807,-3.7690111298875357,1386.8131868131868,-1.0,111.89982925441093,2.8893670340842466,346.0966880023774,
2023-12-18 15:33:17.459000,-8.265060240963855,-4.63855421686747,-2.662650602409639,-4.591048436541999,-8.11587982832618,-2.2244022072348253,2.0,2.8827838827838828,346.8869123252859,-12.486684925120914,-3.0549501777285695,-2.3949653283608185,1416.8498168498168,-1.0,111.89982925441093,2.889311284695053,346.1033660360705,
2023-12-18 15:33:17.467000,-8.301204819277109,-4.240963855421687,-2.4096385542168677,-4.338442673206622,-8.120784794604537,-1.988963825873697,2.0,2.884249084249084,346.71069342138685,-16.089738360235415,-6.016782238797272,-3.1583241069867727,1460.07326007326,-1.0,111.89982925441093,2.8892555004270415,346.11004850599045,
2023-12-18 15:33:17.475000,-8.240963855421688,-4.566265060240964,-2.5301204819277108,-4.561618638871858,-8.074187614960147,-2.1140404659717964,2.0,2.8827838827838828,346.8869123252859,-17.509585688479692,-4.1694539945224625,-5.03618670240662,1509.1575091575091,-1.0,111.89982925441093,2.889199681367911,346.1167354033651,
2023-12-18 15:33:17.482000,-8.25301204819277,-4.542168674698796,-2.6506024096385543,-4.463519313304721,-8.123237277743716,-2.21704475781729,2.0,2.884249084249084,346.71069342138685,-16.74622690985374,-3.848843307499562,-4.822446244391353,1559.7069597069597,-1.0,111.89982925441093,2.8891438273873984,346.12342674545386,
2023-12-18 15:33:17.490000,-8.301204819277109,-4.506024096385542,-2.63855421686747,-4.5738810545677495,-8.17964438994482,-2.1753525444512567,2.0,2.8827838827838828,346.8869123252859,-16.914165841151448,-5.390828040323989,-4.669774488666162,1608.058608058608,-1.0,111.89982925441093,2.8890879381186383,346.13012257779627,
2023-12-18 15:33:17.498000,-8.132530120481928,-4.891566265060241,-2.7951807228915664,-5.206621704475782,-7.909871244635193,-2.0968730839975476,2.0,2.8827838827838828,346.8869123252859,-16.36454752054076,-5.772507429636966,-5.219392809276849,1650.5494505494505,-1.0,111.89982925441093,2.8890320130106235,346.1368229679084,
2023-12-18 15:33:17.505000,-8.409638554216867,-4.325301204819278,-2.602409638554217,-4.026977314530963,-8.228694052728388,-2.1925199264255055,2.0,2.8827838827838828,346.8869123252859,-12.36454752054076,-6.352660101392691,-3.830079832177612,1686.4468864468863,-1.0,111.89982925441093,2.8889760508200335,346.1435280664087,
2023-12-18 15:33:17.513000,-8.349397590361447,-4.46987951807229,-2.5060240963855422,-4.6106683016554255,-8.14530962599632,-2.038013488657265,2.0,2.8827838827838828,346.8869123252859,-17.692791795349923,-7.360293689178951,-5.585805023017307,1713.5531135531135,-1.0,111.89982925441093,2.888920050087271,346.15023804977204,
2023-12-18 15:33:17.521000,-8.27710843373494,-4.590361445783133,-2.626506024096386,-4.605763335377069,-8.155119558553034,-2.180257510729614,2.0,2.8827838827838828,346.8869123252859,-16.68515820756366,-5.894644834217119,-5.494201969582193,1732.6007326007325,-1.0,111.89982925441093,2.8888640096136387,346.1569530633385,
2023-12-18 15:33:17.528000,-8.325301204819278,-4.493975903614458,-2.698795180722892,-4.451256897608829,-8.155119558553034,-2.2440220723482525,2.0,2.8827838827838828,346.8869123252859,-16.7156925587087,-6.6122020861255155,-5.03618670240662,1744.3223443223442,-1.0,111.89982925441093,2.888807928414528,346.16367322689507,
2023-12-18 15:33:17.536000,-8.289156626506024,-4.807228915662651,-2.807228915662651,-5.06928264868179,-8.081545064377682,-2.2955242182709994,2.0,2.884249084249084,346.71069342138685,-15.998135306800302,-7.20762193345376,-4.86824777110891,1747.2527472527472,-1.0,111.89982925441093,2.8887518047946656,346.17039874510056,
2023-12-18 15:33:17.543000,-8.457831325301205,-4.433734939759036,-2.662650602409639,-4.255058246474555,-8.417535254445125,-2.300429184549356,2.0,2.8827838827838828,346.8869123252859,-12.257677291533128,-6.505331857117882,-3.051453877979139,1740.6593406593406,-1.0,111.89982925441093,2.888695636934196,346.1771298370669,
2023-12-18 15:33:17.551000,-8.578313253012048,-4.289156626506024,-2.5301204819277108,-4.517473942366646,-8.412630288166769,-2.069895769466585,2.0,2.8827838827838828,346.8869123252859,-17.509585688479692,-8.5205990326904,-4.059087465765399,1724.5421245421244,-1.0,111.89982925441093,2.888639423440884,346.18386667076476,
2023-12-18 15:33:17.559000,-8.542168674698795,-4.590361445783133,-2.6144578313253013,-4.613120784794604,-8.366033108522378,-2.180257510729614,2.0,2.8827838827838828,346.8869123252859,-16.730959734281218,-7.360293689178951,-3.9064157100402075,1701.8315018315018,-1.0,111.89982925441093,2.8885831627814267,346.1906094313726,
2023-12-18 15:33:17.566000,-8.542168674698795,-4.421686746987952,-2.6506024096385543,-4.362967504598406,-8.41017780502759,-2.1704475781729,2.0,2.8827838827838828,346.8869123252859,-16.227142940388088,-7.848843307499561,-3.280461511566925,1670.3296703296703,-1.0,111.89982925441093,2.8885268532754247,346.1973583215949,
2023-12-18 15:33:17.574000,-8.481927710843374,-4.783132530120482,-2.6867469879518073,-4.748007357449417,-8.459227467811159,-2.229307173513182,2.0,2.8827838827838828,346.8869123252859,-12.105005535807937,-7.222889109026279,-2.883514946681429,1633.6996336996335,-1.0,111.89982925441093,2.8884704931242533,346.20411355820494,
2023-12-18 15:33:17.582000,-8.590361445783133,-4.289156626506024,-2.4216867469879517,-4.2182709993868786,-8.579399141630901,-1.9816063764561618,2.0,2.8827838827838828,346.8869123252859,-12.105005535807937,-7.222889109026279,-2.883514946681429,1596.3369963369962,-1.0,111.89982925441093,2.8884140804399343,346.2108753685841,
2023-12-18 15:33:17.589000,-8.542168674698795,-4.578313253012048,-2.397590361445783,-4.676885346413243,-8.343960760269773,-1.9325567136725934,2.0,2.8827838827838828,346.8869123252859,-16.89889866557893,-9.69617155177437,-1.6774080764524215,1558.2417582417581,-1.0,111.89982925441093,2.8883576132739535,346.2176439872701,
2023-12-18 15:33:17.597000,-8.457831325301205,-4.493975903614458,-2.4578313253012047,-4.306560392397302,-8.27038626609442,-1.9717964438994482,2.0,2.8827838827838828,346.8869123252859,-16.776761260998775,-9.635102849484294,-1.6774080764524215,1518.6813186813185,-1.0,111.89982925441093,2.88830108964594,346.2244196525195,
2023-12-18 15:33:17.605000,-8.3855421686747,-4.83132530120482,-2.6144578313253013,-5.012875536480687,-8.206621704475781,-2.0331085223789085,2.0,2.8827838827838828,346.8869123252859,-16.303478818250685,-9.574034147194219,-1.6926752520249406,1480.5860805860805,-1.0,111.89982925441093,2.888244507572155,346.2312026028925,
2023-12-18 15:33:17.612000,-8.518072289156628,-4.445783132530121,-2.433734939759036,-4.242795830778663,-8.39546290619252,-2.1042305334150826,2.0,2.8827838827838828,346.8869123252859,-12.21187576481557,-7.8793776586446,-0.9598508245440246,1442.4908424908424,-1.0,111.89982925441093,2.8881878646358436,346.23799312855016,
2023-12-18 15:33:17.620000,-8.481927710843374,-4.216867469879518,-2.216867469879518,-4.389944819129369,-8.228694052728388,-1.7461679950950337,2.0,2.881318681318681,347.06331045003816,-11.845463551075111,-11.299224986888873,0.9332789464483418,1407.3260073260071,-1.0,111.89982925441093,2.8881311580823916,346.24479155987683,
2023-12-18 15:33:17.628000,-8.46987951807229,-4.337349397590362,-2.3012048192771086,-4.277130594727161,-8.228694052728388,-1.8786020846106681,2.0,2.8827838827838828,346.8869123252859,-16.70042538313618,-9.085484528873607,-1.1125225802692154,1376.5567765567764,-1.0,111.89982925441093,2.8880743853004205,346.251598210495,
2023-12-18 15:33:17.635000,-8.530120481927712,-4.481927710843374,-2.4939759036144578,-4.605763335377069,-8.42489270386266,-2.03065603923973,2.0,2.8827838827838828,346.8869123252859,-14.36454752054076,-6.444263154827806,-3.5552706718722686,1346.5201465201465,-1.0,111.89982925441093,2.8880175441984686,346.2584133318603,
2023-12-18 15:33:17.643000,-8.361445783132531,-5.0843373493975905,-2.771084337349398,-5.547516860821582,-8.140404659717964,-1.9791538933169834,2.0,2.8827838827838828,346.8869123252859,-13.952333780082744,-5.100751704446126,-2.9598508245440245,1320.14652014652,-1.0,111.89982925441093,2.887960633264722,346.26523710560576,
2023-12-18 15:33:17.651000,-8.493975903614459,-4.337349397590362,-2.5542168674698797,-4.034334763948498,-8.383200490496627,-2.1017780502759043,2.0,2.8827838827838828,346.8869123252859,-5.524852864052211,-3.772507429636966,-1.3873317405745589,1295.2380952380952,-1.0,111.89982925441093,2.88790365113588,346.2720696954575,
2023-12-18 15:33:17.658000,-8.74698795180723,-3.8313253012048194,-2.180722891566265,-3.865113427345187,-8.407725321888412,-1.7633353770692826,2.0,2.8827838827838828,346.8869123252859,-6.792028436571295,-5.970980712079714,1.0401491754559753,1277.6556776556777,-1.0,111.89982925441093,2.8878465966233517,346.2789112440963,
2023-12-18 15:33:17.666000,-8.55421686746988,-4.493975903614458,-2.3012048192771086,-4.6400980993255665,-8.419987737584304,-1.9055793991416308,2.0,2.881318681318681,347.06331045003816,-11.479051337334655,-2.7496066662781877,-3.8911485344676886,1263.003663003663,-1.0,111.89982925441093,2.8877894687387875,346.28576187009315,
2023-12-18 15:33:17.674000,-8.590361445783133,-4.710843373493976,-2.4096385542168677,-4.706315144083384,-8.569589209074188,-1.9742489270386265,2.0,2.8827838827838828,346.8869123252859,-10.135539886952975,-1.4518967426140654,-4.639240137521123,1252.7472527472526,-1.0,111.89982925441093,2.887732266226286,346.29262172423813,
2023-12-18 15:33:17.681000,-8.518072289156628,-4.662650602409639,-2.4819277108433737,-4.647455548743102,-8.361128142244022,-1.9055793991416308,2.0,2.8827838827838828,346.8869123252859,-8.807295612143815,-4.566400559407959,-1.6316065497348642,1245.4212454212454,-1.0,111.89982925441093,2.8876749875491683,346.2994909906997,
2023-12-18 15:33:17.689000,-8.602409638554217,-4.36144578313253,-2.289156626506024,-4.117719190680564,-8.493562231759656,-1.8638871857755976,2.0,2.8827838827838828,346.8869123252859,-3.814929199930074,-6.032049414369791,0.09358428995979219,1243.2234432234432,-1.0,111.89982925441093,2.8876176319629976,346.30636975836046,
2023-12-18 15:33:17.697000,-8.590361445783133,-4.1084337349397595,-2.072289156626506,-4.127529123237277,-8.432250153280195,-1.6284488044144696,2.0,2.881318681318681,347.06331045003816,-6.074471184662898,-9.665637200629332,0.1699201678223876,1246.153846153846,-1.0,111.89982925441093,2.887560199500816,346.313258023013,
2023-12-18 15:33:17.704000,-8.530120481927712,-4.349397590361446,-2.2289156626506026,-4.399754751686082,-8.405272838749234,-1.7755977927651747,2.0,2.881318681318681,347.06331045003816,-8.36454752054076,-7.299224986888874,-0.7003088398112002,1252.7472527472526,-1.0,111.89982925441093,2.8875026904675223,346.32015574815324,
2023-12-18 15:33:17.712000,-8.46987951807229,-4.337349397590362,-2.36144578313253,-4.40220723482526,-8.250766400980993,-1.888412017167382,2.0,2.8827838827838828,346.8869123252859,-6.929433016723967,-7.222889109026279,-0.2880950993531849,1263.003663003663,-1.0,111.89982925441093,2.8874451048635557,346.3270629339217,
2023-12-18 15:33:17.720000,-8.289156626506024,-4.313253012048193,-2.4216867469879517,-4.282035561005518,-8.174739423666463,-1.8933169834457386,2.0,2.881318681318681,347.06331045003816,-5.295845230464425,-7.116018880018645,0.06304993881475403,1272.5274725274724,-1.0,111.89982925441093,2.8873874433867663,346.3339794965269,
2023-12-18 15:33:17.727000,-8.289156626506024,-4.0843373493975905,-2.313253012048193,-4.019619865113427,-8.147762109135499,-1.8516247700797055,2.0,2.881318681318681,347.06331045003816,-3.1584406503117535,-5.2839578113163554,0.9180117708758226,1285.7142857142856,-1.0,111.89982925441093,2.8873297069918995,346.340905321257,
2023-12-18 15:33:17.735000,-8.180722891566266,-4.096385542168675,-2.313253012048193,-4.122624156958921,-7.97608828939301,-1.858982219497241,2.0,2.8827838827838828,346.8869123252859,-3.7538604976399976,-1.6045684983392563,1.2538896334712426,1302.5641025641025,-1.0,111.89982925441093,2.887271895955894,346.3478403746552,
2023-12-18 15:33:17.743000,-8.072289156626507,-4.120481927710844,-2.4819277108433737,-4.06131207847946,-7.924586143470263,-2.011036174126303,2.0,2.881318681318681,347.06331045003816,-2.1355398869529747,3.525202494027156,2.139385816677349,1319.4139194139193,-1.0,111.89982925441093,2.887214011330488,346.3547845300616,
2023-12-18 15:33:17.750000,-8.048192771084338,-3.771084337349398,-2.4457831325301207,-3.6713672593500917,-7.811771919068056,-2.0232985898221947,2.0,2.881318681318681,347.06331045003816,-1.1889750014567917,6.960316997843949,2.0172484120971967,1334.7985347985348,-1.0,111.89982925441093,2.887156054529657,346.3617376172855,
2023-12-18 15:33:17.758000,-8.036144578313253,-3.9036144578313254,-2.4578313253012047,-4.036787247087676,-7.868179031269159,-1.993868792152054,2.0,2.881318681318681,347.06331045003816,-3.066837596876639,11.983217761202727,0.29205757240254027,1344.3223443223442,-1.0,111.89982925441093,2.8870980268115827,346.3686994849734,
2023-12-18 15:33:17.766000,-8.096385542168676,-4.132530120481928,-2.63855421686747,-4.110361741263029,-8.003065603923973,-2.182709993868792,2.0,2.881318681318681,347.06331045003816,-1.8912650777926694,15.861080356622574,0.15465299224986853,1353.8461538461538,-1.0,111.89982925441093,2.887039929742202,346.37566994480204,
2023-12-18 15:33:17.773000,-8.168674698795181,-4.072289156626506,-2.710843373493976,-4.002452483139178,-8.054567749846719,-2.2955242182709994,2.0,2.881318681318681,347.06331045003816,-1.1279062991667153,16.77711089097372,0.9027445953033036,1360.4395604395604,-1.0,111.89982925441093,2.886981765199514,346.3826487709628,
2023-12-18 15:33:17.781000,-8.19277108433735,-4.46987951807229,-2.91566265060241,-4.524831391784181,-8.133047210300429,-2.37155119558553,2.0,2.881318681318681,347.06331045003816,1.4980478993065671,17.43359944059204,0.6890041372880364,1364.102564102564,536.19384765625,111.89982925441093,2.8869235353765363,346.3896356998034,
2023-12-18 15:33:17.789000,-8.44578313253012,-3.7108433734939763,-2.6867469879518073,-3.4580012262415694,-8.177191906805641,-2.410790925812385,2.0,2.881318681318681,347.06331045003816,3.3606433191538954,13.372530738301965,1.0554163510284944,1367.032967032967,-1.0,111.89982925441093,2.8868652432408775,346.3966303748891,
2023-12-18 15:33:17.796000,-8.433734939759036,-4.0361445783132535,-2.734939759036145,-4.149601471489883,-8.24095646842428,-2.2317596566523603,2.0,2.881318681318681,347.06331045003816,0.1392692733523686,12.227492570363033,-1.1125225802692154,1365.5677655677655,-1.0,111.89982925441093,2.8868068920101178,346.4036324097155,
2023-12-18 15:33:17.804000,-8.457831325301205,-4.144578313253012,-2.891566265060241,-4.161863887185775,-8.373390557939913,-2.452483139178418,2.0,2.881318681318681,347.06331045003816,1.0094982809859563,10.975584173416468,-1.1735912825592918,1364.102564102564,-1.0,111.89982925441093,2.886748484730029,346.41064143812525,
2023-12-18 15:33:17.812000,-8.518072289156628,-4.132530120481928,-2.9759036144578315,-4.183936235438381,-8.361128142244022,-2.491722869405273,2.0,2.881318681318681,347.06331045003816,0.9636967542683991,7.891614707767613,-0.7003088398112002,1364.8351648351647,-1.0,111.89982925441093,2.8866900247648917,346.4176570556954,
2023-12-18 15:33:17.819000,-8.55421686746988,-4.144578313253012,-3.0,-4.083384426732066,-8.37829552421827,-2.528510116492949,2.0,2.881318681318681,347.06331045003816,1.7117883573218342,5.861080356622575,-0.47130120622341387,1363.3699633699632,-1.0,111.89982925441093,2.886631515794156,346.4246788201376,
2023-12-18 15:33:17.827000,-8.578313253012048,-4.120481927710844,-3.0481927710843375,-4.100551808706315,-8.429797670141017,-2.6020846106683013,2.0,2.881318681318681,347.06331045003816,2.414078433657712,5.204591807004255,-0.07435464133791772,1364.102564102564,-1.0,111.89982925441093,2.8865729622660665,346.43170619707126,
2023-12-18 15:33:17.835000,-8.614457831325302,-4.144578313253012,-3.096385542168675,-4.20110361741263,-8.43960760269773,-2.6560392397302266,2.0,2.881318681318681,347.06331045003816,2.597284540527941,4.1206223413554,0.23098887011246394,1363.3699633699632,-1.0,111.89982925441093,2.8865143688675055,346.43873862339944,
2023-12-18 15:33:17.842000,-8.626506024096386,-4.19277108433735,-3.060240963855422,-4.2329858982219495,-8.47148988350705,-2.5088902513795217,2.0,2.8827838827838828,346.8869123252859,3.345376143581376,1.7236757764699038,0.21572169453994486,1367.032967032967,-1.0,111.89982925441093,2.886455740097098,346.4457755583396,
2023-12-18 15:33:17.850000,-8.626506024096386,-4.216867469879518,-2.987951807228916,-4.159411404046597,-8.554874310239116,-2.499080318822808,2.0,2.8798534798534803,347.23988806919357,3.681254006176796,-0.8412097197133022,0.21572169453994486,1369.9633699633698,-1.0,111.89982925441093,2.8863970817014106,346.4528163113241,
2023-12-18 15:33:17.858000,-8.626506024096386,-4.228915662650603,-2.891566265060241,-4.198651134273452,-8.466584917228694,-2.447578172900061,2.0,2.881318681318681,347.06331045003816,3.681254006176796,-0.8412097197133022,0.21572169453994486,1374.3589743589744,-1.0,111.89982925441093,2.8863383996869953,346.4598601609403,
2023-12-18 15:33:17.865000,-8.578313253012048,-4.253012048192772,-2.7951807228915664,-4.235438381361128,-8.405272838749234,-2.364193746167995,2.0,2.881318681318681,347.06331045003816,3.6659868306042767,-2.810675368568264,-0.028553114620360476,1378.7545787545787,-1.0,111.89982925441093,2.8862796997200184,346.4669064267353,
2023-12-18 15:33:17.873000,-8.542168674698795,-4.313253012048193,-2.710843373493976,-4.311465358675659,-8.419987737584304,-2.248927038626609,2.0,2.881318681318681,347.06331045003816,3.635452479459239,-4.993881475438493,0.1699201678223876,1384.6153846153845,-1.0,111.89982925441093,2.8862209881045833,346.4739543513708,
2023-12-18 15:33:17.881000,-8.542168674698795,-4.325301204819278,-2.662650602409639,-4.272225628448804,-8.361128142244022,-2.2342121397915387,2.0,2.881318681318681,347.06331045003816,3.727055532894353,-5.772507429636966,0.07831711438727311,1388.278388278388,-1.0,111.89982925441093,2.8861622713192876,346.4810031564695,
2023-12-18 15:33:17.888000,-8.493975903614459,-4.313253012048193,-2.602409638554217,-4.365419987737584,-8.309625996321275,-2.12385039852851,2.0,2.881318681318681,347.06331045003816,3.9102616397645824,-7.03968300215605,0.09358428995979219,1393.4065934065934,-1.0,111.89982925441093,2.886103556010875,346.48805204337845,
2023-12-18 15:33:17.896000,-8.506024096385543,-4.349397590361446,-2.566265060240964,-4.377682403433476,-8.339055793991417,-2.0674432863274066,2.0,2.881318681318681,347.06331045003816,4.398811258085193,-8.38319445253773,-0.07435464133791772,1398.5347985347985,-1.0,111.89982925441093,2.8860448489872046,346.49510019400947,
2023-12-18 15:33:17.903000,-8.530120481927712,-4.349397590361446,-2.5180722891566267,-4.414469650521152,-8.375843041079092,-1.9619865113427344,2.0,2.881318681318681,347.06331045003816,5.467513548161529,-9.131286055591165,-0.3491638016432612,1402.9304029304028,-1.0,111.89982925441093,2.885986157209647,346.50214677175313,
2023-12-18 15:33:17.911000,-8.542168674698795,-4.289156626506024,-2.4096385542168677,-4.183936235438381,-8.353770692826487,-1.9202942979767013,2.0,2.881318681318681,347.06331045003816,6.44461278480275,-9.848843307499562,-1.4331332672921162,1405.8608058608058,-1.0,111.89982925441093,2.8859274877850383,346.5091909224431,
2023-12-18 15:33:17.919000,-8.506024096385543,-4.445783132530121,-2.397590361445783,-4.456161863887186,-8.309625996321275,-1.888412017167382,2.0,2.881318681318681,347.06331045003816,7.177437212283666,-10.68853796398811,-1.9674844123302841,1402.9304029304028,-1.0,111.89982925441093,2.8858688479572545,346.5162317753647,
2023-12-18 15:33:17.926000,-8.530120481927712,-4.457831325301205,-2.3373493975903616,-4.451256897608829,-8.422440220723482,-1.8221949724095645,2.0,2.881318681318681,347.06331045003816,7.818658586329468,-10.230522696812539,-3.280461511566925,1400.7326007326005,-1.0,111.89982925441093,2.8858102450985856,346.5232684442899,
2023-12-18 15:33:17.934000,-8.493975903614459,-4.457831325301205,-2.289156626506024,-4.54199877375843,-8.385652973635805,-1.8025751072961373,2.0,2.881318681318681,347.06331045003816,8.688887593963056,-9.833576131927042,-3.9827515879028033,1394.8717948717947,-1.0,111.89982925441093,2.8857516867009605,346.53030002852864,
2023-12-18 15:33:17.942000,-8.433734939759036,-4.518072289156627,-2.253012048192771,-4.527283874923359,-8.326793378295523,-1.8001226241569588,2.0,2.881318681318681,347.06331045003816,9.085834158848552,-8.764873841850706,-4.593438610803567,1389.0109890109889,-1.0,111.89982925441093,2.885693180367157,346.53732561398203,
2023-12-18 15:33:17.949000,-8.397590361445783,-4.530120481927711,-2.2289156626506026,-4.546903740036787,-8.196811771919068,-1.7437155119558552,2.0,2.881318681318681,347.06331045003816,9.6049181283142,-6.337392925820172,-4.53236990851349,1385.3479853479853,-1.0,111.89982925441093,2.885634733802112,346.5443442741835,
2023-12-18 15:33:17.957000,-8.337349397590362,-4.542168674698796,-2.253012048192771,-4.586143470263642,-8.201716738197424,-1.8786020846106681,2.0,2.881318681318681,347.06331045003816,9.406444845871452,-2.5205990326904013,-3.921682885612727,1383.8827838827838,-1.0,111.89982925441093,2.8855763548044133,346.551355071318,
2023-12-18 15:33:17.965000,-8.313253012048193,-4.542168674698796,-2.27710843373494,-4.49540159411404,-8.172286940527284,-1.8516247700797055,2.0,2.881318681318681,347.06331045003816,10.078200571062292,1.769477303187461,-3.4636676184371544,1386.080586080586,-1.0,111.89982925441093,2.885518051258081,346.5583570572069,
2023-12-18 15:33:17.972000,-8.289156626506024,-4.566265060240964,-2.2650602409638556,-4.561618638871858,-8.216431637032494,-1.8270999386879214,2.0,2.881318681318681,347.06331045003816,10.047666219917254,5.662607074179827,-2.7919118932463145,1389.7435897435896,-1.0,111.89982925441093,2.8854598311247424,346.565349274244,
2023-12-18 15:33:17.980000,-8.313253012048193,-4.542168674698796,-2.325301204819277,-4.505211526670754,-8.236051502145923,-1.9350091968117717,2.0,2.8798534798534803,347.23988806919357,10.139269273352369,9.815278829905019,-1.784278305460055,1400.0,-1.0,111.89982925441093,2.885401702436261,346.57233075627954,
2023-12-18 15:33:17.988000,-8.313253012048193,-4.55421686746988,-2.3734939759036147,-4.5567136725935,-8.216431637032494,-1.9055793991416308,2.0,2.8798534798534803,347.23988806919357,10.459879960375268,13.43359944059204,-0.8377134199638719,1411.7216117216117,-1.0,111.89982925441093,2.8853436727952637,346.57930058880703,
2023-12-18 15:33:17.995000,-8.337349397590362,-4.530120481927711,-2.433734939759036,-4.54199877375843,-8.213979153893316,-1.9987737584304106,2.0,2.881318681318681,347.06331045003816,11.253773090146261,15.586271196317231,-0.25756074820814673,1432.2344322344322,-1.0,111.89982925441093,2.885285749296768,346.5862579184053,
2023-12-18 15:33:18.003000,-8.337349397590362,-4.506024096385542,-2.4939759036144578,-4.500306560392397,-8.206621704475781,-1.9570815450643775,2.0,2.8798534798534803,347.23988806919357,10.795757822970689,16.578637608530972,0.9027445953033036,1460.07326007326,-1.0,111.89982925441093,2.8852279394676437,346.59320183951235,
2023-12-18 15:33:18.011000,-8.373493975903616,-4.493975903614458,-2.4939759036144578,-4.49540159411404,-8.27038626609442,-2.0429184549356223,2.0,2.8798534798534803,347.23988806919357,10.902628051978322,17.174057455859217,1.4828972670590288,1498.168498168498,-1.0,111.89982925441093,2.8851702512931046,346.6001313916219,
2023-12-18 15:33:18.018000,-8.373493975903616,-4.481927710843374,-2.566265060240964,-4.488044144696505,-8.27038626609442,-2.1385652973635807,2.0,2.8798534798534803,347.23988806919357,11.10110133442107,17.26566050929433,1.9561797098071203,1548.7179487179485,-1.0,111.89982925441093,2.885112692156374,346.6070456866164,
2023-12-18 15:33:18.026000,-8.397590361445783,-4.481927710843374,-2.626506024096386,-4.463519313304721,-8.218884120171673,-2.21704475781729,2.0,2.8798534798534803,347.23988806919357,10.978963929840917,16.578637608530972,2.230988870112464,1607.3260073260071,-1.0,111.89982925441093,2.8850552693234985,346.6139438503664,
2023-12-18 15:33:18.034000,-8.361445783132531,-4.445783132530121,-2.674698795180723,-4.441446965052115,-8.17964438994482,-2.229307173513182,2.0,2.8798534798534803,347.23988806919357,11.513315074879086,16.685507837538605,3.0096148243109373,1664.4688644688645,-1.0,111.89982925441093,2.8849979903586638,346.6208249730413,
2023-12-18 15:33:18.041000,-8.337349397590362,-4.433734939759036,-2.746987951807229,-4.446351931330472,-8.133047210300429,-2.251379521765788,2.0,2.8798534798534803,347.23988806919357,11.467513548161529,15.845813181050056,3.3149583357613186,1723.8095238095236,-1.0,111.89982925441093,2.8849408621682247,346.6276882235059,
2023-12-18 15:33:18.049000,-8.421686746987952,-4.433734939759036,-2.7590361445783134,-4.458614347026364,-8.250766400980993,-2.347026364193746,2.0,2.881318681318681,347.06331045003816,11.956063166482139,13.754210127614941,3.971446885379639,1775.091575091575,-1.0,111.89982925441093,2.8848838910623718,346.63453284194753,
2023-12-18 15:33:18.057000,-8.373493975903616,-4.385542168674699,-2.734939759036145,-4.404659717964439,-8.248313917841815,-2.3617412630288164,2.0,2.881318681318681,347.06331045003816,11.78812423518443,11.784744478759979,3.9409125342346014,1816.117216117216,-1.0,111.89982925441093,2.8848270841883363,346.64135796796256,
2023-12-18 15:33:18.064000,-8.409638554216867,-4.373493975903615,-2.746987951807229,-4.424279583077866,-8.31698344573881,-2.2906192519926423,2.0,2.8798534798534803,347.23988806919357,12.032399044344734,9.372530738301965,4.169920167822387,1841.7582417582416,-1.0,111.89982925441093,2.8847704495259494,346.64816264103405,
2023-12-18 15:33:18.072000,-8.397590361445783,-4.373493975903615,-2.710843373493976,-4.360515021459228,-8.272838749233598,-2.300429184549356,2.0,2.8798534798534803,347.23988806919357,12.658353242818016,7.128255929141659,4.169920167822387,1856.4102564102564,-1.0,111.89982925441093,2.8847139944455717,346.65494597390233,
2023-12-18 15:33:18.080000,-8.409638554216867,-4.349397590361446,-2.734939759036145,-4.372777437155119,-8.248313917841815,-2.3077866339668915,2.0,2.8798534798534803,347.23988806919357,12.582017364955421,4.1664238680729575,4.856943068585746,1857.8754578754576,-1.0,111.89982925441093,2.8846577256377524,346.6617071610458,
2023-12-18 15:33:18.087000,-8.397590361445783,-4.325301204819278,-2.734939759036145,-4.35561005518087,-8.204169221336603,-2.2955242182709994,2.0,2.8798534798534803,347.23988806919357,12.307208204650077,2.319095623798148,5.055416351028494,1846.153846153846,-1.0,111.89982925441093,2.8846016495681335,346.66844542386025,
2023-12-18 15:33:18.095000,-8.373493975903616,-4.301204819277109,-2.734939759036145,-4.286940527283875,-8.267933782955241,-2.2047823421213977,2.0,2.8798534798534803,347.23988806919357,12.093467746634811,0.838179593263797,5.085950702173532,1823.4432234432234,-1.0,111.89982925441093,2.8845457720167422,346.67516006579433,
2023-12-18 15:33:18.103000,-8.373493975903616,-4.337349397590362,-2.698795180722892,-4.338442673206622,-8.277743715511955,-2.199877375843041,2.0,2.8798534798534803,347.23988806919357,11.833925761901986,0.39543150166074353,4.536332381562845,1788.278388278388,-1.0,111.89982925441093,2.8844900986004887,346.6818504098319,
2023-12-18 15:33:18.110000,-8.409638554216867,-4.36144578313253,-2.6506024096385543,-4.382587369711833,-8.258123850398528,-2.199877375843041,2.0,2.8798534798534803,347.23988806919357,12.688887593963056,-0.5053318571178823,4.780607190723151,1745.7875457875457,-1.0,111.89982925441093,2.8844346351919268,346.68851574838845,
2023-12-18 15:33:18.118000,-8.409638554216867,-4.349397590361446,-2.63855421686747,-4.291845493562231,-8.280196198651133,-2.1557326793378295,2.0,2.8798534798534803,347.23988806919357,12.872093700833284,-0.44426315482780604,4.872210244158265,1695.2380952380952,-1.0,111.89982925441093,2.8843793874251573,346.6951554024411,
2023-12-18 15:33:18.126000,-8.433734939759036,-4.349397590361446,-2.5783132530120483,-4.365419987737584,-8.275291232372776,-2.0870631514408338,2.0,2.8798534798534803,347.23988806919357,12.902628051978322,-0.5205990326904014,4.856943068585746,1641.7582417582416,-1.0,111.89982925441093,2.884324360694765,346.70176872165996,
2023-12-18 15:33:18.133000,-8.421686746987952,-4.313253012048193,-2.5301204819277108,-4.286940527283875,-8.272838749233598,-2.0846106683016554,2.0,2.8798534798534803,347.23988806919357,13.696521181749315,0.1816910436454764,4.79587436629567,1583.150183150183,-1.0,111.89982925441093,2.8842695601551567,346.7083550844943,
2023-12-18 15:33:18.141000,-8.349397590361447,-4.626506024096386,-2.5783132530120483,-4.814224402207235,-8.204169221336603,-2.03065603923973,2.0,2.8798534798534803,347.23988806919357,13.696521181749315,0.1816910436454764,4.79587436629567,1525.2747252747251,-1.0,111.89982925441093,2.884214990720325,346.714913898204,
2023-12-18 15:33:18.149000,-8.506024096385543,-4.216867469879518,-2.3855421686746987,-4.159411404046597,-8.329245861434702,-1.9570815450643775,2.0,2.8798534798534803,347.23988806919357,15.711788357321833,3.937416234485171,4.108851465532311,1468.8644688644688,-1.0,111.89982925441093,2.8841606570641107,346.7214445988349,
2023-12-18 15:33:18.156000,-8.518072289156628,-4.385542168674699,-2.3734939759036147,-4.465971796443899,-8.390557939914162,-1.917841814837523,2.0,2.878388278388278,347.41664545685927,14.10873492220733,1.0977215779966214,4.368393450265136,1415.3846153846152,-1.0,111.89982925441093,2.884106563620977,346.7279466511298,
2023-12-18 15:33:18.164000,-8.481927710843374,-4.421686746987952,-2.3855421686746987,-4.443899448191293,-8.358675659104843,-1.9202942979767013,2.0,2.878388278388278,347.41664545685927,14.44461278480275,2.105355165782881,3.9409125342346014,1361.904761904762,-1.0,111.89982925441093,2.8840527145525487,346.7344195529628,
2023-12-18 15:33:18.172000,-8.506024096385543,-4.457831325301205,-2.397590361445783,-4.527283874923359,-8.329245861434702,-1.9668914776210913,2.0,2.878388278388278,347.41664545685927,15.10110133442107,3.2961948604393694,4.108851465532311,1316.4835164835165,-1.0,111.89982925441093,2.883999113610102,346.74086285187593,
2023-12-18 15:33:18.179000,-8.506024096385543,-4.433734939759036,-2.36144578313253,-4.461066830165542,-8.402820355610055,-1.9767014101778049,2.0,2.8798534798534803,347.23988806919357,15.788124235184428,4.7160421886836446,3.5745003204941432,1274.7252747252746,-1.0,111.89982925441093,2.88394576364319,346.7472762035555,
2023-12-18 15:33:18.187000,-8.44578313253012,-4.698795180722891,-2.4457831325301207,-4.941753525444512,-8.086450030656039,-1.9914163090128754,2.0,2.878388278388278,347.41664545685927,17.024765456558473,5.769477303187461,3.8035079540819297,1239.5604395604396,-1.0,111.89982925441093,2.8838926671602474,346.75365930426784,
2023-12-18 15:33:18.195000,-8.481927710843374,-4.337349397590362,-2.3373493975903616,-4.412017167381974,-8.307173513182097,-1.8736971183323115,2.0,2.878388278388278,347.41664545685927,19.513315074879085,8.807645242118758,3.4218285647689526,1208.7912087912086,-1.0,111.89982925441093,2.883839826396644,346.76001188307856,
2023-12-18 15:33:18.202000,-8.44578313253012,-4.518072289156627,-2.3855421686746987,-4.424279583077866,-8.275291232372776,-1.9693439607602696,2.0,2.878388278388278,347.41664545685927,18.200337975642444,9.403065089447002,3.727172076219334,1185.3479853479853,-1.0,111.89982925441093,2.883787242786229,346.76633376560767,
2023-12-18 15:33:18.210000,-8.433734939759036,-4.493975903614458,-2.4216867469879517,-4.48068669527897,-8.312078479460453,-2.028203556100552,2.0,2.8798534798534803,347.23988806919357,19.29957461686382,11.95268341005769,4.063049938814754,1168.4981684981685,-1.0,111.89982925441093,2.8837349178739893,346.7726247643285,
2023-12-18 15:33:18.218000,-8.457831325301205,-4.518072289156627,-2.4578313253012047,-4.5297363580625385,-8.304721030042918,-1.9816063764561618,2.0,2.878388278388278,347.41664545685927,19.63545247945924,13.983217761202727,4.12411864110483,1159.7069597069597,-1.0,111.89982925441093,2.8836828537386894,346.77888462753015,
2023-12-18 15:33:18.225000,-8.457831325301205,-4.55421686746988,-2.5060240963855422,-4.546903740036787,-8.334150827713058,-2.1091354996934393,2.0,2.878388278388278,347.41664545685927,20.627818891672977,15.143523104714179,3.498164442631548,1160.4395604395604,-1.0,111.89982925441093,2.883631052081639,346.78511314883434,
2023-12-18 15:33:18.233000,-8.44578313253012,-4.566265060240964,-2.5542168674698797,-4.622930717351318,-8.304721030042918,-2.0723482526057633,2.0,2.878388278388278,347.41664545685927,21.024765456558473,16.639706310821047,2.811141541868189,1167.7655677655678,-1.0,111.89982925441093,2.883579513246044,346.79131028511745,
2023-12-18 15:33:18.241000,-8.397590361445783,-4.614457831325302,-2.6144578313253013,-4.63519313304721,-8.22378908645003,-2.1336603310852236,2.0,2.878388278388278,347.41664545685927,21.620185303886718,17.403065089447,2.643202610570479,1182.4175824175823,-1.0,111.89982925441093,2.8835282372022433,346.7974760381121,
2023-12-18 15:33:18.248000,-8.325301204819278,-4.63855421686747,-2.626506024096386,-4.698957694665849,-8.189454322501533,-2.1704475781729,2.0,2.878388278388278,347.41664545685927,22.337742555795117,18.303828448225627,2.4599965037002502,1201.4652014652013,-1.0,111.89982925441093,2.8834772239710347,346.8036104037097,
2023-12-18 15:33:18.256000,-8.27710843373494,-4.614457831325302,-2.6144578313253013,-4.576333537706928,-8.110974862047822,-2.141017780502759,2.0,2.878388278388278,347.41664545685927,22.93316240312336,19.12825592914166,2.4905308548452885,1224.9084249084249,-1.0,111.89982925441093,2.8834264731338743,346.8097134306345,
2023-12-18 15:33:18.264000,-8.25301204819277,-4.614457831325302,-2.6506024096385543,-4.615573267933783,-8.076640098099325,-2.2317596566523603,2.0,2.878388278388278,347.41664545685927,23.42171202144397,19.677874249752346,2.4141949769826927,1250.5494505494505,-1.0,111.89982925441093,2.8833759838359043,346.81578522008965,
2023-12-18 15:33:18.271000,-8.240963855421688,-4.63855421686747,-2.674698795180723,-4.6400980993255665,-8.11587982832618,-2.2219497240956465,2.0,2.878388278388278,347.41664545685927,24.169803624497405,20.227492570363033,2.4141949769826927,1278.3882783882782,-1.0,111.89982925441093,2.8833257543313318,346.8218259802172,
2023-12-18 15:33:18.279000,-8.27710843373494,-4.614457831325302,-2.6506024096385543,-4.637645616186388,-8.101164929491109,-2.229307173513182,2.0,2.8798534798534803,347.23988806919357,24.276673853505038,19.326729211584407,2.6737369617155173,1307.6923076923076,-1.0,111.89982925441093,2.8832757825121136,346.8278359627784,
2023-12-18 15:33:18.286000,-8.25301204819277,-4.626506024096386,-2.674698795180723,-4.6817903126916,-8.061925199264255,-2.2023298589822193,2.0,2.878388278388278,347.41664545685927,24.307208204650077,19.235126158149292,2.811141541868189,1337.7289377289376,-1.0,111.89982925441093,2.8832260668257352,346.8338153528022,
2023-12-18 15:33:18.294000,-8.240963855421688,-4.614457831325302,-2.662650602409639,-4.622930717351318,-8.081545064377682,-2.21704475781729,2.0,2.878388278388278,347.41664545685927,24.627818891672977,18.212225394790515,2.7958743662956698,1366.3003663003662,-1.0,111.89982925441093,2.8831766053672325,346.8397643777106,
2023-12-18 15:33:18.302000,-8.228915662650603,-4.602409638554217,-2.662650602409639,-4.615573267933783,-8.061925199264255,-2.207234825260576,2.0,2.878388278388278,347.41664545685927,24.74995629625313,16.868713944408835,2.597401083852922,1395.6043956043954,-1.0,111.89982925441093,2.883127395360465,346.8456833699024,
2023-12-18 15:33:18.309000,-8.27710843373494,-4.602409638554217,-2.662650602409639,-4.600858369098712,-8.103617412630287,-2.1753525444512567,2.0,2.878388278388278,347.41664545685927,25.009498280985955,14.94504982227143,3.024881999883456,1420.5128205128203,536.19384765625,111.89982925441093,2.883078433623104,346.8515727106675,
2023-12-18 15:33:18.317000,-8.289156626506024,-4.602409638554217,-2.626506024096386,-4.6253832004904964,-8.137952176578786,-2.1753525444512567,2.0,2.876923076923077,347.59358288770056,24.76522347182565,12.60917195967601,3.0859507021735326,1441.0256410256409,-1.0,111.89982925441093,2.8830297170323944,346.8574327743423,
2023-12-18 15:33:18.325000,-8.325301204819278,-4.602409638554217,-2.6144578313253013,-4.654812998160637,-8.189454322501533,-2.0748007357449416,2.0,2.876923076923077,347.59358288770056,24.994231105413437,10.334362799370666,3.4065613891964333,1460.8058608058607,-1.0,111.89982925441093,2.882981241516132,346.86326404971834,
2023-12-18 15:33:18.332000,-8.301204819277109,-4.614457831325302,-2.5783132530120483,-4.6327406499080315,-8.13059472716125,-2.1679950950337217,2.0,2.878388278388278,347.41664545685927,24.704154769535574,8.395431501660743,3.376027038051395,1478.3882783882782,-1.0,111.89982925441093,2.882933001569057,346.86906719808945,
2023-12-18 15:33:18.340000,-8.301204819277109,-4.626506024096386,-2.602409638554217,-4.63519313304721,-8.108522378908644,-2.1164929491109747,2.0,2.878388278388278,347.41664545685927,23.95606316648214,7.051920051279064,3.4828972670590286,1493.7728937728937,-1.0,111.89982925441093,2.8828849917006085,346.874842878851,
2023-12-18 15:33:18.348000,-8.289156626506024,-4.63855421686747,-2.602409638554217,-4.716125076640098,-8.152667075413856,-2.106683016554261,2.0,2.878388278388278,347.41664545685927,24.13926927335237,6.548103257385934,3.9867140609521585,1505.4945054945053,-1.0,111.89982925441093,2.882837206512163,346.880591740181,
2023-12-18 15:33:18.355000,-8.265060240963855,-4.650602409638554,-2.5542168674698797,-4.686695278969957,-8.201716738197424,-2.111587982832618,2.0,2.878388278388278,347.41664545685927,24.09346774663481,6.868713944408835,4.001981236524678,1515.7509157509157,-1.0,111.89982925441093,2.882789640250389,346.88631447298405,
2023-12-18 15:33:18.363000,-8.289156626506024,-4.674698795180723,-2.5542168674698797,-4.738197424892704,-8.101164929491109,-2.160637645616186,2.0,2.878388278388278,347.41664545685927,24.246139502360002,6.761843715401201,4.444729328127731,1519.4139194139193,-1.0,111.89982925441093,2.8827422868198203,346.89201180938016,
2023-12-18 15:33:18.371000,-8.265060240963855,-4.698795180722891,-2.602409638554217,-4.72838749233599,-8.189454322501533,-2.1140404659717964,2.0,2.878388278388278,347.41664545685927,24.398811258085193,7.876347532195094,4.429462152555212,1518.6813186813185,-1.0,111.89982925441093,2.882695139796846,346.8976845210239,
2023-12-18 15:33:18.378000,-8.27710843373494,-4.710843373493976,-2.5783132530120483,-4.6817903126916,-8.140404659717964,-2.153280196198651,2.0,2.878388278388278,347.41664545685927,24.551483013810383,9.494668142882118,4.536332381562845,1512.8205128205127,-1.0,111.89982925441093,2.882648192445199,346.9033334172412,
2023-12-18 15:33:18.386000,-8.228915662650603,-4.734939759036145,-2.566265060240964,-4.755364806866953,-8.061925199264255,-2.099325567136726,2.0,2.878388278388278,347.41664545685927,24.963696754268398,11.357263562729445,5.13175222889109,1506.227106227106,-1.0,111.89982925441093,2.882601437733009,346.9089593429776,
2023-12-18 15:33:18.394000,-8.204819277108435,-4.710843373493976,-2.566265060240964,-4.752912323727774,-8.120784794604537,-2.141017780502759,2.0,2.878388278388278,347.41664545685927,25.162170036711146,13.265660509294332,5.2691568090437615,1496.7032967032967,-1.0,111.89982925441093,2.8825548683514683,346.9145631765523,
2023-12-18 15:33:18.401000,-8.180722891566266,-4.72289156626506,-2.602409638554217,-4.676885346413243,-8.06928264868179,-2.1164929491109747,2.0,2.876923076923077,347.59358288770056,25.13163568556611,15.738942952042422,6.017248412097197,1487.9120879120878,-1.0,111.89982925441093,2.8825084767351665,346.92014582721026,
2023-12-18 15:33:18.409000,-8.180722891566266,-4.710843373493976,-2.602409638554217,-4.645003065603924,-8.039852851011648,-2.199877375843041,2.0,2.878388278388278,347.41664545685927,25.330108968008854,17.31146203601189,6.673736961715517,1478.3882783882782,-1.0,111.89982925441093,2.8824622545914576,346.92570829196455,
2023-12-18 15:33:18.417000,-8.19277108433735,-4.710843373493976,-2.602409638554217,-4.755364806866953,-8.101164929491109,-2.158185162477008,2.0,2.876923076923077,347.59358288770056,25.330108968008854,17.31146203601189,6.673736961715517,1465.201465201465,-1.0,111.89982925441093,2.8824161933446817,346.93125160195984,
2023-12-18 15:33:18.424000,-8.168674698795181,-4.686746987951808,-2.6144578313253013,-4.721030042918454,-8.003065603923973,-2.1851624770079705,2.0,2.876923076923077,347.59358288770056,25.63545247945924,19.1587902802867,6.8264087174407075,1451.2820512820513,-1.0,111.89982925441093,2.8823702841934833,346.9367768155597,
2023-12-18 15:33:18.432000,-8.156626506024097,-4.686746987951808,-2.626506024096386,-4.765174739423666,-8.0226854690374,-2.180257510729614,2.0,2.876923076923077,347.59358288770056,25.29957461686382,20.27329409708059,7.314958335761319,1435.164835164835,-1.0,111.89982925441093,2.8823245176073504,346.9422850791532,
2023-12-18 15:33:18.440000,-8.19277108433735,-4.662650602409639,-2.6506024096385543,-4.622930717351318,-8.108522378908644,-2.212139791538933,2.0,2.878388278388278,347.41664545685927,25.742322708466872,21.479400967309598,7.147019404463609,1417.5824175824175,-1.0,111.89982925441093,2.882278883807269,346.9477775691197,
2023-12-18 15:33:18.447000,-8.168674698795181,-4.63855421686747,-2.662650602409639,-4.679337829552422,-7.9809932556713665,-2.165542611894543,2.0,2.876923076923077,347.59358288770056,26.017131868772214,21.845813181050055,7.437095740341471,1401.4652014652013,-1.0,111.89982925441093,2.882233373740148,346.9532553745587,
2023-12-18 15:33:18.455000,-8.156626506024097,-4.63855421686747,-2.674698795180723,-4.630288166768853,-8.017780502759043,-2.2268546903740036,2.0,2.878388278388278,347.41664545685927,25.543849426024124,22.517568906240896,7.589767496066663,1386.080586080586,-1.0,111.89982925441093,2.8821879786160935,346.9587195531217,
2023-12-18 15:33:18.463000,-8.132530120481928,-4.626506024096386,-2.746987951807229,-4.613120784794604,-8.010423053341508,-2.2734518700183934,2.0,2.876923076923077,347.59358288770056,25.91026163976458,22.410698677233263,7.681370549501777,1371.4285714285713,-1.0,111.89982925441093,2.882142688956415,346.96417124517257,
2023-12-18 15:33:18.470000,-8.216867469879519,-4.566265060240964,-2.6867469879518073,-4.615573267933783,-8.039852851011648,-2.3151440833844266,2.0,2.876923076923077,347.59358288770056,26.41407843365771,22.59390478410349,7.925645358662082,1360.4395604395604,-1.0,111.89982925441093,2.8820974956454273,346.969611547572,
2023-12-18 15:33:18.478000,-8.204819277108435,-4.602409638554217,-2.7228915662650603,-4.600858369098712,-8.049662783568362,-2.2955242182709994,2.0,2.876923076923077,347.59358288770056,25.330108968008854,21.235126158149292,7.482897267059029,1348.7179487179487,-1.0,111.89982925441093,2.882052389333716,346.9750415857263,
2023-12-18 15:33:18.486000,-8.228915662650603,-4.614457831325302,-2.7590361445783134,-4.576333537706928,-8.137952176578786,-2.3347639484978537,2.0,2.876923076923077,347.59358288770056,25.48278072373405,20.09008799021036,6.918011770875823,1337.7289377289376,-1.0,111.89982925441093,2.882007360015583,346.98046256389694,
2023-12-18 15:33:18.493000,-8.108433734939759,-4.63855421686747,-2.855421686746988,-4.6327406499080315,-7.971183323114653,-2.3911710606989574,2.0,2.876923076923077,347.59358288770056,25.63545247945924,18.92978264669891,7.28442398461628,1323.8095238095236,-1.0,111.89982925441093,2.8819623975546715,346.98587570210105,
2023-12-18 15:33:18.501000,-8.265060240963855,-4.55421686746988,-2.783132530120482,-4.515021459227468,-8.101164929491109,-2.459840588595953,2.0,2.876923076923077,347.59358288770056,26.93316240312336,19.11298875356914,8.490530854845288,1311.3553113553112,-1.0,111.89982925441093,2.881917491717138,346.99128223211477,
2023-12-18 15:33:18.509000,-8.325301204819278,-4.614457831325302,-2.807228915662651,-4.63519313304721,-8.137952176578786,-2.423053341508277,2.0,2.876923076923077,347.59358288770056,25.29957461686382,17.204591807004256,7.147019404463609,1305.4945054945053,-1.0,111.89982925441093,2.8818726322050123,346.99668339345897,
2023-12-18 15:33:18.516000,-8.361445783132531,-4.63855421686747,-2.843373493975904,-4.664622930717351,-8.155119558553034,-2.364193746167995,2.0,2.878388278388278,347.41664545685927,25.024765456558473,15.754210127614941,6.811141541868189,1301.8315018315018,-1.0,111.89982925441093,2.881827808689644,347.0020804293689,
2023-12-18 15:33:18.524000,-8.349397590361447,-4.674698795180723,-2.8313253012048194,-4.713672593500919,-8.177191906805641,-2.3323114653586754,2.0,2.876923076923077,347.59358288770056,25.314841792436336,13.43359944059204,6.063049938814753,1305.4945054945053,-1.0,111.89982925441093,2.881783011337942,347.0074745232582,
2023-12-18 15:33:18.532000,-8.361445783132531,-4.686746987951808,-2.807228915662651,-4.691600245248313,-8.258123850398528,-2.3445738810545675,2.0,2.876923076923077,347.59358288770056,26.337742555795117,12.487034555095857,6.521065205990326,1312.087912087912,-1.0,111.89982925441093,2.881738230425464,347.0128668454513,
2023-12-18 15:33:18.539000,-8.301204819277109,-4.650602409638554,-2.734939759036145,-4.740649908031882,-8.13059472716125,-2.2611894543225013,2.0,2.876923076923077,347.59358288770056,25.13163568556611,9.95268341005769,5.7119049006468146,1323.8095238095236,-1.0,111.89982925441093,2.8816934558455007,347.0182586124754,
2023-12-18 15:33:18.547000,-8.27710843373494,-4.710843373493976,-2.771084337349398,-4.738197424892704,-8.113427345187002,-2.2832618025751072,2.0,2.876923076923077,347.59358288770056,24.79575782297069,9.861080356622574,5.360759862478876,1336.263736263736,-1.0,111.89982925441093,2.8816486776010755,347.02365102765896,
2023-12-18 15:33:18.555000,-8.265060240963855,-4.746987951807229,-2.7951807228915664,-4.74310239117106,-8.108522378908644,-2.3617412630288164,2.0,2.876923076923077,347.59358288770056,24.719421945108092,9.571004020744713,5.421828564768952,1354.5787545787546,-1.0,111.89982925441093,2.881603885838935,347.02904527703254,
2023-12-18 15:33:18.562000,-8.25301204819277,-4.746987951807229,-2.807228915662651,-4.782342121397915,-8.049662783568362,-2.351931330472103,2.0,2.876923076923077,347.59358288770056,25.360643319153894,9.235126158149292,5.2691568090437615,1386.080586080586,-1.0,111.89982925441093,2.8815590708833434,347.03444252525924,
2023-12-18 15:33:18.570000,-8.313253012048193,-4.734939759036145,-2.783132530120482,-4.671980380134887,-8.125689760882894,-2.3028816676885344,2.0,2.876923076923077,347.59358288770056,25.9255288153371,9.387797913874484,5.95617970980712,1426.3736263736262,-1.0,111.89982925441093,2.881514223269647,347.0398439115896,
2023-12-18 15:33:18.578000,-8.27710843373494,-4.771084337349397,-2.746987951807229,-4.784794604537094,-8.11587982832618,-2.2857142857142856,2.0,2.876923076923077,347.59358288770056,24.902628051978322,8.349629974943186,5.452362915913991,1478.3882783882782,-1.0,111.89982925441093,2.881469333777501,347.0452505458567,
2023-12-18 15:33:18.585000,-8.25301204819277,-4.759036144578314,-2.783132530120482,-4.789699570815451,-8.128142244022072,-2.2611894543225013,2.0,2.876923076923077,347.59358288770056,25.29957461686382,8.853446768836315,5.2691568090437615,1534.7985347985348,-1.0,111.89982925441093,2.8814243934637456,347.0506635045133,
2023-12-18 15:33:18.593000,-8.204819277108435,-4.783132530120482,-2.7590361445783134,-4.698957694665849,-8.05211526670754,-2.2906192519926423,2.0,2.876923076923077,347.59358288770056,25.589650952741682,9.43359944059204,5.085950702173532,1594.8717948717947,-1.0,111.89982925441093,2.881379393694857,347.05608382672193,
2023-12-18 15:33:18.601000,-8.313253012048193,-4.72289156626506,-2.7228915662650603,-4.694052728387492,-8.228694052728388,-2.2317596566523603,2.0,2.876923076923077,347.59358288770056,26.902628051978322,10.746576539828682,6.337859099120097,1652.7472527472526,-1.0,111.89982925441093,2.8813343261788833,347.0615125105041,
2023-12-18 15:33:18.608000,-8.228915662650603,-4.734939759036145,-2.674698795180723,-4.797057020232986,-8.06928264868179,-2.212139791538933,2.0,2.876923076923077,347.59358288770056,26.169803624497405,10.029019287920285,6.032515587669716,1704.0293040293038,-1.0,111.89982925441093,2.8812891829968543,347.0669505089545,
2023-12-18 15:33:18.616000,-8.19277108433735,-4.734939759036145,-2.6506024096385543,-4.745554874310239,-7.9957081545064375,-2.2047823421213977,2.0,2.8754578754578755,347.77070063694265,26.047666219917254,10.746576539828682,5.6050346716391815,1750.18315018315,-1.0,111.89982925441093,2.881243956633532,347.0723987265342,
2023-12-18 15:33:18.624000,-8.180722891566266,-4.746987951807229,-2.6506024096385543,-4.782342121397915,-8.027590435315757,-2.219497240956468,2.0,2.8754578754578755,347.77070063694265,26.872093700833283,11.815278829905019,6.322591923547578,1786.8131868131868,-1.0,111.89982925441093,2.881198639972719,347.07785802003986,
2023-12-18 15:33:18.631000,-8.19277108433735,-4.698795180722891,-2.602409638554217,-4.738197424892704,-7.985898221949724,-2.182709993868792,2.0,2.876923076923077,347.59358288770056,26.276673853505038,10.319095623798148,5.834042305226967,1813.186813186813,-1.0,111.89982925441093,2.8811532261871293,347.08332921186866,
2023-12-18 15:33:18.639000,-8.132530120481928,-4.759036144578314,-2.63855421686747,-4.752912323727774,-7.946658491722869,-2.141017780502759,2.0,2.876923076923077,347.59358288770056,26.841559349688247,11.891614707767614,6.322591923547578,1828.5714285714284,-1.0,111.89982925441093,2.881107709223489,347.08881303096666,
2023-12-18 15:33:18.647000,-8.132530120481928,-4.686746987951808,-2.5903614457831328,-4.738197424892704,-8.005518087063152,-2.1091354996934393,2.0,2.876923076923077,347.59358288770056,26.59728454052794,11.174057455859217,5.666103373929258,1826.3736263736262,-1.0,111.89982925441093,2.8810620838998107,347.0943101010837,
2023-12-18 15:33:18.654000,-8.132530120481928,-4.746987951807229,-2.5903614457831328,-4.770079705702023,-7.9736358062538315,-2.148375229920294,2.0,2.8754578754578755,347.77070063694265,26.658353242818016,11.29619486043937,4.96381329759338,1812.4542124542124,-1.0,111.89982925441093,2.881016345475974,347.0998209926916,
2023-12-18 15:33:18.662000,-8.120481927710843,-4.698795180722891,-2.5783132530120483,-4.706315144083384,-7.8976088289393,-2.1729000613120784,2.0,2.876923076923077,347.59358288770056,26.475147135947786,11.494668142882118,5.345492686906357,1784.6153846153845,-1.0,111.89982925441093,2.8809704891878924,347.1053462793054,
2023-12-18 15:33:18.669000,-8.096385542168676,-4.759036144578314,-2.5903614457831328,-4.745554874310239,-7.890251379521765,-2.1336603310852236,2.0,2.876923076923077,347.59358288770056,26.688887593963056,11.021385700134026,4.4905308548452885,1745.7875457875457,-1.0,111.89982925441093,2.8809245106931973,347.1108864836174,
2023-12-18 15:33:18.677000,-8.060240963855422,-4.771084337349397,-2.63855421686747,-4.767627222562845,-7.97608828939301,-2.165542611894543,2.0,2.876923076923077,347.59358288770056,27.543849426024124,12.059553639065323,4.689004137288037,1699.6336996336995,-1.0,111.89982925441093,2.8808784066192525,347.11644201125756,
2023-12-18 15:33:18.685000,-8.120481927710843,-4.686746987951808,-2.5542168674698797,-4.69650521152667,-7.978540772532188,-2.158185162477008,2.0,2.876923076923077,347.59358288770056,25.63545247945924,10.395431501660743,3.9867140609521585,1646.8864468864467,-1.0,111.89982925441093,2.8808321741264704,347.12201320358776,
2023-12-18 15:33:18.692000,-8.120481927710843,-4.759036144578314,-2.5903614457831328,-4.811771919068057,-7.924586143470263,-2.118945432250153,2.0,2.876923076923077,347.59358288770056,25.63545247945924,10.395431501660743,3.9867140609521585,1591.9413919413919,-1.0,111.89982925441093,2.8807858109278266,347.12760033534977,
2023-12-18 15:33:18.700000,-8.132530120481928,-4.783132530120482,-2.626506024096386,-4.828939301042305,-8.000613120784795,-2.1630901287553645,2.0,2.8754578754578755,347.77070063694265,25.818658586329466,11.662607074179826,3.284423984616281,1534.7985347985348,-1.0,111.89982925441093,2.880739315306643,347.1332036125177,
2023-12-18 15:33:18.708000,-8.072289156626507,-4.819277108433735,-2.698795180722892,-4.86817903126916,-7.922133660331085,-2.160637645616186,2.0,2.876923076923077,347.59358288770056,25.57438377716916,12.074820814637842,2.9638132975933797,1479.8534798534797,-1.0,111.89982925441093,2.880692685640018,347.13882322991344,
2023-12-18 15:33:18.715000,-8.180722891566266,-4.771084337349397,-2.63855421686747,-4.82158185162477,-8.06928264868179,-2.1679950950337217,2.0,2.8754578754578755,347.77070063694265,26.353009731367635,12.349629974943186,2.826408717440708,1430.03663003663,-1.0,111.89982925441093,2.8806459208336843,347.1444593186398,
2023-12-18 15:33:18.723000,-8.168674698795181,-4.783132530120482,-2.63855421686747,-4.779889638258736,-7.988350705088902,-2.2244022072348253,2.0,2.8754578754578755,347.77070063694265,24.94842957869588,13.006118524561506,2.7958743662956698,1385.3479853479853,-1.0,111.89982925441093,2.8805990203665304,347.1501119407017,
2023-12-18 15:33:18.731000,-8.144578313253012,-4.819277108433735,-2.6867469879518073,-4.887798896382587,-7.9589209074187615,-2.2685469037400368,2.0,2.8754578754578755,347.77070063694265,25.177437212283664,14.7618437154012,3.0859507021735326,1346.5201465201465,-1.0,111.89982925441093,2.8805519837709417,347.1557811518252,
2023-12-18 15:33:18.738000,-8.084337349397591,-4.843373493975903,-2.710843373493976,-4.8706315144083385,-7.902513795217658,-2.2562844880441446,2.0,2.8754578754578755,347.77070063694265,24.734689120680613,15.479400967309598,3.116485053318571,1315.018315018315,-1.0,111.89982925441093,2.8805048110938776,347.1614669457199,
2023-12-18 15:33:18.746000,-8.144578313253012,-4.795180722891566,-2.626506024096386,-4.772532188841201,-8.0226854690374,-2.241569589209074,2.0,2.8754578754578755,347.77070063694265,25.146902861138628,16.761843715401202,4.12411864110483,1287.179487179487,-1.0,111.89982925441093,2.8804575028978716,347.16716925395826,
2023-12-18 15:33:18.754000,-8.108433734939759,-4.807228915662651,-2.662650602409639,-4.860821581851624,-7.890251379521765,-2.2047823421213977,2.0,2.8754578754578755,347.77070063694265,24.215605151214962,16.62443913524853,3.681370549501777,1262.2710622710622,-1.0,111.89982925441093,2.88041006025988,347.17288794611244,
2023-12-18 15:33:18.761000,-8.084337349397591,-4.843373493975903,-2.6867469879518073,-4.806866952789699,-7.9368485591661555,-2.1925199264255055,2.0,2.876923076923077,347.59358288770056,23.95606316648214,17.76947730318746,4.4905308548452885,1242.4908424908424,-1.0,111.89982925441093,2.880362485225945,347.1786227751294,
2023-12-18 15:33:18.769000,-8.096385542168676,-4.843373493975903,-2.662650602409639,-4.792152053954629,-7.96137339055794,-2.2685469037400368,2.0,2.8754578754578755,347.77070063694265,23.91026163976458,17.906881883340134,4.4905308548452885,1224.9084249084249,-1.0,111.89982925441093,2.8803147807735168,347.18437338149437,
2023-12-18 15:33:18.777000,-8.084337349397591,-4.83132530120482,-2.6867469879518073,-4.86817903126916,-7.9442060085836905,-2.1974248927038627,2.0,2.8754578754578755,347.77070063694265,23.467513548161527,17.93741623448517,4.246256045684983,1216.117216117216,-1.0,111.89982925441093,2.88026695042063,347.19013934049946,
2023-12-18 15:33:18.784000,-8.024096385542169,-4.855421686746988,-2.746987951807229,-4.909871244635193,-7.816676885346413,-2.2219497240956465,2.0,2.8754578754578755,347.77070063694265,23.559116601596642,17.906881883340134,4.13938581667735,1210.989010989011,-1.0,111.89982925441093,2.8802189981172703,347.19592017568397,
2023-12-18 15:33:18.792000,-8.024096385542169,-4.927710843373494,-2.746987951807229,-4.927038626609442,-7.8976088289393,-2.280809319435929,2.0,2.8754578754578755,347.77070063694265,23.391177670298934,19.296194860439368,4.551599557135365,1211.7216117216117,-1.0,111.89982925441093,2.880170927746368,347.2017154184538,
2023-12-18 15:33:18.800000,-8.012048192771084,-4.927710843373494,-2.7228915662650603,-4.934396076026977,-7.838749233599018,-2.3347639484978537,2.0,2.8754578754578755,347.77070063694265,22.79575782297069,17.845813181050055,4.444729328127731,1215.3846153846152,-1.0,111.89982925441093,2.880122743182475,347.20752460103506,
2023-12-18 15:33:18.807000,-8.012048192771084,-4.9156626506024095,-2.7951807228915664,-4.9147762109135495,-7.838749233599018,-2.3568362967504597,2.0,2.8754578754578755,347.77070063694265,22.459879960375268,17.693141425324864,3.971446885379639,1223.4432234432234,-1.0,111.89982925441093,2.880074448769439,347.21334719908816,
2023-12-18 15:33:18.815000,-8.072289156626507,-4.879518072289157,-2.807228915662651,-4.9442060085836905,-7.963825873697118,-2.3323114653586754,2.0,2.8754578754578755,347.77070063694265,22.307208204650077,19.1587902802867,4.841675893013227,1235.164835164835,-1.0,111.89982925441093,2.880026049304071,347.21918263367326,
2023-12-18 15:33:18.823000,-8.060240963855422,-4.927710843373494,-2.843373493975904,-5.030042918454935,-7.924586143470263,-2.342121397915389,2.0,2.8754578754578755,347.77070063694265,21.742322708466872,18.59390478410349,4.337859099120097,1250.5494505494505,-1.0,111.89982925441093,2.879977550018635,347.2250302733604,
2023-12-18 15:33:18.830000,-8.120481927710843,-4.9397590361445785,-2.819277108433735,-4.9589209074187615,-7.968730839975475,-2.364193746167995,2.0,2.8754578754578755,347.77070063694265,21.78812423518443,17.31146203601189,4.093584289959792,1270.3296703296703,-1.0,111.89982925441093,2.8799289570201423,347.23088938145423,
2023-12-18 15:33:18.838000,-8.132530120481928,-4.9156626506024095,-2.819277108433735,-4.956468424279583,-7.946658491722869,-2.3838136112814223,2.0,2.8754578754578755,347.77070063694265,21.833925761901988,15.738942952042422,3.589767496066662,1291.5750915750914,-1.0,111.89982925441093,2.879880277203668,347.2367591264168,
2023-12-18 15:33:18.846000,-8.132530120481928,-4.903614457831326,-2.783132530120482,-4.86817903126916,-8.017780502759043,-2.3789086450030656,2.0,2.8754578754578755,347.77070063694265,21.22323873900122,14.838179593263796,3.8493094807994868,1315.7509157509157,-1.0,111.89982925441093,2.87983151774377,347.2426386429779,
2023-12-18 15:33:18.853000,-8.132530120481928,-4.855421686746988,-2.771084337349398,-4.902513795217658,-8.015328019619865,-2.3911710606989574,2.0,2.8754578754578755,347.77070063694265,21.177437212283664,13.479400967309598,3.6508361983567386,1342.8571428571427,528.533935546875,113.52156591027196,2.8797826856194764,347.24852708921287,
2023-12-18 15:33:18.861000,-8.096385542168676,-4.819277108433735,-2.783132530120482,-4.809319435928877,-7.9809932556713665,-2.2832618025751072,2.0,2.8754578754578755,347.77070063694265,21.26904026571878,11.93741623448517,4.200454518967426,1370.6959706959706,-1.0,113.52156591027196,2.879733788121185,347.25442358564845,
2023-12-18 15:33:18.869000,-8.084337349397591,-4.83132530120482,-2.7590361445783134,-4.890251379521765,-8.047210300429184,-2.258736971183323,2.0,2.8754578754578755,347.77070063694265,21.29957461686382,10.25802692150807,5.543965969349105,1397.8021978021977,-1.0,113.52156591027196,2.8796848332526324,347.26032716697557,
2023-12-18 15:33:18.876000,-7.9397590361445785,-4.746987951807229,-2.7590361445783134,-4.721030042918454,-7.819129368485592,-2.2857142857142856,2.0,2.8754578754578755,347.77070063694265,21.528582250451603,10.151156692500438,7.391294213623914,1420.5128205128203,-1.0,113.52156591027196,2.879635829218935,347.26623684356605,
2023-12-18 15:33:18.884000,-7.855421686746988,-4.72289156626506,-2.710843373493976,-4.725935009196811,-7.694052728387492,-2.288166768853464,2.0,2.8754578754578755,347.77070063694265,21.589650952741682,9.95268341005769,9.391294213623913,1442.4908424908424,-1.0,113.52156591027196,2.8795867844066985,347.27215160387044,
2023-12-18 15:33:18.892000,-7.783132530120482,-4.662650602409639,-2.7590361445783134,-4.62047823421214,-7.630288166768853,-2.3126916002452482,2.0,2.8754578754578755,347.77070063694265,21.91026163976458,12.7618437154012,12.001981236524678,1460.07326007326,-1.0,113.52156591027196,2.879537707363682,347.2780704168717,
2023-12-18 15:33:18.899000,-7.91566265060241,-4.578313253012048,-2.819277108433735,-4.583690987124463,-7.75781729000613,-2.3617412630288164,2.0,2.8754578754578755,347.77070063694265,21.894994464192063,15.876347532195094,13.605034671639181,1473.260073260073,-1.0,113.52156591027196,2.879488606778153,347.2839922345711,
2023-12-18 15:33:18.907000,-8.120481927710843,-4.55421686746988,-2.7951807228915664,-4.578786020846106,-7.978540772532188,-2.364193746167995,2.0,2.8754578754578755,347.77070063694265,22.29194102907756,17.28092768486685,14.246256045684982,1484.9816849816848,-1.0,113.52156591027196,2.8794394914581294,347.28991599449085,
2023-12-18 15:33:18.915000,-8.289156626506024,-4.55421686746988,-2.8313253012048194,-4.554261189454322,-8.135499693439607,-2.381361128142244,2.0,2.8754578754578755,347.77070063694265,22.322475380222595,16.029019287920285,13.727172076219334,1490.8424908424906,-1.0,113.52156591027196,2.879390370310628,347.29584062217583,
2023-12-18 15:33:18.922000,-8.337349397590362,-4.55421686746988,-2.710843373493976,-4.564071122011036,-8.079092581238504,-2.3494788473329247,2.0,2.873992673992674,347.9479989803722,23.055299807703513,13.29619486043937,12.856943068585746,1487.9120879120878,-1.0,113.52156591027196,2.8793412523211033,347.30176503367073,
2023-12-18 15:33:18.930000,-8.240963855421688,-4.566265060240964,-2.662650602409639,-4.618025751072961,-8.042305334150827,-2.209687308399755,2.0,2.8754578754578755,347.77070063694265,22.07820057106229,11.906881883340132,11.11648505331857,1481.3186813186812,-1.0,113.52156591027196,2.8792921464984196,347.3076881425073,
2023-12-18 15:33:18.938000,-8.216867469879519,-4.590361445783133,-2.674698795180723,-4.63519313304721,-8.06928264868179,-2.219497240956468,2.0,2.873992673992674,347.9479989803722,22.505681487092826,8.395431501660743,9.971446885379638,1467.3992673992673,-1.0,113.52156591027196,2.8792430622083205,347.31360881929106,
2023-12-18 15:33:18.945000,-8.120481927710843,-4.578313253012048,-2.63855421686747,-4.5812385039852845,-7.934396076026977,-2.2611894543225013,2.0,2.8754578754578755,347.77070063694265,20.704154769535574,8.196958219217995,9.238622457898723,1449.8168498168498,-1.0,113.52156591027196,2.8791940086977474,347.31952594889464,
2023-12-18 15:33:18.953000,-8.120481927710843,-4.63855421686747,-2.674698795180723,-4.6327406499080315,-7.902513795217658,-2.2660944206008584,2.0,2.873992673992674,347.9479989803722,20.353009731367635,6.990851348988987,8.353126274692617,1429.3040293040292,-1.0,113.52156591027196,2.8791449945842222,347.32543849189847,
2023-12-18 15:33:18.961000,-8.144578313253012,-4.614457831325302,-2.710843373493976,-4.627835683629675,-7.941753525444512,-2.246474555487431,2.0,2.8754578754578755,347.77070063694265,20.276673853505038,6.090087990210361,8.108851465532311,1407.3260073260071,-1.0,113.52156591027196,2.879096027939851,347.33134547447173,
2023-12-18 15:33:18.968000,-8.168674698795181,-4.674698795180723,-2.710843373493976,-4.733292458614347,-8.059472716125077,-2.2562844880441446,2.0,2.8754578754578755,347.77070063694265,20.276673853505038,6.090087990210361,8.108851465532311,1379.4871794871794,-1.0,113.52156591027196,2.879047116727009,347.33724593600203,
2023-12-18 15:33:18.976000,-8.240963855421688,-4.746987951807229,-2.746987951807229,-4.833844267320662,-8.133047210300429,-2.251379521765788,2.0,2.873992673992674,347.9479989803722,19.6049181283142,6.45650020395082,6.856943068585746,1350.9157509157508,-1.0,113.52156591027196,2.878998269304458,347.3431388678431,
2023-12-18 15:33:18.984000,-8.325301204819278,-4.795180722891566,-2.807228915662651,-4.779889638258736,-8.118332311465359,-2.3347639484978537,2.0,2.873992673992674,347.9479989803722,19.971330342054657,7.7236757764699036,6.12411864110483,1326.007326007326,-1.0,113.52156591027196,2.8789494934591873,347.3490233304585,
2023-12-18 15:33:18.991000,-8.349397590361447,-4.843373493975903,-2.843373493975904,-4.895156345800122,-8.187001839362354,-2.3789086450030656,2.0,2.8754578754578755,347.77070063694265,19.57438377716916,9.95268341005769,5.3760270380513955,1301.098901098901,-1.0,113.52156591027196,2.8789007967759583,347.3548984090329,
2023-12-18 15:33:18.999000,-8.397590361445783,-4.879518072289157,-2.891566265060241,-4.9368485591661555,-8.250766400980993,-2.430410790925812,2.0,2.8754578754578755,347.77070063694265,20.09346774663481,12.563370432958452,4.673736961715517,1284.9816849816848,-1.0,113.52156591027196,2.878852187500534,347.3607631089586,
2023-12-18 15:33:19.007000,-8.433734939759036,-4.879518072289157,-2.9036144578313254,-4.9147762109135495,-8.282648681790313,-2.4573881054567748,2.0,2.873992673992674,347.9479989803722,20.230872326787484,15.204591807004254,4.185187343394906,1271.7948717948716,-1.0,113.52156591027196,2.8788036736466784,347.3666164631893,
2023-12-18 15:33:19.014000,-8.481927710843374,-4.867469879518072,-2.91566265060241,-4.865726548129981,-8.321888412017167,-2.4770079705702024,2.0,2.873992673992674,347.9479989803722,21.040032632130995,16.700775013111123,4.658469786142998,1264.4688644688645,-1.0,113.52156591027196,2.878755262562254,347.3724575851278,
2023-12-18 15:33:19.022000,-8.493975903614459,-4.843373493975903,-2.9036144578313254,-4.885346413243409,-8.388105456774984,-2.4206008583690988,2.0,2.873992673992674,347.9479989803722,20.76522347182565,17.76947730318746,5.192820931181166,1263.7362637362637,-1.0,113.52156591027196,2.878706960813118,347.3782856826443,
2023-12-18 15:33:19.030000,-8.493975903614459,-4.771084337349397,-2.9036144578313254,-4.74310239117106,-8.351318209687308,-2.459840588595953,2.0,2.8754578754578755,347.77070063694265,20.994231105413437,17.92214905891265,5.574500320494143,1266.6666666666665,-1.0,113.52156591027196,2.8786587746627696,347.3841000000569,
2023-12-18 15:33:19.037000,-8.421686746987952,-4.710843373493976,-2.843373493975904,-4.664622930717351,-8.297363580625383,-2.4377682403433476,2.0,2.873992673992674,347.9479989803722,20.887360876405804,16.77711089097372,6.658469786142998,1273.9926739926739,-1.0,113.52156591027196,2.8786107109763504,347.38989970904964,
2023-12-18 15:33:19.045000,-8.325301204819278,-4.614457831325302,-2.771084337349398,-4.600858369098712,-8.196811771919068,-2.275904353157572,2.0,2.873992673992674,347.9479989803722,21.177437212283664,15.418332265019522,7.849309480799486,1284.9816849816848,-1.0,113.52156591027196,2.8785627762993027,347.3956840197957,
2023-12-18 15:33:19.052000,-8.240963855421688,-4.566265060240964,-2.7590361445783134,-4.576333537706928,-8.13059472716125,-2.288166768853464,2.0,2.8754578754578755,347.77070063694265,21.11636850999359,13.540469669599675,9.101217877746052,1298.168498168498,-1.0,113.52156591027196,2.878514976325727,347.40145224528817,
2023-12-18 15:33:19.060000,-8.156626506024097,-4.542168674698796,-2.698795180722892,-4.524831391784181,-7.9736358062538315,-2.2145922746781115,2.0,2.873992673992674,347.9479989803722,21.040032632130995,11.708408600897384,10.185187343394906,1312.8205128205127,-1.0,113.52156591027196,2.8784673168435204,347.40720368697157,
2023-12-18 15:33:19.068000,-8.060240963855422,-4.530120481927711,-2.710843373493976,-4.497854077253218,-7.870631514408338,-2.2611894543225013,2.0,2.8754578754578755,347.77070063694265,21.10110133442107,10.456500203950819,11.253889633471243,1322.3443223443223,-1.0,113.52156591027196,2.878419803309658,347.41293768613525,
2023-12-18 15:33:19.075000,-8.012048192771084,-4.46987951807229,-2.698795180722892,-4.497854077253218,-7.865726548129981,-2.2636419374616796,2.0,2.872527472527472,348.1254781943382,21.2843074412913,8.868713944408835,11.864576656372005,1328.937728937729,-1.0,113.52156591027196,2.8783724403574626,347.4186536831981,
2023-12-18 15:33:19.083000,-7.9397590361445785,-4.493975903614458,-2.7228915662650603,-4.448804414469651,-7.6621704475781724,-2.248927038626609,2.0,2.873992673992674,347.9479989803722,22.353009731367635,7.754210127614941,12.139385816677349,1334.065934065934,-1.0,113.52156591027196,2.8783252318653307,347.4243512098412,
2023-12-18 15:33:19.091000,-7.963855421686747,-4.46987951807229,-2.63855421686747,-4.5591661557326795,-7.745554874310239,-2.0968730839975476,2.0,2.873992673992674,347.9479989803722,22.978963929840916,8.10535516578288,11.895111007517043,1340.6593406593406,-1.0,113.52156591027196,2.8782781812740184,347.4300298508741,
2023-12-18 15:33:19.098000,-7.987951807228916,-4.493975903614458,-2.63855421686747,-4.473329245861435,-7.809319435928877,-2.2145922746781115,2.0,2.873992673992674,347.9479989803722,23.26904026571878,7.494668142882118,10.490530854845288,1339.9267399267399,-1.0,113.52156591027196,2.8782312920791226,347.4356891842157,
2023-12-18 15:33:19.106000,-8.0,-4.481927710843374,-2.6144578313253013,-4.453709380748007,-7.846106683016554,-2.082158185162477,2.0,2.873992673992674,347.9479989803722,23.2843074412913,7.601538371889751,9.421828564768951,1339.194139194139,-1.0,113.52156591027196,2.8781845673767004,347.4413288359351,
2023-12-18 15:33:19.114000,-8.024096385542169,-4.530120481927711,-2.626506024096386,-4.608215818516247,-7.804414469650521,-2.160637645616186,2.0,2.873992673992674,347.9479989803722,23.528582250451603,8.166423868072958,7.238622457898723,1335.5311355311355,-1.0,113.52156591027196,2.8781380098681755,347.4469484796622,
2023-12-18 15:33:19.121000,-8.036144578313253,-4.578313253012048,-2.6144578313253013,-4.62047823421214,-7.824034334763948,-2.0968730839975476,2.0,2.873992673992674,347.9479989803722,23.95606316648214,8.914515471126393,6.45999650370025,1338.4615384615383,-1.0,113.52156591027196,2.8780916218666217,347.4525478358303,
2023-12-18 15:33:19.129000,-8.060240963855422,-4.578313253012048,-2.626506024096386,-4.5297363580625385,-7.860821581851624,-2.148375229920294,2.0,2.873992673992674,347.9479989803722,24.398811258085193,8.685507837538605,5.589767496066663,1347.985347985348,-1.0,113.52156591027196,2.8780454053044493,347.45812667074966,
2023-12-18 15:33:19.137000,-8.084337349397591,-4.55421686746988,-2.5903614457831328,-4.593500919681177,-7.9147762109135495,-2.128755364806867,2.0,2.873992673992674,347.9479989803722,24.93316240312336,9.540469669599675,4.826408717440708,1365.5677655677655,-1.0,113.52156591027196,2.8779993617424973,347.46368479551296,
2023-12-18 15:33:19.144000,-8.084337349397591,-4.602409638554217,-2.566265060240964,-4.630288166768853,-7.88289393010423,-2.128755364806867,2.0,2.873992673992674,347.9479989803722,25.559116601596642,10.135889516927918,4.398927801410173,1394.8717948717947,-1.0,113.52156591027196,2.877953492380518,347.4692220647309,
2023-12-18 15:33:19.152000,-8.108433734939759,-4.626506024096386,-2.5783132530120483,-4.63519313304721,-7.971183323114653,-2.094420600858369,2.0,2.873992673992674,347.9479989803722,25.833925761901988,11.46413379173708,4.444729328127731,1431.5018315018315,-1.0,113.52156591027196,2.8779077980690464,347.4747383751019,
2023-12-18 15:33:19.160000,-8.120481927710843,-4.63855421686747,-2.602409638554217,-4.63519313304721,-8.010423053341508,-2.1336603310852236,2.0,2.873992673992674,347.9479989803722,26.337742555795117,12.013752112347767,3.8493094807994868,1477.6556776556777,-1.0,113.52156591027196,2.8778622797804823,347.4802336086944,
2023-12-18 15:33:19.167000,-8.180722891566266,-4.63855421686747,-2.5783132530120483,-4.647455548743102,-8.08399754751686,-2.12385039852851,2.0,2.873992673992674,347.9479989803722,26.398811258085193,12.883981119981353,3.757706427364372,1528.2051282051282,-1.0,113.52156591027196,2.8778169380985283,347.48570769441324,
2023-12-18 15:33:19.175000,-8.19277108433735,-4.674698795180723,-2.5783132530120483,-4.6695278969957075,-8.042305334150827,-2.148375229920294,2.0,2.873992673992674,347.9479989803722,26.307208204650077,13.784744478759979,3.2386224578987233,1580.9523809523807,-1.0,113.52156591027196,2.877771772812914,347.4911606567874,
2023-12-18 15:33:19.183000,-8.228915662650603,-4.710843373493976,-2.566265060240964,-4.711220110361741,-8.088902513795217,-2.1434702636419374,2.0,2.873992673992674,347.9479989803722,26.719421945108092,14.868713944408835,2.8874774197307844,1630.03663003663,-1.0,113.52156591027196,2.8777267834285176,347.4965925546735,
2023-12-18 15:33:19.190000,-8.301204819277109,-4.734939759036145,-2.626506024096386,-4.740649908031882,-8.123237277743716,-2.2145922746781115,2.0,2.873992673992674,347.9479989803722,26.383544082512675,15.479400967309598,3.192820931181166,1673.9926739926739,-1.0,113.52156591027196,2.8776819691830235,347.50200347912556,
2023-12-18 15:33:19.198000,-8.289156626506024,-4.746987951807229,-2.63855421686747,-4.738197424892704,-8.152667075413856,-2.1630901287553645,2.0,2.873992673992674,347.9479989803722,25.95606316648214,16.39543150166074,3.208088106753685,1706.227106227106,-1.0,113.52156591027196,2.8776373290657453,347.5073935511251,
2023-12-18 15:33:19.206000,-8.301204819277109,-4.771084337349397,-2.662650602409639,-4.801961986511342,-8.118332311465359,-2.1557326793378295,2.0,2.873992673992674,347.9479989803722,25.696521181749315,16.410698677233263,3.6050346716391815,1726.007326007326,-1.0,113.52156591027196,2.877592862295431,347.512762864053,
2023-12-18 15:33:19.213000,-8.313253012048193,-4.771084337349397,-2.6506024096385543,-4.789699570815451,-8.14530962599632,-2.199877375843041,2.0,2.873992673992674,347.9479989803722,25.11636850999359,17.006118524561508,4.353126274692617,1735.5311355311353,-1.0,113.52156591027196,2.877548567816096,347.51811154438036,
2023-12-18 15:33:19.221000,-8.313253012048193,-4.771084337349397,-2.662650602409639,-4.76026977314531,-8.263028816676885,-2.212139791538933,2.0,2.873992673992674,347.9479989803722,25.10110133442107,16.883981119981353,4.79587436629567,1735.5311355311353,-1.0,113.52156591027196,2.8775044438978696,347.5234397997212,
2023-12-18 15:33:19.229000,-8.361445783132531,-4.783132530120482,-2.710843373493976,-4.809319435928877,-8.243408951563458,-2.229307173513182,2.0,2.872527472527472,348.1254781943382,24.658353242818016,16.319095623798148,6.1546529922498685,1726.7399267399267,-1.0,113.52156591027196,2.8774604886518635,347.52874785683815,
2023-12-18 15:33:19.236000,-8.361445783132531,-4.783132530120482,-2.698795180722892,-4.828939301042305,-8.297363580625383,-2.275904353157572,2.0,2.872527472527472,348.1254781943382,24.734689120680613,16.166423868072958,6.811141541868189,1710.6227106227104,-1.0,113.52156591027196,2.8774167000184185,347.53403596341553,
2023-12-18 15:33:19.244000,-8.397590361445783,-4.819277108433735,-2.6867469879518073,-4.855916615573268,-8.245861434702636,-2.258736971183323,2.0,2.873992673992674,347.9479989803722,24.734689120680613,16.166423868072958,6.811141541868189,1684.249084249084,-1.0,113.52156591027196,2.8773730756514597,347.5393044020308,
2023-12-18 15:33:19.252000,-8.349397590361447,-4.83132530120482,-2.698795180722892,-4.792152053954629,-8.265481299816063,-2.209687308399755,2.0,2.873992673992674,347.9479989803722,24.61255171610046,15.464133791737078,7.635569022784219,1649.8168498168498,-1.0,113.52156591027196,2.8773296129416814,347.5445534866565,
2023-12-18 15:33:19.259000,-8.349397590361447,-4.819277108433735,-2.662650602409639,-4.873083997547517,-8.177191906805641,-2.248927038626609,2.0,2.873992673992674,347.9479989803722,24.627818891672977,14.62443913524853,8.398927801410174,1609.5238095238094,-1.0,113.52156591027196,2.8772863096363928,347.5497834879827,
2023-12-18 15:33:19.267000,-8.325301204819278,-4.819277108433735,-2.63855421686747,-4.809319435928877,-8.177191906805641,-2.199877375843041,2.0,2.872527472527472,348.1254781943382,24.505681487092826,13.815278829905019,9.13175222889109,1568.4981684981683,-1.0,113.52156591027196,2.8772431638301192,347.5549946348785,
2023-12-18 15:33:19.275000,-8.313253012048193,-4.807228915662651,-2.662650602409639,-4.875536480686695,-8.155119558553034,-2.1974248927038627,2.0,2.872527472527472,348.1254781943382,24.322475380222595,13.586271196317231,9.101217877746052,1524.5421245421244,-1.0,113.52156591027196,2.877200172549219,347.5601872851505,
2023-12-18 15:33:19.282000,-8.240963855421688,-4.795180722891566,-2.6867469879518073,-4.83629675045984,-8.101164929491109,-2.2440220723482525,2.0,2.872527472527472,348.1254781943382,24.353009731367635,12.975584173416468,9.78824077850941,1482.7838827838827,-1.0,113.52156591027196,2.8771573322324118,347.56536186773644,
2023-12-18 15:33:19.290000,-8.25301204819277,-4.771084337349397,-2.662650602409639,-4.782342121397915,-8.032495401594113,-2.2219497240956465,2.0,2.873992673992674,347.9479989803722,24.07820057106229,12.94504982227143,9.834042305226967,1443.2234432234432,-1.0,113.52156591027196,2.8771146396314773,347.57051877392837,
2023-12-18 15:33:19.298000,-8.228915662650603,-4.759036144578314,-2.63855421686747,-4.826486817903127,-8.106069895769465,-2.1679950950337217,2.0,2.872527472527472,348.1254781943382,24.398811258085193,12.807645242118758,9.9409125342346,1406.5934065934066,-1.0,113.52156591027196,2.8770720918326185,347.57565835443387,
2023-12-18 15:33:19.305000,-8.19277108433735,-4.72289156626506,-2.674698795180723,-4.664622930717351,-8.005518087063152,-2.2734518700183934,2.0,2.872527472527472,348.1254781943382,24.74995629625313,12.654973486393567,9.95617970980712,1368.4981684981683,-1.0,113.52156591027196,2.8770296858563094,347.58078096785914,
2023-12-18 15:33:19.313000,-8.156626506024097,-4.674698795180723,-2.6506024096385543,-4.676885346413243,-8.030042918454935,-2.21704475781729,2.0,2.872527472527472,348.1254781943382,24.734689120680613,13.051920051279064,9.78824077850941,1336.9963369963368,-1.0,113.52156591027196,2.876987418152067,347.5858870419175,
2023-12-18 15:33:19.321000,-8.19277108433735,-4.674698795180723,-2.662650602409639,-4.691600245248313,-8.049662783568362,-2.187614960147149,2.0,2.872527472527472,348.1254781943382,24.841559349688247,13.43359944059204,9.681370549501777,1304.7619047619046,-1.0,113.52156591027196,2.8769452850751187,347.59097701570397,
2023-12-18 15:33:19.328000,-8.156626506024097,-4.650602409638554,-2.626506024096386,-4.703862660944206,-7.954015941140404,-2.219497240956468,2.0,2.872527472527472,348.1254781943382,24.994231105413437,13.891614707767614,9.895111007517043,1276.1904761904761,-1.0,113.52156591027196,2.8769032829040575,347.596051337565,
2023-12-18 15:33:19.336000,-8.156626506024097,-4.650602409638554,-2.674698795180723,-4.63519313304721,-7.9662783568362965,-2.3126916002452482,2.0,2.872527472527472,348.1254781943382,25.040032632130995,14.135889516927918,9.696637725074295,1249.084249084249,-1.0,113.52156591027196,2.8768614078573886,347.60111046310544,
2023-12-18 15:33:19.344000,-8.156626506024097,-4.626506024096386,-2.674698795180723,-4.613120784794604,-7.956468424279582,-2.241569589209074,2.0,2.872527472527472,348.1254781943382,25.22323873900122,14.425965852805781,9.925645358662083,1229.3040293040292,-1.0,113.52156591027196,2.876819656108929,347.6061548533319,
2023-12-18 15:33:19.351000,-8.156626506024097,-4.566265060240964,-2.674698795180723,-4.591048436541999,-7.9368485591661555,-2.2268546903740036,2.0,2.872527472527472,348.1254781943382,24.734689120680613,15.143523104714179,9.818775129654448,1210.989010989011,-1.0,113.52156591027196,2.8767780238021055,347.611184972929,
2023-12-18 15:33:19.359000,-8.156626506024097,-4.566265060240964,-2.6867469879518073,-4.561618638871858,-7.988350705088902,-2.2023298589822193,2.0,2.872527472527472,348.1254781943382,25.25377309014626,15.509935318454636,9.864576656372005,1200.7326007326008,-1.0,113.52156591027196,2.8767365070631543,347.6162012886686,
2023-12-18 15:33:19.367000,-8.168674698795181,-4.566265060240964,-2.698795180722892,-4.598405885959534,-8.012875536480687,-2.2145922746781115,2.0,2.872527472527472,348.1254781943382,25.10110133442107,15.387797913874483,10.230988870112464,1192.6739926739926,-1.0,113.52156591027196,2.876695102013281,347.62120426794377,
2023-12-18 15:33:19.374000,-8.204819277108435,-4.55421686746988,-2.710843373493976,-4.5959534028203555,-8.049662783568362,-2.2145922746781115,2.0,2.873992673992674,347.9479989803722,25.528582250451603,15.540469669599675,10.154652992249869,1190.4761904761904,-1.0,113.52156591027196,2.8766538047797865,347.62619437742813,
2023-12-18 15:33:19.382000,-8.240963855421688,-4.542168674698796,-2.6867469879518073,-4.5567136725935,-8.081545064377682,-2.2145922746781115,2.0,2.872527472527472,348.1254781943382,25.360643319153894,14.94504982227143,10.230988870112464,1190.4761904761904,-1.0,113.52156591027196,2.876612611541046,347.63117207729454,
2023-12-18 15:33:19.390000,-8.27710843373494,-4.542168674698796,-2.6867469879518073,-4.571428571428571,-8.088902513795217,-2.27835683629675,2.0,2.872527472527472,348.1254781943382,25.330108968008854,14.853446768836315,9.78824077850941,1197.069597069597,-1.0,113.52156591027196,2.8765715190982957,347.63613775262974,
2023-12-18 15:33:19.397000,-8.301204819277109,-4.566265060240964,-2.7228915662650603,-4.5885959534028204,-8.061925199264255,-2.246474555487431,2.0,2.872527472527472,348.1254781943382,25.40644484587145,14.502301730668377,9.360759862478876,1205.128205128205,-1.0,113.52156591027196,2.8765305242555823,347.64109178853386,
2023-12-18 15:33:19.405000,-8.313253012048193,-4.590361445783133,-2.734939759036145,-4.5959534028203555,-8.174739423666463,-2.2538320049049663,2.0,2.872527472527472,348.1254781943382,25.87972728861954,14.364897150515706,9.14701940446361,1216.117216117216,-1.0,113.52156591027196,2.876489623372757,347.64603462364596,
2023-12-18 15:33:19.412000,-8.337349397590362,-4.55421686746988,-2.710843373493976,-4.568976088289393,-8.17964438994482,-2.258736971183323,2.0,2.872527472527472,348.1254781943382,26.246139502360002,14.181691043645476,8.948546122020861,1230.7692307692307,-1.0,113.52156591027196,2.8764488128657058,347.65096668985933,
2023-12-18 15:33:19.420000,-8.301204819277109,-4.578313253012048,-2.734939759036145,-4.613120784794604,-8.09871244635193,-2.248927038626609,2.0,2.872527472527472,348.1254781943382,26.41407843365771,13.830546005477537,8.658469786142998,1246.153846153846,543.853759765625,110.32377532125021,2.876408089213259,347.65588841148696,
2023-12-18 15:33:19.428000,-8.289156626506024,-4.542168674698796,-2.710843373493976,-4.586143470263642,-8.088902513795217,-2.27835683629675,2.0,2.872527472527472,348.1254781943382,26.536215838237865,13.769477303187461,8.689004137288036,1263.003663003663,-1.0,110.32377532125021,2.876367448963526,347.6608002044979,
2023-12-18 15:33:19.435000,-8.265060240963855,-4.614457831325302,-2.7228915662650603,-4.583690987124463,-8.14530962599632,-2.293071735131821,2.0,2.872527472527472,348.1254781943382,26.994231105413437,14.27329409708059,8.200454518967426,1278.3882783882782,-1.0,110.32377532125021,2.876326888739723,347.6657024758106,
2023-12-18 15:33:19.443000,-8.240963855421688,-4.626506024096386,-2.734939759036145,-4.613120784794604,-8.137952176578786,-2.248927038626609,2.0,2.872527472527472,348.1254781943382,26.673620418390534,15.051920051279064,8.353126274692617,1292.3076923076922,-1.0,110.32377532125021,2.876286405245619,347.67059562263813,
2023-12-18 15:33:19.451000,-8.265060240963855,-4.602409638554217,-2.698795180722892,-4.645003065603924,-8.08399754751686,-2.2268546903740036,2.0,2.872527472527472,348.1254781943382,26.719421945108092,15.464133791737078,8.719538488433074,1309.1575091575091,-1.0,110.32377532125021,2.876245995270639,347.6754800318678,
2023-12-18 15:33:19.458000,-8.228915662650603,-4.626506024096386,-2.7228915662650603,-4.6106683016554255,-8.071735131820969,-2.2955242182709994,2.0,2.872527472527472,348.1254781943382,26.61255171610046,16.27329409708059,8.704271312860556,1326.007326007326,-1.0,110.32377532125021,2.876205655694742,347.6803560794745,
2023-12-18 15:33:19.466000,-8.240963855421688,-4.614457831325302,-2.734939759036145,-4.627835683629675,-8.096259963212752,-2.2268546903740036,2.0,2.872527472527472,348.1254781943382,26.475147135947786,16.92978264669891,8.96381329759338,1345.054945054945,-1.0,110.32377532125021,2.8761653834931367,347.68522412994616,
2023-12-18 15:33:19.474000,-8.25301204819277,-4.614457831325302,-2.710843373493976,-4.689147762109135,-8.06928264868179,-2.3347639484978537,2.0,2.872527472527472,348.1254781943382,26.307208204650077,16.670240661966087,9.192820931181165,1361.1721611721612,-1.0,110.32377532125021,2.8761251757409467,347.6900845357213,
2023-12-18 15:33:19.481000,-8.240963855421688,-4.662650602409639,-2.7228915662650603,-4.645003065603924,-8.05211526670754,-2.3372164316370325,2.0,2.872527472527472,348.1254781943382,26.307208204650077,17.036652875706544,9.330225511333838,1377.2893772893772,-1.0,110.32377532125021,2.8760850296178955,347.6949376366218,
2023-12-18 15:33:19.489000,-8.301204819277109,-4.63855421686747,-2.7228915662650603,-4.659717964438994,-8.16002452483139,-2.2660944206008584,2.0,2.872527472527472,348.1254781943382,26.017131868772214,16.59390478410349,9.28442398461628,1386.080586080586,-1.0,110.32377532125021,2.876044942413061,347.69978375927377,
2023-12-18 15:33:19.497000,-8.325301204819278,-4.626506024096386,-2.698795180722892,-4.706315144083384,-8.157572041692212,-2.3028816676885344,2.0,2.872527472527472,348.1254781943382,25.894994464192063,15.708408600897384,9.482897267059029,1391.2087912087911,-1.0,110.32377532125021,2.876004911529841,347.70462321650865,
2023-12-18 15:33:19.504000,-8.313253012048193,-4.63855421686747,-2.734939759036145,-4.74310239117106,-8.174739423666463,-2.2611894543225013,2.0,2.872527472527472,348.1254781943382,26.124002097779847,15.265660509294332,9.513431618204066,1394.139194139194,-1.0,110.32377532125021,2.8759649344911367,347.7094563067324,
2023-12-18 15:33:19.512000,-8.313253012048193,-4.63855421686747,-2.674698795180723,-4.698957694665849,-8.17964438994482,-2.241569589209074,2.0,2.872527472527472,348.1254781943382,25.818658586329466,14.670240661966087,9.421828564768951,1394.8717948717947,-1.0,110.32377532125021,2.8759250089448702,347.71428331325706,
2023-12-18 15:33:19.520000,-8.289156626506024,-4.63855421686747,-2.6867469879518073,-4.770079705702023,-8.16002452483139,-2.219497240956468,2.0,2.872527472527472,348.1254781943382,25.818658586329466,14.670240661966087,9.421828564768951,1395.6043956043954,-1.0,110.32377532125021,2.8758851331277415,347.71910444840756,
2023-12-18 15:33:19.527000,-8.265060240963855,-4.650602409638554,-2.710843373493976,-4.6033108522378905,-8.106069895769465,-2.239117106069896,2.0,2.872527472527472,348.1254781943382,25.894994464192063,14.10535516578288,9.208088106753685,1393.4065934065934,-1.0,110.32377532125021,2.875845305804295,347.7239198608596,
2023-12-18 15:33:19.535000,-8.240963855421688,-4.614457831325302,-2.710843373493976,-4.664622930717351,-8.064377682403434,-2.2636419374616796,2.0,2.8710622710622715,348.303138555754,26.185070800069926,13.754210127614941,9.95617970980712,1388.278388278388,-1.0,110.32377532125021,2.8758055253274555,347.7287297488532,
2023-12-18 15:33:19.543000,-8.240963855421688,-4.626506024096386,-2.674698795180723,-4.647455548743102,-8.13059472716125,-2.2562844880441446,2.0,2.8710622710622715,348.303138555754,26.246139502360002,13.677874249752346,10.093584289959791,1380.952380952381,-1.0,110.32377532125021,2.8757657896819504,347.7335343553185,
2023-12-18 15:33:19.550000,-8.265060240963855,-4.590361445783133,-2.6506024096385543,-4.627835683629675,-8.054567749846719,-2.2145922746781115,2.0,2.8710622710622715,348.303138555754,26.61255171610046,13.738942952042422,10.30732474797506,1372.8937728937728,-1.0,110.32377532125021,2.875726096844097,347.7383339245639,
2023-12-18 15:33:19.558000,-8.25301204819277,-4.578313253012048,-2.662650602409639,-4.522378908645003,-8.106069895769465,-2.239117106069896,2.0,2.872527472527472,348.1254781943382,26.5667501893829,13.677874249752346,10.001981236524678,1363.3699633699632,-1.0,110.32377532125021,2.8756864447528816,347.74312870542116,
2023-12-18 15:33:19.566000,-8.25301204819277,-4.566265060240964,-2.662650602409639,-4.578786020846106,-8.047210300429184,-2.2047823421213977,2.0,2.872527472527472,348.1254781943382,26.872093700833283,14.471767379523339,10.108851465532311,1356.0439560439559,-1.0,110.32377532125021,2.875646831807854,347.74791889087606,
2023-12-18 15:33:19.573000,-8.25301204819277,-4.55421686746988,-2.6506024096385543,-4.593500919681177,-8.088902513795217,-2.209687308399755,2.0,2.8710622710622715,348.303138555754,26.734689120680613,14.654973486393567,10.063049938814753,1348.7179487179487,-1.0,110.32377532125021,2.875607256945969,347.75270460875305,
2023-12-18 15:33:19.581000,-8.228915662650603,-4.518072289156627,-2.63855421686747,-4.551808706315144,-7.978540772532188,-2.229307173513182,2.0,2.8710622710622715,348.303138555754,26.551483013810383,14.838179593263796,10.45999650370025,1342.8571428571427,-1.0,110.32377532125021,2.8755677187007005,347.7574860358024,
2023-12-18 15:33:19.589000,-8.216867469879519,-4.542168674698796,-2.674698795180723,-4.571428571428571,-7.983445738810545,-2.2440220723482525,2.0,2.872527472527472,348.1254781943382,26.06293339548977,15.784744478759979,10.44472932812773,1339.194139194139,-1.0,110.32377532125021,2.8755282146817898,347.7622634604458,
2023-12-18 15:33:19.596000,-8.240963855421688,-4.542168674698796,-2.698795180722892,-4.5591661557326795,-8.039852851011648,-2.2955242182709994,2.0,2.8710622710622715,348.303138555754,26.6430860672455,16.77711089097372,9.971446885379638,1334.7985347985348,-1.0,110.32377532125021,2.875488742597438,347.76703715888107,
2023-12-18 15:33:19.604000,-8.216867469879519,-4.518072289156627,-2.7228915662650603,-4.5738810545677495,-8.064377682403434,-2.239117106069896,2.0,2.8710622710622715,348.303138555754,26.887360876405804,16.74657653982868,10.45999650370025,1330.4029304029302,-1.0,110.32377532125021,2.875449300784089,347.7718073315482,
2023-12-18 15:33:19.612000,-8.240963855421688,-4.542168674698796,-2.698795180722892,-4.5738810545677495,-8.057020232985899,-2.2440220723482525,2.0,2.8710622710622715,348.303138555754,26.688887593963056,16.89924829555387,10.750072839578113,1324.5421245421244,-1.0,110.32377532125021,2.8754098876146785,347.77657417482493,
2023-12-18 15:33:19.619000,-8.228915662650603,-4.542168674698796,-2.7228915662650603,-4.5591661557326795,-8.086450030656039,-2.2611894543225013,2.0,2.8710622710622715,348.303138555754,26.61255171610046,17.09772157799662,10.12411864110483,1317.9487179487178,-1.0,110.32377532125021,2.8753705014691295,347.7813378842476,
2023-12-18 15:33:19.627000,-8.240963855421688,-4.55421686746988,-2.710843373493976,-4.591048436541999,-8.034947884733292,-2.229307173513182,2.0,2.8710622710622715,348.303138555754,26.520948662665344,17.357263562729447,9.986714060952158,1312.8205128205127,-1.0,110.32377532125021,2.875331140739336,347.78609865390246,
2023-12-18 15:33:19.635000,-8.216867469879519,-4.566265060240964,-2.7228915662650603,-4.608215818516247,-8.09871244635193,-2.21704475781729,2.0,2.8710622710622715,348.303138555754,26.780490647398167,16.349629974943184,9.391294213623913,1305.4945054945053,-1.0,110.32377532125021,2.87529180383397,347.79085667584997,
2023-12-18 15:33:19.642000,-8.240963855421688,-4.566265060240964,-2.710843373493976,-4.568976088289393,-8.13059472716125,-2.280809319435929,2.0,2.8710622710622715,348.303138555754,27.391177670298934,15.189324631431735,9.605034671639181,1297.4358974358975,-1.0,110.32377532125021,2.8752524891830666,347.79561213956674,
2023-12-18 15:33:19.650000,-8.265060240963855,-4.55421686746988,-2.63855421686747,-4.554261189454322,-8.054567749846719,-2.1851624770079705,2.0,2.8710622710622715,348.303138555754,27.25377309014626,14.853446768836315,9.101217877746052,1289.3772893772893,-1.0,110.32377532125021,2.8752131952425004,347.8003652314068,
2023-12-18 15:33:19.658000,-8.265060240963855,-4.55421686746988,-2.662650602409639,-4.571428571428571,-8.11587982832618,-2.21704475781729,2.0,2.8710622710622715,348.303138555754,27.467513548161527,14.166423868072958,8.811141541868189,1279.8534798534797,-1.0,110.32377532125021,2.875173920498344,347.80511613407253,
2023-12-18 15:33:19.665000,-8.216867469879519,-4.578313253012048,-2.674698795180723,-4.627835683629675,-8.044757817290005,-2.1949724095646843,2.0,2.8710622710622715,348.303138555754,27.864460113047024,13.60153837188975,8.62793543499796,1271.7948717948716,-1.0,110.32377532125021,2.8751346634712,347.8098650260941,
2023-12-18 15:33:19.673000,-8.27710843373494,-4.55421686746988,-2.674698795180723,-4.6033108522378905,-8.093807480073574,-2.241569589209074,2.0,2.8710622710622715,348.303138555754,28.26140667793252,13.265660509294332,8.536332381562845,1265.9340659340658,-1.0,110.32377532125021,2.8750954227205057,347.8146120813057,
2023-12-18 15:33:19.681000,-8.27710843373494,-4.614457831325302,-2.674698795180723,-4.583690987124463,-8.091354996934395,-2.1949724095646843,2.0,2.8710622710622715,348.303138555754,28.76522347182565,12.502301730668377,7.834042305226967,1262.2710622710622,-1.0,110.32377532125021,2.8750561968488957,347.81935746832085,
2023-12-18 15:33:19.688000,-8.27710843373494,-4.590361445783133,-2.6867469879518073,-4.534641324340895,-8.150214592274677,-2.207234825260576,2.0,2.8695970695970696,348.4809803420985,28.872093700833283,12.471767379523339,8.29205757240254,1257.142857142857,-1.0,110.32377532125021,2.8750169845066256,347.8241013499971,
2023-12-18 15:33:19.696000,-8.27710843373494,-4.614457831325302,-2.63855421686747,-4.5567136725935,-8.057020232985899,-2.128755364806867,2.0,2.8710622710622715,348.303138555754,29.207971563428703,12.716042188683645,8.032515587669716,1257.142857142857,-1.0,110.32377532125021,2.874977784361344,347.8288438874468,
2023-12-18 15:33:19.704000,-8.25301204819277,-4.602409638554217,-2.6506024096385543,-4.598405885959534,-8.061925199264255,-2.118945432250153,2.0,2.8710622710622715,348.303138555754,29.375910494726412,12.94504982227143,7.635569022784219,1259.3406593406592,-1.0,110.32377532125021,2.8749385954560127,347.8335851965452,
2023-12-18 15:33:19.711000,-8.228915662650603,-4.55421686746988,-2.5903614457831328,-4.600858369098712,-7.902513795217658,-2.1459227467811157,2.0,2.8710622710622715,348.303138555754,29.40644484587145,14.029019287920285,8.017248412097196,1269.5970695970695,-1.0,110.32377532125021,2.874899417249951,347.8383253425911,
2023-12-18 15:33:19.719000,-8.180722891566266,-4.614457831325302,-2.5783132530120483,-4.561618638871858,-8.03740036787247,-2.141017780502759,2.0,2.8710622710622715,348.303138555754,29.63545247945924,15.28092768486685,8.215721694539944,1284.9816849816848,-1.0,110.32377532125021,2.8748602487112445,347.8430644501339,
2023-12-18 15:33:19.727000,-8.216867469879519,-4.578313253012048,-2.6144578313253013,-4.6400980993255665,-8.081545064377682,-2.153280196198651,2.0,2.8710622710622715,348.303138555754,29.620185303886718,16.28856127265311,8.322591923547579,1312.8205128205127,-1.0,110.32377532125021,2.8748210888496852,347.8478026386799,
2023-12-18 15:33:19.734000,-8.228915662650603,-4.566265060240964,-2.602409638554217,-4.5444512568976085,-8.039852851011648,-2.2023298589822193,2.0,2.8710622710622715,348.303138555754,29.91026163976458,17.403065089447,8.429462152555212,1352.3809523809523,-1.0,110.32377532125021,2.874781937145372,347.85253997098715,
2023-12-18 15:33:19.742000,-8.240963855421688,-4.626506024096386,-2.6144578313253013,-4.684242795830778,-8.108522378908644,-2.12385039852851,2.0,2.8710622710622715,348.303138555754,29.63545247945924,18.80764524211876,8.215721694539944,1402.197802197802,-1.0,110.32377532125021,2.8747427930639122,347.85727651154895,
2023-12-18 15:33:19.750000,-8.265060240963855,-4.566265060240964,-2.63855421686747,-4.630288166768853,-8.086450030656039,-2.199877375843041,2.0,2.8710622710622715,348.303138555754,30.26140667793252,19.800011654332497,8.246256045684982,1463.003663003663,-1.0,110.32377532125021,2.874703655606169,347.86201238090877,
2023-12-18 15:33:19.757000,-8.313253012048193,-4.602409638554217,-2.674698795180723,-4.637645616186388,-8.191906805640711,-2.1508277130594724,2.0,2.8710622710622715,348.303138555754,30.5667501893829,20.212225394790515,8.658469786142998,1526.007326007326,-1.0,110.32377532125021,2.8746645238408464,347.86674769141035,
2023-12-18 15:33:19.765000,-8.337349397590362,-4.602409638554217,-2.662650602409639,-4.605763335377069,-8.199264255058246,-2.280809319435929,2.0,2.8710622710622715,348.303138555754,30.719421945108092,20.60917195967601,8.45999650370025,1591.9413919413919,-1.0,110.32377532125021,2.8746253973329137,347.87148249551194,
2023-12-18 15:33:19.773000,-8.349397590361447,-4.578313253012048,-2.674698795180723,-4.5665236051502145,-8.304721030042918,-2.258736971183323,2.0,2.8710622710622715,348.303138555754,30.673620418390534,20.914515471126393,8.673736961715518,1649.8168498168498,-1.0,110.32377532125021,2.8745862756588134,347.87621684426824,
2023-12-18 15:33:19.780000,-8.301204819277109,-4.602409638554217,-2.6867469879518073,-4.615573267933783,-8.150214592274677,-2.207234825260576,2.0,2.8710622710622715,348.303138555754,30.933162403123358,20.62443913524853,9.208088106753685,1698.9010989010987,-1.0,110.32377532125021,2.874547158414262,347.8809507863858,
2023-12-18 15:33:19.788000,-8.373493975903616,-4.590361445783133,-2.698795180722892,-4.6253832004904964,-8.228694052728388,-2.2562844880441446,2.0,2.8710622710622715,348.303138555754,30.353009731367635,20.105355165782882,9.314958335761318,1738.4615384615383,-1.0,110.32377532125021,2.874508045222085,347.8856843672783,
2023-12-18 15:33:19.795000,-8.313253012048193,-4.578313253012048,-2.6867469879518073,-4.613120784794604,-8.162477007970569,-2.2317596566523603,2.0,2.8710622710622715,348.303138555754,30.353009731367635,20.105355165782882,9.314958335761318,1767.7655677655675,-1.0,110.32377532125021,2.874468935740036,347.89041762811655,
2023-12-18 15:33:19.803000,-8.337349397590362,-4.590361445783133,-2.662650602409639,-4.578786020846106,-8.243408951563458,-2.2047823421213977,2.0,2.8710622710622715,348.303138555754,30.07820057106229,19.861080356622576,9.513431618204066,1789.7435897435896,-1.0,110.32377532125021,2.874429829668728,347.89515060487196,
2023-12-18 15:33:19.811000,-8.325301204819278,-4.590361445783133,-2.710843373493976,-4.63519313304721,-8.189454322501533,-2.2538320049049663,2.0,2.8695970695970696,348.4809803420985,30.200337975642444,19.143523104714177,9.78824077850941,1797.8021978021977,-1.0,110.32377532125021,2.8743907267596294,347.89988332734544,
2023-12-18 15:33:19.818000,-8.337349397590362,-4.518072289156627,-2.698795180722892,-4.583690987124463,-8.285101164929491,-2.1949724095646843,2.0,2.8710622710622715,348.303138555754,30.353009731367635,18.731309364256163,9.9409125342346,1794.8717948717947,-1.0,110.32377532125021,2.8743516258727033,347.90461593321453,
2023-12-18 15:33:19.826000,-8.349397590361447,-4.566265060240964,-2.6867469879518073,-4.549356223175965,-8.187001839362354,-2.241569589209074,2.0,2.8710622710622715,348.303138555754,29.665986830604275,18.77711089097372,10.078317114387273,1776.5567765567764,-1.0,110.32377532125021,2.874312525930325,347.90934855263714,
2023-12-18 15:33:19.834000,-8.301204819277109,-4.566265060240964,-2.662650602409639,-4.539546290619252,-8.16002452483139,-2.209687308399755,2.0,2.8710622710622715,348.303138555754,30.307208204650077,17.830546005477537,10.658469786142998,1745.054945054945,-1.0,110.32377532125021,2.874273426871466,347.91408119275195,
2023-12-18 15:33:19.841000,-8.325301204819278,-4.566265060240964,-2.6867469879518073,-4.561618638871858,-8.167381974248926,-2.1704475781729,2.0,2.8681318681318677,348.65900383141764,30.41407843365771,17.78474447875998,10.521065205990325,1701.098901098901,-1.0,110.32377532125021,2.8742343287099383,347.9188138516205,
2023-12-18 15:33:19.849000,-8.313253012048193,-4.530120481927711,-2.6867469879518073,-4.522378908645003,-8.164929491109747,-2.207234825260576,2.0,2.8695970695970696,348.4809803420985,30.58201736495542,17.189324631431735,10.62793543499796,1648.3516483516482,-1.0,110.32377532125021,2.874195230558186,347.92354663678213,
2023-12-18 15:33:19.857000,-8.325301204819278,-4.518072289156627,-2.662650602409639,-4.5297363580625385,-8.206621704475781,-2.148375229920294,2.0,2.8695970695970696,348.4809803420985,30.505681487092826,17.09772157799662,10.826408717440708,1589.0109890109889,-1.0,110.32377532125021,2.8741561314428314,347.92827966649475,
2023-12-18 15:33:19.864000,-8.25301204819277,-4.46987951807229,-2.63855421686747,-4.456161863887186,-8.057020232985899,-2.1851624770079705,2.0,2.8695970695970696,348.4809803420985,30.933162403123358,16.4412330283783,10.933278946448342,1524.5421245421244,-1.0,110.32377532125021,2.8741170312239586,347.933012958052,
2023-12-18 15:33:19.872000,-8.313253012048193,-4.445783132530121,-2.602409638554217,-4.323727774371551,-8.155119558553034,-2.182709993868792,2.0,2.8695970695970696,348.4809803420985,31.009498280985955,17.25039333372181,11.147019404463608,1460.07326007326,-1.0,110.32377532125021,2.87407792919426,347.93774659728786,
2023-12-18 15:33:19.880000,-8.337349397590362,-4.530120481927711,-2.5903614457831328,-4.551808706315144,-8.189454322501533,-2.1312078479460452,2.0,2.8695970695970696,348.4809803420985,31.024765456558473,17.58627119631723,10.994347648738417,1395.6043956043954,-1.0,110.32377532125021,2.874038824152987,347.9424807296459,
2023-12-18 15:33:19.887000,-8.265060240963855,-4.433734939759036,-2.6144578313253013,-4.443899448191293,-8.228694052728388,-2.180257510729614,2.0,2.8695970695970696,348.4809803420985,31.238505914573743,17.051920051279062,10.658469786142998,1338.4615384615383,-1.0,110.32377532125021,2.873999714900211,347.9472155004922,
2023-12-18 15:33:19.895000,-8.301204819277109,-4.46987951807229,-2.6144578313253013,-4.502759043531576,-8.137952176578786,-2.182709993868792,2.0,2.8695970695970696,348.4809803420985,31.040032632130995,18.47176737952334,10.872210244158264,1289.3772893772893,-1.0,110.32377532125021,2.8739606002382927,347.9519510549364,
2023-12-18 15:33:19.903000,-8.301204819277109,-4.445783132530121,-2.6144578313253013,-4.2403433476394845,-8.061925199264255,-2.2660944206008584,2.0,2.8695970695970696,348.4809803420985,32.108734922207326,17.387797913874483,11.147019404463608,1246.153846153846,-1.0,110.32377532125021,2.8739214789733127,347.95668753765926,
2023-12-18 15:33:19.910000,-8.325301204819278,-4.385542168674699,-2.626506024096386,-4.510116492949111,-8.258123850398528,-2.1704475781729,2.0,2.8695970695970696,348.4809803420985,31.55911660159664,19.43359944059204,10.765340015150631,1212.4542124542124,-1.0,110.32377532125021,2.8738823499165154,347.9614250927377,
2023-12-18 15:33:19.918000,-8.3855421686747,-4.63855421686747,-2.602409638554217,-4.721030042918454,-8.140404659717964,-2.128755364806867,2.0,2.8681318681318677,348.65900383141764,33.00949828098595,20.029019287920285,11.360759862478876,1186.080586080586,-1.0,110.32377532125021,2.8738432118858235,347.96616386346085,
2023-12-18 15:33:19.926000,-8.240963855421688,-4.325301204819278,-2.674698795180723,-4.365419987737584,-8.113427345187002,-2.2047823421213977,2.0,2.8695970695970696,348.4809803420985,34.246139502359995,19.021385700134026,10.322591923547579,1167.032967032967,-1.0,110.32377532125021,2.8738040632148154,347.97090405198793,
2023-12-18 15:33:19.933000,-8.289156626506024,-4.421686746987952,-2.698795180722892,-4.492949110974862,-8.169834457388106,-2.190067443286327,2.0,2.8695970695970696,348.4809803420985,33.40644484587145,21.204591807004253,11.223355282326205,1153.113553113553,-1.0,110.32377532125021,2.873764902175089,347.97564586803577,
