Shimmer_F5D4_Timestamp_FormattedUnix_CAL,Shimmer_F5D4_Accel_LN_X_CAL,Shimmer_F5D4_Accel_LN_Y_CAL,Shimmer_F5D4_Accel_LN_Z_CAL,Shimmer_F5D4_Accel_WR_X_CAL,Shimmer_F5D4_Accel_WR_Y_CAL,Shimmer_F5D4_Accel_WR_Z_CAL,Shimmer_F5D4_GSR_Range_CAL,Shimmer_F5D4_GSR_Skin_Conductance_CAL,Shimmer_F5D4_GSR_Skin_Resistance_CAL,Shimmer_F5D4_Gyro_X_CAL,Shimmer_F5D4_Gyro_Y_CAL,Shimmer_F5D4_Gyro_Z_CAL,Shimmer_F5D4_PPG_A13_CAL,Shimmer_F5D4_PPG_IBI_CAL,Shimmer_F5D4_PPGtoHR_CAL,Shimmer_F5D4_GSR_Skin_Conductance_LPF_CAL,
yyyy/mm/dd hh:mm:ss.000,m/(s^2),m/(s^2),m/(s^2),m/(s^2),m/(s^2),m/(s^2),no_units,uS,kOhms,deg/s,deg/s,deg/s,mV,ms,BPM,uS,
2023-08-12 15:03:30.026000,-7.313253012048193,-0.10843373493975904,-6.63855421686747,-0.06131207847946045,-7.098099325567136,-6.302881667688534,3.0,0.6271506271506272,1594.513274336283,-0.0057106229240714,-0.07528698793776616,0.08647514713594771,1216.117216117216,-1.0,-1.0,0.6276848513494522,
2023-08-12 15:03:30.034000,-7.289156626506024,-0.12048192771084337,-6.63855421686747,-0.05150214592274678,-7.088289393010423,-6.3813611281422435,3.0,0.6271506271506272,1594.513274336283,-0.2615232212575021,-0.07586970456267034,0.16094633179884626,1216.117216117216,-1.0,-1.0,0.6276797375812772,
2023-08-12 15:03:30.041000,-7.313253012048193,-0.12048192771084337,-6.626506024096386,-0.0809319435928878,-7.071122011036174,-6.342121397915389,3.0,0.6275946275946276,1593.385214007782,0.05069634636676106,0.033447934269564286,-0.010372355923314406,1216.117216117216,-1.0,-1.0,0.627674690242233,
2023-08-12 15:03:30.049000,-7.313253012048193,-0.12048192771084337,-6.662650602409639,-0.0539546290619252,-7.105456774984671,-6.364193746167995,3.0,0.6275946275946276,1593.385214007782,-0.26583532428180173,0.053027212866383,0.16968708117242592,1216.8498168498168,-1.0,-1.0,0.6276697100203479,
2023-08-12 15:03:30.057000,-7.325301204819278,-0.10843373493975904,-6.602409638554217,-0.019619865113427344,-7.080931943592887,-6.3862660944206,3.0,0.6271506271506272,1594.513274336283,-0.106054425732766,-0.18507080006992585,-0.03204941436979208,1218.3150183150183,-1.0,-1.0,0.6276647977753351,
2023-08-12 15:03:30.064000,-7.313253012048193,-0.12048192771084337,-6.63855421686747,-0.056407112201103615,-7.125076640098099,-6.427958307786634,3.0,0.6271506271506272,1594.513274336283,-0.4037060777343986,-0.43715401200396287,0.22481207388846788,1219.047619047619,-1.0,-1.0,0.6276599540872344,
2023-08-12 15:03:30.072000,-7.325301204819278,-0.14457831325301207,-6.63855421686747,-0.05885959534028203,-7.049049662783568,-6.378908645003065,3.0,0.6271506271506272,1594.513274336283,-0.5470543674611034,4.661732999250815E-4,0.3271371132218402,1221.9780219780218,-1.0,-1.0,0.6276551791035231,
2023-08-12 15:03:30.079000,-7.289156626506024,-0.16867469879518074,-6.650602409638554,-0.11526670754138564,-7.129981606376456,-6.349478847332924,3.0,0.6271506271506272,1594.513274336283,-0.5350504049880547,0.009440009323466846,0.32597167997202964,1224.9084249084249,-1.0,-1.0,0.6276504728226983,
2023-08-12 15:03:30.087000,-7.313253012048193,-0.13253012048192772,-6.626506024096386,0.019619865113427344,-7.026977314530963,-6.312691600245248,3.0,0.6271506271506272,1594.513274336283,-0.41943942660684097,0.21595478118990652,0.21875182098945267,1227.8388278388277,-1.0,-1.0,0.627645835090478,
2023-08-12 15:03:30.095000,-7.301204819277109,-0.10843373493975904,-6.578313253012048,-0.041692213366033105,-7.095646842427958,-6.37155119558553,3.0,0.6271506271506272,1594.513274336283,-0.12237049123011434,0.5133733465415774,-0.16351028494842945,1229.3040293040292,-1.0,-1.0,0.6276412655967004,
2023-08-12 15:03:30.102000,-7.313253012048193,-0.12048192771084337,-6.590361445783133,-0.03188228080931944,-7.049049662783568,-6.293071735131821,3.0,0.6271506271506272,1594.513274336283,0.035196084144280305,0.08938873026047514,-0.31420080414894214,1229.3040293040292,-1.0,-1.0,0.6276367638729473,
2023-08-12 15:03:30.110000,-7.313253012048193,-0.12048192771084337,-6.662650602409639,-0.007357449417535254,-7.09319435928878,-6.388718577559779,3.0,0.6271506271506272,1594.513274336283,-0.22154886078899882,-0.45743255055066656,-0.23413553988695304,1230.7692307692307,-1.0,-1.0,0.6276323292909164,
2023-08-12 15:03:30.118000,-7.325301204819278,-0.13253012048192772,-6.662650602409639,-0.02207234825260576,-7.115266707541386,-6.334763948497853,3.0,0.6271506271506272,1594.513274336283,-0.42922906590525034,-0.5573101800594378,0.4415826583532429,1232.967032967033,-1.0,-1.0,0.6276279610615665,
2023-08-12 15:03:30.125000,-7.337349397590362,-0.12048192771084337,-6.662650602409639,-0.056407112201103615,-7.122624156958921,-6.4107909258123845,3.0,0.6271506271506272,1594.513274336283,-0.10279121263329563,-0.0170153254472351,0.10477244915797462,1234.4322344322343,-1.0,-1.0,0.6276236583737933,
2023-08-12 15:03:30.133000,-7.349397590361447,-0.07228915662650603,-6.63855421686747,0.019619865113427344,-7.112814224402207,-6.354383813611281,3.0,0.6267066267066267,1595.6429330499468,0.0973136763591859,-0.011887419148067882,0.030417807820056895,1234.4322344322343,-1.0,-1.0,0.627619420374779,
2023-08-12 15:03:30.141000,-7.337349397590362,-0.060240963855421686,-6.63855421686747,0.03188228080931944,-7.095646842427958,-6.37155119558553,3.0,0.6267066267066267,1595.6429330499468,-0.19299574616863835,-0.01911310529689363,-0.318979080473166,1235.164835164835,-1.0,-1.0,0.6276152458742318,
2023-08-12 15:03:30.148000,-7.325301204819278,-0.060240963855421686,-6.566265060240964,0.04904966278356836,-7.105456774984671,-6.320049049662783,3.0,0.6271506271506272,1594.513274336283,-0.06794475846395957,-0.48307208204650093,-0.1935784627935434,1236.6300366300366,-1.0,-1.0,0.627611133325949,
2023-08-12 15:03:30.156000,-7.301204819277109,-0.0963855421686747,-6.602409638554217,-0.029429797670141016,-7.098099325567136,-6.361741263028816,3.0,0.6271506271506272,1594.513274336283,0.07097488491346653,-1.0224345900588534,-0.36151739409125333,1240.2930402930401,-1.0,-1.0,0.6276070811182171,
2023-08-12 15:03:30.164000,-7.289156626506024,-0.0963855421686747,-6.614457831325302,-0.04904966278356836,-7.078479460453709,-6.349478847332924,3.0,0.6271506271506272,1594.513274336283,0.34671639181865843,-0.9188275741506903,-0.1603636151739408,1244.6886446886447,-1.0,-1.0,0.6276030875984588,
2023-08-12 15:03:30.171000,-7.313253012048193,-0.0963855421686747,-6.662650602409639,0.004904966278356836,-7.066217044757817,-6.3813611281422435,3.0,0.6271506271506272,1594.513274336283,-0.2673503875065561,-0.2548802517335823,-0.08344502068644033,1246.153846153846,-1.0,-1.0,0.627599150800609,
2023-08-12 15:03:30.179000,-7.301204819277109,-0.0963855421686747,-6.63855421686747,-0.056407112201103615,-7.049049662783568,-6.3960760269773145,3.0,0.6271506271506272,1594.513274336283,0.04067362041839003,0.7074179826350451,0.2043004486918012,1249.8168498168498,-1.0,-1.0,0.6275952684709791,
2023-08-12 15:03:30.187000,-7.313253012048193,-0.08433734939759037,-6.614457831325302,0.029429797670141016,-7.142244022072348,-6.315144083384427,3.0,0.6271506271506272,1594.513274336283,-0.4629100868247763,0.7465765398286808,0.15337101567507716,1256.4102564102564,-1.0,-1.0,0.6275914383610679,
2023-08-12 15:03:30.194000,-7.325301204819278,-0.08433734939759037,-6.602409638554217,-0.08583690987124463,-7.083384426732066,-6.322501532801962,3.0,0.6271506271506272,1594.513274336283,-0.09230231338500125,0.42270263970631133,0.1344909970281452,1267.3992673992673,-1.0,-1.0,0.6275876582127423,
2023-08-12 15:03:30.202000,-7.337349397590362,-0.10843373493975904,-6.602409638554217,-0.041692213366033105,-7.13979153893317,-6.329858982219497,3.0,0.6271506271506272,1594.513274336283,-0.4268981994056284,-0.2051162519666679,-0.14766039275100531,1280.5860805860805,-1.0,-1.0,0.6275839254778184,
2023-08-12 15:03:30.210000,-7.349397590361447,-0.12048192771084337,-6.63855421686747,-0.1226241569589209,-7.100551808706315,-6.356836296750459,3.0,0.6271506271506272,1594.513274336283,-0.20861255171609994,-0.6310821047724496,-0.40627003088398134,1298.168498168498,-1.0,-1.0,0.6275802373466209,
2023-08-12 15:03:30.217000,-7.325301204819278,-0.12048192771084337,-6.614457831325302,-0.056407112201103615,-7.122624156958921,-6.32495401594114,3.0,0.6271506271506272,1594.513274336283,-0.17458190082162975,-0.8104422819183024,-0.05372647281626932,1319.4139194139193,-1.0,-1.0,0.627576591043435,
2023-08-12 15:03:30.225000,-7.325301204819278,-0.13253012048192772,-6.614457831325302,-0.004904966278356836,-7.098099325567136,-6.383813611281422,3.0,0.6271506271506272,1594.513274336283,-0.35347590466756085,-0.08868947031058838,0.14276557310180063,1345.054945054945,-1.0,-1.0,0.627572983814237,
2023-08-12 15:03:30.233000,-7.313253012048193,-0.14457831325301207,-6.602409638554217,-0.02452483139178418,-7.080931943592887,-6.312691600245248,3.0,0.6271506271506272,1594.513274336283,0.07575316123768949,-0.19858982576772893,0.2767903968300216,1372.8937728937728,-1.0,-1.0,0.627569412787491,
2023-08-12 15:03:30.240000,-7.313253012048193,-0.13253012048192772,-6.602409638554217,-0.06621704475781728,-7.056407112201104,-6.3445738810545675,3.0,0.6271506271506272,1594.513274336283,-0.001631606549735182,0.41093176388322433,0.02797039799545499,1400.0,-1.0,-1.0,0.6275658749846817,
2023-08-12 15:03:30.248000,-7.301204819277109,-0.10843373493975904,-6.602409638554217,-0.04414469650521152,-7.090741876149601,-6.351931330472103,3.0,0.6271506271506272,1594.513274336283,0.8040323990443442,0.09882873958394024,-0.09544898315948948,1426.3736263736262,-1.0,-1.0,0.6275623673312566,
2023-08-12 15:03:30.256000,-7.313253012048193,-0.13253012048192772,-6.626506024096386,-0.056407112201103615,-7.068669527896995,-6.393623543838136,3.0,0.6271506271506272,1594.513274336283,0.12551716100460386,-0.3182798205232788,0.3773672862886779,1449.084249084249,-1.0,-1.0,0.6275588866679414,
2023-08-12 15:03:30.263000,-7.313253012048193,-0.13253012048192772,-6.63855421686747,-0.09809932556713671,-7.147148988350705,-6.3813611281422435,3.0,0.6271506271506272,1594.513274336283,0.24602295903502136,-0.167356214672804,0.2969523920517454,1471.062271062271,-1.0,-1.0,0.6275554297623849,
2023-08-12 15:03:30.271000,-7.337349397590362,-0.13253012048192772,-6.63855421686747,-0.09074187614960147,-7.083384426732066,-6.342121397915389,3.0,0.6271506271506272,1594.513274336283,-0.13519025697803239,-0.12178777460521016,0.2312219567624265,1487.9120879120878,-1.0,-1.0,0.6275519933210955,
2023-08-12 15:03:30.279000,-7.301204819277109,-0.0963855421686747,-6.662650602409639,-0.041692213366033105,-7.083384426732066,-6.339668914776211,3.0,0.6271506271506272,1594.513274336283,0.4281801759804211,0.21490589126507728,0.0146844589476136,1499.6336996336995,-1.0,-1.0,0.6275485740016233,
2023-08-12 15:03:30.286000,-7.325301204819278,-0.10843373493975904,-6.602409638554217,-0.06376456161863887,-7.088289393010423,-6.356836296750459,3.0,0.6267066267066267,1595.6429330499468,-0.11549443505623284,0.28774546937824064,0.1825068469203427,1503.2967032967033,-1.0,-1.0,0.6275451684249468,
2023-08-12 15:03:30.294000,-7.313253012048193,-0.12048192771084337,-6.662650602409639,-0.041692213366033105,-7.066217044757817,-6.332311465358675,3.0,0.6267066267066267,1595.6429330499468,-0.10442281918303081,0.056756599265776704,-0.07400501136297435,1501.098901098901,-1.0,-1.0,0.6275417731774702,
2023-08-12 15:03:30.302000,-7.313253012048193,-0.13253012048192772,-6.63855421686747,-0.04414469650521152,-7.103004291845493,-6.332311465358675,3.0,0.6271506271506272,1594.513274336283,-0.07318920808810589,-0.4307441291300047,0.24753802225977525,1493.7728937728937,-1.0,-1.0,0.6275383846426746,
2023-08-12 15:03:30.309000,-7.301204819277109,-0.12048192771084337,-6.650602409638554,-0.10545677498467197,-7.063764561618639,-6.359288779889638,3.0,0.6271506271506272,1594.513274336283,0.2478876522347182,-0.6249053085484532,0.29089213915273016,1483.5164835164835,-1.0,-1.0,0.6275349991725807,
2023-08-12 15:03:30.317000,-7.325301204819278,-0.0963855421686747,-6.63855421686747,-0.05150214592274678,-7.073574494175352,-6.334763948497853,3.0,0.6271506271506272,1594.513274336283,0.09300157333488801,-0.15954781189907408,0.012703222422935909,1473.260073260073,-1.0,-1.0,0.6275316132695877,
2023-08-12 15:03:30.325000,-7.325301204819278,-0.10843373493975904,-6.626506024096386,-0.04414469650521152,-7.105456774984671,-6.437768240343347,3.0,0.6271506271506272,1594.513274336283,0.13752112347765258,-0.23250393333721828,-0.21432317464017264,1461.5384615384614,-1.0,-1.0,0.6275282233211256,
2023-08-12 15:03:30.332000,-7.313253012048193,-0.10843373493975904,-6.662650602409639,-0.02207234825260576,-7.080931943592887,-6.347026364193746,3.0,0.6271506271506272,1594.513274336283,0.16758930132276742,-0.1100168987821231,0.10955072548219803,1449.084249084249,-1.0,-1.0,0.6275248257708851,
2023-08-12 15:03:30.340000,-7.289156626506024,-0.08433734939759037,-6.63855421686747,-0.08338442673206621,-7.046597179644389,-6.4107909258123845,3.0,0.6271506271506272,1594.513274336283,0.029019287920283823,-0.06118524561505717,0.09276848668492503,1437.3626373626373,-1.0,-1.0,0.6275214172584337,
2023-08-12 15:03:30.348000,-7.301204819277109,-0.08433734939759037,-6.650602409638554,-0.0269773145309626,-7.058859595340282,-6.388718577559779,3.0,0.6271506271506272,1594.513274336283,-0.22842491696288034,-0.0759862478876529,0.01771458539712142,1429.3040293040292,-1.0,-1.0,0.6275179944819914,
2023-08-12 15:03:30.355000,-7.289156626506024,-0.0963855421686747,-6.614457831325302,0.01226241569589209,-7.066217044757817,-6.339668914776211,3.0,0.6267066267066267,1595.6429330499468,-0.22481207388846747,-0.07318920808810589,0.01969582192179955,1421.9780219780218,-1.0,-1.0,0.6275145542103231,
2023-08-12 15:03:30.363000,-7.2771084337349405,-0.08433734939759037,-6.578313253012048,-0.041692213366033105,-7.066217044757817,-6.349478847332924,3.0,0.6271506271506272,1594.513274336283,-0.23833109958627052,0.03507954081929947,-0.11572752170619408,1414.6520146520145,-1.0,-1.0,0.6275110931451263,
2023-08-12 15:03:30.371000,-7.289156626506024,-0.0963855421686747,-6.566265060240964,-0.02207234825260576,-7.046597179644389,-6.302881667688534,3.0,0.6271506271506272,1594.513274336283,-0.3728220966144162,-0.3891381621117645,-0.08134724083678094,1408.7912087912086,-1.0,-1.0,0.6275076080598635,
2023-08-12 15:03:30.378000,-7.265060240963856,-0.08433734939759037,-6.602409638554217,-0.05150214592274678,-7.041692213366033,-6.285714285714286,3.0,0.6271506271506272,1594.513274336283,-0.4447293281277311,-0.16700658469786148,-0.06386574208962162,1402.9304029304028,-1.0,-1.0,0.6275040959698329,
2023-08-12 15:03:30.386000,-7.265060240963856,-0.13253012048192772,-6.614457831325302,-0.07602697731453095,-6.9656652360515015,-6.317596566523605,3.0,0.6271506271506272,1594.513274336283,-0.45405279412621713,0.00827457607365501,0.16304411164850524,1396.3369963369962,-1.0,-1.0,0.6275005540040162,
2023-08-12 15:03:30.394000,-7.325301204819278,-0.14457831325301207,-6.602409638554217,-0.04659717964438994,-7.152053954629062,-6.3372164316370325,3.0,0.6271506271506272,1594.513274336283,-0.1911310529689415,0.45160538430161434,-0.2506846920342639,1389.7435897435896,-1.0,-1.0,0.6274969794153219,
2023-08-12 15:03:30.401000,-7.337349397590362,-0.12048192771084337,-6.590361445783133,0.009809932556713672,-7.134886572654812,-6.305334150827712,3.0,0.6271506271506272,1594.513274336283,0.1769127673212517,0.29765165200163085,-0.7520540761027913,1384.6153846153845,-1.0,-1.0,0.627493369590426,
2023-08-12 15:03:30.409000,-7.337349397590362,-0.08433734939759037,-6.590361445783133,0.03923973022685469,-7.07602697731453,-6.351931330472103,3.0,0.6271506271506272,1594.513274336283,0.2706136006060247,0.06876056173882716,-0.5782879785560283,1379.4871794871794,-1.0,-1.0,0.6274897220591807,
2023-08-12 15:03:30.417000,-7.349397590361447,-0.0963855421686747,-6.590361445783133,-0.034334763948497854,-7.105456774984671,-6.334763948497853,3.0,0.6271506271506272,1594.513274336283,0.25604568498339236,-0.15756657537439464,-0.37620185303886733,1373.6263736263736,-1.0,-1.0,0.6274860345035618,
2023-08-12 15:03:30.424000,-7.349397590361447,-0.14457831325301207,-6.614457831325302,-0.02207234825260576,-7.137339055793991,-6.32495401594114,3.0,0.6271506271506272,1594.513274336283,0.3158324106986778,-0.688654507313094,-0.6015966435522407,1365.5677655677655,-1.0,-1.0,0.6274823047661242,
2023-08-12 15:03:30.432000,-7.349397590361447,-0.13253012048192772,-6.63855421686747,-0.0539546290619252,-7.088289393010423,-6.351931330472103,3.0,0.6271506271506272,1594.513274336283,0.3911193986364439,0.1877512965444903,0.043121030242992804,1357.5091575091574,-1.0,-1.0,0.6274785308579374,
2023-08-12 15:03:30.440000,-7.337349397590362,-0.0963855421686747,-6.614457831325302,-0.0269773145309626,-7.179031269160024,-6.297976701410177,3.0,0.6267066267066267,1595.6429330499468,0.6208262921741152,0.5378474447875999,-0.5376143581376378,1347.985347985348,-1.0,-1.0,0.6274747108272283,
2023-08-12 15:03:30.447000,-7.349397590361447,-0.07228915662650603,-6.602409638554217,-0.002452483139178418,-7.137339055793991,-6.334763948497853,3.0,0.6267066267066267,1595.6429330499468,0.48248936542159504,0.7031058796107454,-0.428879435930307,1340.6593406593406,-1.0,-1.0,0.6274708430535338,
2023-08-12 15:03:30.455000,-7.325301204819278,-0.0963855421686747,-6.578313253012048,-0.05150214592274678,-7.142244022072348,-6.327406499080318,3.0,0.6271506271506272,1594.513274336283,0.4047549676592278,0.3179301905483363,-0.36478060719072325,1334.7985347985348,-1.0,-1.0,0.627466926318914,
2023-08-12 15:03:30.462000,-7.325301204819278,-0.13253012048192772,-6.602409638554217,-0.0809319435928878,-7.127529123237277,-6.302881667688534,3.0,0.6267066267066267,1595.6429330499468,-0.04009090379348585,0.3482314550434128,0.21956762426432028,1332.6007326007325,-1.0,-1.0,0.6274629595160947,
2023-08-12 15:03:30.470000,-7.325301204819278,-0.14457831325301207,-6.590361445783133,-0.06376456161863887,-7.080931943592887,-6.312691600245248,3.0,0.6271506271506272,1594.513274336283,0.4472932812773147,0.5620884563836608,-0.08589243051104267,1330.4029304029302,-1.0,-1.0,0.6274589414082047,
2023-08-12 15:03:30.478000,-7.36144578313253,-0.14457831325301207,-6.566265060240964,-0.07357449417535254,-7.134886572654812,-6.322501532801962,3.0,0.6267066267066267,1595.6429330499468,0.6573043528931882,0.8515820756366175,-0.19217994289377077,1328.2051282051282,-1.0,-1.0,0.6274548707918158,
2023-08-12 15:03:30.485000,-7.337349397590362,-0.10843373493975904,-6.590361445783133,-0.019619865113427344,-7.066217044757817,-6.300429184549356,3.0,0.6271506271506272,1594.513274336283,0.669774488666162,1.0929433016723966,-0.25185012528407447,1324.5421245421244,-1.0,-1.0,0.6274507466584452,
2023-08-12 15:03:30.493000,-7.337349397590362,-0.10843373493975904,-6.602409638554217,-0.09074187614960147,-7.051502145922746,-6.359288779889638,3.0,0.6267066267066267,1595.6429330499468,0.7750131111240603,0.1820406736204189,-0.10267466930831523,1321.6117216117216,-1.0,-1.0,0.6274465681849688,
2023-08-12 15:03:30.501000,-7.337349397590362,-0.14457831325301207,-6.626506024096386,-0.056407112201103615,-7.103004291845493,-6.347026364193746,3.0,0.6271506271506272,1594.513274336283,0.23390245323699005,-0.02086125517160965,0.3863411223122197,1317.216117216117,-1.0,-1.0,0.6274423347443956,
2023-08-12 15:03:30.508000,-7.337349397590362,-0.14457831325301207,-6.650602409638554,-0.07602697731453095,-7.112814224402207,-6.4328632740649905,3.0,0.6267066267066267,1595.6429330499468,0.4613950236000237,0.18868364314433872,0.35487442456733304,1313.5531135531135,-1.0,-1.0,0.6274380458948701,
2023-08-12 15:03:30.516000,-7.325301204819278,-0.10843373493975904,-6.650602409638554,-0.02452483139178418,-7.10790925812385,-6.361741263028816,3.0,0.6271506271506272,1594.513274336283,0.579103781830896,0.38575840568731506,0.17120214439717985,1312.087912087912,-1.0,-1.0,0.6274337013890621,
2023-08-12 15:03:30.524000,-7.337349397590362,-0.10843373493975904,-6.650602409638554,-0.0269773145309626,-7.103004291845493,-6.3077866339668915,3.0,0.6267066267066267,1595.6429330499468,0.3604685041664232,0.5844647747800248,-0.05827166249053105,1312.8205128205127,-1.0,-1.0,0.6274293011618249,
2023-08-12 15:03:30.531000,-7.313253012048193,-0.10843373493975904,-6.63855421686747,-0.05150214592274678,-7.110361741263028,-6.320049049662783,3.0,0.6271506271506272,1594.513274336283,0.4645416933745115,0.18961598974418717,0.03135015441990576,1314.2857142857142,-1.0,-1.0,0.6274248453382826,
2023-08-12 15:03:30.539000,-7.313253012048193,-0.13253012048192772,-6.614457831325302,-0.06131207847946045,-7.041692213366033,-6.3445738810545675,3.0,0.6267066267066267,1595.6429330499468,0.1250509877046788,-0.35487442456733265,0.33401316939572295,1317.9487179487178,-1.0,-1.0,0.6274203342202277,
2023-08-12 15:03:30.547000,-7.2771084337349405,-0.14457831325301207,-6.650602409638554,-0.07112201103617412,-7.068669527896995,-6.354383813611281,3.0,0.6267066267066267,1595.6429330499468,0.2010372355923317,0.033564477594545124,0.787599790222015,1322.3443223443223,-1.0,-1.0,0.6274157682930066,
2023-08-12 15:03:30.554000,-7.2771084337349405,-0.13253012048192772,-6.626506024096386,-0.09074187614960147,-7.01471489883507,-6.3862660944206,3.0,0.6271506271506272,1594.513274336283,0.15476953557484935,0.5218810092651941,0.3241069867723328,1326.7399267399267,-1.0,-1.0,0.6274111480614759,
2023-08-12 15:03:30.562000,-7.289156626506024,-0.13253012048192772,-6.602409638554217,-0.0269773145309626,-7.049049662783568,-6.31023911710607,3.0,0.6267066267066267,1595.6429330499468,-0.28797855602820405,0.5750247654565579,-0.18052561039566456,1330.4029304029302,-1.0,-1.0,0.6274064743325094,
2023-08-12 15:03:30.570000,-7.289156626506024,-0.14457831325301207,-6.614457831325302,-0.06131207847946045,-7.053954629061924,-6.342121397915389,3.0,0.6271506271506272,1594.513274336283,0.038808927218693175,0.3589534409416706,-0.34694947846862056,1331.8681318681317,-1.0,-1.0,0.6274017480814548,
2023-08-12 15:03:30.577000,-7.289156626506024,-0.13253012048192772,-6.602409638554217,-0.04659717964438994,-7.056407112201104,-6.334763948497853,3.0,0.6271506271506272,1594.513274336283,-0.0055940795990905645,0.2681661907814237,-0.22597750713827885,1330.4029304029302,-1.0,-1.0,0.6273969704358143,
2023-08-12 15:03:30.585000,-7.265060240963856,-0.1566265060240964,-6.650602409638554,-0.02452483139178418,-7.156958920907418,-6.398528510116493,3.0,0.6267066267066267,1595.6429330499468,-0.12703222422935648,-0.17458190082162975,-0.22201503408892262,1328.937728937729,-1.0,-1.0,0.6273921428288711,
2023-08-12 15:03:30.593000,-7.301204819277109,-0.12048192771084337,-6.674698795180723,-0.03923973022685469,-7.044144696505211,-6.361741263028816,3.0,0.6262626262626263,1596.7741935483868,0.1343744537031648,0.3017306683759688,-0.16024707184895995,1326.007326007326,-1.0,-1.0,0.6273872668446099,
2023-08-12 15:03:30.600000,-7.2771084337349405,-0.14457831325301207,-6.662650602409639,-0.02207234825260576,-7.085836909871245,-6.4034334763948495,3.0,0.6267066267066267,1595.6429330499468,0.11596060835615618,0.45207155760153767,-0.06794475846395914,1323.076923076923,-1.0,-1.0,0.6273823440201366,
2023-08-12 15:03:30.608000,-7.313253012048193,-0.13253012048192772,-6.626506024096386,-0.01226241569589209,-7.103004291845493,-6.400980993255671,3.0,0.6267066267066267,1595.6429330499468,0.26898199405629125,0.3898374220616513,-0.5405279412621644,1318.6813186813185,-1.0,-1.0,0.627377375955925,
2023-08-12 15:03:30.616000,-7.289156626506024,-0.13253012048192772,-6.662650602409639,-0.034334763948497854,-7.103004291845493,-6.393623543838136,3.0,0.6267066267066267,1595.6429330499468,-0.14474680962647835,0.20651477186644143,-0.5360992949128839,1315.7509157509157,-1.0,-1.0,0.6273723643288242,
2023-08-12 15:03:30.623000,-7.289156626506024,-0.13253012048192772,-6.63855421686747,-0.06376456161863887,-7.078479460453709,-6.391171060698957,3.0,0.6271506271506272,1594.513274336283,-0.022026688421421484,0.009206922673503438,-0.1821572169453993,1314.2857142857142,-1.0,-1.0,0.6273673109045573,
2023-08-12 15:03:30.631000,-7.313253012048193,-0.13253012048192772,-6.662650602409639,-0.009809932556713672,-7.110361741263028,-6.4034334763948495,3.0,0.6267066267066267,1595.6429330499468,-0.02284249169628734,0.007458772798787419,-0.1819241302954372,1315.018315018315,-1.0,-1.0,0.6273622176675464,
2023-08-12 15:03:30.639000,-7.325301204819278,-0.14457831325301207,-6.602409638554217,-0.09809932556713671,-7.125076640098099,-6.3077866339668915,3.0,0.6267066267066267,1595.6429330499468,-0.24963580210943423,0.05034671639181855,0.12167123128022846,1317.216117216117,-1.0,-1.0,0.6273570865560437,
2023-08-12 15:03:30.646000,-7.337349397590362,-0.12048192771084337,-6.626506024096386,-0.0269773145309626,-7.098099325567136,-6.317596566523605,3.0,0.6267066267066267,1595.6429330499468,0.05815511916555022,0.24916962880950913,-0.3067420313501543,1316.4835164835165,-1.0,-1.0,0.6273519195810475,
2023-08-12 15:03:30.654000,-7.325301204819278,-0.12048192771084337,-6.626506024096386,-0.029429797670141016,-7.07602697731453,-6.349478847332924,3.0,0.6267066267066267,1595.6429330499468,-0.15616805547462287,-0.2419439426606834,-0.517219276265952,1316.4835164835165,-1.0,-1.0,0.6273467187958305,
2023-08-12 15:03:30.662000,-7.325301204819278,-0.13253012048192772,-6.626506024096386,-0.03923973022685469,-7.100551808706315,-6.361741263028816,3.0,0.6267066267066267,1595.6429330499468,-0.03309830429462177,-0.11561097838121367,-0.3771341996387158,1315.7509157509157,-1.0,-1.0,0.627341486158184,
2023-08-12 15:03:30.669000,-7.349397590361447,-0.13253012048192772,-6.662650602409639,-0.06866952789699571,-7.15450643776824,-6.400980993255671,3.0,0.6267066267066267,1595.6429330499468,-0.16968708117242592,0.024241011596060846,-0.3107045043995106,1315.018315018315,-1.0,-1.0,0.6273362238081363,
2023-08-12 15:03:30.677000,-7.325301204819278,-0.13253012048192772,-6.63855421686747,-0.05150214592274678,-7.125076640098099,-6.398528510116493,3.0,0.6267066267066267,1595.6429330499468,-0.2742264436804376,-0.08227958743663023,0.1200396247304937,1312.8205128205127,-1.0,-1.0,0.6273309338985585,
2023-08-12 15:03:30.685000,-7.349397590361447,-0.13253012048192772,-6.674698795180723,-0.02452483139178418,-7.103004291845493,-6.288166768853464,3.0,0.6267066267066267,1595.6429330499468,-0.42235300973136713,-0.007691859448750828,0.25837655148301386,1310.6227106227104,-1.0,-1.0,0.6273256185961605,
2023-08-12 15:03:30.692000,-7.313253012048193,-0.10843373493975904,-6.614457831325302,-0.03188228080931944,-7.127529123237277,-6.351931330472103,3.0,0.6267066267066267,1595.6429330499468,-0.49391061126973956,-0.08577588718606226,0.11887419148068318,1306.9597069597069,-1.0,-1.0,0.6273202800614895,
2023-08-12 15:03:30.700000,-7.313253012048193,-0.13253012048192772,-6.626506024096386,-0.08828939301042305,-7.088289393010423,-6.347026364193746,3.0,0.6271506271506272,1594.513274336283,-0.503583707243168,-0.43552240545422766,0.14952508595070219,1302.5641025641025,-1.0,-1.0,0.627314920450126,
2023-08-12 15:03:30.708000,-7.301204819277109,-0.12048192771084337,-6.650602409638554,-0.12017167381974249,-7.022072348252605,-6.378908645003065,3.0,0.6267066267066267,1595.6429330499468,-0.404638424334247,-0.44787599790222066,0.24089505273585457,1298.168498168498,-1.0,-1.0,0.627309542181035,
2023-08-12 15:03:30.715000,-7.2771084337349405,-0.12048192771084337,-6.626506024096386,-0.08828939301042305,-7.056407112201104,-6.32495401594114,3.0,0.6271506271506272,1594.513274336283,-0.1100168987821231,-0.5070800069926001,0.14882582600081584,1295.970695970696,-1.0,-1.0,0.6273041476516267,
2023-08-12 15:03:30.723000,-7.2771084337349405,-0.13253012048192772,-6.614457831325302,-0.041692213366033105,-7.07602697731453,-6.3372164316370325,3.0,0.6271506271506272,1594.513274336283,-0.15407027562496434,-0.30406153487559073,0.025056814870928437,1293.040293040293,-1.0,-1.0,0.6272987392200646,
2023-08-12 15:03:30.731000,-7.289156626506024,-0.12048192771084337,-6.63855421686747,-0.07112201103617412,-7.063764561618639,-6.376456161863887,3.0,0.6267066267066267,1595.6429330499468,-0.31944525377309063,-0.33389662607074216,0.07015908163859894,1288.6446886446886,-1.0,-1.0,0.6272933193582604,
2023-08-12 15:03:30.738000,-7.313253012048193,-0.13253012048192772,-6.650602409638554,-0.06131207847946045,-7.046597179644389,-6.312691600245248,3.0,0.6267066267066267,1595.6429330499468,-0.17807820057106177,-0.011770875823087047,0.1187576481557019,1286.4468864468863,-1.0,-1.0,0.6272878902193998,
2023-08-12 15:03:30.746000,-7.289156626506024,-0.12048192771084337,-6.614457831325302,-0.06131207847946045,-7.129981606376456,-6.327406499080318,3.0,0.6262626262626263,1596.7741935483868,-0.07085834158848568,0.01911310529689363,-0.2791212633296427,1284.2490842490843,-1.0,-1.0,0.6272824537700074,
2023-08-12 15:03:30.754000,-7.301204819277109,-0.13253012048192772,-6.614457831325302,-0.05885959534028203,-7.071122011036174,-6.37155119558553,3.0,0.6267066267066267,1595.6429330499468,0.28063632655439574,-0.16292756832352354,-0.33797564244507877,1284.2490842490843,-1.0,-1.0,0.6272770120394162,
2023-08-12 15:03:30.761000,-7.301204819277109,-0.10843373493975904,-6.63855421686747,-0.04904966278356836,-7.110361741263028,-6.334763948497853,3.0,0.6267066267066267,1595.6429330499468,0.1418332265019522,0.005477536274109728,0.014334828972670657,1285.7142857142856,-1.0,-1.0,0.6272715669329795,
2023-08-12 15:03:30.769000,-7.325301204819278,-0.12048192771084337,-6.63855421686747,-0.05150214592274678,-7.127529123237277,-6.369098712446352,3.0,0.6267066267066267,1595.6429330499468,-0.08973836023541765,-0.5154711263912359,-0.0010488899248296977,1289.3772893772893,-1.0,-1.0,0.6272661202580133,
2023-08-12 15:03:30.777000,-7.325301204819278,-0.12048192771084337,-6.662650602409639,-0.04659717964438994,-7.132434089515634,-6.3960760269773145,3.0,0.6267066267066267,1595.6429330499468,0.048015849892196615,-0.1764465940213266,-0.4134957170328071,1294.5054945054944,-1.0,-1.0,0.6272606737290067,
2023-08-12 15:03:30.784000,-7.325301204819278,-0.12048192771084337,-6.650602409638554,-0.0269773145309626,-7.073574494175352,-6.388718577559779,3.0,0.6267066267066267,1595.6429330499468,0.16887127789755835,0.31186993764932064,-0.1504574325505506,1297.4358974358975,-1.0,-1.0,0.627255228962755,
2023-08-12 15:03:30.792000,-7.337349397590362,-0.12048192771084337,-6.602409638554217,-0.0269773145309626,-7.117719190680564,-6.361741263028816,3.0,0.6267066267066267,1595.6429330499468,0.22749257036303192,-0.01048889924829611,0.12143814463026635,1300.3663003663003,-1.0,-1.0,0.6272497874739894,
2023-08-12 15:03:30.800000,-7.313253012048193,-0.08433734939759037,-6.626506024096386,-0.06131207847946045,-7.15450643776824,-6.32495401594114,3.0,0.6267066267066267,1595.6429330499468,0.37561913641396144,-0.21199230814055114,0.05687314259075798,1300.3663003663003,-1.0,-1.0,0.6272443505327773,
2023-08-12 15:03:30.807000,-7.301204819277109,-0.10843373493975904,-6.614457831325302,0.01226241569589209,-7.07602697731453,-6.320049049662783,3.0,0.6267066267066267,1595.6429330499468,-0.17912709049589104,-0.30394499155060817,-0.2795874366295669,1302.5641025641025,-1.0,-1.0,0.6272389193203455,
2023-08-12 15:03:30.815000,-7.313253012048193,-0.12048192771084337,-6.614457831325302,-0.09319435928877988,-7.129981606376456,-6.312691600245248,3.0,0.6267066267066267,1595.6429330499468,-0.18005943709573946,-0.1661907814229939,-0.0791329176621407,1304.0293040293038,-1.0,-1.0,0.6272334950539574,
2023-08-12 15:03:30.823000,-7.337349397590362,-0.10843373493975904,-6.63855421686747,-0.06621704475781728,-7.120171673819742,-6.312691600245248,3.0,0.6267066267066267,1595.6429330499468,0.18425499679505827,-0.3059262280752876,0.42643202610570463,1304.7619047619046,-1.0,-1.0,0.6272280788356606,
2023-08-12 15:03:30.830000,-7.325301204819278,-0.13253012048192772,-6.614457831325302,-0.02207234825260576,-7.103004291845493,-6.3862660944206,3.0,0.6267066267066267,1595.6429330499468,0.25627877163335405,0.10768603228250118,0.11759221490589136,1304.7619047619046,-1.0,-1.0,0.6272226716509255,
2023-08-12 15:03:30.838000,-7.337349397590362,-0.0963855421686747,-6.626506024096386,-0.041692213366033105,-7.053954629061924,-6.317596566523605,3.0,0.6267066267066267,1595.6429330499468,0.2677000174814986,0.19637550259308956,0.039974360468504146,1305.4945054945053,-1.0,-1.0,0.6272172743678925,
2023-08-12 15:03:30.845000,-7.349397590361447,-0.12048192771084337,-6.602409638554217,-0.04659717964438994,-7.10790925812385,-6.361741263028816,3.0,0.6267066267066267,1595.6429330499468,0.2631548278072373,-0.09754676300914931,-0.12854728745411126,1306.9597069597069,-1.0,-1.0,0.6272118877372315,
2023-08-12 15:03:30.853000,-7.349397590361447,-0.12048192771084337,-6.63855421686747,-0.08583690987124463,-7.085836909871245,-6.349478847332924,3.0,0.6267066267066267,1595.6429330499468,0.2758580502301728,-0.5594079599090963,0.16211176504865682,1306.227106227106,-1.0,-1.0,0.6272065123926102,
2023-08-12 15:03:30.861000,-7.325301204819278,-0.13253012048192772,-6.63855421686747,-0.09319435928877988,-7.120171673819742,-6.32495401594114,3.0,0.6267066267066267,1595.6429330499468,0.3640813472408361,-0.7561330924771285,0.17831128722102432,1301.8315018315018,-1.0,-1.0,0.6272011488517827,
2023-08-12 15:03:30.868000,-7.337349397590362,-0.14457831325301207,-6.650602409638554,-0.08583690987124463,-7.053954629061924,-6.305334150827712,3.0,0.6267066267066267,1595.6429330499468,-0.17329992424683882,-0.21793601771458596,0.09941145620884573,1296.7032967032967,-1.0,-1.0,0.6271957975182804,
2023-08-12 15:03:30.876000,-7.325301204819278,-0.13253012048192772,-6.614457831325302,-0.08583690987124463,-7.085836909871245,-6.31023911710607,3.0,0.6267066267066267,1595.6429330499468,0.5763067420313506,0.028902744595302985,0.036011887419147896,1290.10989010989,-1.0,-1.0,0.6271904586837056,
2023-08-12 15:03:30.884000,-7.301204819277109,-0.13253012048192772,-6.626506024096386,-0.0539546290619252,-7.078479460453709,-6.349478847332924,3.0,0.6267066267066267,1595.6429330499468,0.21910145096439607,0.05745585921566346,0.05221140959151584,1284.9816849816848,-1.0,-1.0,0.6271851325306138,
2023-08-12 15:03:30.891000,-7.289156626506024,-0.1566265060240964,-6.602409638554217,-0.07847946045370938,-7.078479460453709,-6.317596566523605,3.0,0.6267066267066267,1595.6429330499468,0.002214323174639364,-0.3104714177495489,0.02249286172134483,1282.7838827838827,-1.0,-1.0,0.6271798191359705,
2023-08-12 15:03:30.899000,-7.301204819277109,-0.13253012048192772,-6.578313253012048,-0.08338442673206621,-7.07602697731453,-6.31023911710607,3.0,0.6262626262626263,1596.7741935483868,-0.015733348872444163,-0.09335120330983052,0.10232503933337228,1281.3186813186812,-1.0,-1.0,0.6271745184751649,
2023-08-12 15:03:30.907000,-7.313253012048193,-0.1566265060240964,-6.590361445783133,-0.06131207847946045,-7.095646842427958,-6.334763948497853,3.0,0.6262626262626263,1596.7741935483868,-0.016316065497348348,-0.09195268341005701,0.10314084260823944,1281.3186813186812,-1.0,-1.0,0.6271692304160139,
2023-08-12 15:03:30.914000,-7.313253012048193,-0.13253012048192772,-6.614457831325302,-0.034334763948497854,-7.053954629061924,-6.312691600245248,3.0,0.6267066267066267,1595.6429330499468,0.2287745469378246,-0.4120971971330344,-0.06584697861429974,1282.051282051282,-1.0,-1.0,0.6271639546815682,
2023-08-12 15:03:30.922000,-7.337349397590362,-0.12048192771084337,-6.602409638554217,-0.06866952789699571,-7.188841201716738,-6.37155119558553,3.0,0.6267066267066267,1595.6429330499468,0.22737602703805107,-0.2566284016082983,-0.11153196200687615,1281.3186813186812,-1.0,-1.0,0.6271586908552729,
2023-08-12 15:03:30.930000,-7.349397590361447,-0.10843373493975904,-6.614457831325302,-0.04659717964438994,-7.161863887185775,-6.3077866339668915,3.0,0.6267066267066267,1595.6429330499468,0.6056756599265769,-0.10174232270846637,-0.44542858807761787,1282.7838827838827,-1.0,-1.0,0.6271534384284563,
2023-08-12 15:03:30.937000,-7.325301204819278,-0.12048192771084337,-6.650602409638554,-0.06621704475781728,-7.132434089515634,-6.329858982219497,3.0,0.6267066267066267,1595.6429330499468,0.6158149291999305,0.0067595128489024,-0.33494551599557143,1283.5164835164835,-1.0,-1.0,0.6271481968165455,
2023-08-12 15:03:30.945000,-7.36144578313253,-0.13253012048192772,-6.614457831325302,-0.029429797670141016,-7.098099325567136,-6.290619251992642,3.0,0.6267066267066267,1595.6429330499468,0.3037119049006465,-0.31350154419905585,-0.33133267292115853,1286.4468864468863,-1.0,-1.0,0.627142965365151,
2023-08-12 15:03:30.953000,-7.36144578313253,-0.13253012048192772,-6.602409638554217,-0.05150214592274678,-7.147148988350705,-6.320049049662783,3.0,0.6267066267066267,1595.6429330499468,0.4857525785210654,-0.36990851348989,-0.5615057397587553,1293.040293040293,-1.0,-1.0,0.6271377433565354,
2023-08-12 15:03:30.960000,-7.373493975903615,-0.12048192771084337,-6.614457831325302,-0.0269773145309626,-7.13979153893317,-6.283261802575107,3.0,0.6267066267066267,1595.6429330499468,0.4517219276265952,-0.6104539362508017,-0.25161703863411233,1298.9010989010987,-1.0,-1.0,0.627132530016438,
2023-08-12 15:03:30.968000,-7.385542168674699,-0.12048192771084337,-6.662650602409639,-0.02452483139178418,-7.147148988350705,-6.349478847332924,3.0,0.6267066267066267,1595.6429330499468,0.6922673503875068,-0.7900472000466178,-0.21875182098945267,1304.0293040293038,-1.0,-1.0,0.627127324521221,
2023-08-12 15:03:30.976000,-7.373493975903615,-0.14457831325301207,-6.650602409638554,-0.04904966278356836,-7.152053954629062,-6.4107909258123845,3.0,0.6267066267066267,1595.6429330499468,0.25989161470776695,-0.9825767729153311,0.38004778276324236,1306.227106227106,-1.0,-1.0,0.627122126005308,
2023-08-12 15:03:30.983000,-7.373493975903615,-0.12048192771084337,-6.674698795180723,-0.02452483139178418,-7.166768853464132,-6.356836296750459,3.0,0.6267066267066267,1595.6429330499468,0.4405337684284141,-0.7166249053085485,0.5151214964162926,1308.4249084249084,-1.0,-1.0,0.6271169335688724,
2023-08-12 15:03:30.991000,-7.397590361445784,-0.13253012048192772,-6.674698795180723,-0.056407112201103615,-7.183936235438381,-6.361741263028816,3.0,0.6267066267066267,1595.6429330499468,0.1942777227434293,-0.403589534409416,0.8004195559699318,1311.3553113553112,-1.0,-1.0,0.6271117462857457,
2023-08-12 15:03:30.999000,-7.373493975903615,-0.10843373493975904,-6.626506024096386,-0.03923973022685469,-7.159411404046597,-6.349478847332924,3.0,0.6267066267066267,1595.6429330499468,-0.021793601771458074,-0.5693141425324866,0.9019287920284365,1315.018315018315,-1.0,-1.0,0.6271065632115048,
2023-08-12 15:03:31.006000,-7.325301204819278,-0.0963855421686747,-6.63855421686747,-0.02452483139178418,-7.134886572654812,-6.3740036787247085,3.0,0.6267066267066267,1595.6429330499468,0.11561097838121367,-0.5655847561330929,0.21047724491579767,1315.7509157509157,-1.0,-1.0,0.6271013833916943,
2023-08-12 15:03:31.014000,-7.325301204819278,-0.10843373493975904,-6.626506024096386,-0.04659717964438994,-7.098099325567136,-6.391171060698957,3.0,0.6267066267066267,1595.6429330499468,-0.13087815395373276,-1.0239496532836079,0.5634869762834335,1316.4835164835165,-1.0,-1.0,0.6270962058701519,
2023-08-12 15:03:31.022000,-7.313253012048193,-0.14457831325301207,-6.626506024096386,-0.05885959534028203,-7.105456774984671,-6.361741263028816,3.0,0.6267066267066267,1595.6429330499468,-0.3415884855194912,-1.0744129130004072,0.7905133733465416,1317.216117216117,-1.0,-1.0,0.6270910296973882,
2023-08-12 15:03:31.029000,-7.325301204819278,-0.1566265060240964,-6.626506024096386,-0.09319435928877988,-7.117719190680564,-6.356836296750459,3.0,0.6267066267066267,1595.6429330499468,-0.32399044344735195,-0.7433133267292121,0.9388730260474332,1316.4835164835165,-1.0,-1.0,0.6270858539389825,
2023-08-12 15:03:31.037000,-7.301204819277109,-0.1566265060240964,-6.626506024096386,-0.07847946045370938,-7.125076640098099,-6.383813611281422,3.0,0.6267066267066267,1595.6429330499468,-0.229706893537673,-0.46186119689994704,1.1002855311462036,1314.2857142857142,-1.0,-1.0,0.6270806776839551,
2023-08-12 15:03:31.045000,-7.337349397590362,-0.1566265060240964,-6.650602409638554,-0.11771919068056406,-7.026977314530963,-6.361741263028816,3.0,0.6267066267066267,1595.6429330499468,-0.45871452712545924,-0.7321251675310293,0.7113804556844004,1310.6227106227104,-1.0,-1.0,0.6270755000530663,
2023-08-12 15:03:31.052000,-7.313253012048193,-0.13253012048192772,-6.63855421686747,-0.08583690987124463,-7.039239730226854,-6.354383813611281,3.0,0.6262626262626263,1596.7741935483868,-0.3019637550259305,-0.770467921449799,0.29357263562729463,1303.2967032967033,-1.0,-1.0,0.627070320207011,
2023-08-12 15:03:31.060000,-7.289156626506024,-0.1566265060240964,-6.614457831325302,-0.07847946045370938,-7.083384426732066,-6.300429184549356,3.0,0.6267066267066267,1595.6429330499468,-0.37783345958860254,-0.8388788532136819,0.4757298525726939,1297.4358974358975,-1.0,-1.0,0.6270651373439157,
2023-08-12 15:03:31.068000,-7.2771084337349405,-0.1566265060240964,-6.602409638554217,-0.09809932556713671,-7.100551808706315,-6.32495401594114,3.0,0.6267066267066267,1595.6429330499468,-0.6198939455742668,-0.9543732882699149,0.5633704329584526,1293.040293040293,-1.0,-1.0,0.6270599508142229,
2023-08-12 15:03:31.075000,-7.2771084337349405,-0.14457831325301207,-6.590361445783133,-0.06131207847946045,-7.083384426732066,-6.3077866339668915,3.0,0.6267066267066267,1595.6429330499468,-0.32806945982168817,-0.7808402773731126,0.04160596701823933,1288.6446886446886,-1.0,-1.0,0.6270547600005054,
2023-08-12 15:03:31.083000,-7.337349397590362,-0.14457831325301207,-6.614457831325302,-0.04904966278356836,-7.031882280809319,-6.356836296750459,3.0,0.6267066267066267,1595.6429330499468,-0.0090903793485226,-1.1244099994172834,0.34904725831827954,1284.9816849816848,-1.0,-1.0,0.6270495642073614,
2023-08-12 15:03:31.091000,-7.313253012048193,-0.12048192771084337,-6.578313253012048,-0.019619865113427344,-7.073574494175352,-6.302881667688534,3.0,0.6267066267066267,1595.6429330499468,0.15476953557484935,-0.8088106753685689,0.15034088922556976,1281.3186813186812,-1.0,-1.0,0.6270443628171757,
2023-08-12 15:03:31.098000,-7.325301204819278,-0.12048192771084337,-6.614457831325302,-0.05150214592274678,-7.10790925812385,-6.354383813611281,3.0,0.6267066267066267,1595.6429330499468,-0.21618786783986993,-0.3871569255870868,0.2424101159606085,1276.923076923077,-1.0,-1.0,0.6270391552962546,
2023-08-12 15:03:31.106000,-7.337349397590362,-0.0963855421686747,-6.590361445783133,-0.017167381974248927,-7.120171673819742,-6.302881667688534,3.0,0.6267066267066267,1595.6429330499468,0.21175922149058948,-0.5771225453062182,-0.15768311869937635,1273.260073260073,-1.0,-1.0,0.6270339412006084,
2023-08-12 15:03:31.114000,-7.325301204819278,-0.0963855421686747,-6.590361445783133,0.06131207847946045,-7.073574494175352,-6.3445738810545675,3.0,0.6267066267066267,1595.6429330499468,0.08799021036070162,-0.5398286813122777,-0.08262921741157274,1271.062271062271,-1.0,-1.0,0.6270287201813414,
2023-08-12 15:03:31.121000,-7.325301204819278,-0.08433734939759037,-6.602409638554217,-0.007357449417535254,-7.105456774984671,-6.351931330472103,3.0,0.6267066267066267,1595.6429330499468,-0.12843074412913,-0.7054367461103673,-0.08391119398636454,1271.062271062271,-1.0,-1.0,0.6270234919896421,
2023-08-12 15:03:31.129000,-7.337349397590362,-0.10843373493975904,-6.590361445783133,-0.01226241569589209,-7.191293684855916,-6.312691600245248,3.0,0.6267066267066267,1595.6429330499468,0.26583532428180173,-0.39729619486043866,-0.09533243983450865,1271.062271062271,-1.0,-1.0,0.6270182564813367,
2023-08-12 15:03:31.137000,-7.313253012048193,-0.10843373493975904,-6.578313253012048,-0.03923973022685469,-7.10790925812385,-6.261189454322501,3.0,0.6267066267066267,1595.6429330499468,0.35417516461744586,-0.6217586387739636,-0.18553697336985006,1273.260073260073,-1.0,-1.0,0.6270130136209934,
2023-08-12 15:03:31.144000,-7.349397590361447,-0.0963855421686747,-6.55421686746988,-0.08338442673206621,-7.063764561618639,-6.322501532801962,3.0,0.6267066267066267,1595.6429330499468,-0.21315774139036126,-0.8597401083852917,0.06025289901520874,1275.4578754578754,-1.0,-1.0,0.6270077634855579,
2023-08-12 15:03:31.152000,-7.349397590361447,-0.10843373493975904,-6.566265060240964,-0.056407112201103615,-7.100551808706315,-6.31023911710607,3.0,0.6267066267066267,1595.6429330499468,0.07656896451255708,-0.3936833517860258,0.04195559699318183,1281.3186813186812,-1.0,-1.0,0.6270025062675054,
2023-08-12 15:03:31.160000,-7.373493975903615,-0.13253012048192772,-6.590361445783133,-0.03188228080931944,-7.159411404046597,-6.285714285714286,3.0,0.6262626262626263,1596.7741935483868,-0.13880310005244526,-0.1942777227434293,0.2995163452013286,1287.9120879120878,-1.0,-1.0,0.6269972422774923,
2023-08-12 15:03:31.167000,-7.373493975903615,-0.12048192771084337,-6.590361445783133,-0.029429797670141016,-7.147148988350705,-6.3445738810545675,3.0,0.6267066267066267,1595.6429330499468,0.030184721170095657,0.029951634520132248,0.3248062467222187,1297.4358974358975,-1.0,-1.0,0.6269919717972041,
2023-08-12 15:03:31.175000,-7.385542168674699,-0.0963855421686747,-6.566265060240964,-0.05885959534028203,-7.117719190680564,-6.290619251992642,3.0,0.6267066267066267,1595.6429330499468,0.0015150632247543454,-0.20488316531670625,0.44298117825301553,1309.89010989011,-1.0,-1.0,0.626986695208398,
2023-08-12 15:03:31.183000,-7.373493975903615,-0.12048192771084337,-6.602409638554217,0.014714898835070508,-7.098099325567136,-6.359288779889638,3.0,0.6267066267066267,1595.6429330499468,-0.32165957694773,-0.26501952100693416,0.560806479808869,1324.5421245421244,-1.0,-1.0,0.626981413152941,
2023-08-12 15:03:31.190000,-7.385542168674699,-0.13253012048192772,-6.626506024096386,-0.029429797670141016,-7.171673819742489,-6.300429184549356,3.0,0.6267066267066267,1595.6429330499468,-0.31944525377309063,-0.25627877163335405,0.5577763533593612,1341.3919413919414,-1.0,-1.0,0.6269761263944469,
2023-08-12 15:03:31.198000,-7.373493975903615,-0.14457831325301207,-6.614457831325302,-0.04659717964438994,-7.115266707541386,-6.320049049662783,3.0,0.6267066267066267,1595.6429330499468,-0.38214556261290217,-0.4151273235825414,0.5696637725074299,1360.4395604395604,-1.0,-1.0,0.6269708358181404,
2023-08-12 15:03:31.205000,-7.325301204819278,-0.14457831325301207,-6.566265060240964,-0.04904966278356836,-7.152053954629062,-6.332311465358675,3.0,0.6262626262626263,1596.7741935483868,-0.28891090262805247,-0.1934619194685617,0.6423868072956125,1378.7545787545787,-1.0,-1.0,0.6269655424302075,
2023-08-12 15:03:31.213000,-7.313253012048193,-0.1566265060240964,-6.55421686746988,-0.06376456161863887,-7.09319435928878,-6.302881667688534,3.0,0.6267066267066267,1595.6429330499468,-0.2447409824602304,-0.13087815395373276,0.5444904143115207,1397.069597069597,-1.0,-1.0,0.6269602474848325,
2023-08-12 15:03:31.221000,-7.289156626506024,-0.13253012048192772,-6.542168674698796,-0.0539546290619252,-7.080931943592887,-6.300429184549356,3.0,0.6267066267066267,1595.6429330499468,-0.19928908571761567,-0.14835965270089121,0.7964570829205755,1413.9194139194137,-1.0,-1.0,0.6269549524304417,
2023-08-12 15:03:31.228000,-7.289156626506024,-0.14457831325301207,-6.578313253012048,-0.09074187614960147,-7.112814224402207,-6.376456161863887,3.0,0.6267066267066267,1595.6429330499468,0.07505390128780448,-0.029718547870170576,0.6216420954489832,1430.03663003663,-1.0,-1.0,0.6269496586521194,
2023-08-12 15:03:31.236000,-7.313253012048193,-0.13253012048192772,-6.602409638554217,-0.07602697731453095,-7.103004291845493,-6.320049049662783,3.0,0.6267066267066267,1595.6429330499468,-0.0510459763417053,-0.34928034496824206,0.8923722393799892,1445.4212454212454,-1.0,-1.0,0.6269443675006101,
2023-08-12 15:03:31.244000,-7.313253012048193,-0.14457831325301207,-6.602409638554217,-0.03188228080931944,-7.024524831391783,-6.364193746167995,3.0,0.6267066267066267,1595.6429330499468,0.07132451488840903,-0.04125633704329595,0.7040382262105939,1460.07326007326,-1.0,-1.0,0.6269390804377323,
2023-08-12 15:03:31.251000,-7.301204819277109,-0.1566265060240964,-6.614457831325302,-0.10545677498467197,-7.039239730226854,-6.334763948497853,3.0,0.6267066267066267,1595.6429330499468,0.22271429403880894,0.34543441524386753,0.30149758172600627,1473.260073260073,-1.0,-1.0,0.6269337990320633,
2023-08-12 15:03:31.259000,-7.325301204819278,-0.13253012048192772,-6.602409638554217,-0.10300429184549356,-7.088289393010423,-6.280809319435929,3.0,0.6267066267066267,1595.6429330499468,0.05850474914049272,0.7574150690519194,0.11479517510634565,1482.7838827838827,-1.0,-1.0,0.6269285249542191,
2023-08-12 15:03:31.267000,-7.301204819277109,-0.13253012048192772,-6.578313253012048,-0.04659717964438994,-7.10790925812385,-6.329858982219497,3.0,0.6267066267066267,1595.6429330499468,0.21105996154070272,0.7508886428529804,-0.4333080822795879,1487.9120879120878,-1.0,-1.0,0.6269232599717568,
2023-08-12 15:03:31.274000,-7.337349397590362,-0.13253012048192772,-6.626506024096386,-0.04904966278356836,-7.080931943592887,-6.378908645003065,3.0,0.6267066267066267,1595.6429330499468,0.16490880484820297,0.470718489598508,0.09090379348522862,1487.179487179487,-1.0,-1.0,0.6269180059437252,
2023-08-12 15:03:31.282000,-7.349397590361447,-0.12048192771084337,-6.626506024096386,-0.11281422440220723,-7.051502145922746,-6.356836296750459,3.0,0.6267066267066267,1595.6429330499468,0.10092651943359877,0.08612551716100478,-0.24427480916030533,1482.7838827838827,-1.0,-1.0,0.6269127648149053,
2023-08-12 15:03:31.290000,-7.349397590361447,-0.12048192771084337,-6.614457831325302,-0.03678724708767627,-7.127529123237277,-6.347026364193746,3.0,0.6267066267066267,1595.6429330499468,0.5150049530913109,0.56197191305868,-0.27317755375560876,1473.9926739926739,-1.0,-1.0,0.6269075386097626,
2023-08-12 15:03:31.297000,-7.36144578313253,-0.0963855421686747,-6.602409638554217,-0.05885959534028203,-7.149601471489883,-6.32495401594114,3.0,0.6267066267066267,1595.6429330499468,0.37223937998951023,0.22562787716333504,-0.7433133267292112,1460.8058608058607,-1.0,-1.0,0.626902329426152,
2023-08-12 15:03:31.305000,-7.36144578313253,-0.0963855421686747,-6.590361445783133,-0.04414469650521152,-7.15450643776824,-6.317596566523605,3.0,0.6262626262626263,1596.7741935483868,0.2917079424275978,0.30231338500087473,-0.4179243633820875,1446.8864468864467,-1.0,-1.0,0.6268971395675552,
2023-08-12 15:03:31.313000,-7.349397590361447,-0.0963855421686747,-6.590361445783133,-0.03923973022685469,-7.085836909871245,-6.361741263028816,3.0,0.6262626262626263,1596.7741935483868,0.028786201270322147,0.06934327836373134,-0.41314608705786365,1432.9670329670328,-1.0,-1.0,0.6268919712279638,
2023-08-12 15:03:31.320000,-7.349397590361447,-0.0963855421686747,-6.614457831325302,-0.08583690987124463,-7.07602697731453,-6.3445738810545675,3.0,0.6262626262626263,1596.7741935483868,0.136705320202785,-0.2549967950585631,-0.36221665404114006,1420.5128205128203,-1.0,-1.0,0.6268868263355482,
2023-08-12 15:03:31.328000,-7.325301204819278,-0.08433734939759037,-6.614457831325302,-0.0539546290619252,-7.134886572654812,-6.364193746167995,3.0,0.6262626262626263,1596.7741935483868,-0.047433133267292434,-0.14591224287628843,-0.1305285239787894,1410.989010989011,-1.0,-1.0,0.626881706831864,
2023-08-12 15:03:31.336000,-7.337349397590362,-0.0963855421686747,-6.590361445783133,-0.05885959534028203,-7.156958920907418,-6.400980993255671,3.0,0.6267066267066267,1595.6429330499468,-0.04661732999242484,0.3587203542917072,-0.3908863119864814,1405.8608058608058,-1.0,-1.0,0.6268766146627488,
2023-08-12 15:03:31.343000,-7.325301204819278,-0.0963855421686747,-6.590361445783133,-0.04414469650521152,-7.098099325567136,-6.388718577559779,3.0,0.6267066267066267,1595.6429330499468,-0.35091195151797727,0.14288211642678147,0.00967309597342765,1402.9304029304028,-1.0,-1.0,0.626871551918301,
2023-08-12 15:03:31.351000,-7.337349397590362,-0.12048192771084337,-6.590361445783133,-0.03678724708767627,-7.07602697731453,-6.295524218270999,3.0,0.6267066267066267,1595.6429330499468,-0.4249169628809507,0.5855136647048541,-0.06619660858924269,1402.9304029304028,-1.0,-1.0,0.6268665209840151,
2023-08-12 15:03:31.359000,-7.313253012048193,-0.12048192771084337,-6.602409638554217,-0.07357449417535254,-7.149601471489883,-6.295524218270999,3.0,0.6262626262626263,1596.7741935483868,-0.22551133383835423,0.23075578346250228,-0.32527242002214335,1402.9304029304028,-1.0,-1.0,0.6268615243737289,
2023-08-12 15:03:31.366000,-7.337349397590362,-0.0963855421686747,-6.602409638554217,-0.10055180870631514,-7.156958920907418,-6.300429184549356,3.0,0.6262626262626263,1596.7741935483868,-0.24136122603577922,0.0924188567099821,-0.3838937124876169,1402.9304029304028,-1.0,-1.0,0.6268565644245286,
2023-08-12 15:03:31.374000,-7.325301204819278,-0.0963855421686747,-6.626506024096386,-0.056407112201103615,-7.15450643776824,-6.315144083384427,3.0,0.6267066267066267,1595.6429330499468,-0.8068294388438895,0.09335120330983052,-0.4583648971505154,1400.7326007326005,-1.0,-1.0,0.6268516432683137,
2023-08-12 15:03:31.382000,-7.349397590361447,-0.10843373493975904,-6.602409638554217,-0.0539546290619252,-7.06131207847946,-6.329858982219497,3.0,0.6262626262626263,1596.7741935483868,-0.0102558125983327,-0.24485752578521125,0.017598042072140586,1400.0,-1.0,-1.0,0.6268467631115936,
2023-08-12 15:03:31.389000,-7.36144578313253,-0.10843373493975904,-6.602409638554217,0.009809932556713672,-7.15450643776824,-6.361741263028816,3.0,0.6267066267066267,1595.6429330499468,0.0010488899248292638,-0.04451955014276631,0.0015150632247534776,1396.3369963369962,-1.0,-1.0,0.6268419259609225,
2023-08-12 15:03:31.397000,-7.36144578313253,-0.0963855421686747,-6.590361445783133,-0.056407112201103615,-7.149601471489883,-6.3445738810545675,3.0,0.6267066267066267,1595.6429330499468,-0.14055124992716128,0.23192121671231236,0.002563953149583175,1388.278388278388,-1.0,-1.0,0.6268371336251367,
2023-08-12 15:03:31.405000,-7.36144578313253,-0.10843373493975904,-6.590361445783133,-0.08338442673206621,-7.122624156958921,-6.349478847332924,3.0,0.6262626262626263,1596.7741935483868,0.056756599265776704,0.1279645708292049,-0.2896101625779379,1380.2197802197802,-1.0,-1.0,0.6268323881543566,
2023-08-12 15:03:31.412000,-7.349397590361447,-0.10843373493975904,-6.578313253012048,-0.02207234825260576,-7.183936235438381,-6.329858982219497,3.0,0.6267066267066267,1595.6429330499468,0.11794184488083388,0.09999417283375035,0.05780548919060684,1371.4285714285713,-1.0,-1.0,0.6268276913850288,
2023-08-12 15:03:31.420000,-7.349397590361447,-0.12048192771084337,-6.602409638554217,-0.07847946045370938,-7.1741263028816675,-6.31023911710607,3.0,0.6262626262626263,1596.7741935483868,-0.35499096789231344,-0.34170502884447207,-0.1152613484062703,1364.102564102564,-1.0,-1.0,0.6268230449323736,
2023-08-12 15:03:31.428000,-7.349397590361447,-0.12048192771084337,-6.602409638554217,-0.007357449417535254,-7.120171673819742,-6.315144083384427,3.0,0.6267066267066267,1595.6429330499468,0.183206106870229,0.21059378824077765,0.3404230522696811,1356.7765567765566,-1.0,-1.0,0.6268184503422373,
2023-08-12 15:03:31.435000,-7.325301204819278,-0.12048192771084337,-6.566265060240964,-0.029429797670141016,-7.046597179644389,-6.322501532801962,3.0,0.6267066267066267,1595.6429330499468,0.07656896451255708,0.5408775712371069,-0.10990035545714141,1345.7875457875457,-1.0,-1.0,0.6268139090729995,
2023-08-12 15:03:31.443000,-7.313253012048193,-0.0963855421686747,-6.578313253012048,-0.007357449417535254,-7.1741263028816675,-6.342121397915389,3.0,0.6267066267066267,1595.6429330499468,0.07820057106229227,0.3714235767146444,-0.5061476603927508,1332.6007326007325,-1.0,-1.0,0.6268094226483021,
2023-08-12 15:03:31.451000,-7.313253012048193,-0.0963855421686747,-6.55421686746988,-0.05885959534028203,-7.149601471489883,-6.356836296750459,3.0,0.6262626262626263,1596.7741935483868,-0.07109142823844736,0.23646640638657368,-0.07936600431210324,1322.3443223443223,-1.0,-1.0,0.6268049925125003,
2023-08-12 15:03:31.458000,-7.349397590361447,-0.12048192771084337,-6.590361445783133,-0.04659717964438994,-7.122624156958921,-6.349478847332924,3.0,0.6262626262626263,1596.7741935483868,0.08507662723617551,0.36338208729095106,-0.21991725423926364,1316.4835164835165,-1.0,-1.0,0.6268006198761926,
2023-08-12 15:03:31.466000,-7.36144578313253,-0.12048192771084337,-6.602409638554217,-0.12998160637645614,-7.125076640098099,-6.3372164316370325,3.0,0.6262626262626263,1596.7741935483868,0.08682477711089152,0.3643144338907995,-0.22154886078899796,1316.4835164835165,-1.0,-1.0,0.6267963058285776,
2023-08-12 15:03:31.474000,-7.349397590361447,-0.12048192771084337,-6.626506024096386,-0.056407112201103615,-7.10790925812385,-6.290619251992642,3.0,0.6267066267066267,1595.6429330499468,0.14626187285123268,0.12120505798030425,-0.0050113629741855145,1318.6813186813185,-1.0,-1.0,0.6267920513115496,
2023-08-12 15:03:31.481000,-7.349397590361447,-0.10843373493975904,-6.614457831325302,0.004904966278356836,-7.156958920907418,-6.317596566523605,3.0,0.6262626262626263,1596.7741935483868,-0.03531262746926114,0.6296835848726762,-0.1741157275217064,1320.14652014652,-1.0,-1.0,0.6267878572751222,
2023-08-12 15:03:31.489000,-7.349397590361447,-0.08433734939759037,-6.590361445783133,0.05150214592274678,-7.1446965052115265,-6.300429184549356,3.0,0.6262626262626263,1596.7741935483868,0.47316589942311077,0.296835848726765,-0.3580210943418213,1322.3443223443223,-1.0,-1.0,0.6267837246742513,
2023-08-12 15:03:31.497000,-7.313253012048193,-0.14457831325301207,-6.614457831325302,-0.05885959534028203,-7.044144696505211,-6.322501532801962,3.0,0.6262626262626263,1596.7741935483868,0.07715168113746301,0.227958743662957,-0.006642969523920696,1326.007326007326,-1.0,-1.0,0.626779654157796,
2023-08-12 15:03:31.504000,-7.301204819277109,-0.14457831325301207,-6.602409638554217,-0.041692213366033105,-7.142244022072348,-6.317596566523605,3.0,0.6262626262626263,1596.7741935483868,-0.024940271545947603,0.2291241769127671,-0.0689936483887884,1331.135531135531,-1.0,-1.0,0.6267756462050206,
2023-08-12 15:03:31.512000,-7.337349397590362,-0.13253012048192772,-6.614457831325302,-0.041692213366033105,-7.06131207847946,-6.332311465358675,3.0,0.6258186258186259,1597.9070592408655,0.12924654740399757,0.07610279121263375,-0.0050113629741855145,1336.263736263736,-1.0,-1.0,0.6267717011237358,
2023-08-12 15:03:31.520000,-7.337349397590362,-0.10843373493975904,-6.590361445783133,0.017167381974248927,-7.105456774984671,-6.393623543838136,3.0,0.6262626262626263,1596.7741935483868,0.009206922673503438,0.6281685216479218,0.22621059378824096,1339.194139194139,-1.0,-1.0,0.626767819038297,
2023-08-12 15:03:31.527000,-7.337349397590362,-0.0963855421686747,-6.614457831325302,-0.01226241569589209,-7.10790925812385,-6.334763948497853,3.0,0.6262626262626263,1596.7741935483868,-0.0020977798496585277,0.7042713128605556,-0.09533243983450865,1339.9267399267399,-1.0,-1.0,0.6267639998568514,
2023-08-12 15:03:31.535000,-7.337349397590362,-0.10843373493975904,-6.602409638554217,-0.009809932556713672,-7.083384426732066,-6.334763948497853,3.0,0.6262626262626263,1596.7741935483868,0.030883981119980676,0.4912301147951751,-0.18716857991958524,1339.194139194139,-1.0,-1.0,0.6267602433020435,
2023-08-12 15:03:31.543000,-7.325301204819278,-0.0963855421686747,-6.614457831325302,0.05150214592274678,-7.115266707541386,-6.302881667688534,3.0,0.6262626262626263,1596.7741935483868,0.2781889167297947,0.24625604568498302,0.012470135772973802,1336.263736263736,-1.0,-1.0,0.6267565489209977,
2023-08-12 15:03:31.550000,-7.325301204819278,-0.12048192771084337,-6.626506024096386,-0.11526670754138564,-7.127529123237277,-6.354383813611281,3.0,0.6267066267066267,1595.6429330499468,0.03251558766971586,0.3806304993881478,0.04498572344268966,1335.5311355311355,-1.0,-1.0,0.6267529160852147,
2023-08-12 15:03:31.558000,-7.313253012048193,-0.12048192771084337,-6.602409638554217,-0.03678724708767627,-7.063764561618639,-6.378908645003065,3.0,0.6262626262626263,1596.7741935483868,-0.0427714002680503,0.37946506613833775,-0.026105704795757703,1335.5311355311355,-1.0,-1.0,0.6267493440014775,
2023-08-12 15:03:31.566000,-7.313253012048193,-0.13253012048192772,-6.566265060240964,-0.06131207847946045,-7.053954629061924,-6.268546903740036,3.0,0.6262626262626263,1596.7741935483868,-0.20942835499096754,0.4736320727230341,-0.03904201386865572,1334.7985347985348,-1.0,-1.0,0.6267458317444091,
2023-08-12 15:03:31.573000,-7.337349397590362,-0.10843373493975904,-6.590361445783133,0.019619865113427344,-7.07602697731453,-6.290619251992642,3.0,0.6262626262626263,1596.7741935483868,0.26303828448225647,0.5217644659402133,-0.4373870986539245,1332.6007326007325,-1.0,-1.0,0.6267423782264867,
2023-08-12 15:03:31.581000,-7.289156626506024,-0.0963855421686747,-6.578313253012048,-0.056407112201103615,-7.071122011036174,-6.3445738810545675,3.0,0.6262626262626263,1596.7741935483868,-0.12062234135539832,0.048831653167064205,-0.3301672396713476,1330.4029304029302,-1.0,-1.0,0.6267389820509662,
2023-08-12 15:03:31.588000,-7.325301204819278,-0.14457831325301207,-6.614457831325302,-0.056407112201103615,-7.132434089515634,-6.3666462293071735,3.0,0.6262626262626263,1596.7741935483868,-0.21164267816560864,0.1131635685566109,-0.3907697686614997,1329.6703296703297,-1.0,-1.0,0.6267356415349868,
2023-08-12 15:03:31.596000,-7.349397590361447,-0.14457831325301207,-6.650602409638554,-0.12507664009809932,-7.105456774984671,-6.359288779889638,3.0,0.6262626262626263,1596.7741935483868,-0.10442281918303081,0.24998543208437674,0.1139793718314785,1330.4029304029302,-1.0,-1.0,0.6267323549995306,
2023-08-12 15:03:31.604000,-7.349397590361447,-0.14457831325301207,-6.602409638554217,-0.02207234825260576,-7.112814224402207,-6.312691600245248,3.0,0.6262626262626263,1596.7741935483868,0.4161762135073706,0.9237223937998958,-0.07167414486335284,1331.8681318681317,-1.0,-1.0,0.6267291207516674,
2023-08-12 15:03:31.611000,-7.36144578313253,-0.10843373493975904,-6.566265060240964,-0.002452483139178418,-7.09319435928878,-6.329858982219497,3.0,0.6262626262626263,1596.7741935483868,0.41361226035778875,0.7538022259775065,-0.4689703397237924,1332.6007326007325,-1.0,-1.0,0.62672593693987,
2023-08-12 15:03:31.619000,-7.36144578313253,-0.10843373493975904,-6.602409638554217,0.02207234825260576,-7.142244022072348,-6.364193746167995,3.0,0.6262626262626263,1596.7741935483868,0.16793893129770993,0.3862245789872384,-0.27142940388089276,1333.3333333333333,-1.0,-1.0,0.6267228015591267,
2023-08-12 15:03:31.627000,-7.349397590361447,-0.13253012048192772,-6.602409638554217,-0.07112201103617412,-7.085836909871245,-6.3740036787247085,3.0,0.6262626262626263,1596.7741935483868,0.08892255696055006,-0.3005652351261587,0.09253540003496293,1332.6007326007325,-1.0,-1.0,0.6267197124565259,
2023-08-12 15:03:31.634000,-7.36144578313253,-0.1566265060240964,-6.626506024096386,-0.0956468424279583,-7.120171673819742,-6.383813611281422,3.0,0.6262626262626263,1596.7741935483868,0.011421245848144537,-0.06759512848901532,0.16630732474797516,1330.4029304029302,-1.0,-1.0,0.6267166673373165,
2023-08-12 15:03:31.642000,-7.385542168674699,-0.1566265060240964,-6.63855421686747,-0.08828939301042305,-7.2035561005518085,-6.37155119558553,3.0,0.6262626262626263,1596.7741935483868,0.08717440708583403,0.48423751529631104,0.02575607482081476,1328.2051282051282,-1.0,-1.0,0.6267136637714178,
2023-08-12 15:03:31.650000,-7.349397590361447,-0.13253012048192772,-6.602409638554217,-0.06376456161863887,-7.073574494175352,-6.3445738810545675,3.0,0.6262626262626263,1596.7741935483868,0.099527999533827,0.9558883514946674,-0.4625604568498338,1324.5421245421244,-1.0,-1.0,0.6267106992003791,
2023-08-12 15:03:31.657000,-7.337349397590362,-0.13253012048192772,-6.590361445783133,-0.02452483139178418,-7.169221336603311,-6.266094420600858,3.0,0.6267066267066267,1595.6429330499468,0.02249286172134483,0.6010139269273348,-0.18705203659460398,1321.6117216117216,-1.0,-1.0,0.6267077709447504,
2023-08-12 15:03:31.665000,-7.289156626506024,-0.14457831325301207,-6.566265060240964,-0.11281422440220723,-7.112814224402207,-6.256284488044145,3.0,0.6258186258186259,1597.9070592408655,-0.29986597517627195,0.04661732999242484,-0.20534933861663046,1316.4835164835165,-1.0,-1.0,0.6267048763611627,
2023-08-12 15:03:31.673000,-7.301204819277109,-0.14457831325301207,-6.590361445783133,-0.08338442673206621,-7.036787247087676,-6.3372164316370325,3.0,0.6262626262626263,1596.7741935483868,-0.3287687197715749,0.07750131111240552,-0.1614125050987705,1313.5531135531135,-1.0,-1.0,0.6267020127125289,
2023-08-12 15:03:31.680000,-7.325301204819278,-0.14457831325301207,-6.602409638554217,-0.0956468424279583,-7.137339055793991,-6.329858982219497,3.0,0.6262626262626263,1596.7741935483868,-0.007342229473806583,0.07866674436221735,0.08111415418681926,1311.3553113553112,-1.0,-1.0,0.6266991771246756,
2023-08-12 15:03:31.688000,-7.325301204819278,-0.14457831325301207,-6.63855421686747,-0.0956468424279583,-7.095646842427958,-6.317596566523605,3.0,0.6262626262626263,1596.7741935483868,-0.16246139502360019,0.7049705728104423,0.27923780665462394,1304.7619047619046,-1.0,-1.0,0.626696366606335,
2023-08-12 15:03:31.696000,-7.337349397590362,-0.1566265060240964,-6.602409638554217,-0.05885959534028203,-7.088289393010423,-6.347026364193746,3.0,0.6262626262626263,1596.7741935483868,-0.10384010255812663,1.0675368568265258,0.38529223238738997,1298.168498168498,-1.0,-1.0,0.6266935779410573,
2023-08-12 15:03:31.703000,-7.36144578313253,-0.13253012048192772,-6.626506024096386,-0.04904966278356836,-7.152053954629062,-6.364193746167995,3.0,0.6262626262626263,1596.7741935483868,-0.22947380688771132,0.8923722393799901,0.2146728046151156,1297.4358974358975,-1.0,-1.0,0.6266908078455659,
2023-08-12 15:03:31.711000,-7.373493975903615,-0.13253012048192772,-6.602409638554217,-0.04904966278356836,-7.129981606376456,-6.293071735131821,3.0,0.6262626262626263,1596.7741935483868,-0.43062758580502386,0.3951984150107801,0.0913699667851524,1300.3663003663003,-1.0,-1.0,0.6266880529790838,
2023-08-12 15:03:31.719000,-7.349397590361447,-0.14457831325301207,-6.590361445783133,-0.06866952789699571,-7.110361741263028,-6.339668914776211,3.0,0.6262626262626263,1596.7741935483868,-0.38529223238738997,0.2985839986014793,-0.03030126449507606,1304.7619047619046,-1.0,-1.0,0.6266853099528982,
2023-08-12 15:03:31.726000,-7.301204819277109,-0.13253012048192772,-6.590361445783133,-0.10300429184549356,-7.080931943592887,-6.280809319435929,3.0,0.6262626262626263,1596.7741935483868,0.15045743255055147,0.15640114212458453,-0.27387681370549505,1308.4249084249084,-1.0,-1.0,0.6266825753401399,
2023-08-12 15:03:31.734000,-7.301204819277109,-0.13253012048192772,-6.602409638554217,-0.03923973022685469,-7.044144696505211,-6.349478847332924,3.0,0.6262626262626263,1596.7741935483868,0.055824252665928276,-0.029019287920283823,-0.36384826059087483,1312.087912087912,-1.0,-1.0,0.626679845685743,
2023-08-12 15:03:31.742000,-7.301204819277109,-0.13253012048192772,-6.602409638554217,-0.06621704475781728,-7.007357449417535,-6.347026364193746,3.0,0.6262626262626263,1596.7741935483868,0.052211409591515406,-0.030068177845113085,-0.36116776411631035,1316.4835164835165,-1.0,-1.0,0.626677117516572,
2023-08-12 15:03:31.749000,-7.325301204819278,-0.14457831325301207,-6.590361445783133,-0.06621704475781728,-7.071122011036174,-6.3740036787247085,3.0,0.6262626262626263,1596.7741935483868,-0.10302429928325904,0.5056814870928266,-0.2665345842316881,1318.6813186813185,-1.0,-1.0,0.626674387351676,
2023-08-12 15:03:31.757000,-7.337349397590362,-0.13253012048192772,-6.602409638554217,-0.05885959534028203,-7.110361741263028,-6.3372164316370325,3.0,0.6262626262626263,1596.7741935483868,-0.07307266476312506,0.8085775887186055,0.03810966726880729,1318.6813186813185,-1.0,-1.0,0.6266716517126473,
2023-08-12 15:03:31.765000,-7.36144578313253,-0.0963855421686747,-6.602409638554217,-0.06131207847946045,-7.159411404046597,-6.347026364193746,3.0,0.6262626262626263,1596.7741935483868,0.1119981353068008,1.0161412505098761,-0.6371423576714644,1317.9487179487178,-1.0,-1.0,0.6266689071340489,
2023-08-12 15:03:31.772000,-7.36144578313253,-0.07228915662650603,-6.602409638554217,-0.02452483139178418,-7.110361741263028,-6.31023911710607,3.0,0.6262626262626263,1596.7741935483868,0.05034671639181855,0.7042713128605556,-0.4190897966318976,1317.216117216117,-1.0,-1.0,0.6266661501738918,
2023-08-12 15:03:31.780000,-7.349397590361447,-0.10843373493975904,-6.614457831325302,-0.01226241569589209,-7.15450643776824,-6.356836296750459,3.0,0.6262626262626263,1596.7741935483868,-0.2263271371132218,0.3755025930889806,0.14835965270089163,1314.2857142857142,-1.0,-1.0,0.6266633774241133,
2023-08-12 15:03:31.788000,-7.349397590361447,-0.12048192771084337,-6.626506024096386,-0.056407112201103615,-7.105456774984671,-6.3740036787247085,3.0,0.6262626262626263,1596.7741935483868,-0.7593963055765988,0.18914981644426382,0.1129304819066488,1310.6227106227104,-1.0,-1.0,0.6266605855210451,
2023-08-12 15:03:31.795000,-7.325301204819278,-0.13253012048192772,-6.650602409638554,-0.056407112201103615,-7.147148988350705,-6.393623543838136,3.0,0.6262626262626263,1596.7741935483868,-0.5546296835848734,0.22166540411397967,0.07971563428704619,1306.227106227106,-1.0,-1.0,0.62665777115582,
2023-08-12 15:03:31.803000,-7.36144578313253,-0.12048192771084337,-6.626506024096386,-0.04904966278356836,-7.056407112201104,-6.305334150827712,3.0,0.6262626262626263,1596.7741935483868,-0.5493852339607254,0.4957753044694364,-0.08857292698560668,1300.3663003663003,-1.0,-1.0,0.6266549310847005,
2023-08-12 15:03:31.811000,-7.349397590361447,-0.13253012048192772,-6.590361445783133,-0.06621704475781728,-7.095646842427958,-6.270999386879215,3.0,0.6262626262626263,1596.7741935483868,-0.4208379465066145,0.6288677815978085,-0.5003204941436977,1295.2380952380952,-1.0,-1.0,0.6266520621392841,
2023-08-12 15:03:31.818000,-7.301204819277109,-0.12048192771084337,-6.578313253012048,-0.01226241569589209,-7.022072348252605,-6.334763948497853,3.0,0.6258186258186259,1597.9070592408655,-0.2516170386341119,0.24112813938581754,-0.13285939047841044,1289.3772893772893,-1.0,-1.0,0.6266491612365637,
2023-08-12 15:03:31.826000,-7.313253012048193,-0.1566265060240964,-6.602409638554217,0.004904966278356836,-7.103004291845493,-6.332311465358675,3.0,0.6262626262626263,1596.7741935483868,-0.5416933745119745,-0.1884505564943753,0.050113629741856444,1287.179487179487,-1.0,-1.0,0.6266462253782592,
2023-08-12 15:03:31.834000,-7.337349397590362,-0.16867469879518074,-6.650602409638554,-0.10055180870631514,-7.152053954629062,-6.378908645003065,3.0,0.6262626262626263,1596.7741935483868,-0.3229415535225227,-0.2646698910319916,-0.008740749373579224,1287.9120879120878,-1.0,-1.0,0.6266432517675149,
2023-08-12 15:03:31.841000,-7.337349397590362,-0.1566265060240964,-6.63855421686747,-0.10545677498467197,-7.110361741263028,-6.356836296750459,3.0,0.6262626262626263,1596.7741935483868,-0.3647806071907228,0.5636035196084151,-0.008391119398636715,1289.3772893772893,-1.0,-1.0,0.6266402376905104,
2023-08-12 15:03:31.849000,-7.337349397590362,-0.14457831325301207,-6.602409638554217,-0.1103617412630288,-7.073574494175352,-6.329858982219497,3.0,0.6262626262626263,1596.7741935483868,-0.3145504341238851,1.2946797972146133,-0.008624206048598388,1292.3076923076922,-1.0,-1.0,0.6266371804081462,
2023-08-12 15:03:31.857000,-7.349397590361447,-0.12048192771084337,-6.566265060240964,-0.05150214592274678,-7.122624156958921,-6.302881667688534,3.0,0.6262626262626263,1596.7741935483868,-0.2036011887419153,0.8271079773905949,-0.45288736087640613,1294.5054945054944,-1.0,-1.0,0.6266340773135919,
2023-08-12 15:03:31.864000,-7.313253012048193,-0.0963855421686747,-6.578313253012048,-0.041692213366033105,-7.105456774984671,-6.3372164316370325,3.0,0.6262626262626263,1596.7741935483868,-0.3223588368976168,0.20686440184138566,-0.4640755200745873,1297.4358974358975,-1.0,-1.0,0.6266309259402161,
2023-08-12 15:03:31.872000,-7.313253012048193,-0.13253012048192772,-6.602409638554217,-0.04659717964438994,-7.120171673819742,-6.3740036787247085,3.0,0.6262626262626263,1596.7741935483868,-0.3326146494959495,-0.33389662607074216,-0.2612901346075404,1302.5641025641025,-1.0,-1.0,0.6266277239691705,
2023-08-12 15:03:31.880000,-7.337349397590362,-0.10843373493975904,-6.63855421686747,-0.01226241569589209,-7.105456774984671,-6.334763948497853,3.0,0.6262626262626263,1596.7741935483868,-0.2399627061360057,-0.3321484761960261,-0.1827399335703048,1309.1575091575091,-1.0,-1.0,0.6266244692365992,
2023-08-12 15:03:31.887000,-7.325301204819278,-0.08433734939759037,-6.63855421686747,0.04904966278356836,-7.147148988350705,-6.378908645003065,3.0,0.6262626262626263,1596.7741935483868,0.1630441116485061,0.7248994813822035,0.2153720645650019,1314.2857142857142,-1.0,-1.0,0.6266211597404555,
2023-08-12 15:03:31.895000,-7.337349397590362,-0.060240963855421686,-6.602409638554217,0.017167381974248927,-7.068669527896995,-6.361741263028816,3.0,0.6262626262626263,1596.7741935483868,-0.08088106753685671,1.0260474331332663,0.030417807820056895,1318.6813186813185,-1.0,-1.0,0.6266177937856625,
2023-08-12 15:03:31.903000,-7.313253012048193,-0.060240963855421686,-6.590361445783133,0.03188228080931944,-7.078479460453709,-6.31023911710607,3.0,0.6262626262626263,1596.7741935483868,-0.1719014043470653,0.9098537381271485,-0.04650078666744357,1321.6117216117216,-1.0,-1.0,0.6266143698309544,
2023-08-12 15:03:31.910000,-7.325301204819278,-0.08433734939759037,-6.626506024096386,-0.009809932556713672,-7.122624156958921,-6.356836296750459,3.0,0.6262626262626263,1596.7741935483868,-0.06386574208962162,0.3686265369150991,-0.12225394790513394,1321.6117216117216,-1.0,-1.0,0.6266108863667913,
2023-08-12 15:03:31.918000,-7.349397590361447,-0.10843373493975904,-6.614457831325302,-0.04904966278356836,-7.056407112201104,-6.339668914776211,3.0,0.6262626262626263,1596.7741935483868,0.25709457490822163,-0.015849892197425,0.01631606549734878,1320.8791208791208,-1.0,-1.0,0.6266073420695091,
2023-08-12 15:03:31.926000,-7.313253012048193,-0.0963855421686747,-6.590361445783133,-0.01226241569589209,-7.007357449417535,-6.312691600245248,3.0,0.6258186258186259,1597.9070592408655,0.3179301905483363,0.027620768020512047,-0.36652875706543925,1320.14652014652,-1.0,-1.0,0.6266037358057002,
2023-08-12 15:03:31.933000,-7.301204819277109,-0.08433734939759037,-6.578313253012048,0.009809932556713672,-7.06131207847946,-6.334763948497853,3.0,0.6262626262626263,1596.7741935483868,0.31723093059844953,0.31618204067362204,-0.47200046617329977,1319.4139194139193,-1.0,-1.0,0.626600066486796,
2023-08-12 15:03:31.941000,-7.313253012048193,-0.08433734939759037,-6.626506024096386,-0.004904966278356836,-7.080931943592887,-6.364193746167995,3.0,0.6262626262626263,1596.7741935483868,-0.04696695996736735,0.43575549210418935,-0.10593788240778515,1320.14652014652,-1.0,-1.0,0.6265963331998634,
2023-08-12 15:03:31.949000,-7.325301204819278,-0.10843373493975904,-6.650602409638554,-0.09809932556713671,-7.105456774984671,-6.4034334763948495,3.0,0.6262626262626263,1596.7741935483868,0.2787716333546989,0.4330749956296249,-0.04720004661732989,1321.6117216117216,-1.0,-1.0,0.6265925353693972,
2023-08-12 15:03:31.956000,-7.325301204819278,-0.10843373493975904,-6.662650602409639,-0.07602697731453095,-7.152053954629062,-6.354383813611281,3.0,0.6262626262626263,1596.7741935483868,-0.010955072548219456,0.8554280053609937,0.026338791445720242,1326.7399267399267,-1.0,-1.0,0.6265886726207196,
2023-08-12 15:03:31.964000,-7.349397590361447,-0.12048192771084337,-6.63855421686747,-0.007357449417535254,-7.10790925812385,-6.356836296750459,3.0,0.6262626262626263,1596.7741935483868,-0.1443971796515358,0.6633646057922021,-0.29939980187634774,1334.065934065934,-1.0,-1.0,0.6265847447816016,
2023-08-12 15:03:31.971000,-7.36144578313253,-0.13253012048192772,-6.626506024096386,-0.04659717964438994,-7.147148988350705,-6.408338442673206,3.0,0.6258186258186259,1597.9070592408655,-0.307557834625021,0.15022434590058806,-0.19287920284365664,1338.4615384615383,-1.0,-1.0,0.6265807518833618,
2023-08-12 15:03:31.979000,-7.36144578313253,-0.14457831325301207,-6.63855421686747,-0.09809932556713671,-7.115266707541386,-6.334763948497853,3.0,0.6258186258186259,1597.9070592408655,0.036244974069109565,0.09754676300914931,-0.05640696929083376,1338.4615384615383,-1.0,-1.0,0.6265766941508891,
2023-08-12 15:03:31.987000,-7.325301204819278,-0.18072289156626506,-6.614457831325302,-0.11526670754138564,-7.10790925812385,-6.354383813611281,3.0,0.6258186258186259,1597.9070592408655,0.03834275391876983,0.18110832702057048,0.02249286172134483,1335.5311355311355,-1.0,-1.0,0.6265725719604198,
2023-08-12 15:03:31.994000,-7.301204819277109,-0.1927710843373494,-6.602409638554217,-0.08828939301042305,-7.036787247087676,-6.3445738810545675,3.0,0.6262626262626263,1596.7741935483868,0.19451080939339271,0.036944234018996325,0.11712604160596672,1332.6007326007325,-1.0,-1.0,0.6265683856893718,
2023-08-12 15:03:32.002000,-7.313253012048193,-0.1566265060240964,-6.578313253012048,-0.07847946045370938,-7.051502145922746,-6.364193746167995,3.0,0.6262626262626263,1596.7741935483868,0.40871744070858324,0.6289843249227911,-0.1378707534525964,1333.3333333333333,-1.0,-1.0,0.6265641360229703,
2023-08-12 15:03:32.010000,-7.313253012048193,-0.14457831325301207,-6.602409638554217,-0.04414469650521152,-7.10790925812385,-6.347026364193746,3.0,0.6262626262626263,1596.7741935483868,0.19217994289377077,0.1922964862187516,-0.34426898199405653,1335.5311355311355,-1.0,-1.0,0.626559823962305,
2023-08-12 15:03:32.017000,-7.313253012048193,-0.13253012048192772,-6.614457831325302,-0.07357449417535254,-7.090741876149601,-6.354383813611281,3.0,0.6262626262626263,1596.7741935483868,0.19206339956878993,0.1863527766447168,-0.3405395955946624,1336.9963369963368,-1.0,-1.0,0.6265554506937359,
2023-08-12 15:03:32.025000,-7.36144578313253,-0.13253012048192772,-6.614457831325302,-0.06621704475781728,-7.110361741263028,-6.329858982219497,3.0,0.6262626262626263,1596.7741935483868,0.3732882699143412,-0.43377425557951166,-0.30359536157566563,1338.4615384615383,-1.0,-1.0,0.6265510175754035,
2023-08-12 15:03:32.033000,-7.36144578313253,-0.12048192771084337,-6.614457831325302,0.017167381974248927,-7.085836909871245,-6.37155119558553,3.0,0.6262626262626263,1596.7741935483868,0.582017364955422,-0.2710797739059498,-0.14299865975176318,1340.6593406593406,-1.0,-1.0,0.6265465261442597,
2023-08-12 15:03:32.040000,-7.349397590361447,-0.0963855421686747,-6.626506024096386,0.029429797670141016,-7.088289393010423,-6.3445738810545675,3.0,0.6262626262626263,1596.7741935483868,0.8808344502068647,-0.015616805547461593,-0.2572111182332029,1341.3919413919414,-1.0,-1.0,0.6265419781014946,
2023-08-12 15:03:32.048000,-7.301204819277109,-0.08433734939759037,-6.602409638554217,-0.07112201103617412,-7.090741876149601,-6.369098712446352,3.0,0.6262626262626263,1596.7741935483868,0.7352718373055188,-0.2943884389021622,-0.5982168871277895,1338.4615384615383,-1.0,-1.0,0.6265373753185247,
2023-08-12 15:03:32.056000,-7.313253012048193,-0.10843373493975904,-6.626506024096386,0.029429797670141016,-7.068669527896995,-6.378908645003065,3.0,0.6262626262626263,1596.7741935483868,0.8180175980420723,-0.22201503408892218,-0.5119748266418039,1336.9963369963368,926.849365234375,64.73543841164269,0.6265327198214282,
2023-08-12 15:03:32.063000,-7.313253012048193,-0.08433734939759037,-6.614457831325302,-0.034334763948497854,-7.058859595340282,-6.369098712446352,3.0,0.6262626262626263,1596.7741935483868,0.901229532078551,0.3074412913000402,-0.35312627469261704,1335.5311355311355,-1.0,64.73543841164269,0.6265280137959883,
2023-08-12 15:03:32.071000,-7.325301204819278,-0.10843373493975904,-6.602409638554217,-0.019619865113427344,-7.09319435928878,-6.305334150827712,3.0,0.6258186258186259,1597.9070592408655,0.250335062059321,0.11467863178136525,-0.36198356739117754,1332.6007326007325,-1.0,64.73543841164269,0.626523259571241,
2023-08-12 15:03:32.079000,-7.313253012048193,-0.10843373493975904,-6.578313253012048,0.034334763948497854,-7.066217044757817,-6.349478847332924,3.0,0.6258186258186259,1597.9070592408655,0.32002797039799485,0.4872676417458197,-0.4463609346774663,1331.8681318681317,-1.0,64.73543841164269,0.6265184594743964,
2023-08-12 15:03:32.086000,-7.313253012048193,-0.0963855421686747,-6.566265060240964,0.029429797670141016,-7.056407112201104,-6.315144083384427,3.0,0.6258186258186259,1597.9070592408655,0.3913524852864056,0.38494260241244743,-0.4118641104830723,1333.3333333333333,-1.0,64.73543841164269,0.6265136159304859,
2023-08-12 15:03:32.094000,-7.325301204819278,-0.08433734939759037,-6.590361445783133,-0.009809932556713672,-7.122624156958921,-6.364193746167995,3.0,0.6262626262626263,1596.7741935483868,0.11339665520657258,0.5554454868597393,-0.13099469727871316,1334.7985347985348,-1.0,64.73543841164269,0.6265087313050544,
2023-08-12 15:03:32.102000,-7.349397590361447,-0.10843373493975904,-6.614457831325302,-0.03678724708767627,-7.125076640098099,-6.388718577559779,3.0,0.6258186258186259,1597.9070592408655,-0.05430918944117393,0.6200104888992476,-0.32702056989685935,1339.9267399267399,-1.0,64.73543841164269,0.626503808203977,
2023-08-12 15:03:32.109000,-7.36144578313253,-0.12048192771084337,-6.614457831325302,-0.02452483139178418,-7.149601471489883,-6.391171060698957,3.0,0.6262626262626263,1596.7741935483868,-0.315133150748791,0.397063108210477,-0.12388555445486868,1347.2527472527472,-1.0,64.73543841164269,0.626498849325752,
2023-08-12 15:03:32.117000,-7.397590361445784,-0.13253012048192772,-6.674698795180723,-0.02207234825260576,-7.1814837522992025,-6.354383813611281,3.0,0.6262626262626263,1596.7741935483868,-0.05162869296660949,0.5864460113047025,-0.09323465998484924,1356.7765567765566,-1.0,64.73543841164269,0.6264938573134877,
2023-08-12 15:03:32.125000,-7.397590361445784,-0.14457831325301207,-6.650602409638554,-0.056407112201103615,-7.206008583690987,-6.37155119558553,3.0,0.6253746253746254,1599.0415335463258,-0.14218285647689471,0.6066080065264253,0.09043762018530353,1369.9633699633698,-1.0,64.73543841164269,0.6264888351925451,
2023-08-12 15:03:32.132000,-7.397590361445784,-0.16867469879518074,-6.63855421686747,-0.10300429184549356,-7.186388718577559,-6.423053341508277,3.0,0.6258186258186259,1597.9070592408655,-0.49321135131985283,0.28937707592797585,0.12003962473049327,1389.0109890109889,-1.0,64.73543841164269,0.6264837860420148,
2023-08-12 15:03:32.140000,-7.385542168674699,-0.18072289156626506,-6.650602409638554,-0.09074187614960147,-7.191293684855916,-6.342121397915389,3.0,0.6262626262626263,1596.7741935483868,-0.3652467804906479,-0.5117417399918422,0.5157042130411985,1409.5238095238094,-1.0,64.73543841164269,0.6264787127836103,
2023-08-12 15:03:32.148000,-7.36144578313253,-0.1927710843373494,-6.650602409638554,-0.08828939301042305,-7.115266707541386,-6.339668914776211,3.0,0.6262626262626263,1596.7741935483868,-0.5275916321892655,0.08076452421187588,0.7397004836547983,1431.5018315018315,-1.0,64.73543841164269,0.6264736184909813,
2023-08-12 15:03:32.155000,-7.36144578313253,-0.1927710843373494,-6.63855421686747,-0.164316370324954,-7.13979153893317,-6.383813611281422,3.0,0.6262626262626263,1596.7741935483868,-0.5250276790396836,0.010372355923315273,0.8111415418681895,1453.4798534798533,-1.0,64.73543841164269,0.6264685064114216,
2023-08-12 15:03:32.163000,-7.325301204819278,-0.21686746987951808,-6.63855421686747,-0.15450643776824033,-7.112814224402207,-6.32495401594114,3.0,0.6262626262626263,1596.7741935483868,-0.5813181050055353,-0.2697977973311571,0.6834100576889459,1472.5274725274724,-1.0,64.73543841164269,0.6264633796791288,
2023-08-12 15:03:32.171000,-7.313253012048193,-0.20481927710843376,-6.662650602409639,-0.10300429184549356,-7.053954629061924,-6.3862660944206,3.0,0.6262626262626263,1596.7741935483868,-0.7303770176563132,-0.6990268632364075,1.1234776528174348,1488.6446886446886,-1.0,64.73543841164269,0.626458241465112,
2023-08-12 15:03:32.178000,-7.313253012048193,-0.22891566265060243,-6.650602409638554,-0.20110361741263028,-7.049049662783568,-6.4255058246474555,3.0,0.6262626262626263,1596.7741935483868,-0.9533243983450855,-0.7415651768544961,0.8886428529805955,1500.3663003663003,-1.0,64.73543841164269,0.6264530950956534,
2023-08-12 15:03:32.186000,-7.325301204819278,-0.21686746987951808,-6.650602409638554,-0.13979153893316984,-7.100551808706315,-6.4328632740649905,3.0,0.6258186258186259,1597.9070592408655,-1.006817784511392,-0.44962414777693666,1.114503816793893,1508.4249084249084,-1.0,64.73543841164269,0.6264479438941829,
2023-08-12 15:03:32.194000,-7.325301204819278,-0.21686746987951808,-6.674698795180723,-0.13243408951563457,-7.103004291845493,-6.457388105456775,3.0,0.6258186258186259,1597.9070592408655,-0.8180175980420723,-0.404638424334247,1.4311520307674377,1509.89010989011,-1.0,64.73543841164269,0.6264427910233177,
2023-08-12 15:03:32.201000,-7.36144578313253,-0.20481927710843376,-6.686746987951808,-0.12998160637645614,-7.090741876149601,-6.4328632740649905,3.0,0.6262626262626263,1596.7741935483868,-1.2260357788007687,-0.45160538430161434,1.4400093234659985,1506.9597069597069,-1.0,64.73543841164269,0.6264376394545289,
2023-08-12 15:03:32.209000,-7.36144578313253,-0.20481927710843376,-6.662650602409639,-0.06866952789699571,-7.147148988350705,-6.420600858369099,3.0,0.6262626262626263,1596.7741935483868,-1.2344268981994064,-0.5911077443039446,1.082454402424101,1499.6336996336995,-1.0,64.73543841164269,0.6264324922462942,
2023-08-12 15:03:32.217000,-7.36144578313253,-0.18072289156626506,-6.674698795180723,-0.1496014714898835,-7.147148988350705,-6.4107909258123845,3.0,0.6262626262626263,1596.7741935483868,-1.3641396189033272,-0.7737311345492695,0.5754909387564826,1493.040293040293,-1.0,64.73543841164269,0.6264273525561858,
2023-08-12 15:03:32.224000,-7.313253012048193,-0.1927710843373494,-6.674698795180723,-0.14714898835070508,-7.095646842427958,-6.435315757204169,3.0,0.6262626262626263,1596.7741935483868,-1.4466522929899193,-1.2292989919002393,1.048773381504574,1486.4468864468863,-1.0,64.73543841164269,0.62642222349418,
2023-08-12 15:03:32.232000,-7.325301204819278,-0.20481927710843376,-6.674698795180723,-0.10300429184549356,-7.090741876149601,-6.408338442673206,3.0,0.6262626262626263,1596.7741935483868,-1.4517801992890864,-1.7120214439717958,0.9860730726647631,1478.3882783882782,-1.0,64.73543841164269,0.6264171081150983,
2023-08-12 15:03:32.240000,-7.289156626506024,-0.1927710843373494,-6.650602409638554,-0.0809319435928878,-7.029429797670141,-6.3862660944206,3.0,0.6262626262626263,1596.7741935483868,-1.546296835848727,-1.3961890332731197,1.1668317697103903,1468.8644688644688,-1.0,64.73543841164269,0.6264120092727224,
2023-08-12 15:03:32.247000,-7.301204819277109,-0.16867469879518074,-6.650602409638554,-0.05150214592274678,-7.071122011036174,-6.3740036787247085,3.0,0.6258186258186259,1597.9070592408655,-2.068410931763883,-1.268341005768894,1.0734805664005598,1457.8754578754579,-1.0,64.73543841164269,0.6264069297722452,
2023-08-12 15:03:32.255000,-7.265060240963856,-0.1566265060240964,-6.650602409638554,-0.041692213366033105,-7.044144696505211,-6.329858982219497,3.0,0.6262626262626263,1596.7741935483868,-1.852689237223938,-1.429170794242759,0.9488957519958047,1446.8864468864467,-1.0,64.73543841164269,0.6264018722036514,
2023-08-12 15:03:32.263000,-7.289156626506024,-0.1566265060240964,-6.662650602409639,-0.0956468424279583,-7.068669527896995,-6.339668914776211,3.0,0.6262626262626263,1596.7741935483868,-1.7899889283841264,-1.5552706718722689,0.9748849134665816,1435.8974358974358,-1.0,64.73543841164269,0.6263968389347483,
2023-08-12 15:03:32.270000,-7.301204819277109,-0.1566265060240964,-6.662650602409639,-0.06376456161863887,-7.080931943592887,-6.3445738810545675,3.0,0.6258186258186259,1597.9070592408655,-1.866324806246722,-1.2038925470543682,0.7091661325097602,1427.106227106227,-1.0,64.73543841164269,0.6263918325519124,
2023-08-12 15:03:32.278000,-7.289156626506024,-0.13253012048192772,-6.63855421686747,-0.07602697731453095,-7.095646842427958,-6.329858982219497,3.0,0.6258186258186259,1597.9070592408655,-2.353009731367636,-2.030650894470019,0.8992482955538724,1420.5128205128203,-1.0,64.73543841164269,0.6263868555460099,
2023-08-12 15:03:32.286000,-7.325301204819278,-0.1566265060240964,-6.662650602409639,-0.1079092581238504,-7.073574494175352,-6.4255058246474555,3.0,0.6258186258186259,1597.9070592408655,-2.3171143872734685,-1.8759979022201505,0.9085717615523567,1417.5824175824175,-1.0,64.73543841164269,0.626381910276398,
2023-08-12 15:03:32.293000,-7.325301204819278,-0.1566265060240964,-6.626506024096386,-0.06621704475781728,-7.063764561618639,-6.393623543838136,3.0,0.6258186258186259,1597.9070592408655,-2.2970689353767266,-1.862711963172309,0.8999475555037584,1416.8498168498168,-1.0,64.73543841164269,0.6263769989458807,
2023-08-12 15:03:32.301000,-7.349397590361447,-0.10843373493975904,-6.662650602409639,-0.05150214592274678,-7.125076640098099,-6.3862660944206,3.0,0.6258186258186259,1597.9070592408655,-1.9990676534001515,-1.677874249752345,0.8147543849426029,1415.3846153846152,-1.0,64.73543841164269,0.6263721234688486,
2023-08-12 15:03:32.309000,-7.325301204819278,-0.12048192771084337,-6.63855421686747,-0.08583690987124463,-7.06131207847946,-6.359288779889638,3.0,0.6258186258186259,1597.9070592408655,-2.2080298350911955,-1.6495542217819477,0.8944700192296486,1414.6520146520145,-1.0,64.73543841164269,0.6263672856165542,
2023-08-12 15:03:32.316000,-7.313253012048193,-0.10843373493975904,-6.650602409638554,-0.007357449417535254,-7.022072348252605,-6.305334150827712,3.0,0.6258186258186259,1597.9070592408655,-2.3242235300973135,-1.9566458831070455,0.701124643086067,1415.3846153846152,-1.0,64.73543841164269,0.6263624870135356,
2023-08-12 15:03:32.324000,-7.313253012048193,-0.0963855421686747,-6.626506024096386,0.01226241569589209,-7.09319435928878,-6.356836296750459,3.0,0.6258186258186259,1597.9070592408655,-2.502418273993356,-2.385175689062409,0.6923838937124877,1413.1868131868132,-1.0,64.73543841164269,0.6263577291344881,
2023-08-12 15:03:32.332000,-7.325301204819278,-0.08433734939759037,-6.590361445783133,-0.03678724708767627,-7.088289393010423,-6.285714285714286,3.0,0.6258186258186259,1597.9070592408655,-2.601946273527183,-2.079948720937008,0.7450614766039275,1408.7912087912086,-1.0,64.73543841164269,0.6263530133015924,
2023-08-12 15:03:32.339000,-7.337349397590362,-0.08433734939759037,-6.590361445783133,0.034334763948497854,-7.083384426732066,-6.320049049662783,3.0,0.6258186258186259,1597.9070592408655,-2.3965969349105536,-2.0814637841617625,0.6310821047724487,1403.6630036630036,-1.0,64.73543841164269,0.6263483406823107,
2023-08-12 15:03:32.347000,-7.337349397590362,-0.07228915662650603,-6.63855421686747,-0.02452483139178418,-7.1741263028816675,-6.378908645003065,3.0,0.6258186258186259,1597.9070592408655,-1.8415010780257568,-1.7889400384592973,0.5464716508361979,1400.0,-1.0,64.73543841164269,0.6263437122876497,
2023-08-12 15:03:32.354000,-7.325301204819278,-0.04819277108433735,-6.602409638554217,0.019619865113427344,-7.049049662783568,-6.398528510116493,3.0,0.6258186258186259,1597.9070592408655,-2.0867082337859104,-1.9123594196142408,0.7555503758522234,1395.6043956043954,-1.0,64.73543841164269,0.6263391289709019,
2023-08-12 15:03:32.362000,-7.349397590361447,-0.04819277108433735,-6.578313253012048,0.007357449417535254,-7.090741876149601,-6.312691600245248,3.0,0.6262626262626263,1596.7741935483868,-1.979371831478352,-2.12295320785502,0.9166132509760501,1393.4065934065934,-1.0,64.73543841164269,0.6263345914268601,
2023-08-12 15:03:32.370000,-7.337349397590362,-0.024096385542168676,-6.590361445783133,0.07602697731453095,-7.063764561618639,-6.351931330472103,3.0,0.6258186258186259,1597.9070592408655,-2.16129596177379,-2.0749373579628236,0.7690694015500262,1388.278388278388,-1.0,64.73543841164269,0.6263301003408052,
2023-08-12 15:03:32.377000,-7.337349397590362,-0.012048192771084338,-6.590361445783133,0.009809932556713672,-7.100551808706315,-6.322501532801962,3.0,0.6258186258186259,1597.9070592408655,-2.0364780607190713,-1.7991958510576316,0.45416933745119753,1380.2197802197802,-1.0,64.73543841164269,0.6263256562612578,
2023-08-12 15:03:32.385000,-7.337349397590362,-0.012048192771084338,-6.590361445783133,0.07357449417535254,-7.112814224402207,-6.288166768853464,3.0,0.6258186258186259,1597.9070592408655,-2.2373987529864237,-2.2429928325855144,0.7364372705553285,1373.6263736263736,-1.0,64.73543841164269,0.6263212594416865,
2023-08-12 15:03:32.393000,-7.349397590361447,-0.012048192771084338,-6.590361445783133,0.056407112201103615,-7.132434089515634,-6.3077866339668915,3.0,0.6262626262626263,1596.7741935483868,-1.9878794942019686,-2.0599032690402663,0.592622807528699,1368.4981684981683,-1.0,64.73543841164269,0.6263169099805531,
2023-08-12 15:03:32.400000,-7.349397590361447,0.03614457831325302,-6.590361445783133,0.134886572654813,-7.095646842427958,-6.317596566523605,3.0,0.6258186258186259,1597.9070592408655,-1.8010605442573269,-2.0292523745702473,0.5566109201095504,1364.102564102564,-1.0,64.73543841164269,0.6263126079723627,
2023-08-12 15:03:32.408000,-7.373493975903615,0.03614457831325302,-6.55421686746988,0.11281422440220723,-7.063764561618639,-6.273451870018393,3.0,0.6258186258186259,1597.9070592408655,-1.7234426898199386,-2.027154594720587,0.7193054017831134,1360.4395604395604,-1.0,64.73543841164269,0.6263083533824443,
2023-08-12 15:03:32.416000,-7.373493975903615,0.04819277108433735,-6.530120481927711,0.10055180870631514,-7.125076640098099,-6.273451870018393,3.0,0.6258186258186259,1597.9070592408655,-1.7669133500378758,-1.7204125633704317,0.3594196142415946,1356.7765567765566,-1.0,64.73543841164269,0.6263041458906496,
2023-08-12 15:03:32.423000,-7.349397590361447,0.03614457831325302,-6.518072289156627,0.164316370324954,-7.129981606376456,-6.226854690374004,3.0,0.6258186258186259,1597.9070592408655,-1.4735738010605461,-1.6756599265777055,0.43237573567973836,1354.5787545787546,-1.0,64.73543841164269,0.6262999850333452,
2023-08-12 15:03:32.431000,-7.373493975903615,0.04819277108433735,-6.518072289156627,0.1520539546290619,-7.068669527896995,-6.234212139791539,3.0,0.6253746253746254,1599.0415335463258,-1.3996853330225518,-2.00093234659985,0.1523221257502479,1350.18315018315,-1.0,64.73543841164269,0.6262958702070568,
2023-08-12 15:03:32.439000,-7.349397590361447,0.04819277108433735,-6.542168674698796,0.07602697731453095,-7.2109135499693435,-6.221949724095647,3.0,0.6258186258186259,1597.9070592408655,-1.2000466173299937,-1.8919643377425563,0.48854961832061067,1347.985347985348,-1.0,64.73543841164269,0.6262918006619543,
2023-08-12 15:03:32.446000,-7.349397590361447,0.060240963855421686,-6.518072289156627,0.13979153893316984,-7.149601471489883,-6.273451870018393,3.0,0.6258186258186259,1597.9070592408655,-0.9568206980945159,-1.5826583532428176,0.3302837829963286,1347.2527472527472,-1.0,64.73543841164269,0.6262877756132846,
2023-08-12 15:03:32.454000,-7.349397590361447,0.08433734939759037,-6.518072289156627,0.15941140404659718,-7.171673819742489,-6.209687308399754,3.0,0.6258186258186259,1597.9070592408655,-1.295495600489481,-1.7501311112406057,0.09381737660975407,1349.4505494505493,-1.0,64.73543841164269,0.6262837941183109,
2023-08-12 15:03:32.462000,-7.36144578313253,0.07228915662650603,-6.542168674698796,0.14224402207234824,-7.117719190680564,-6.275904353157571,3.0,0.6258186258186259,1597.9070592408655,-0.7318920808810658,-1.3371015675077194,0.28984324922790006,1353.113553113553,-1.0,64.73543841164269,0.6262798549639315,
2023-08-12 15:03:32.469000,-7.385542168674699,0.08433734939759037,-6.542168674698796,0.18148375229920294,-7.127529123237277,-6.241569589209074,3.0,0.6258186258186259,1597.9070592408655,-0.6140667793252146,-1.5368568265252585,0.23903035953615728,1357.5091575091574,-1.0,64.73543841164269,0.6262759568207809,
2023-08-12 15:03:32.477000,-7.385542168674699,0.07228915662650603,-6.542168674698796,0.13979153893316984,-7.147148988350705,-6.239117106069895,3.0,0.6262626262626263,1596.7741935483868,-0.4665229298991892,-1.368568265252606,0.20383427539187698,1362.6373626373625,-1.0,64.73543841164269,0.6262720982483391,
2023-08-12 15:03:32.485000,-7.397590361445784,0.0963855421686747,-6.493975903614458,0.19865113427345185,-7.179031269160024,-6.285714285714286,3.0,0.6258186258186259,1597.9070592408655,-0.6096381329759358,-1.1422411281393876,0.01783112872210291,1369.9633699633698,-1.0,64.73543841164269,0.6262682778496167,
2023-08-12 15:03:32.492000,-7.36144578313253,0.08433734939759037,-6.493975903614458,0.18148375229920294,-7.149601471489883,-6.217044757817289,3.0,0.6262626262626263,1596.7741935483868,-0.20336810209195189,-0.776295087698853,-0.24439135248528596,1373.6263736263736,-1.0,64.73543841164269,0.6262644941494009,
2023-08-12 15:03:32.500000,-7.337349397590362,0.0963855421686747,-6.506024096385542,0.1103617412630288,-7.156958920907418,-6.221949724095647,3.0,0.6258186258186259,1597.9070592408655,-0.14742730610104451,-1.072082046500787,0.028320027970398585,1372.8937728937728,-1.0,64.73543841164269,0.6262607455905244,
2023-08-12 15:03:32.508000,-7.36144578313253,0.07228915662650603,-6.46987951807229,0.14469650521152666,-7.134886572654812,-6.212139791538933,3.0,0.6258186258186259,1597.9070592408655,0.16467571819823956,-1.1981819241302933,-0.339607248994814,1371.4285714285713,-1.0,64.73543841164269,0.6262570305515321,
2023-08-12 15:03:32.515000,-7.373493975903615,0.07228915662650603,-6.481927710843374,0.22562844880441446,-7.09319435928878,-6.239117106069895,3.0,0.6258186258186259,1597.9070592408655,0.1988229124176906,-0.7125458889342106,-0.38459297243750384,1368.4981684981683,-1.0,64.73543841164269,0.6262533471942864,
2023-08-12 15:03:32.523000,-7.385542168674699,0.08433734939759037,-6.518072289156627,0.14469650521152666,-7.147148988350705,-6.236664622930717,3.0,0.6258186258186259,1597.9070592408655,0.4018413845347,-0.5522988170852497,-0.07761785443738743,1363.3699633699632,-1.0,64.73543841164269,0.6262496936096336,
2023-08-12 15:03:32.531000,-7.385542168674699,0.060240963855421686,-6.518072289156627,0.1079092581238504,-7.134886572654812,-6.258736971183323,3.0,0.6258186258186259,1597.9070592408655,0.6482139735446656,-0.5569605500844919,-0.3513781248179015,1359.7069597069597,-1.0,64.73543841164269,0.6262460678244806,
2023-08-12 15:03:32.538000,-7.397590361445784,0.060240963855421686,-6.506024096385542,0.15450643776824033,-7.103004291845493,-6.23175965665236,3.0,0.6258186258186259,1597.9070592408655,0.6941320435872054,0.03449682419439181,-0.1369384068527471,1357.5091575091574,-1.0,64.73543841164269,0.626242467809005,
2023-08-12 15:03:32.546000,-7.397590361445784,0.04819277108433735,-6.506024096385542,0.1226241569589209,-7.1961986511342735,-6.236664622930717,3.0,0.6258186258186259,1597.9070592408655,0.984208379465068,0.03974127381854334,-0.4744478759979021,1356.7765567765566,-1.0,64.73543841164269,0.6262388914839807,
2023-08-12 15:03:32.554000,-7.385542168674699,0.03614457831325302,-6.46987951807229,0.16676885346413242,-7.191293684855916,-6.241569589209074,3.0,0.6258186258186259,1597.9070592408655,0.8769885204824902,0.4400675951284907,-0.6399393974710095,1356.7765567765566,-1.0,64.73543841164269,0.6262353367281892,
2023-08-12 15:03:32.561000,-7.373493975903615,0.0,-6.481927710843374,0.06376456161863887,-7.198651134273452,-6.175352544451257,3.0,0.6258186258186259,1597.9070592408655,1.0435289318804266,0.3193287104481098,-0.3153662373987527,1357.5091575091574,-1.0,64.73543841164269,0.6262318013859002,
2023-08-12 15:03:32.569000,-7.373493975903615,0.0,-6.481927710843374,0.019619865113427344,-7.147148988350705,-6.253832004904966,3.0,0.6258186258186259,1597.9070592408655,1.0402657187809563,0.3216595769477283,-0.3144338907989047,1356.7765567765566,-1.0,64.73543841164269,0.6262282832743918,
2023-08-12 15:03:32.577000,-7.397590361445784,-0.03614457831325302,-6.481927710843374,0.10545677498467197,-7.193746167995094,-6.204782342121398,3.0,0.6258186258186259,1597.9070592408655,1.0815220558242522,0.5842316881300631,-0.4204883165316709,1356.0439560439559,-1.0,64.73543841164269,0.62622478019149,
2023-08-12 15:03:32.584000,-7.373493975903615,-0.03614457831325302,-6.481927710843374,-0.002452483139178418,-7.161863887185775,-6.24647455548743,3.0,0.6253746253746254,1599.0415335463258,1.034438552531904,0.5550958568847985,-0.6508944700192294,1352.3809523809523,-1.0,64.73543841164269,0.6262212899231056,
2023-08-12 15:03:32.592000,-7.409638554216868,-0.024096385542168676,-6.518072289156627,0.07602697731453095,-7.220723482526057,-6.212139791538933,3.0,0.6258186258186259,1597.9070592408655,1.0458597983800468,0.9042596585280597,-0.756599265777053,1351.6483516483515,-1.0,64.73543841164269,0.6262178102401968,
2023-08-12 15:03:32.600000,-7.421686746987953,-0.024096385542168676,-6.518072289156627,0.007357449417535254,-7.1814837522992025,-6.239117106069895,3.0,0.6258186258186259,1597.9070592408655,0.9953965386632491,1.098537381271489,-0.6482139735446649,1350.9157509157508,-1.0,64.73543841164269,0.6262143388745218,
2023-08-12 15:03:32.607000,-7.421686746987953,-0.03614457831325302,-6.506024096385542,0.007357449417535254,-7.161863887185775,-6.256284488044145,3.0,0.6258186258186259,1597.9070592408655,1.3277781015092351,0.8648680146844588,-0.36885962356506014,1348.7179487179487,-1.0,64.73543841164269,0.6262108735573502,
2023-08-12 15:03:32.615000,-7.421686746987953,-0.060240963855421686,-6.530120481927711,0.0809319435928878,-7.171673819742489,-6.275904353157571,3.0,0.6262626262626263,1596.7741935483868,1.1577413903618667,0.8060136355690236,-0.474680962647864,1342.8571428571427,-1.0,64.73543841164269,0.6262074120369229,
2023-08-12 15:03:32.623000,-7.397590361445784,-0.060240963855421686,-6.542168674698796,0.056407112201103615,-7.2256284488044145,-6.270999386879215,3.0,0.6258186258186259,1597.9070592408655,1.660742380980129,1.1585571936367325,-0.47584639589767497,1338.4615384615383,-1.0,64.73543841164269,0.626203952234557,
2023-08-12 15:03:32.630000,-7.397590361445784,-0.07228915662650603,-6.55421686746988,0.007357449417535254,-7.183936235438381,-6.258736971183323,3.0,0.6258186258186259,1597.9070592408655,1.5931472524911137,1.139211001689879,-0.765573101800594,1334.7985347985348,-1.0,64.73543841164269,0.6262004921239208,
2023-08-12 15:03:32.638000,-7.397590361445784,-0.07228915662650603,-6.542168674698796,0.0269773145309626,-7.112814224402207,-6.241569589209074,3.0,0.6258186258186259,1597.9070592408655,1.2353592447992547,1.206339956878971,-0.561738826408717,1332.6007326007325,-1.0,64.73543841164269,0.6261970295786513,
2023-08-12 15:03:32.646000,-7.421686746987953,-0.0963855421686747,-6.530120481927711,0.004904966278356836,-7.1741263028816675,-6.31023911710607,3.0,0.6258186258186259,1597.9070592408655,1.1850125284074362,1.030359536157566,-0.29776819532661275,1332.6007326007325,-1.0,64.73543841164269,0.6261935625176976,
2023-08-12 15:03:32.653000,-7.409638554216868,-0.0963855421686747,-6.566265060240964,-0.04904966278356836,-7.2403433476394845,-6.273451870018393,3.0,0.6262626262626263,1596.7741935483868,1.3646057922032506,1.4094749723209594,-0.2963696754268401,1334.065934065934,-1.0,64.73543841164269,0.6261900889117412,
2023-08-12 15:03:32.661000,-7.421686746987953,-0.10843373493975904,-6.530120481927711,-0.0809319435928878,-7.183936235438381,-6.27835683629675,3.0,0.6262626262626263,1596.7741935483868,1.084901812248705,1.3770759279762261,-0.3903035953615755,1336.9963369963368,-1.0,64.73543841164269,0.6261866069387227,
2023-08-12 15:03:32.669000,-7.421686746987953,-0.08433734939759037,-6.55421686746988,-0.05885959534028203,-7.169221336603311,-6.253832004904966,3.0,0.6258186258186259,1597.9070592408655,1.417399918419672,1.2964279470893312,-0.6646465823669949,1339.194139194139,-1.0,64.73543841164269,0.6261831150117515,
2023-08-12 15:03:32.676000,-7.409638554216868,-0.0963855421686747,-6.542168674698796,0.014714898835070508,-7.171673819742489,-6.290619251992642,3.0,0.6258186258186259,1597.9070592408655,1.2105355165782863,1.1816327719829833,-0.4942602412446827,1341.3919413919414,-1.0,64.73543841164269,0.6261796114985625,
2023-08-12 15:03:32.684000,-7.397590361445784,-0.12048192771084337,-6.55421686746988,-0.017167381974248927,-7.176578786020846,-6.320049049662783,3.0,0.6258186258186259,1597.9070592408655,1.356098129479634,0.9915506089388728,-0.3248062467222189,1344.3223443223442,-1.0,64.73543841164269,0.6261760947071007,
2023-08-12 15:03:32.692000,-7.385542168674699,-0.12048192771084337,-6.55421686746988,-0.056407112201103615,-7.152053954629062,-6.258736971183323,3.0,0.6262626262626263,1596.7741935483868,0.9075228716275283,0.9860730726647614,-0.39904434473515554,1347.2527472527472,-1.0,64.73543841164269,0.6261725630299737,
2023-08-12 15:03:32.699000,-7.397590361445784,-0.13253012048192772,-6.578313253012048,-0.0809319435928878,-7.161863887185775,-6.266094420600858,3.0,0.6258186258186259,1597.9070592408655,0.8428413262630374,1.0922440417225099,-0.44065031175339403,1350.18315018315,-1.0,64.73543841164269,0.6261690152379237,
2023-08-12 15:03:32.707000,-7.385542168674699,-0.0963855421686747,-6.55421686746988,-0.02207234825260576,-7.1814837522992025,-6.347026364193746,3.0,0.6258186258186259,1597.9070592408655,0.7943593030709174,1.7652817434881423,-0.6948313035370896,1351.6483516483515,-1.0,64.73543841164269,0.6261654501984247,
2023-08-12 15:03:32.715000,-7.385542168674699,-0.0963855421686747,-6.578313253012048,0.0,-7.15450643776824,-6.32495401594114,3.0,0.6262626262626263,1596.7741935483868,0.7452945632538898,1.515879028028668,-0.7498397529281511,1349.4505494505493,-1.0,64.73543841164269,0.6261618665939652,
2023-08-12 15:03:32.722000,-7.397590361445784,-0.10843373493975904,-6.55421686746988,-0.08828939301042305,-7.198651134273452,-6.3445738810545675,3.0,0.6262626262626263,1596.7741935483868,0.6950643901870521,1.1424742147893476,-0.591573917603869,1347.985347985348,-1.0,64.73543841164269,0.6261582633638945,
2023-08-12 15:03:32.730000,-7.373493975903615,-0.12048192771084337,-6.590361445783133,-0.017167381974248927,-7.208461066830165,-6.297976701410177,3.0,0.6258186258186259,1597.9070592408655,0.6608006526426202,0.8933045859798385,-0.09952799953382657,1349.4505494505493,-1.0,64.73543841164269,0.6261546397304639,
2023-08-12 15:03:32.737000,-7.373493975903615,-0.10843373493975904,-6.578313253012048,-0.06621704475781728,-7.152053954629062,-6.3077866339668915,3.0,0.6253746253746254,1599.0415335463258,0.8903910028553107,1.2861721344909967,-0.6665112755666921,1352.3809523809523,-1.0,64.73543841164269,0.6261509949162898,
2023-08-12 15:03:32.745000,-7.385542168674699,-0.10843373493975904,-6.578313253012048,-0.04659717964438994,-7.171673819742489,-6.266094420600858,3.0,0.6258186258186259,1597.9070592408655,1.0106637142357682,0.7585805023017295,-0.558125983334305,1358.2417582417581,-1.0,64.73543841164269,0.6261473281172606,
2023-08-12 15:03:32.753000,-7.373493975903615,-0.0963855421686747,-6.566265060240964,0.007357449417535254,-7.120171673819742,-6.3077866339668915,3.0,0.6258186258186259,1597.9070592408655,0.610920109550725,1.105180350795407,-0.587961074529456,1365.5677655677655,-1.0,64.73543841164269,0.6261436386130231,
2023-08-12 15:03:32.760000,-7.385542168674699,-0.07228915662650603,-6.626506024096386,0.03188228080931944,-7.1446965052115265,-6.334763948497853,3.0,0.6262626262626263,1596.7741935483868,0.7779266942485882,0.8272245207155758,-0.6168638191247594,1372.161172161172,-1.0,64.73543841164269,0.6261399258013529,
2023-08-12 15:03:32.768000,-7.36144578313253,-0.07228915662650603,-6.602409638554217,-0.04414469650521152,-7.183936235438381,-6.312691600245248,3.0,0.6262626262626263,1596.7741935483868,0.48586912184604625,0.6911019171376968,0.1506905192005125,1378.7545787545787,-1.0,64.73543841164269,0.6261361893602513,
2023-08-12 15:03:32.776000,-7.373493975903615,-0.07228915662650603,-6.602409638554217,0.009809932556713672,-7.176578786020846,-6.3740036787247085,3.0,0.6262626262626263,1596.7741935483868,0.3806304993881478,1.0156750772099528,-0.17667968067128914,1384.6153846153845,-1.0,64.73543841164269,0.6261324292716601,
2023-08-12 15:03:32.783000,-7.385542168674699,-0.08433734939759037,-6.602409638554217,-0.004904966278356836,-7.129981606376456,-6.302881667688534,3.0,0.6262626262626263,1596.7741935483868,0.47421478934794004,1.4728745411106579,-0.5915739176038688,1389.7435897435896,-1.0,64.73543841164269,0.6261286456858349,
2023-08-12 15:03:32.791000,-7.373493975903615,-0.060240963855421686,-6.542168674698796,-0.02207234825260576,-7.120171673819742,-6.32495401594114,3.0,0.6262626262626263,1596.7741935483868,0.5344676883631505,1.5577180816968716,-0.6631315191422413,1394.8717948717947,-1.0,64.73543841164269,0.6261248389242208,
2023-08-12 15:03:32.799000,-7.373493975903615,-0.07228915662650603,-6.542168674698796,0.004904966278356836,-7.110361741263028,-6.26364193746168,3.0,0.6262626262626263,1596.7741935483868,0.422236466406388,1.4572577355631944,-0.4595303304003262,1400.0,-1.0,64.73543841164269,0.626121009482089,
2023-08-12 15:03:32.806000,-7.349397590361447,-0.060240963855421686,-6.566265060240964,-0.009809932556713672,-7.105456774984671,-6.351931330472103,3.0,0.6262626262626263,1596.7741935483868,0.2970689353767267,1.3882640871744074,-0.44088339840335633,1405.8608058608058,-1.0,64.73543841164269,0.6261171580309169,
2023-08-12 15:03:32.814000,-7.36144578313253,-0.060240963855421686,-6.55421686746988,-0.004904966278356836,-7.122624156958921,-6.270999386879215,3.0,0.6262626262626263,1596.7741935483868,0.3560398578171427,1.1538954606374923,-0.6526426198939453,1414.6520146520145,-1.0,64.73543841164269,0.6261132854204935,
2023-08-12 15:03:32.822000,-7.373493975903615,-0.07228915662650603,-6.590361445783133,0.06866952789699571,-7.169221336603311,-6.261189454322501,3.0,0.6262626262626263,1596.7741935483868,0.4307441291300047,1.0139269273352385,-0.5911077443039453,1425.6410256410256,-1.0,64.73543841164269,0.6261093926807432,
2023-08-12 15:03:32.829000,-7.373493975903615,-0.060240963855421686,-6.55421686746988,0.02452483139178418,-7.112814224402207,-6.283261802575107,3.0,0.6262626262626263,1596.7741935483868,0.4908804848202309,1.2537730901462616,-0.6951809335120331,1435.8974358974358,-1.0,64.73543841164269,0.62610548102325,
2023-08-12 15:03:32.837000,-7.373493975903615,-0.060240963855421686,-6.590361445783133,-0.004904966278356836,-7.122624156958921,-6.305334150827712,3.0,0.6262626262626263,1596.7741935483868,0.3345958860206289,1.67169745352835,-0.888642852980596,1444.6886446886447,-1.0,64.73543841164269,0.6261015518424662,
2023-08-12 15:03:32.845000,-7.373493975903615,-0.04819277108433735,-6.602409638554217,0.019619865113427344,-7.134886572654812,-6.322501532801962,3.0,0.6258186258186259,1597.9070592408655,0.3337800827457613,1.658294971155528,-0.8825826000815801,1454.212454212454,-1.0,64.73543841164269,0.6260976068553419,
2023-08-12 15:03:32.852000,-7.349397590361447,-0.04819277108433735,-6.590361445783133,0.03923973022685469,-7.122624156958921,-6.300429184549356,3.0,0.6262626262626263,1596.7741935483868,0.45475205407610214,1.620651477186643,-0.5253773090146264,1463.7362637362637,-1.0,64.73543841164269,0.6260936479321847,
2023-08-12 15:03:32.860000,-7.373493975903615,-0.03614457831325302,-6.614457831325302,0.07602697731453095,-7.152053954629062,-6.3372164316370325,3.0,0.6262626262626263,1596.7741935483868,0.4682710797739052,2.0315832410698675,-0.6746693083153664,1472.5274725274724,-1.0,64.73543841164269,0.6260896770762527,
2023-08-12 15:03:32.868000,-7.373493975903615,-0.024096385542168676,-6.602409638554217,0.12752912323727775,-7.156958920907418,-6.391171060698957,3.0,0.6262626262626263,1596.7741935483868,0.6504282967193067,1.703047607948256,-0.7040382262105941,1481.3186813186812,-1.0,64.73543841164269,0.6260856965835854,
2023-08-12 15:03:32.875000,-7.409638554216868,-0.024096385542168676,-6.590361445783133,0.04414469650521152,-7.191293684855916,-6.356836296750459,3.0,0.6262626262626263,1596.7741935483868,0.09743021968416674,1.295961773789406,-0.3363440358953445,1490.10989010989,-1.0,64.73543841164269,0.6260817087656139,
2023-08-12 15:03:32.883000,-7.385542168674699,-0.060240963855421686,-6.590361445783133,0.06131207847946045,-7.129981606376456,-6.285714285714286,3.0,0.6262626262626263,1596.7741935483868,0.05162869296660949,0.8990152089039098,-0.07680205116252006,1498.9010989010987,-1.0,64.73543841164269,0.6260777159690556,
2023-08-12 15:03:32.891000,-7.385542168674699,-0.060240963855421686,-6.578313253012048,0.034334763948497854,-7.149601471489883,-6.3445738810545675,3.0,0.6258186258186259,1597.9070592408655,0.6623157158673728,1.128022842491696,-0.26000815803274907,1508.4249084249084,-1.0,64.73543841164269,0.6260737207228037,
2023-08-12 15:03:32.898000,-7.337349397590362,-0.03614457831325302,-6.602409638554217,0.05150214592274678,-7.100551808706315,-6.285714285714286,3.0,0.6262626262626263,1596.7741935483868,0.6623157158673728,0.8990152089039098,-0.21420663131519183,1523.0769230769229,-1.0,64.73543841164269,0.6260697257245635,
2023-08-12 15:03:32.906000,-7.2771084337349405,-0.024096385542168676,-6.602409638554217,0.04414469650521152,-7.083384426732066,-6.322501532801962,3.0,0.6262626262626263,1596.7741935483868,0.4638424334246247,1.128022842491696,-0.18367228017015363,1541.3919413919414,-1.0,64.73543841164269,0.6260657339446424,
2023-08-12 15:03:32.914000,-7.313253012048193,-0.012048192771084338,-6.590361445783133,0.06376456161863887,-7.120171673819742,-6.3445738810545675,3.0,0.6262626262626263,1596.7741935483868,0.4638424334246247,0.9906182623390244,-0.35161121146786356,1560.4395604395604,-1.0,64.73543841164269,0.6260617484944657,
2023-08-12 15:03:32.921000,-7.289156626506024,-0.012048192771084338,-6.626506024096386,0.15450643776824033,-7.053954629061924,-6.3445738810545675,3.0,0.6262626262626263,1596.7741935483868,0.09743021968416674,0.9753510867665053,-0.15313792902511547,1578.021978021978,-1.0,64.73543841164269,0.6260577726437622,
2023-08-12 15:03:32.929000,-7.301204819277109,-0.024096385542168676,-6.602409638554217,0.04659717964438994,-7.127529123237277,-6.317596566523605,3.0,0.6262626262626263,1596.7741935483868,0.3569722044169912,1.2348930714993298,-0.2294738068877109,1594.8717948717947,-1.0,64.73543841164269,0.6260538098056024,
2023-08-12 15:03:32.937000,-7.325301204819278,-0.024096385542168676,-6.590361445783133,0.06621704475781728,-7.07602697731453,-6.312691600245248,3.0,0.6262626262626263,1596.7741935483868,0.21956762426431942,1.7539770409649786,-0.7485577763533597,1608.7912087912086,-1.0,64.73543841164269,0.6260498634032329,
2023-08-12 15:03:32.944000,-7.301204819277109,-0.012048192771084338,-6.578313253012048,0.04904966278356836,-7.068669527896995,-6.339668914776211,3.0,0.6262626262626263,1596.7741935483868,0.6317813647223347,1.8150457432550549,-1.0844356389487795,1619.047619047619,-1.0,64.73543841164269,0.626045937151943,
2023-08-12 15:03:32.952000,-7.337349397590362,-0.012048192771084338,-6.602409638554217,0.08828939301042305,-7.169221336603311,-6.302881667688534,3.0,0.6262626262626263,1596.7741935483868,0.4943767845696629,1.8150457432550549,-0.6569547229182452,1628.5714285714284,-1.0,64.73543841164269,0.626042034893337,
2023-08-12 15:03:32.960000,-7.36144578313253,-0.024096385542168676,-6.63855421686747,0.04414469650521152,-7.159411404046597,-6.3666462293071735,3.0,0.6262626262626263,1596.7741935483868,0.38750655556202934,1.0364197890565816,-0.24474098246023,1641.0256410256409,-1.0,64.73543841164269,0.6260381605994617,
2023-08-12 15:03:32.967000,-7.385542168674699,0.0,-6.614457831325302,0.07357449417535254,-7.2256284488044145,-6.3372164316370325,3.0,0.6262626262626263,1596.7741935483868,0.9981935784627927,0.8226793310413145,-0.09206922673503914,1655.6776556776556,-1.0,64.73543841164269,0.6260343183553589,
2023-08-12 15:03:32.975000,-7.397590361445784,0.04819277108433735,-6.626506024096386,0.13979153893316984,-7.129981606376456,-6.317596566523605,3.0,0.6262626262626263,1596.7741935483868,0.7386515937299682,0.013519025697803066,-0.45848144047549716,1671.0622710622708,-1.0,64.73543841164269,0.6260305122234443,
2023-08-12 15:03:32.983000,-7.349397590361447,0.012048192771084338,-6.626506024096386,0.0809319435928878,-7.105456774984671,-6.413243408951563,3.0,0.6262626262626263,1596.7741935483868,0.5859798380047774,-0.44449624147776945,-0.4890157916205353,1686.4468864468863,-1.0,64.73543841164269,0.6260267463842125,
2023-08-12 15:03:32.990000,-7.325301204819278,0.012048192771084338,-6.626506024096386,0.06131207847946045,-7.100551808706315,-6.302881667688534,3.0,0.6262626262626263,1596.7741935483868,0.6470485402948537,-0.2154886078899832,-0.09206922673503914,1701.8315018315018,972.808837890625,61.6770712425887,0.6260230252660272,
2023-08-12 15:03:32.998000,-7.313253012048193,0.0,-6.602409638554217,0.04659717964438994,-7.06131207847946,-6.295524218270999,3.0,0.6262626262626263,1596.7741935483868,0.692850067012411,-0.4597634170502885,-0.06153487559000098,1714.2857142857142,-1.0,61.6770712425887,0.6260193535154291,
2023-08-12 15:03:33.006000,-7.289156626506024,0.0,-6.578313253012048,0.13243408951563457,-7.039239730226854,-6.3445738810545675,3.0,0.6262626262626263,1596.7741935483868,0.4180409067070675,-0.07808402773731143,-0.12260357788007731,1723.8095238095236,-1.0,61.6770712425887,0.6260157358394913,
2023-08-12 15:03:33.013000,-7.265060240963856,-0.012048192771084338,-6.590361445783133,0.06376456161863887,-7.090741876149601,-6.305334150827712,3.0,0.6262626262626263,1596.7741935483868,0.3569722044169912,0.5020686440184138,-0.44321426490297805,1730.4029304029302,-1.0,61.6770712425887,0.6260121768582015,
2023-08-12 15:03:33.021000,-7.2771084337349405,-0.012048192771084338,-6.55421686746988,0.06376456161863887,-7.068669527896995,-6.268546903740036,3.0,0.6267066267066267,1595.6429330499468,0.2959035021269148,0.8684808577588717,-0.031000524444962815,1732.6007326007325,-1.0,61.6770712425887,0.6260086812542228,
2023-08-12 15:03:33.029000,-7.337349397590362,-0.024096385542168676,-6.518072289156627,0.02452483139178418,-7.115266707541386,-6.248927038626609,3.0,0.6267066267066267,1595.6429330499468,0.326437853271953,0.8684808577588717,-0.07680205116252006,1731.135531135531,-1.0,61.6770712425887,0.6260052540399569,
2023-08-12 15:03:33.036000,-7.373493975903615,-0.03614457831325302,-6.530120481927711,-0.007357449417535254,-7.169221336603311,-6.219497240956468,3.0,0.6262626262626263,1596.7741935483868,0.8149874715925637,0.6852747508886428,0.5186177961657242,1724.5421245421244,-1.0,61.6770712425887,0.6260019004200229,
2023-08-12 15:03:33.044000,-7.409638554216868,-0.060240963855421686,-6.542168674698796,-0.017167381974248927,-7.147148988350705,-6.293071735131821,3.0,0.6262626262626263,1596.7741935483868,0.5401783112872202,0.3341297127207038,0.6254880251733578,1712.087912087912,-1.0,61.6770712425887,0.6259986254943756,
2023-08-12 15:03:33.052000,-7.397590361445784,-0.03614457831325302,-6.566265060240964,0.06621704475781728,-7.169221336603311,-6.256284488044145,3.0,0.6262626262626263,1596.7741935483868,0.87605617388264,0.8379465066138335,0.5491521473107623,1696.7032967032967,-1.0,61.6770712425887,0.6259954343661229,
2023-08-12 15:03:33.059000,-7.349397590361447,-0.04819277108433735,-6.55421686746988,0.04414469650521152,-7.085836909871245,-6.322501532801962,3.0,0.6267066267066267,1595.6429330499468,1.257735563195617,0.9753510867665053,0.1369384068527471,1679.8534798534797,-1.0,61.6770712425887,0.6259923321102123,
2023-08-12 15:03:33.067000,-7.301204819277109,-0.060240963855421686,-6.542168674698796,0.014714898835070508,-7.029429797670141,-6.288166768853464,3.0,0.6262626262626263,1596.7741935483868,1.1966668609055406,1.280694598216887,0.1369384068527471,1660.07326007326,-1.0,61.6770712425887,0.6259893237838227,
2023-08-12 15:03:33.075000,-7.301204819277109,-0.024096385542168676,-6.590361445783133,0.0809319435928878,-7.034334763948498,-6.347026364193746,3.0,0.6262626262626263,1596.7741935483868,0.7997202960200446,1.845580094400093,0.2896101625779379,1635.164835164835,-1.0,61.6770712425887,0.6259864144364332,
