Shimmer_F5D4_Timestamp_FormattedUnix_CAL,Shimmer_F5D4_Accel_LN_X_CAL,Shimmer_F5D4_Accel_LN_Y_CAL,Shimmer_F5D4_Accel_LN_Z_CAL,Shimmer_F5D4_Accel_WR_X_CAL,Shimmer_F5D4_Accel_WR_Y_CAL,Shimmer_F5D4_Accel_WR_Z_CAL,Shimmer_F5D4_GSR_Range_CAL,Shimmer_F5D4_GSR_Skin_Conductance_CAL,Shimmer_F5D4_GSR_Skin_Resistance_CAL,Shimmer_F5D4_Gyro_X_CAL,Shimmer_F5D4_Gyro_Y_CAL,Shimmer_F5D4_Gyro_Z_CAL,Shimmer_F5D4_PPG_A13_CAL,Shimmer_F5D4_PPG_IBI_CAL,Shimmer_F5D4_PPGtoHR_CAL,Shimmer_F5D4_GSR_Skin_Conductance_LPF_CAL,
yyyy/mm/dd hh:mm:ss.000,m/(s^2),m/(s^2),m/(s^2),m/(s^2),m/(s^2),m/(s^2),no_units,uS,kOhms,deg/s,deg/s,deg/s,mV,ms,BPM,uS,
2023-08-16 13:16:04.135000,-5.91566265060241,0.963855421686747,7.590361445783133,1.1820968730839976,-5.901287553648069,8.274678111587983,3.0,0.7328227328227328,1364.5864889427446,0.17970980712079695,-0.10127614940854301,-0.16654041139793727,1332.6007326007325,-1.0,90.03434537711225,0.7347906396690846,
2023-08-16 13:16:04.143000,-5.891566265060241,0.9518072289156627,7.590361445783133,1.2188841201716738,-5.891477621091354,8.252605763335376,3.0,0.7328227328227328,1364.5864889427446,-0.20336810209195189,-0.0055940795990905645,0.04685041664238695,1310.6227106227104,-1.0,90.03434537711225,0.7348268381136732,
2023-08-16 13:16:04.150000,-5.891566265060241,0.9759036144578314,7.614457831325302,1.2164316370324952,-5.835070508890251,8.255058246474555,3.0,0.7332667332667332,1363.7602179836513,-0.24637258900996387,-0.09777984965911098,0.028320027970397933,1291.5750915750914,-1.0,90.03434537711225,0.7348619120888228,
2023-08-16 13:16:04.158000,-5.903614457831326,0.9879518072289157,7.602409638554217,1.2237890864500305,-5.879215205395463,8.196198651134273,3.0,0.7332667332667332,1363.7602179836513,-0.07517044461278531,-0.3270205698968589,0.013285939047840959,1277.6556776556777,-1.0,90.03434537711225,0.7348958458290731,
2023-08-16 13:16:04.166000,-5.903614457831326,0.9879518072289157,7.614457831325302,1.2532188841201717,-5.920907418761495,8.242795830778663,3.0,0.7328227328227328,1364.5864889427446,0.10908455218227295,-0.15640114212458453,0.22551133383835423,1262.2710622710622,-1.0,90.03434537711225,0.7349286248936265,
2023-08-16 13:16:04.173000,-5.891566265060241,0.9879518072289157,7.614457831325302,1.2286940527283874,-5.89883507050889,8.360515021459227,3.0,0.7328227328227328,1364.5864889427446,-0.06130178894003801,-0.2778392867548505,0.23891381621117644,1250.5494505494505,-1.0,90.03434537711225,0.7349602358709914,
2023-08-16 13:16:04.181000,-5.891566265060241,0.9879518072289157,7.614457831325302,1.1992642550582464,-5.857142857142857,8.289393010423053,3.0,0.7328227328227328,1364.5864889427446,0.12365246780490702,-0.23075578346250228,0.5130237165666336,1238.8278388278388,-1.0,90.03434537711225,0.7349906663475054,
2023-08-16 13:16:04.189000,-5.903614457831326,1.0120481927710845,7.614457831325302,1.2654812998160636,-5.874310239117106,8.27958307786634,3.0,0.7328227328227328,1364.5864889427446,0.22900763358778625,-0.08915564361051173,0.021210885146553025,1227.8388278388277,-1.0,90.03434537711225,0.7350199048939308,
2023-08-16 13:16:04.196000,-5.903614457831326,1.0,7.614457831325302,1.2532188841201717,-5.857142857142857,8.257510729613733,3.0,0.7328227328227328,1364.5864889427446,0.18017598042072205,-0.16595769477303224,-0.06747858516403492,1221.9780219780218,-1.0,90.03434537711225,0.7350479412090583,
2023-08-16 13:16:04.204000,-5.891566265060241,0.9879518072289157,7.614457831325302,1.231146535867566,-5.889025137952176,8.264868179031268,3.0,0.7328227328227328,1364.5864889427446,0.36338208729095106,0.033447934269564286,-0.09544898315948948,1216.117216117216,-1.0,90.03434537711225,0.7350747662298646,
2023-08-16 13:16:04.212000,-5.891566265060241,1.0,7.650602409638554,1.2409564684242795,-5.86695278969957,8.284488044144696,3.0,0.7323787323787323,1365.4137617459837,0.056640055940795866,-0.3640813472408361,-0.0010488899248296977,1212.4542124542124,-1.0,90.03434537711225,0.7351003719632415,
2023-08-16 13:16:04.219000,-5.927710843373494,0.9879518072289157,7.650602409638554,1.2213366033108521,-5.903740036787247,8.331085223789087,3.0,0.7328227328227328,1364.5864889427446,0.25429753510867636,-0.3017306683759688,-0.04498572344268966,1213.1868131868132,-1.0,90.03434537711225,0.7351247511774427,
2023-08-16 13:16:04.227000,-5.903614457831326,0.9879518072289157,7.626506024096386,1.3096259963212753,-5.928264868179031,8.311465358675658,3.0,0.7328227328227328,1364.5864889427446,0.2836664530039044,-0.2836664530039044,-0.24357554921041902,1215.3846153846152,-1.0,90.03434537711225,0.7351478976668119,
2023-08-16 13:16:04.235000,-5.903614457831326,0.9879518072289157,7.626506024096386,1.196811771919068,-5.908645003065604,8.264868179031268,3.0,0.7323787323787323,1365.4137617459837,0.18973253306916799,0.16001398519899743,0.005710622924071835,1216.8498168498168,-1.0,90.03434537711225,0.7351698063766515,
2023-08-16 13:16:04.242000,-5.91566265060241,1.0,7.662650602409639,1.2213366033108521,-5.935622317596566,8.269773145309626,3.0,0.7323787323787323,1365.4137617459837,-0.22527824718839254,0.037760037293863916,0.08227958743662936,1218.3150183150183,-1.0,90.03434537711225,0.7351904731012003,
2023-08-16 13:16:04.250000,-5.91566265060241,1.0,7.638554216867471,1.3047210300429184,-5.884120171673819,8.299202942979766,3.0,0.7323787323787323,1365.4137617459837,-0.2554629683584865,-0.1772623972961942,0.021443971796515564,1220.5128205128203,-1.0,90.03434537711225,0.7352098944261094,
2023-08-16 13:16:04.258000,-5.879518072289157,0.9879518072289157,7.638554216867471,1.2360515021459226,-5.906192519926425,8.26241569589209,3.0,0.7323787323787323,1365.4137617459837,-0.2234135539886957,-0.023192121671231584,-0.17551424742147903,1223.4432234432234,-1.0,90.03434537711225,0.7352280678505567,
2023-08-16 13:16:04.265000,-5.91566265060241,0.9759036144578314,7.638554216867471,1.2164316370324952,-5.91354996934396,8.286940527283875,3.0,0.7323787323787323,1365.4137617459837,-0.14672804615115603,-0.1298292640289035,-0.40300681778451136,1222.7106227106226,-1.0,90.03434537711225,0.7352449917491618,
2023-08-16 13:16:04.273000,-5.891566265060241,0.9759036144578314,7.590361445783133,1.1992642550582464,-5.923359901900674,8.267320662170446,3.0,0.7319347319347319,1366.2420382165606,-0.3143173474739234,0.09824602295903433,-0.24625604568498347,1224.1758241758241,-1.0,90.03434537711225,0.7352606653548182,
2023-08-16 13:16:04.281000,-5.91566265060241,0.963855421686747,7.602409638554217,1.2041692213366033,-5.938074800735745,8.220723482526058,3.0,0.7314907314907314,1367.0713201820943,0.20569896859157383,-0.4667560165491526,-0.03135015441990576,1225.6410256410256,-1.0,90.03434537711225,0.7352750885711806,
2023-08-16 13:16:04.288000,-5.91566265060241,0.9879518072289157,7.614457831325302,1.1992642550582464,-5.923359901900674,8.318822808093193,3.0,0.7319347319347319,1366.2420382165606,0.06759512848901532,-0.32771982984674564,-0.1550026222248119,1227.8388278388277,-1.0,90.03434537711225,0.73528826192333,
2023-08-16 13:16:04.296000,-5.879518072289157,0.963855421686747,7.602409638554217,1.2679337829552422,-5.886572654812998,8.228080931943593,3.0,0.7319347319347319,1366.2420382165606,-0.17633005069634577,-0.14451372297651666,0.043936833517860395,1230.03663003663,-1.0,90.03434537711225,0.735300186764285,
2023-08-16 13:16:04.304000,-5.903614457831326,0.9759036144578314,7.614457831325302,1.2164316370324952,-5.908645003065604,8.230533415082771,3.0,0.7319347319347319,1366.2420382165606,0.05465881941611818,-0.18786783986947114,0.08764058038575825,1230.03663003663,-1.0,90.03434537711225,0.7353108651293888,
2023-08-16 13:16:04.311000,-5.91566265060241,0.9759036144578314,7.602409638554217,1.260576333537707,-5.876762722256284,8.30901287553648,3.0,0.7319347319347319,1366.2420382165606,0.0533768428413255,-0.18763475321950945,0.08565934386108055,1232.967032967033,-1.0,90.03434537711225,0.7353202995805473,
2023-08-16 13:16:04.319000,-5.891566265060241,1.0,7.614457831325302,1.2017167381974247,-5.889025137952176,8.296750459840588,3.0,0.7319347319347319,1366.2420382165606,0.14626187285123268,-0.12493444437969795,-0.3442689819940561,1238.8278388278388,-1.0,90.03434537711225,0.7353284931996872,
2023-08-16 13:16:04.327000,-5.903614457831326,0.9759036144578314,7.638554216867471,1.179644389944819,-5.901287553648069,8.311465358675658,3.0,0.7319347319347319,1366.2420382165606,-0.08426082396130792,-0.12283666453003943,-0.20511625196666877,1244.6886446886447,-1.0,90.03434537711225,0.735335449710633,
2023-08-16 13:16:04.334000,-5.903614457831326,0.9879518072289157,7.626506024096386,1.1673819742489269,-5.928264868179031,8.267320662170446,3.0,0.7323787323787323,1365.4137617459837,-0.313385000874075,-0.3352951459705139,0.07062525493852358,1251.2820512820513,-1.0,90.03434537711225,0.7353411734528303,
2023-08-16 13:16:04.342000,-5.891566265060241,0.9759036144578314,7.614457831325302,1.2409564684242795,-5.923359901900674,8.23298589822195,3.0,0.7323787323787323,1365.4137617459837,-0.036478060719072974,-0.2997494318512911,-0.464192063399569,1256.4102564102564,-1.0,90.03434537711225,0.7353456695056556,
2023-08-16 13:16:04.350000,-5.91566265060241,0.9759036144578314,7.602409638554217,1.25567136725935,-5.935622317596566,8.267320662170446,3.0,0.7319347319347319,1366.2420382165606,-0.02132742847153473,-0.35755492104189707,-0.42876289260532613,1263.003663003663,-1.0,90.03434537711225,0.7353489436867078,
2023-08-16 13:16:04.357000,-5.903614457831326,0.9518072289156627,7.614457831325302,1.2237890864500305,-5.881667688534641,8.301655426118945,3.0,0.7319347319347319,1366.2420382165606,0.023891381621118337,0.014567915622632328,-0.18029252374570245,1269.5970695970695,-1.0,90.03434537711225,0.7353510022433992,
2023-08-16 13:16:04.365000,-5.879518072289157,0.9518072289156627,7.614457831325302,1.1477621091354997,-5.942979767014101,8.335990190067443,3.0,0.7319347319347319,1366.2420382165606,0.11537789173125026,-0.04405337684284123,-0.01095507254821989,1276.1904761904761,-1.0,90.03434537711225,0.7353518518125064,
2023-08-16 13:16:04.373000,-5.891566265060241,0.963855421686747,7.614457831325302,1.1575720416922133,-5.886572654812998,8.237890864500306,3.0,0.7319347319347319,1366.2420382165606,0.3290018064215366,-0.20837946506613828,-0.2553464250335061,1282.051282051282,-1.0,90.03434537711225,0.7353514994017846,
2023-08-16 13:16:04.380000,-5.891566265060241,0.963855421686747,7.614457831325302,1.1870018393623543,-5.923359901900674,8.277130594727161,3.0,0.7319347319347319,1366.2420382165606,-0.11735912825592969,-0.191480682943884,-0.22248120738884683,1286.4468864468863,-1.0,90.03434537711225,0.7353499523937032,
2023-08-16 13:16:04.388000,-5.903614457831326,0.9759036144578314,7.590361445783133,1.2385039852851012,-5.903740036787247,8.255058246474555,3.0,0.7319347319347319,1366.2420382165606,-0.23786492628634717,-0.20581551191655467,0.02412446827107958,1288.6446886446886,-1.0,90.03434537711225,0.7353472186785769,
2023-08-16 13:16:04.396000,-5.891566265060241,0.9518072289156627,7.614457831325302,1.2360515021459226,-5.901287553648069,8.299202942979766,3.0,0.7319347319347319,1366.2420382165606,-0.17481498747159316,0.1936950061185251,0.1019754093584289,1288.6446886446886,-1.0,90.03434537711225,0.7353433066404136,
2023-08-16 13:16:04.403000,-5.891566265060241,0.9518072289156627,7.602409638554217,1.2458614347026364,-5.965052115266707,8.333537706928265,3.0,0.7319347319347319,1366.2420382165606,-0.20430044869180033,-0.007225686148825746,-0.12679913757939523,1287.9120879120878,-1.0,90.03434537711225,0.7353382251447877,
2023-08-16 13:16:04.411000,-5.91566265060241,0.9879518072289157,7.626506024096386,1.2532188841201717,-5.925812385039853,8.277130594727161,3.0,0.7319347319347319,1366.2420382165606,-0.06363265543965994,-0.3889050754618028,-0.02004545189674249,1289.3772893772893,-1.0,90.03434537711225,0.7353319835287234,
2023-08-16 13:16:04.419000,-5.903614457831326,0.9759036144578314,7.602409638554217,1.2581238503985284,-5.918454935622317,8.269773145309626,3.0,0.7319347319347319,1366.2420382165606,-0.002447409824602773,-0.12493444437969795,-0.08064798088689461,1291.5750915750914,-1.0,90.03434537711225,0.7353245915925691,
2023-08-16 13:16:04.426000,-5.927710843373494,0.9879518072289157,7.614457831325302,1.2360515021459226,-5.881667688534641,8.301655426118945,3.0,0.7319347319347319,1366.2420382165606,-0.03123361109492492,-0.4426315482780726,0.07179068818833412,1293.040293040293,-1.0,90.03434537711225,0.7353160595938216,
2023-08-16 13:16:04.434000,-5.879518072289157,0.9879518072289157,7.626506024096386,1.2213366033108521,-5.859595340282035,8.30901287553648,3.0,0.7314907314907314,1367.0713201820943,-0.07843365771225394,-0.25476370840860146,-0.05174523629159119,1289.3772893772893,-1.0,90.03434537711225,0.7353063981040893,
2023-08-16 13:16:04.441000,-5.879518072289157,0.9518072289156627,7.614457831325302,1.2507664009809931,-5.874310239117106,8.277130594727161,3.0,0.7314907314907314,1367.0713201820943,-0.337509469145155,-0.4214206631315187,-0.06701241186411028,1288.6446886446886,-1.0,90.03434537711225,0.7352956180164468,
2023-08-16 13:16:04.449000,-5.879518072289157,0.9759036144578314,7.602409638554217,1.2017167381974247,-5.871857755977928,8.299202942979766,3.0,0.7319347319347319,1366.2420382165606,-0.07773439776236893,-0.37200629333954854,-0.25138395198415026,1288.6446886446886,-1.0,90.03434537711225,0.7352837306504189,
2023-08-16 13:16:04.457000,-5.891566265060241,0.9518072289156627,7.602409638554217,1.2041692213366033,-5.879215205395463,8.259963212752911,3.0,0.7319347319347319,1366.2420382165606,0.22947380688771132,0.08787366703572079,-0.06538080531437553,1287.9120879120878,-1.0,90.03434537711225,0.7352707478900923,
2023-08-16 13:16:04.464000,-5.903614457831326,0.9759036144578314,7.614457831325302,1.2017167381974247,-5.893930104230533,8.24770079705702,3.0,0.7319347319347319,1366.2420382165606,0.22725948371307023,-0.18646931996969937,0.07412155468795519,1289.3772893772893,-1.0,90.03434537711225,0.735256682067914,
2023-08-16 13:16:04.472000,-5.903614457831326,0.963855421686747,7.614457831325302,1.231146535867566,-5.916002452483139,8.272225628448805,3.0,0.7319347319347319,1366.2420382165606,-0.1409008799021038,-0.19789056581784217,0.102208496008391,1289.3772893772893,-1.0,90.03434537711225,0.7352415458498577,
2023-08-16 13:16:04.480000,-5.903614457831326,0.9879518072289157,7.626506024096386,1.155119558553035,-5.891477621091354,8.269773145309626,3.0,0.7319347319347319,1366.2420382165606,0.36536332381562875,0.37002505681487086,0.012470135772973802,1287.9120879120878,-1.0,90.03434537711225,0.7352253523881809,
2023-08-16 13:16:04.487000,-5.903614457831326,0.963855421686747,7.602409638554217,1.1943592887798895,-5.933169834457388,8.277130594727161,3.0,0.7314907314907314,1367.0713201820943,0.22656022376318347,0.13973544665229368,0.24404172251034323,1286.4468864468863,-1.0,90.03434537711225,0.7352081153261504,
2023-08-16 13:16:04.495000,-5.903614457831326,0.9759036144578314,7.626506024096386,1.2335990190067443,-5.893930104230533,8.32372777437155,3.0,0.7319347319347319,1366.2420382165606,0.1650253481731838,0.47444787599790167,-0.12237049123011477,1282.7838827838827,-1.0,90.03434537711225,0.735189848515832,
2023-08-16 13:16:04.503000,-5.891566265060241,0.9879518072289157,7.650602409638554,1.1870018393623543,-5.886572654812998,8.291845493562231,3.0,0.7314907314907314,1367.0713201820943,0.025289901520890112,0.12015616805547498,-0.08962181691043637,1279.8534798534797,-1.0,90.03434537711225,0.7351705661726463,
2023-08-16 13:16:04.510000,-5.903614457831326,0.9879518072289157,7.626506024096386,1.2237890864500305,-5.871857755977928,8.257510729613733,3.0,0.7319347319347319,1366.2420382165606,0.1339082804032397,0.2743429870054184,-3.4962997494337723E-4,1276.923076923077,-1.0,90.03434537711225,0.7351502830405052,
2023-08-16 13:16:04.518000,-5.91566265060241,0.9759036144578314,7.602409638554217,1.2507664009809931,-5.903740036787247,8.27958307786634,3.0,0.7314907314907314,1367.0713201820943,-0.30988870112464295,0.5925062642037181,0.01631606549734878,1272.5274725274724,-1.0,90.03434537711225,0.735129014248495,
2023-08-16 13:16:04.526000,-5.879518072289157,0.9759036144578314,7.614457831325302,1.2017167381974247,-5.893930104230533,8.29429797670141,3.0,0.7314907314907314,1367.0713201820943,0.1355398869529749,0.40405570770934107,-0.044752636792727556,1267.3992673992673,-1.0,90.03434537711225,0.7351067754869679,
2023-08-16 13:16:04.533000,-5.91566265060241,0.9759036144578314,7.578313253012048,1.1992642550582464,-5.972409564684242,8.240343347639485,3.0,0.7314907314907314,1367.0713201820943,0.16514189149816463,0.6007808402773731,0.24602295903502136,1263.7362637362637,-1.0,90.03434537711225,0.7350835829820233,
2023-08-16 13:16:04.541000,-5.903614457831326,0.963855421686747,7.602409638554217,1.196811771919068,-5.91354996934396,8.255058246474555,3.0,0.7314907314907314,1367.0713201820943,0.11642678165608127,0.7965736262455568,0.18355573684517237,1262.2710622710622,-1.0,90.03434537711225,0.7350594533523624,
2023-08-16 13:16:04.549000,-5.91566265060241,0.9759036144578314,7.614457831325302,1.196811771919068,-5.918454935622317,8.215818516247701,3.0,0.7314907314907314,1367.0713201820943,0.06829438843890208,0.6085892430511048,0.27189557718081697,1263.003663003663,-1.0,90.03434537711225,0.735034403635588,
2023-08-16 13:16:04.556000,-5.903614457831326,0.9879518072289157,7.602409638554217,1.2188841201716738,-5.977314530962599,8.259963212752911,3.0,0.7314907314907314,1367.0713201820943,0.12738185420430073,0.38902161878678365,0.2541809917836955,1264.4688644688645,-1.0,90.03434537711225,0.7350084515804081,
2023-08-16 13:16:04.564000,-5.9397590361445785,0.963855421686747,7.602409638554217,1.2115266707541386,-5.999386879215205,8.296750459840588,3.0,0.7314907314907314,1367.0713201820943,0.1272653108793199,0.4651244099994174,0.15919818192413027,1264.4688644688645,-1.0,90.03434537711225,0.7349816156299747,
2023-08-16 13:16:04.572000,-5.91566265060241,0.9879518072289157,7.614457831325302,1.1771919068056407,-5.933169834457388,8.30901287553648,3.0,0.7314907314907314,1367.0713201820943,-0.1501078025756072,0.05162869296660949,0.06491463201445132,1265.2014652014652,-1.0,90.03434537711225,0.734953914638201,
2023-08-16 13:16:04.579000,-5.91566265060241,0.9759036144578314,7.602409638554217,1.2654812998160636,-5.911097486204782,8.267320662170446,3.0,0.7314907314907314,1367.0713201820943,-0.3750364197890573,-0.11700949828098545,0.00384592972437498,1268.131868131868,-1.0,90.03434537711225,0.7349253678934522,
2023-08-16 13:16:04.587000,-5.927710843373494,0.9759036144578314,7.602409638554217,1.2826486817903127,-5.94543225015328,8.252605763335376,3.0,0.7306027306027304,1368.7329079307203,-0.37223937998951023,-0.11491171843132691,0.004894819649204678,1268.8644688644688,-1.0,90.03434537711225,0.7348959954073636,
2023-08-16 13:16:04.595000,-5.903614457831326,0.9759036144578314,7.614457831325302,1.1894543225015328,-5.908645003065604,8.215818516247701,3.0,0.731046731046731,1367.9016094746432,-0.2312219567624256,-0.0654973486393568,-0.04102325039333384,1270.3296703296703,-1.0,90.03434537711225,0.7348658174566632,
2023-08-16 13:16:04.602000,-5.91566265060241,0.9879518072289157,7.602409638554217,1.196811771919068,-5.947884733292458,8.240343347639485,3.0,0.731046731046731,1367.9016094746432,-0.13705495017772923,-0.13985198997727452,-0.1474273061010432,1274.7252747252746,-1.0,90.03434537711225,0.7348348546979925,
2023-08-16 13:16:04.610000,-5.91566265060241,0.9879518072289157,7.602409638554217,1.2115266707541386,-5.893930104230533,8.245248313917841,3.0,0.731046731046731,1367.9016094746432,0.01794767204708353,0.07563661791270866,0.2060485985665172,1277.6556776556777,-1.0,90.03434537711225,0.7348031285891892,
2023-08-16 13:16:04.618000,-5.91566265060241,0.9759036144578314,7.590361445783133,1.179644389944819,-5.93071735131821,8.267320662170446,3.0,0.731046731046731,1367.9016094746432,0.07994872093700829,-0.060602528990151255,0.3722393799895111,1280.5860805860805,-1.0,90.03434537711225,0.7347706610951369,
2023-08-16 13:16:04.625000,-5.9397590361445785,1.0,7.602409638554217,1.226241569589209,-5.935622317596566,8.240343347639485,3.0,0.731046731046731,1367.9016094746432,-0.1222539479051335,-0.19858982576772893,0.3686265369150982,1285.7142857142856,-1.0,90.03434537711225,0.7347374746794209,
2023-08-16 13:16:04.633000,-5.903614457831326,0.9879518072289157,7.614457831325302,1.20907418761496,-5.940527283874923,8.252605763335376,3.0,0.731046731046731,1367.9016094746432,-0.015267175572519083,-0.3355282326204773,0.21292465474039957,1288.6446886446886,-1.0,90.03434537711225,0.7347035921548895,
2023-08-16 13:16:04.641000,-5.903614457831326,1.0,7.602409638554217,1.2654812998160636,-5.89883507050889,8.252605763335376,3.0,0.731046731046731,1367.9016094746432,0.029718547870170576,-0.18192413029543805,0.08962181691043637,1294.5054945054944,-1.0,90.03434537711225,0.7346690366908979,
2023-08-16 13:16:04.648000,-5.91566265060241,1.0,7.590361445783133,1.2458614347026364,-5.947884733292458,8.296750459840588,3.0,0.731046731046731,1367.9016094746432,0.058388205815511886,-0.19462735271837353,0.16537497814812674,1298.168498168498,-1.0,90.03434537711225,0.7346338319456426,
2023-08-16 13:16:04.656000,-5.91566265060241,1.0,7.578313253012048,1.280196198651134,-5.93071735131821,8.245248313917841,3.0,0.731046731046731,1367.9016094746432,-0.08006526426198912,0.24963580210943423,-0.2617563079074646,1303.2967032967033,-1.0,90.03434537711225,0.7345980020468159,
2023-08-16 13:16:04.664000,-5.903614457831326,1.0,7.614457831325302,1.231146535867566,-5.942979767014101,8.284488044144696,3.0,0.731046731046731,1367.9016094746432,-0.2764407668550787,-0.19474389604335438,-0.15138977915039903,1305.4945054945053,-1.0,90.03434537711225,0.7345615714310878,
2023-08-16 13:16:04.671000,-5.91566265060241,0.9879518072289157,7.602409638554217,1.184549356223176,-5.933169834457388,8.220723482526058,3.0,0.731046731046731,1367.9016094746432,-0.04486918011770882,-0.08612551716100478,-0.27084668725598726,1306.9597069597069,-1.0,90.03434537711225,0.7345245648402783,
2023-08-16 13:16:04.679000,-5.927710843373494,0.9759036144578314,7.590361445783133,1.1943592887798895,-5.916002452483139,8.259963212752911,3.0,0.731046731046731,1367.9016094746432,-0.4728162694481665,-0.3903035953615763,0.02389138162111747,1307.6923076923076,-1.0,90.03434537711225,0.7344870074426944,
2023-08-16 13:16:04.687000,-5.91566265060241,0.963855421686747,7.614457831325302,1.2213366033108521,-5.906192519926425,8.26241569589209,3.0,0.7306027306027304,1368.7329079307203,0.01911310529689363,-0.27923780665462394,-0.04999708641687561,1306.9597069597069,-1.0,90.03434537711225,0.7344489248029535,
2023-08-16 13:16:04.694000,-5.91566265060241,0.9759036144578314,7.578313253012048,1.226241569589209,-5.911097486204782,8.27958307786634,3.0,0.7306027306027304,1368.7329079307203,-0.14777693607598702,-0.21339082804032466,-0.01794767204708353,1306.9597069597069,-1.0,90.03434537711225,0.7344103425615695,
2023-08-16 13:16:04.702000,-5.903614457831326,0.963855421686747,7.602409638554217,1.1820968730839976,-5.982219497240957,8.321275291232372,3.0,0.7306027306027304,1368.7329079307203,-0.2063982285414606,-0.21245848144047624,0.15092360585047482,1306.9597069597069,-1.0,90.03434537711225,0.7343712863989598,
2023-08-16 13:16:04.710000,-5.903614457831326,0.963855421686747,7.602409638554217,1.1992642550582464,-5.876762722256284,8.245248313917841,3.0,0.7306027306027304,1368.7329079307203,-0.06689586853912857,-0.04207214031816354,-0.00384592972437498,1306.9597069597069,-1.0,90.03434537711225,0.7343317822839381,
2023-08-16 13:16:04.717000,-5.927710843373494,0.963855421686747,7.602409638554217,1.2164316370324952,-5.896382587369711,8.215818516247701,3.0,0.7306027306027304,1368.7329079307203,-0.3414719421945104,-0.14789347940096786,0.04195559699318227,1309.89010989011,-1.0,90.03434537711225,0.7342918562934592,
2023-08-16 13:16:04.725000,-5.903614457831326,0.963855421686747,7.614457831325302,1.1771919068056407,-5.903740036787247,8.242795830778663,3.0,0.7306027306027304,1368.7329079307203,0.044752636792727986,0.0680613017889404,-0.02016199522172376,1311.3553113553112,-1.0,90.03434537711225,0.7342515345896479,
2023-08-16 13:16:04.733000,-5.903614457831326,0.9518072289156627,7.602409638554217,1.2335990190067443,-5.940527283874923,8.259963212752911,3.0,0.7306027306027304,1368.7329079307203,-0.10850183555736877,0.10990035545714054,0.07167414486335284,1308.4249084249084,-1.0,90.03434537711225,0.7342108433839808,
2023-08-16 13:16:04.740000,-5.9397590361445785,0.9518072289156627,7.590361445783133,1.1943592887798895,-5.925812385039853,8.237890864500306,3.0,0.7297147297147296,1370.398539701856,0.12237049123011434,0.4743313326729208,-0.021210885146553025,1303.2967032967033,-1.0,90.03434537711225,0.7341698087711787,
2023-08-16 13:16:04.748000,-5.91566265060241,0.9397590361445783,7.602409638554217,1.1526670754138564,-5.886572654812998,8.289393010423053,3.0,0.7301587301587301,1369.5652173913045,0.1658411514480514,0.07586970456267034,0.26991434065613884,1302.5641025641025,-1.0,90.03434537711225,0.7341284566888017,
2023-08-16 13:16:04.756000,-5.9397590361445785,0.963855421686747,7.614457831325302,1.1330472103004292,-5.918454935622317,8.299202942979766,3.0,0.7301587301587301,1369.5652173913045,0.014684458947613166,0.12283666453003943,0.10115960608356175,1304.7619047619046,-1.0,90.03434537711225,0.7340868129605632,
2023-08-16 13:16:04.763000,-5.91566265060241,0.9759036144578314,7.578313253012048,1.2188841201716738,-5.849785407725322,8.264868179031268,3.0,0.7301587301587301,1369.5652173913045,0.032632130994696695,-0.10535516578287923,0.11689295495600505,1308.4249084249084,-1.0,90.03434537711225,0.7340449032731228,
2023-08-16 13:16:04.771000,-5.91566265060241,0.9879518072289157,7.590361445783133,1.2237890864500305,-5.920907418761495,8.240343347639485,3.0,0.7301587301587301,1369.5652173913045,0.3679272769652123,-0.07097488491346653,-0.02225977507138272,1312.087912087912,-1.0,90.03434537711225,0.7340027531516341,
2023-08-16 13:16:04.779000,-5.903614457831326,1.0240963855421688,7.602409638554217,1.2654812998160636,-5.857142857142857,8.277130594727161,3.0,0.7301587301587301,1369.5652173913045,0.41081522055824177,0.06724549851407281,-0.20534933861663088,1316.4835164835165,-1.0,90.03434537711225,0.7339603880521226,
2023-08-16 13:16:04.786000,-5.903614457831326,1.0120481927710845,7.626506024096386,1.2335990190067443,-5.940527283874923,8.272225628448805,3.0,0.7301587301587301,1369.5652173913045,0.05698968591573838,0.2813355865042825,-0.1288969174290542,1317.216117216117,-1.0,90.03434537711225,0.7339178333047286,
2023-08-16 13:16:04.794000,-5.91566265060241,0.9879518072289157,7.602409638554217,1.2409564684242795,-5.891477621091354,8.26241569589209,3.0,0.7297147297147296,1370.398539701856,0.026105704795757703,0.47910960899714383,0.3454344152438671,1320.8791208791208,-1.0,90.03434537711225,0.7338751140573434,
2023-08-16 13:16:04.802000,-5.9397590361445785,0.9879518072289157,7.602409638554217,1.2385039852851012,-5.94543225015328,8.267320662170446,3.0,0.7297147297147296,1370.398539701856,-0.09509935318454654,0.27748965677990794,-0.06945982168871262,1322.3443223443223,-1.0,90.03434537711225,0.7338322550705437,
2023-08-16 13:16:04.809000,-5.951807228915663,0.9879518072289157,7.602409638554217,1.1820968730839976,-5.903740036787247,8.26241569589209,3.0,0.7297147297147296,1370.398539701856,0.16572460812307055,0.061884505564943924,-0.3443855253190374,1323.8095238095236,-1.0,90.03434537711225,0.7337892806407675,
2023-08-16 13:16:04.817000,-5.9397590361445785,0.9759036144578314,7.578313253012048,1.213979153893317,-5.918454935622317,8.264868179031268,3.0,0.7297147297147296,1370.398539701856,-0.01841384534700861,0.014451372297651493,-0.34112231221956746,1325.2747252747251,-1.0,90.03434537711225,0.7337462146834665,
2023-08-16 13:16:04.824000,-5.951807228915663,0.9397590361445783,7.590361445783133,1.2041692213366033,-5.893930104230533,8.301655426118945,3.0,0.7297147297147296,1370.398539701856,-0.034613367519376124,-0.10710331565759526,-0.06503117533943259,1326.7399267399267,-1.0,90.03434537711225,0.7337030805398191,
2023-08-16 13:16:04.832000,-5.927710843373494,0.9277108433734941,7.602409638554217,1.2164316370324952,-5.903740036787247,8.3408951563458,3.0,0.7297147297147296,1370.398539701856,0.011071615873200292,-0.5632538896334709,-0.508361983567391,1326.7399267399267,-1.0,90.03434537711225,0.7336599010826174,
2023-08-16 13:16:04.840000,-5.891566265060241,0.9518072289156627,7.614457831325302,1.2066217044757817,-5.881667688534641,8.304107909258123,3.0,0.7292707292707292,1371.2328767123288,-0.0640988287395833,-0.31303537089913247,-0.30685857467513555,1323.8095238095236,743.011474609375,80.75245410112129,0.7336166986533844,
2023-08-16 13:16:04.847000,-5.879518072289157,0.9518072289156627,7.590361445783133,1.226241569589209,-5.896382587369711,8.269773145309626,3.0,0.7297147297147296,1370.398539701856,0.026688421420663622,-0.21677058446477412,-0.044752636792727556,1323.8095238095236,-1.0,80.75245410112129,0.7335734948730916,
2023-08-16 13:16:04.855000,-5.903614457831326,0.9759036144578314,7.578313253012048,1.20907418761496,-5.93071735131821,8.267320662170446,3.0,0.7297147297147296,1370.398539701856,-0.12540061767962304,0.39484878503583765,0.2755084202552298,1322.3443223443223,-1.0,80.75245410112129,0.7335303108492927,
2023-08-16 13:16:04.863000,-5.91566265060241,0.9759036144578314,7.590361445783133,1.184549356223176,-5.916002452483139,8.228080931943593,3.0,0.7292707292707292,1371.2328767123288,-0.12272012120505858,0.3896043354116896,0.27387681370549505,1320.8791208791208,-1.0,80.75245410112129,0.7334871671401966,
2023-08-16 13:16:04.870000,-5.951807228915663,0.9879518072289157,7.626506024096386,1.2630288166768853,-5.989576946658492,8.30901287553648,3.0,0.7292707292707292,1371.2328767123288,0.2292407202377479,0.2776062001048888,0.4570829205757241,1315.7509157509157,-1.0,80.75245410112129,0.7334440832844487,
2023-08-16 13:16:04.878000,-5.951807228915663,0.9879518072289157,7.626506024096386,1.184549356223176,-5.967504598405886,8.257510729613733,3.0,0.7292707292707292,1371.2328767123288,-0.06025289901520874,0.5793368684808575,0.6672105355165784,1312.087912087912,-1.0,80.75245410112129,0.7334010777587266,
2023-08-16 13:16:04.886000,-5.951807228915663,0.9879518072289157,7.626506024096386,1.213979153893317,-5.950337216431636,8.304107909258123,3.0,0.7292707292707292,1371.2328767123288,-0.22679331041314688,0.17598042072140324,0.21910145096439607,1312.8205128205127,-1.0,80.75245410112129,0.7333581682245874,
2023-08-16 13:16:04.893000,-5.951807228915663,0.9759036144578314,7.614457831325302,1.3120784794604536,-5.960147148988351,8.24770079705702,3.0,0.7288267288267287,1372.0682302771856,0.0973136763591859,-0.28541460287862047,0.12749839752928155,1313.5531135531135,-1.0,80.75245410112129,0.7333153714901521,
2023-08-16 13:16:04.901000,-5.91566265060241,0.9879518072289157,7.590361445783133,1.2949110974862048,-5.938074800735745,8.245248313917841,3.0,0.7288267288267287,1372.0682302771856,0.1885670998193579,-0.7567158091020343,0.082745760736554,1316.4835164835165,-1.0,80.75245410112129,0.7332727036030434,
2023-08-16 13:16:04.909000,-5.891566265060241,0.9879518072289157,7.578313253012048,1.2434089515634579,-5.896382587369711,8.23298589822195,3.0,0.7288267288267287,1372.0682302771856,-0.2872792960783173,-0.783520773847677,0.11071615873200856,1322.3443223443223,-1.0,80.75245410112129,0.7332301794781945,
2023-08-16 13:16:04.916000,-5.891566265060241,0.9879518072289157,7.614457831325302,1.2679337829552422,-5.862047823421213,8.245248313917841,3.0,0.7288267288267287,1372.0682302771856,0.05162869296660949,-0.3674611036652873,0.10826874890740623,1328.2051282051282,-1.0,80.75245410112129,0.7331878127509663,
2023-08-16 13:16:04.924000,-5.903614457831326,1.0,7.602409638554217,1.1673819742489269,-5.825260576333537,8.264868179031268,3.0,0.7292707292707292,1371.2328767123288,-0.31664821397354537,-0.12190431793019099,-0.1395023600023307,1335.5311355311355,-1.0,80.75245410112129,0.7331456159094834,
2023-08-16 13:16:04.932000,-5.891566265060241,0.963855421686747,7.590361445783133,1.1894543225015328,-5.886572654812998,8.301655426118945,3.0,0.7288267288267287,1372.0682302771856,-0.00967309597342852,-0.2292407202377479,-0.14020161995221703,1344.3223443223442,-1.0,80.75245410112129,0.7331036005789737,
2023-08-16 13:16:04.939000,-5.879518072289157,0.9518072289156627,7.614457831325302,1.2188841201716738,-5.920907418761495,8.274678111587983,3.0,0.7288267288267287,1372.0682302771856,-0.174931530796574,0.061884505564943924,0.10453936250801252,1353.113553113553,-1.0,80.75245410112129,0.7330617773626643,
2023-08-16 13:16:04.947000,-5.91566265060241,0.9397590361445783,7.602409638554217,1.2286940527283874,-5.911097486204782,8.284488044144696,3.0,0.7288267288267287,1372.0682302771856,-0.1438144630266299,0.07645242118757625,0.05582425266592871,1361.904761904762,-1.0,80.75245410112129,0.7330201556759673,
2023-08-16 13:16:04.955000,-5.891566265060241,0.9518072289156627,7.614457831325302,1.1992642550582464,-5.903740036787247,8.27958307786634,3.0,0.7288267288267287,1372.0682302771856,0.13146087057863695,0.03123361109492492,-0.15873200862420606,1369.9633699633698,-1.0,80.75245410112129,0.7329787438612964,
2023-08-16 13:16:04.962000,-5.891566265060241,0.9759036144578314,7.638554216867471,1.213979153893317,-5.891477621091354,8.240343347639485,3.0,0.7288267288267287,1372.0682302771856,0.23937998951110154,0.16910436454752,0.04102325039333384,1377.2893772893772,-1.0,80.75245410112129,0.7329375490503439,
2023-08-16 13:16:04.970000,-5.91566265060241,0.963855421686747,7.614457831325302,1.2213366033108521,-5.957694665849172,8.264868179031268,3.0,0.7288267288267287,1372.0682302771856,0.06945982168871218,0.1214381446302659,0.08694132043587192,1383.150183150183,-1.0,80.75245410112129,0.7328965773071189,
2023-08-16 13:16:04.978000,-5.91566265060241,0.9759036144578314,7.614457831325302,1.231146535867566,-5.874310239117106,8.245248313917841,3.0,0.7288267288267287,1372.0682302771856,-0.13157741390361952,-0.07563661791270866,-0.03496299749431863,1386.8131868131868,-1.0,80.75245410112129,0.7328558334870282,
2023-08-16 13:16:04.985000,-5.891566265060241,1.0,7.626506024096386,1.2237890864500305,-5.918454935622317,8.289393010423053,3.0,0.7288267288267287,1372.0682302771856,0.23518442981178272,0.15325447235009676,0.17970980712079695,1389.0109890109889,-1.0,80.75245410112129,0.7328153213979455,
2023-08-16 13:16:04.993000,-5.91566265060241,0.9759036144578314,7.602409638554217,1.1894543225015328,-5.884120171673819,8.27958307786634,3.0,0.7288267288267287,1372.0682302771856,-0.15104014917545566,0.6696579453411812,-0.020278538546704597,1388.278388278388,-1.0,80.75245410112129,0.7327750439338793,
2023-08-16 13:16:05.001000,-5.9397590361445785,0.9879518072289157,7.602409638554217,1.1894543225015328,-5.938074800735745,8.23298589822195,3.0,0.7288267288267287,1372.0682302771856,-0.2259775071382793,0.45102266767670846,0.10360701590816365,1385.3479853479853,-1.0,80.75245410112129,0.7327350029360378,
2023-08-16 13:16:05.008000,-5.951807228915663,0.9759036144578314,7.614457831325302,1.2581238503985284,-5.928264868179031,8.272225628448805,3.0,0.7288267288267287,1372.0682302771856,-0.055241536041024095,0.23413553988695346,0.302196841675893,1382.4175824175823,-1.0,80.75245410112129,0.7326951992072577,
2023-08-16 13:16:05.016000,-5.963855421686747,0.963855421686747,7.602409638554217,1.1820968730839976,-5.911097486204782,8.304107909258123,3.0,0.7283827283827283,1372.90460225541,-0.3450847852689233,0.1412505098770463,-0.1743488141716685,1377.2893772893772,-1.0,80.75245410112129,0.7326556325304531,
2023-08-16 13:16:05.024000,-5.9397590361445785,0.963855421686747,7.602409638554217,1.184549356223176,-5.957694665849172,8.277130594727161,3.0,0.7283827283827283,1372.90460225541,-0.01992890857176122,-0.13402482372822055,0.102208496008391,1370.6959706959706,-1.0,80.75245410112129,0.7326163015417275,
2023-08-16 13:16:05.031000,-5.927710843373494,0.963855421686747,7.590361445783133,1.2335990190067443,-5.893930104230533,8.269773145309626,3.0,0.7283827283827283,1372.90460225541,-0.0813472408367818,-0.14731076277606195,0.40766855078375397,1363.3699633699632,-1.0,80.75245410112129,0.7325772037347683,
2023-08-16 13:16:05.039000,-5.927710843373494,0.9518072289156627,7.566265060240965,1.2286940527283874,-5.982219497240957,8.250153280196198,3.0,0.7283827283827283,1372.90460225541,0.10197540935842977,-0.11467863178136525,-0.05256103956645878,1353.8461538461538,-1.0,80.75245410112129,0.7325383356279406,
2023-08-16 13:16:05.047000,-5.91566265060241,0.9518072289156627,7.602409638554217,1.2385039852851012,-5.933169834457388,8.282035561005518,3.0,0.7274947274947274,1374.580408910589,-0.18728512324456695,0.10080997610861794,0.2202668842142066,1342.1245421245421,-1.0,80.75245410112129,0.7324996929348455,
2023-08-16 13:16:05.054000,-5.91566265060241,0.963855421686747,7.578313253012048,1.2385039852851012,-5.962599632127529,8.20110361741263,3.0,0.7279387279387278,1373.7419945105216,-0.1396189033273111,-0.2206165141891504,-0.04253831361808732,1331.135531135531,-1.0,80.75245410112129,0.7324612702804885,
2023-08-16 13:16:05.062000,-5.91566265060241,0.9759036144578314,7.578313253012048,1.25567136725935,-5.908645003065604,8.250153280196198,3.0,0.7279387279387278,1373.7419945105216,-0.13915273002738776,-0.23343627993706673,0.13961890332731197,1322.3443223443223,-1.0,80.75245410112129,0.7324230611971583,
2023-08-16 13:16:05.070000,-5.91566265060241,0.9759036144578314,7.602409638554217,1.2385039852851012,-5.91354996934396,8.196198651134273,3.0,0.7279387279387278,1373.7419945105216,0.18297302022026732,-0.07703513781248217,0.061534875590000544,1318.6813186813185,-1.0,80.75245410112129,0.7323850584628994,
2023-08-16 13:16:05.077000,-5.903614457831326,0.963855421686747,7.590361445783133,1.2630288166768853,-5.960147148988351,8.299202942979766,3.0,0.7279387279387278,1373.7419945105216,-0.1523221257502483,-0.2581434648330509,0.18157450032049424,1314.2857142857142,-1.0,80.75245410112129,0.7323472538671023,
2023-08-16 13:16:05.085000,-5.91566265060241,0.9879518072289157,7.614457831325302,1.1894543225015328,-5.960147148988351,8.242795830778663,3.0,0.7279387279387278,1373.7419945105216,0.18250684692034225,-0.16479226152322038,-0.2786550900297185,1310.6227106227104,-1.0,80.75245410112129,0.7323096384150601,
2023-08-16 13:16:05.093000,-5.927710843373494,0.9759036144578314,7.590361445783133,1.260576333537707,-5.960147148988351,8.277130594727161,3.0,0.7279387279387278,1373.7419945105216,0.05908746576539864,-0.1309946972787136,0.02948546122020847,1309.1575091575091,-1.0,80.75245410112129,0.7322722025031773,
2023-08-16 13:16:05.100000,-5.9397590361445785,1.0,7.590361445783133,1.2703862660944205,-5.916002452483139,8.282035561005518,3.0,0.7279387279387278,1373.7419945105216,-0.20127032224229335,-0.12947963405395924,-0.3981119981353067,1309.89010989011,-1.0,80.75245410112129,0.7322349358194586,
2023-08-16 13:16:05.108000,-5.9397590361445785,0.9759036144578314,7.590361445783133,1.2213366033108521,-5.940527283874923,8.230533415082771,3.0,0.7279387279387278,1373.7419945105216,-0.09195268341005701,-0.4758463958976752,-0.013285939047840959,1311.3553113553112,-1.0,80.75245410112129,0.7321978273951112,
2023-08-16 13:16:05.116000,-5.9397590361445785,0.9759036144578314,7.578313253012048,1.2409564684242795,-5.972409564684242,8.274678111587983,3.0,0.7279387279387278,1373.7419945105216,-0.09171959676009533,0.2172367577646992,-0.17854437387098643,1312.087912087912,-1.0,80.75245410112129,0.7321608656577734,
2023-08-16 13:16:05.123000,-5.903614457831326,0.963855421686747,7.590361445783133,1.2115266707541386,-5.886572654812998,8.240343347639485,3.0,0.7274947274947274,1374.580408910589,0.0749373579628219,-0.010372355923315273,0.11549443505623197,1312.087912087912,-1.0,80.75245410112129,0.7321240384861871,
2023-08-16 13:16:05.131000,-5.903614457831326,0.963855421686747,7.578313253012048,1.213979153893317,-5.901287553648069,8.318822808093193,3.0,0.7279387279387278,1373.7419945105216,-0.004661732999242137,0.32492279004720037,0.1928792028436571,1313.5531135531135,-1.0,80.75245410112129,0.7320873331168274,
2023-08-16 13:16:05.139000,-5.927710843373494,0.9759036144578314,7.602409638554217,1.20907418761496,-5.935622317596566,8.26241569589209,3.0,0.7274947274947274,1374.580408910589,-0.005827166249052237,0.3238739001223711,0.1903152496940739,1315.7509157509157,-1.0,80.75245410112129,0.7320507363283073,
2023-08-16 13:16:05.146000,-5.927710843373494,0.9518072289156627,7.578313253012048,1.2115266707541386,-5.987124463519313,8.225628448804414,3.0,0.7274947274947274,1374.580408910589,-0.20266884214206687,0.27550842025523026,-0.026105704795757703,1316.4835164835165,-1.0,80.75245410112129,0.7320142345088744,
2023-08-16 13:16:05.154000,-5.9397590361445785,0.9759036144578314,7.566265060240965,1.2213366033108521,-5.911097486204782,8.245248313917841,3.0,0.7274947274947274,1374.580408910589,-0.21770293106462255,0.029718547870170576,-0.11712604160596715,1317.9487179487178,-1.0,80.75245410112129,0.7319778135541299,
2023-08-16 13:16:05.162000,-5.9397590361445785,0.963855421686747,7.602409638554217,1.226241569589209,-5.940527283874923,8.240343347639485,3.0,0.7274947274947274,1374.580408910589,-0.0802983509119508,-0.0011654332498101003,0.05197832294155373,1313.5531135531135,-1.0,80.75245410112129,0.7319414590629271,
2023-08-16 13:16:05.169000,-5.91566265060241,0.9879518072289157,7.566265060240965,1.280196198651134,-5.989576946658492,8.274678111587983,3.0,0.7274947274947274,1374.580408910589,-0.40067595128488986,0.027504224695531213,0.17388264087174385,1308.4249084249084,-1.0,80.75245410112129,0.7319051563946412,
2023-08-16 13:16:05.177000,-5.951807228915663,0.9759036144578314,7.590361445783133,1.2409564684242795,-5.908645003065604,8.213366033108523,3.0,0.7274947274947274,1374.580408910589,0.15302138570013335,-0.2939222656022371,-0.06992599498863683,1301.8315018315018,-1.0,80.75245410112129,0.7318688907263807,
2023-08-16 13:16:05.185000,-5.9397590361445785,0.963855421686747,7.614457831325302,1.260576333537707,-5.925812385039853,8.228080931943593,3.0,0.7274947274947274,1374.580408910589,-0.4285298059553636,-0.27795583007983304,-0.11328011188159218,1297.4358974358975,-1.0,80.75245410112129,0.731832647109965,
2023-08-16 13:16:05.192000,-5.927710843373494,0.9518072289156627,7.614457831325302,1.1673819742489269,-5.86695278969957,8.26241569589209,3.0,0.7274947274947274,1374.580408910589,0.04918128314200845,-0.0632830254647157,-0.12365246780490657,1296.7032967032967,-1.0,80.75245410112129,0.7317964103897606,
2023-08-16 13:16:05.200000,-5.9397590361445785,0.9518072289156627,7.566265060240965,1.1698344573881054,-5.94543225015328,8.225628448804414,3.0,0.7266067266067265,1376.2603116406967,0.31035487442456805,-0.0018646931996968547,0.03030126449507606,1297.4358974358975,-1.0,80.75245410112129,0.7317601652790784,
2023-08-16 13:16:05.207000,-5.927710843373494,0.963855421686747,7.566265060240965,1.1894543225015328,-5.938074800735745,8.250153280196198,3.0,0.727050727050727,1375.4198473282443,-0.14835965270089121,0.19590932929316449,0.15185595245032324,1301.098901098901,-1.0,80.75245410112129,0.7317238965423898,
2023-08-16 13:16:05.215000,-5.927710843373494,0.9759036144578314,7.602409638554217,1.1624770079705702,-5.950337216431636,8.272225628448805,3.0,0.727050727050727,1375.4198473282443,0.3138511741739983,0.16467571819823956,0.2875123827282794,1306.227106227106,-1.0,80.75245410112129,0.7316875889746943,
2023-08-16 13:16:05.223000,-5.963855421686747,0.9759036144578314,7.590361445783133,1.2335990190067443,-5.952789699570815,8.213366033108523,3.0,0.7266067266067265,1376.2603116406967,-0.2373987529864221,0.06957636501369302,0.22434590058854367,1308.4249084249084,-1.0,80.75245410112129,0.7316512274744489,
2023-08-16 13:16:05.230000,-5.9397590361445785,0.9879518072289157,7.578313253012048,1.1649294911097485,-5.940527283874923,8.257510729613733,3.0,0.7266067266067265,1376.2603116406967,0.1636268282734103,0.3267874832468972,-0.15931472524911153,1310.6227106227104,-1.0,80.75245410112129,0.7316147968165043,
2023-08-16 13:16:05.238000,-5.9397590361445785,0.963855421686747,7.578313253012048,1.1526670754138564,-5.94543225015328,8.242795830778663,3.0,0.727050727050727,1375.4198473282443,-0.12516753102965963,-0.2728279237806658,-0.02249286172134483,1311.3553113553112,-1.0,80.75245410112129,0.7315782816996069,
2023-08-16 13:16:05.246000,-5.9397590361445785,0.9759036144578314,7.602409638554217,1.2434089515634579,-5.955242182709994,8.291845493562231,3.0,0.727050727050727,1375.4198473282443,-0.06130178894003801,0.23471825651185765,-0.05279412621642089,1313.5531135531135,-1.0,80.75245410112129,0.7315416672282006,
2023-08-16 13:16:05.253000,-5.9397590361445785,0.9759036144578314,7.590361445783133,1.231146535867566,-5.889025137952176,8.27958307786634,3.0,0.727050727050727,1375.4198473282443,-0.07738476778742467,-0.2396130761610632,-0.204416992016782,1320.8791208791208,-1.0,80.75245410112129,0.7315049389771384,
2023-08-16 13:16:05.261000,-5.903614457831326,0.963855421686747,7.578313253012048,1.226241569589209,-5.903740036787247,8.257510729613733,3.0,0.7266067266067265,1376.2603116406967,-0.017248412097196776,0.051395606316647816,0.16374337159839156,1330.4029304029302,-1.0,80.75245410112129,0.7314680828957487,
2023-08-16 13:16:05.269000,-5.927710843373494,0.963855421686747,7.602409638554217,1.2164316370324952,-5.947884733292458,8.264868179031268,3.0,0.7266067266067265,1376.2603116406967,-0.15581842549968036,0.2039508187168578,0.023774838296136636,1337.7289377289376,-1.0,80.75245410112129,0.7314310851997714,
2023-08-16 13:16:05.276000,-5.91566265060241,0.963855421686747,7.614457831325302,1.213979153893317,-5.896382587369711,8.299202942979766,3.0,0.7266067266067265,1376.2603116406967,0.3026630149758172,-0.13402482372822055,0.06631315191422396,1341.3919413919414,-1.0,80.75245410112129,0.7313939323890553,
2023-08-16 13:16:05.284000,-5.91566265060241,0.9759036144578314,7.614457831325302,1.231146535867566,-5.928264868179031,8.24770079705702,3.0,0.7266067266067265,1376.2603116406967,-0.19019870636909308,-0.26921508070625294,-0.08880601363556921,1345.7875457875457,-1.0,80.75245410112129,0.7313566114224821,
2023-08-16 13:16:05.292000,-5.91566265060241,0.9879518072289157,7.614457831325302,1.213979153893317,-5.952789699570815,8.245248313917841,3.0,0.7266067266067265,1376.2603116406967,-0.14101742322708463,0.14194976982693305,-0.11899073480566401,1347.985347985348,-1.0,80.75245410112129,0.731319109752201,
2023-08-16 13:16:05.299000,-5.91566265060241,0.963855421686747,7.614457831325302,1.2115266707541386,-5.91354996934396,8.220723482526058,3.0,0.7266067266067265,1376.2603116406967,0.028902744595302985,0.4899481382203842,0.09440009323465978,1347.985347985348,-1.0,80.75245410112129,0.7312814153558763,
2023-08-16 13:16:05.307000,-5.927710843373494,0.9518072289156627,7.638554216867471,1.2115266707541386,-5.935622317596566,8.242795830778663,3.0,0.7266067266067265,1376.2603116406967,-0.1707359710972552,0.4702523162985846,0.3840102558125982,1345.7875457875457,-1.0,80.75245410112129,0.7312435167669411,
2023-08-16 13:16:05.315000,-5.903614457831326,0.9518072289156627,7.590361445783133,1.2483139178418148,-5.906192519926425,8.29429797670141,3.0,0.7266067266067265,1376.2603116406967,0.16723967134782317,0.40452188100926445,0.10687022900763359,1342.8571428571427,-1.0,80.75245410112129,0.731205403102831,
2023-08-16 13:16:05.322000,-5.91566265060241,0.963855421686747,7.578313253012048,1.285101164929491,-5.962599632127529,8.272225628448805,3.0,0.7266067266067265,1376.2603116406967,-0.12330283782996276,0.3697919701649092,0.06083561564011423,1339.9267399267399,-1.0,80.75245410112129,0.7311670640911995,
2023-08-16 13:16:05.330000,-5.903614457831326,0.9518072289156627,7.578313253012048,1.2458614347026364,-5.940527283874923,8.311465358675658,3.0,0.7266067266067265,1376.2603116406967,0.0012819765747909368,0.35102849484295806,0.17982635044577824,1336.9963369963368,-1.0,80.75245410112129,0.7311284900941181,
2023-08-16 13:16:05.338000,-5.91566265060241,0.963855421686747,7.602409638554217,1.2017167381974247,-5.942979767014101,8.27958307786634,3.0,0.7261627261627261,1377.1018037297463,0.138453470077501,0.37818308956354507,-0.14381446302663034,1336.263736263736,-1.0,80.75245410112129,0.7310896722690166,
2023-08-16 13:16:05.345000,-5.91566265060241,0.9518072289156627,7.614457831325302,1.2213366033108521,-5.942979767014101,8.23298589822195,3.0,0.7261627261627261,1377.1018037297463,0.13542334362799405,0.8309539071149695,0.3462502185187342,1336.263736263736,-1.0,80.75245410112129,0.7310506024192229,
2023-08-16 13:16:05.353000,-5.91566265060241,0.963855421686747,7.602409638554217,1.1820968730839976,-5.925812385039853,8.21827099938688,3.0,0.7257187257187256,1377.9443254817988,-0.23192121671231236,0.86824777110891,-0.28599731950352547,1336.9963369963368,-1.0,80.75245410112129,0.7310112727035937,
2023-08-16 13:16:05.361000,-5.9397590361445785,0.963855421686747,7.614457831325302,1.2041692213366033,-6.001839362354383,8.277130594727161,3.0,0.7261627261627261,1377.1018037297463,-0.16887127789755835,0.9657945341180576,-0.30254647165083637,1339.9267399267399,-1.0,80.75245410112129,0.7309716759395894,
2023-08-16 13:16:05.368000,-5.9397590361445785,0.963855421686747,7.590361445783133,1.2335990190067443,-5.933169834457388,8.311465358675658,3.0,0.7261627261627261,1377.1018037297463,-0.02960200454518974,0.7599790222015029,0.6599848493677526,1343.5897435897434,-1.0,80.75245410112129,0.7309318057126563,
2023-08-16 13:16:05.376000,-5.951807228915663,0.963855421686747,7.626506024096386,1.1747394236664623,-5.977314530962599,8.208461066830164,3.0,0.7261627261627261,1377.1018037297463,-0.16549152147310714,0.7078841559349685,0.5630208029835092,1349.4505494505493,-1.0,80.75245410112129,0.7308916562697162,
2023-08-16 13:16:05.384000,-5.963855421686747,0.9759036144578314,7.590361445783133,1.1330472103004292,-5.947884733292458,8.250153280196198,3.0,0.7261627261627261,1377.1018037297463,0.14404754967659159,0.9296661033739289,0.6328302546471652,1356.0439560439559,-1.0,80.75245410112129,0.7308512225386489,
2023-08-16 13:16:05.391000,-5.927710843373494,0.9759036144578314,7.566265060240965,1.2237890864500305,-5.965052115266707,8.259963212752911,3.0,0.7261627261627261,1377.1018037297463,0.3104714177495489,0.8139385816677344,0.47328244274809156,1360.4395604395604,-1.0,80.75245410112129,0.7308105001351617,
2023-08-16 13:16:05.399000,-5.927710843373494,0.9879518072289157,7.602409638554217,1.2434089515634579,-5.908645003065604,8.29429797670141,3.0,0.7261627261627261,1377.1018037297463,0.13880310005244526,1.0042538313618083,0.49997086416875475,1358.974358974359,-1.0,80.75245410112129,0.7307694853676846,
2023-08-16 13:16:05.407000,-5.927710843373494,0.9397590361445783,7.602409638554217,1.2115266707541386,-5.8399754751686075,8.215818516247701,3.0,0.7261627261627261,1377.1018037297463,-0.12272012120505858,1.455626129013461,0.359069984266651,1357.5091575091574,-1.0,80.75245410112129,0.730728175240371,
2023-08-16 13:16:05.414000,-5.879518072289157,0.9397590361445783,7.614457831325302,1.2188841201716738,-5.938074800735745,8.331085223789087,3.0,0.7261627261627261,1377.1018037297463,-0.12295320785502026,1.4439717965153547,0.35487442456733304,1353.8461538461538,-1.0,80.75245410112129,0.730686567593063,
2023-08-16 13:16:05.422000,-5.891566265060241,0.9518072289156627,7.578313253012048,1.1354996934396075,-5.901287553648069,8.257510729613733,3.0,0.7261627261627261,1377.1018037297463,0.12213740458015267,1.6584115144805087,0.19882291241769146,1350.18315018315,-1.0,80.75245410112129,0.7306446610804334,
2023-08-16 13:16:05.430000,-5.91566265060241,0.9277108433734941,7.55421686746988,1.1649294911097485,-5.891477621091354,8.237890864500306,3.0,0.7261627261627261,1377.1018037297463,-0.16852164792261584,1.8578171435231052,0.0282034846454171,1347.2527472527472,-1.0,80.75245410112129,0.7306024550219342,
2023-08-16 13:16:05.437000,-5.951807228915663,0.9156626506024097,7.55421686746988,1.2483139178418148,-5.93071735131821,8.228080931943593,3.0,0.7261627261627261,1377.1018037297463,-0.12132160130528508,2.068410931763883,0.5012528407435466,1345.7875457875457,-1.0,80.75245410112129,0.7305599495381165,
2023-08-16 13:16:05.445000,-6.0120481927710845,0.9518072289156627,7.566265060240965,1.1722869405272838,-5.996934396076027,8.174126302881668,3.0,0.7257187257187256,1377.9443254817988,0.4137288036827696,1.9275100518617792,0.7560165491521471,1346.5201465201465,-1.0,80.75245410112129,0.7305171455262643,
2023-08-16 13:16:05.453000,-6.0,0.9759036144578314,7.578313253012048,1.290006131207848,-5.984671980380135,8.29429797670141,3.0,0.7257187257187256,1377.9443254817988,-0.034380280869412715,1.648854961832061,0.6880717906881885,1347.2527472527472,-1.0,80.75245410112129,0.7304740442189246,
2023-08-16 13:16:05.460000,-5.9397590361445785,0.9879518072289157,7.614457831325302,1.196811771919068,-5.947884733292458,8.230533415082771,3.0,0.7257187257187256,1377.9443254817988,0.05722277256570179,1.8763475321950929,0.29858399860148016,1348.7179487179487,-1.0,80.75245410112129,0.7304306473155093,
2023-08-16 13:16:05.468000,-5.927710843373494,1.0,7.578313253012048,1.1943592887798895,-5.952789699570815,8.240343347639485,3.0,0.7257187257187256,1377.9443254817988,0.18099178369558963,1.5863877396422112,0.844706019462735,1348.7179487179487,-1.0,80.75245410112129,0.7303869572399179,
2023-08-16 13:16:05.476000,-5.951807228915663,1.0120481927710845,7.542168674698796,1.2703862660944205,-5.933169834457388,8.18638871857756,3.0,0.7257187257187256,1377.9443254817988,-0.4747975059728459,1.8765806188450562,1.3266126682594255,1349.4505494505493,-1.0,80.75245410112129,0.7303429769812319,
2023-08-16 13:16:05.483000,-5.987951807228916,1.0,7.518072289156627,1.2777437155119558,-5.952789699570815,8.235438381361128,3.0,0.7257187257187256,1377.9443254817988,-0.4260823961307608,2.179593263795816,1.1943359944059206,1348.7179487179487,-1.0,80.75245410112129,0.7302987100823841,
2023-08-16 13:16:05.491000,-6.0,0.9879518072289157,7.518072289156627,1.2458614347026364,-6.00674432863274,8.17167381974249,3.0,0.7257187257187256,1377.9443254817988,-0.6181457956995507,2.3317988462210817,0.9248878270497055,1347.985347985348,-1.0,80.75245410112129,0.7302541606276255,
2023-08-16 13:16:05.499000,-5.987951807228916,0.9879518072289157,7.530120481927711,1.20907418761496,-5.994481912936848,8.252605763335376,3.0,0.7257187257187256,1377.9443254817988,-0.6723384418157455,1.8702872792960772,1.0255812598333431,1347.985347985348,-1.0,80.75245410112129,0.7302093332289405,
2023-08-16 13:16:05.506000,-5.987951807228916,0.963855421686747,7.530120481927711,1.213979153893317,-5.987124463519313,8.191293684855916,3.0,0.7248307248307249,1379.6324655436447,-0.8486684925120913,1.674261406677932,0.710448109084552,1345.7875457875457,-1.0,80.75245410112129,0.7301642331502979,
2023-08-16 13:16:05.514000,-6.0120481927710845,0.963855421686747,7.542168674698796,1.226241569589209,-5.984671980380135,8.225628448804414,3.0,0.7252747252747253,1378.7878787878788,-0.9177786842258611,1.5380222597750721,0.7184895985082453,1343.5897435897434,-1.0,80.75245410112129,0.7301188661121495,
2023-08-16 13:16:05.522000,-5.963855421686747,0.9518072289156627,7.518072289156627,1.2041692213366033,-5.989576946658492,8.166768853464133,3.0,0.7252747252747253,1378.7878787878788,-1.306101043062758,1.281743488141718,0.7576481557018819,1342.8571428571427,-1.0,80.75245410112129,0.7300732382126838,
2023-08-16 13:16:05.529000,-5.987951807228916,0.963855421686747,7.530120481927711,1.2164316370324952,-6.023911710606989,8.193746167995094,3.0,0.7257187257187256,1377.9443254817988,-0.946681428821164,1.4114562088456373,0.8881766796806713,1345.054945054945,-1.0,80.75245410112129,0.7300273559217644,
2023-08-16 13:16:05.537000,-6.0120481927710845,0.9518072289156627,7.542168674698796,1.1870018393623543,-5.996934396076027,8.15205395462906,3.0,0.7252747252747253,1378.7878787878788,-1.2735854553930421,1.4165841151448044,1.322533651885088,1347.2527472527472,-1.0,80.75245410112129,0.7299812262337673,
2023-08-16 13:16:05.545000,-6.0361445783132535,0.9397590361445783,7.542168674698796,1.1992642550582464,-6.0410790925812385,8.208461066830164,3.0,0.7252747252747253,1378.7878787878788,-1.2618145795699551,1.4536448924887833,0.8854961832061068,1349.4505494505493,-1.0,80.75245410112129,0.7299348565113913,
2023-08-16 13:16:05.552000,-6.0361445783132535,0.9156626506024097,7.55421686746988,1.2066217044757817,-6.028816676885346,8.166768853464133,3.0,0.7252747252747253,1378.7878787878788,-1.4030650894470014,0.9880543091894425,1.0314084260823966,1348.7179487179487,-1.0,80.75245410112129,0.7298882541797187,
2023-08-16 13:16:05.560000,-6.024096385542169,0.9156626506024097,7.542168674698796,1.2115266707541386,-6.033721643163703,8.179031269160024,3.0,0.7252747252747253,1378.7878787878788,-1.6351028494842963,1.0589126507779283,0.7646407552007464,1347.985347985348,-1.0,80.75245410112129,0.7298414271332991,
2023-08-16 13:16:05.567000,-6.0361445783132535,0.8795180722891567,7.493975903614459,1.0864500306560392,-6.068056407112201,8.134886572654812,3.0,0.7252747252747253,1378.7878787878788,-1.7121379872967768,0.8985490356039848,0.5608064798088694,1347.2527472527472,-1.0,80.75245410112129,0.7297943836958902,
2023-08-16 13:16:05.575000,-6.048192771084338,0.855421686746988,7.457831325301205,1.108522378908645,-6.019006744328633,8.129981606376456,3.0,0.7252747252747253,1378.7878787878788,-1.2846570712662424,0.2819183031291884,1.0142765573101804,1345.054945054945,-1.0,80.75245410112129,0.7297471324525594,
2023-08-16 13:16:05.583000,-6.048192771084338,0.8313253012048193,7.46987951807229,1.1060698957694666,-6.058246474555487,8.213366033108523,3.0,0.7252747252747253,1378.7878787878788,-1.2899015208903903,0.0026804964745644456,1.142940388089272,1342.1245421245421,-1.0,80.75245410112129,0.7296996822309849,
2023-08-16 13:16:05.590000,-6.0361445783132535,0.855421686746988,7.530120481927711,1.0938074800735744,-6.0778663396689145,8.164316370324954,3.0,0.7252747252747253,1378.7878787878788,-1.0983042946215256,-0.3520773847677891,1.2395548044985727,1341.3919413919414,-1.0,80.75245410112129,0.7296520420828074,
2023-08-16 13:16:05.598000,-6.0843373493975905,0.8795180722891567,7.530120481927711,1.1060698957694666,-6.075413856529736,8.208461066830164,3.0,0.7252747252747253,1378.7878787878788,-0.999708641687547,-0.398811258085193,1.0605442573276616,1342.1245421245421,-1.0,80.75245410112129,0.7296042212651507,
2023-08-16 13:16:05.606000,-6.060240963855422,0.8795180722891567,7.518072289156627,1.155119558553035,-6.0705088902513795,8.191293684855916,3.0,0.7248307248307249,1379.6324655436447,-0.7175572519083969,-1.3150748790862996,1.2794126216420953,1345.054945054945,-1.0,80.75245410112129,0.7295562292224432,
2023-08-16 13:16:05.613000,-6.048192771084338,0.9036144578313253,7.506024096385542,1.1624770079705702,-6.014101778050276,8.164316370324954,3.0,0.7252747252747253,1378.7878787878788,-1.1390944583648965,-1.3546996095798605,1.1293048190664874,1350.18315018315,-1.0,80.75245410112129,0.7295080754193598,
2023-08-16 13:16:05.621000,-6.0361445783132535,0.9397590361445783,7.55421686746988,1.2213366033108521,-6.0705088902513795,8.210913549969343,3.0,0.7252747252747253,1378.7878787878788,-0.9913175222889111,-1.9877629508769896,1.0897966318979087,1356.0439560439559,-1.0,80.75245410112129,0.72945976958976,
2023-08-16 13:16:05.629000,-6.0,0.9518072289156627,7.530120481927711,1.226241569589209,-5.977314530962599,8.144696505211526,3.0,0.7248307248307249,1379.6324655436447,-1.042596585280578,-1.8536215838237882,1.5250859507021737,1360.4395604395604,-1.0,80.75245410112129,0.7294113218586508,
2023-08-16 13:16:05.636000,-5.975903614457832,0.9397590361445783,7.542168674698796,1.1943592887798895,-5.955242182709994,8.196198651134273,3.0,0.7248307248307249,1379.6324655436447,-1.4308024007924942,-1.8130645067303772,1.5447817726239725,1361.1721611721612,-1.0,80.75245410112129,0.729362742290107,
2023-08-16 13:16:05.644000,-5.963855421686747,0.9759036144578314,7.530120481927711,1.2041692213366033,-5.950337216431636,8.26241569589209,3.0,0.7248307248307249,1379.6324655436447,-0.8075286987937762,-1.239438261173591,1.3798729677757713,1358.2417582417581,-1.0,80.75245410112129,0.7293140408512938,
2023-08-16 13:16:05.652000,-5.975903614457832,0.9518072289156627,7.55421686746988,1.2654812998160636,-5.965052115266707,8.183936235438381,3.0,0.7248307248307249,1379.6324655436447,-1.0893304585979837,-1.6002563953149584,1.444204883165317,1357.5091575091574,-1.0,80.75245410112129,0.7292652275361472,
2023-08-16 13:16:05.659000,-6.0,0.963855421686747,7.566265060240965,1.2237890864500305,-5.955242182709994,8.250153280196198,3.0,0.7243867243867244,1380.4780876494024,-1.0022725948371307,-1.3324398345084791,1.3711322184021906,1356.7765567765566,-1.0,80.75245410112129,0.7292163123509219,
2023-08-16 13:16:05.667000,-5.987951807228916,0.9518072289156627,7.590361445783133,1.2703862660944205,-5.994481912936848,8.21827099938688,3.0,0.7243867243867244,1380.4780876494024,-0.9168463376260126,-1.1700949828098597,1.5395373229998255,1354.5787545787546,-1.0,80.75245410112129,0.7291673052898895,
2023-08-16 13:16:05.675000,-5.951807228915663,0.963855421686747,7.590361445783133,1.20907418761496,-6.021459227467811,8.213366033108523,3.0,0.7243867243867244,1380.4780876494024,-0.7113804556844004,-1.4703105879610758,1.6004894819649198,1353.8461538461538,-1.0,80.75245410112129,0.7291182162800945,
2023-08-16 13:16:05.682000,-5.963855421686747,0.9879518072289157,7.578313253012048,1.2434089515634579,-5.947884733292458,8.21827099938688,3.0,0.7243867243867244,1380.4780876494024,-0.9789639298409182,-1.5841734164675718,1.2782471883922844,1353.8461538461538,-1.0,80.75245410112129,0.7290690551582703,
2023-08-16 13:16:05.690000,-5.9397590361445785,1.0120481927710845,7.566265060240965,1.2703862660944205,-5.947884733292458,8.277130594727161,3.0,0.7243867243867244,1380.4780876494024,-0.9729036769419025,-1.5772973602936886,1.2658935959442916,1354.5787545787546,-1.0,80.75245410112129,0.7290198315200619,
2023-08-16 13:16:05.698000,-5.927710843373494,1.0481927710843375,7.55421686746988,1.2924586143470262,-5.91354996934396,8.164316370324954,3.0,0.7243867243867244,1380.4780876494024,-1.2073888468037985,-1.4016665695472295,1.0392168288561274,1353.8461538461538,-1.0,80.75245410112129,0.7289705547289579,
2023-08-16 13:16:05.705000,-5.927710843373494,1.0602409638554218,7.578313253012048,1.2826486817903127,-5.889025137952176,8.223175965665236,3.0,0.7248307248307249,1379.6324655436447,-1.2275508420255232,-1.2573859332206745,1.0434123885554463,1353.8461538461538,-1.0,80.75245410112129,0.7289212341922188,
2023-08-16 13:16:05.713000,-5.91566265060241,1.036144578313253,7.626506024096386,1.2703862660944205,-5.940527283874923,8.210913549969343,3.0,0.7243867243867244,1380.4780876494024,-1.4464192063399575,-0.7477419730784926,1.1098420837946512,1353.8461538461538,-1.0,80.75245410112129,0.7288718794785705,
2023-08-16 13:16:05.721000,-5.9397590361445785,1.0120481927710845,7.614457831325302,1.260576333537707,-5.952789699570815,8.286940527283875,3.0,0.7243867243867244,1380.4780876494024,-1.2197424392517915,-0.4696695996736787,1.3271953848843308,1356.0439560439559,-1.0,80.75245410112129,0.7288225000325157,
2023-08-16 13:16:05.728000,-5.963855421686747,0.9879518072289157,7.578313253012048,1.231146535867566,-5.989576946658492,8.284488044144696,3.0,0.7243867243867244,1380.4780876494024,-0.9509935318454619,0.15663422877454622,1.146203601188741,1356.7765567765566,-1.0,80.75245410112129,0.7287731050072142,
2023-08-16 13:16:05.736000,-6.0120481927710845,0.9879518072289157,7.578313253012048,1.2752912323727774,-6.004291845493562,8.208461066830164,3.0,0.7243867243867244,1380.4780876494024,-1.521006934327837,0.550783753860497,0.8438902161878684,1356.7765567765566,-1.0,80.75245410112129,0.7287237033960716,
2023-08-16 13:16:05.744000,-5.975903614457832,0.9759036144578314,7.590361445783133,1.226241569589209,-5.906192519926425,8.225628448804414,3.0,0.7243867243867244,1380.4780876494024,-1.4618029252374558,0.468970339723792,0.6055591166015963,1356.0439560439559,-1.0,80.75245410112129,0.7286743040264414,
2023-08-16 13:16:05.751000,-5.963855421686747,0.963855421686747,7.566265060240965,1.1722869405272838,-5.984671980380135,8.16922133660331,3.0,0.7243867243867244,1380.4780876494024,-1.660742380980129,0.5126740865916907,0.4598799603752691,1352.3809523809523,-1.0,80.75245410112129,0.7286249156929676,
2023-08-16 13:16:05.759000,-5.951807228915663,0.963855421686747,7.542168674698796,1.1624770079705702,-5.947884733292458,8.220723482526058,3.0,0.7243867243867244,1380.4780876494024,-1.414952508595071,0.43086067245498555,0.6075403531262744,1350.9157509157508,-1.0,80.75245410112129,0.7285755469939748,
2023-08-16 13:16:05.767000,-5.951807228915663,0.9518072289156627,7.55421686746988,1.1722869405272838,-5.965052115266707,8.220723482526058,3.0,0.7239427239427239,1381.3247470101196,-1.1873433949070564,0.6095215896509533,0.9359594429229064,1347.985347985348,903.86962890625,66.38125464244716,0.7285262062003061,
2023-08-16 13:16:05.774000,-5.951807228915663,0.963855421686747,7.55421686746988,1.2213366033108521,-5.94543225015328,8.174126302881668,3.0,0.7239427239427239,1381.3247470101196,-1.266592855894178,0.40335644775945434,1.2161295961773786,1347.985347985348,-1.0,66.38125464244716,0.7284769013912863,
2023-08-16 13:16:05.782000,-5.963855421686747,0.9518072289156627,7.530120481927711,1.2728387492335989,-5.99202942979767,8.228080931943593,3.0,0.7239427239427239,1381.3247470101196,-1.2509760503467147,0.6111531962006884,1.3708991317522288,1347.985347985348,-1.0,66.38125464244716,0.728427640410644,
2023-08-16 13:16:05.790000,-5.975903614457832,0.9879518072289157,7.506024096385542,1.1894543225015328,-5.989576946658492,8.242795830778663,3.0,0.7239427239427239,1381.3247470101196,-1.4182157216945395,0.5130237165666349,1.3245148884097662,1347.985347985348,-1.0,66.38125464244716,0.7283784308547349,
2023-08-16 13:16:05.797000,-5.987951807228916,0.9397590361445783,7.566265060240965,1.1477621091354997,-5.938074800735745,8.223175965665236,3.0,0.7239427239427239,1381.3247470101196,-1.5562030184721172,0.5393625080123543,1.4010838529223233,1347.985347985348,-1.0,66.38125464244716,0.7283292800718996,
2023-08-16 13:16:05.805000,-6.0,0.9397590361445783,7.566265060240965,1.2164316370324952,-6.0410790925812385,8.196198651134273,3.0,0.7239427239427239,1381.3247470101196,-1.5100518617796175,0.15476953557484935,1.1599557135365077,1350.18315018315,-1.0,66.38125464244716,0.7282801951624251,
2023-08-16 13:16:05.813000,-6.0,0.9397590361445783,7.530120481927711,1.2581238503985284,-6.05334150827713,8.181483752299203,3.0,0.7234987234987235,1382.1724455354404,-1.3429287337567735,0.24485752578521125,1.1922382145562616,1351.6483516483515,-1.0,66.38125464244716,0.7282311831178643,
2023-08-16 13:16:05.820000,-5.987951807228916,0.9518072289156627,7.530120481927711,1.1011649294911097,-5.989576946658492,8.13733905579399,3.0,0.7234987234987235,1382.1724455354404,-1.4956004894819643,-0.07959909096206579,1.069401550026222,1353.8461538461538,-1.0,66.38125464244716,0.7281822507912835,
2023-08-16 13:16:05.828000,-5.987951807228916,0.9518072289156627,7.518072289156627,1.155119558553035,-5.972409564684242,8.183936235438381,3.0,0.7234987234987235,1382.1724455354404,-1.1751063457840443,0.025522988170851784,0.8863119864809742,1355.3113553113553,-1.0,66.38125464244716,0.7281334045700595,
2023-08-16 13:16:05.836000,-5.975903614457832,0.9277108433734941,7.506024096385542,1.1894543225015328,-5.994481912936848,8.20110361741263,3.0,0.7234987234987235,1382.1724455354404,-1.2845405279412616,-0.1764465940213266,1.3783579045510175,1356.0439560439559,-1.0,66.38125464244716,0.7280846503888385,
2023-08-16 13:16:05.843000,-5.963855421686747,0.9397590361445783,7.55421686746988,1.1820968730839976,-5.977314530962599,8.193746167995094,3.0,0.7234987234987235,1382.1724455354404,-1.2094866266534587,0.10815220558242453,1.5731018005943715,1353.113553113553,-1.0,66.38125464244716,0.728035993880691,
2023-08-16 13:16:05.851000,-5.963855421686747,0.9397590361445783,7.542168674698796,1.1649294911097485,-5.960147148988351,8.257510729613733,3.0,0.7239427239427239,1381.3247470101196,-0.9828098595652928,0.13285939047841044,1.523454344152439,1350.18315018315,-1.0,66.38125464244716,0.7279874403792201,
2023-08-16 13:16:05.859000,-6.0,0.9277108433734941,7.55421686746988,1.2237890864500305,-5.972409564684242,8.237890864500306,3.0,0.7234987234987235,1382.1724455354404,-1.0166074238097995,-0.055707709340947445,1.1248761727172083,1347.985347985348,-1.0,66.38125464244716,0.7279389950702301,
2023-08-16 13:16:05.866000,-6.0120481927710845,0.9518072289156627,7.55421686746988,1.2335990190067443,-5.969957081545064,8.237890864500306,3.0,0.7234987234987235,1382.1724455354404,-0.6237398752986413,-0.11607715168113876,1.3576131927043886,1347.2527472527472,-1.0,66.38125464244716,0.7278906628669626,
2023-08-16 13:16:05.874000,-6.0,0.9759036144578314,7.566265060240965,1.2532188841201717,-6.033721643163703,8.252605763335376,3.0,0.7234987234987235,1382.1724455354404,-0.6612668259425453,-0.7408659169046093,1.145737427888817,1345.7875457875457,-1.0,66.38125464244716,0.7278424481153711,
2023-08-16 13:16:05.882000,-6.0,0.9759036144578314,7.602409638554217,1.2654812998160636,-5.99202942979767,8.198651134273451,3.0,0.7234987234987235,1382.1724455354404,-0.7720995279995343,-0.9647456441932284,1.1505157042130414,1345.7875457875457,-1.0,66.38125464244716,0.7277943547567258,
2023-08-16 13:16:05.889000,-5.987951807228916,0.9879518072289157,7.602409638554217,1.2041692213366033,-5.977314530962599,8.259963212752911,3.0,0.7234987234987235,1382.1724455354404,-0.4261989394557434,-0.604393683351786,1.1262746926169793,1347.985347985348,-1.0,66.38125464244716,0.7277463866181784,
2023-08-16 13:16:05.897000,-5.9397590361445785,1.0,7.590361445783133,1.2434089515634579,-5.952789699570815,8.274678111587983,3.0,0.7234987234987235,1382.1724455354404,-0.252083211934037,-0.6925004370374684,1.3125109259367163,1348.7179487179487,-1.0,66.38125464244716,0.7276985473954752,
2023-08-16 13:16:05.905000,-5.91566265060241,1.0120481927710845,7.578313253012048,1.2752912323727774,-5.844880441446965,8.29429797670141,3.0,0.7234987234987235,1382.1724455354404,-0.3363440358953449,-0.46279354349979546,1.0843190956237974,1349.4505494505493,-1.0,66.38125464244716,0.7276508405086528,
2023-08-16 13:16:05.912000,-5.927710843373494,1.036144578313253,7.55421686746988,1.3096259963212753,-5.999386879215205,8.20110361741263,3.0,0.7234987234987235,1382.1724455354404,-0.5260765689645129,0.005827166249052237,1.1627527533360522,1347.985347985348,-1.0,66.38125464244716,0.7276032691074503,
2023-08-16 13:16:05.920000,-5.9397590361445785,1.0481927710843375,7.55421686746988,1.260576333537707,-5.982219497240957,8.203556100551808,3.0,0.7234987234987235,1382.1724455354404,-0.641571004020744,-0.06374919876464077,0.9353767262980005,1345.7875457875457,-1.0,66.38125464244716,0.7275558360771743,
2023-08-16 13:16:05.928000,-5.963855421686747,1.0481927710843375,7.530120481927711,1.290006131207848,-5.972409564684242,8.225628448804414,3.0,0.7230547230547231,1383.0211851396991,-0.31082104772449315,0.6183788823495124,1.0302429928325845,1343.5897435897434,-1.0,66.38125464244716,0.7275085440450327,
2023-08-16 13:16:05.935000,-5.987951807228916,1.0481927710843375,7.55421686746988,1.331698344573881,-5.94543225015328,8.220723482526058,3.0,0.7230547230547231,1383.0211851396991,-0.5349338616630739,0.4268981994056284,0.9086883048773391,1344.3223443223442,-1.0,66.38125464244716,0.7274613952376723,
2023-08-16 13:16:05.943000,-6.0120481927710845,1.0240963855421688,7.55421686746988,1.260576333537707,-5.960147148988351,8.193746167995094,3.0,0.7230547230547231,1383.0211851396991,-0.5564943767845685,0.6482139735446656,0.7726822446244382,1345.7875457875457,-1.0,66.38125464244716,0.7274143914666573,
2023-08-16 13:16:05.950000,-5.987951807228916,1.0120481927710845,7.566265060240965,1.2924586143470262,-5.972409564684242,8.198651134273451,3.0,0.7230547230547231,1383.0211851396991,-0.7165083619835677,0.5799195851057635,0.6852747508886416,1348.7179487179487,-1.0,66.38125464244716,0.7273675342734254,
2023-08-16 13:16:05.958000,-5.987951807228916,1.0240963855421688,7.542168674698796,1.25567136725935,-5.965052115266707,8.179031269160024,3.0,0.7230547230547231,1383.0211851396991,-0.966610337392927,0.7106811957345137,0.5981003438028072,1350.9157509157508,-1.0,66.38125464244716,0.7273208249358771,
2023-08-16 13:16:05.966000,-5.987951807228916,1.0,7.518072289156627,1.226241569589209,-6.014101778050276,8.166768853464133,3.0,0.7226107226107225,1383.8709677419356,-0.9530913116951222,0.7026397063108204,0.58621292465474,1348.7179487179487,-1.0,66.38125464244716,0.727274264475375,
2023-08-16 13:16:05.973000,-6.0,0.9879518072289157,7.506024096385542,1.290006131207848,-6.014101778050276,8.215818516247701,3.0,0.7226107226107225,1383.8709677419356,-0.8929549560048943,0.6193112289493626,0.3926344618611959,1347.2527472527472,-1.0,66.38125464244716,0.7272278536536364,
2023-08-16 13:16:05.981000,-6.0120481927710845,0.9759036144578314,7.530120481927711,1.2458614347026364,-5.955242182709994,8.193746167995094,3.0,0.7226107226107225,1383.8709677419356,-0.8039158557193651,0.20033797564244493,0.5519491871103076,1343.5897435897434,-1.0,66.38125464244716,0.7271815929383839,
2023-08-16 13:16:05.989000,-5.987951807228916,0.963855421686747,7.542168674698796,1.1477621091354997,-5.99202942979767,8.18638871857756,3.0,0.7226107226107225,1383.8709677419356,-0.716974535283491,0.25627877163335405,0.525843482314551,1338.4615384615383,-1.0,66.38125464244716,0.72713548236207,
2023-08-16 13:16:05.996000,-6.0361445783132535,0.9759036144578314,7.518072289156627,1.290006131207848,-6.031269160024524,8.188841201716738,3.0,0.7226107226107225,1383.8709677419356,-0.39881125808519474,0.0692267350387505,0.303012644950761,1334.065934065934,-1.0,66.38125464244716,0.7270895215504141,
2023-08-16 13:16:06.004000,-6.0361445783132535,0.9759036144578314,7.518072289156627,1.1722869405272838,-6.026364193746168,8.154506437768239,3.0,0.7226107226107225,1383.8709677419356,-0.3301672396713484,-0.09719713303420506,0.523046442515004,1330.4029304029302,-1.0,66.38125464244716,0.7270437098787361,
2023-08-16 13:16:06.012000,-6.0120481927710845,0.9759036144578314,7.518072289156627,1.2164316370324952,-6.011649294911098,8.16922133660331,3.0,0.7226107226107225,1383.8709677419356,-0.5221140959151576,-0.29450498222714305,0.3300506963463661,1326.007326007326,-1.0,66.38125464244716,0.7269980464794106,
2023-08-16 13:16:06.019000,-6.0120481927710845,0.9759036144578314,7.518072289156627,1.2360515021459226,-6.072961373390558,8.24770079705702,3.0,0.7226107226107225,1383.8709677419356,-0.4211875764815553,-0.06444845871452753,0.0025639531495842602,1320.14652014652,-1.0,66.38125464244716,0.7269525302497721,
2023-08-16 13:16:06.027000,-6.0,0.9879518072289157,7.518072289156627,1.2286940527283874,-5.999386879215205,8.15695892090742,3.0,0.7226107226107225,1383.8709677419356,-0.445312044752637,-0.1574500320494138,0.07085834158848525,1314.2857142857142,-1.0,66.38125464244716,0.7269071599992724,
2023-08-16 13:16:06.035000,-6.0120481927710845,0.9879518072289157,7.55421686746988,1.2286940527283874,-6.023911710606989,8.21827099938688,3.0,0.7226107226107225,1383.8709677419356,-0.2682827341064045,-0.49612493444438066,0.23227084668725553,1312.087912087912,-1.0,66.38125464244716,0.7268619342992866,
2023-08-16 13:16:06.042000,-6.0,0.9879518072289157,7.542168674698796,1.2532188841201717,-5.989576946658492,8.210913549969343,3.0,0.7226107226107225,1383.8709677419356,-0.1693374511974817,-0.7560165491521476,0.16572460812306924,1312.087912087912,-1.0,66.38125464244716,0.7268168515037594,
2023-08-16 13:16:06.050000,-6.0120481927710845,1.0,7.518072289156627,1.2434089515634579,-6.011649294911098,8.215818516247701,3.0,0.7226107226107225,1383.8709677419356,-0.3292348930715,-0.7388846803799316,0.2946215255521239,1315.7509157509157,-1.0,66.38125464244716,0.7267719097492894,
2023-08-16 13:16:06.058000,-5.987951807228916,1.0,7.542168674698796,1.2458614347026364,-5.99202942979767,8.210913549969343,3.0,0.7226107226107225,1383.8709677419356,0.31909562379814815,-0.9950469086883048,0.34823145504341213,1319.4139194139193,-1.0,66.38125464244716,0.7267271069768189,
2023-08-16 13:16:06.065000,-5.963855421686747,0.9879518072289157,7.542168674698796,1.2532188841201717,-6.05334150827713,8.16922133660331,3.0,0.7226107226107225,1383.8709677419356,-0.10582133908280432,-0.7325913408309543,0.0024474098246019048,1322.3443223443223,-1.0,66.38125464244716,0.7266824410715793,
2023-08-16 13:16:06.073000,-6.0,1.0120481927710845,7.55421686746988,1.2385039852851012,-5.994481912936848,8.193746167995094,3.0,0.7221667221667222,1384.7217952659084,-0.3290018064215383,-0.9149816444263157,0.02703805139560526,1327.4725274725274,-1.0,66.38125464244716,0.7266379097268281,
2023-08-16 13:16:06.081000,-5.987951807228916,1.0,7.542168674698796,1.290006131207848,-6.001839362354383,8.203556100551808,3.0,0.7221667221667222,1384.7217952659084,0.13903618670240694,-0.7283957811316355,0.12714876755433904,1332.6007326007325,-1.0,66.38125464244716,0.7265935103081111,
2023-08-16 13:16:06.088000,-5.987951807228916,0.9879518072289157,7.566265060240965,1.2826486817903127,-5.960147148988351,8.18638871857756,3.0,0.7226107226107225,1383.8709677419356,0.0666627818891669,-0.43773672862886703,0.02890274459530342,1336.9963369963368,-1.0,66.38125464244716,0.7265492398454941,
2023-08-16 13:16:06.096000,-5.975903614457832,1.0,7.55421686746988,1.2188841201716738,-5.994481912936848,8.208461066830164,3.0,0.7226107226107225,1383.8709677419356,0.0737719247130118,-0.5913408309539063,0.06526426198939513,1340.6593406593406,-1.0,66.38125464244716,0.7265050953345932,
2023-08-16 13:16:06.104000,-6.0,1.0120481927710845,7.542168674698796,1.2115266707541386,-6.001839362354383,8.191293684855916,3.0,0.7221667221667222,1384.7217952659084,-0.10325738593322245,-0.590874657653983,-0.09486626653458378,1345.054945054945,-1.0,66.38125464244716,0.7264610737718427,
2023-08-16 13:16:06.111000,-6.0,0.9879518072289157,7.55421686746988,1.2998160637645615,-5.989576946658492,8.17167381974249,3.0,0.7221667221667222,1384.7217952659084,0.22294738068877235,-0.22399627061359986,0.0024474098246019048,1349.4505494505493,-1.0,66.38125464244716,0.7264171718819504,
2023-08-16 13:16:06.119000,-5.975903614457832,1.0120481927710845,7.542168674698796,1.2458614347026364,-6.036174126302881,8.223175965665236,3.0,0.7217227217227218,1385.5736696401107,0.48645183847095214,-0.3511450381679389,-0.09661441640930067,1350.9157509157508,-1.0,66.38125464244716,0.726373386112152,
2023-08-16 13:16:06.127000,-6.0,1.0,7.55421686746988,1.3096259963212753,-5.994481912936848,8.242795830778663,3.0,0.7217227217227218,1385.5736696401107,0.5037002505681472,-0.5484528873608769,0.21595478118990763,1352.3809523809523,-1.0,66.38125464244716,0.7263297129142406,
2023-08-16 13:16:06.134000,-5.963855421686747,1.036144578313253,7.530120481927711,1.314530962599632,-5.94543225015328,8.203556100551808,3.0,0.7221667221667222,1384.7217952659084,0.2778392867548522,-0.8070625254938529,-0.2503350620593203,1353.8461538461538,-1.0,66.38125464244716,0.7262861485587208,
2023-08-16 13:16:06.142000,-5.975903614457832,1.036144578313253,7.578313253012048,1.2679337829552422,-5.952789699570815,8.147148988350704,3.0,0.7221667221667222,1384.7217952659084,0.34322009206922643,-1.0153254472350086,-0.2545306217586383,1355.3113553113553,-1.0,66.38125464244716,0.7262426891615565,
2023-08-16 13:16:06.150000,-6.0,1.036144578313253,7.55421686746988,1.2826486817903127,-6.03862660944206,8.18638871857756,3.0,0.7221667221667222,1384.7217952659084,0.6371423576714635,-0.4585979838004784,-0.4877338150457433,1357.5091575091574,-1.0,66.38125464244716,0.7261993308708486,
2023-08-16 13:16:06.157000,-5.963855421686747,1.0120481927710845,7.530120481927711,1.3169834457388105,-5.94543225015328,8.18638871857756,3.0,0.7221667221667222,1384.7217952659084,0.45405279412621713,-0.2728279237806658,-0.47654565584756087,1358.974358974359,-1.0,66.38125464244716,0.7261560697453784,
2023-08-16 13:16:06.165000,-5.987951807228916,1.0240963855421688,7.530120481927711,1.2777437155119558,-6.009196811771918,8.225628448804414,3.0,0.7217227217227218,1385.5736696401107,0.3333139094458362,-0.36513023716566706,-0.9241885670998186,1358.974358974359,-1.0,66.38125464244716,0.7261129017722034,
2023-08-16 13:16:06.173000,-5.987951807228916,1.036144578313253,7.55421686746988,1.2728387492335989,-6.023911710606989,8.174126302881668,3.0,0.7217227217227218,1385.5736696401107,0.21455626129013475,-0.3958976749606669,-0.8633529514597047,1358.974358974359,-1.0,66.38125464244716,0.7260698227352592,
2023-08-16 13:16:06.180000,-6.0120481927710845,1.0120481927710845,7.566265060240965,1.2654812998160636,-5.999386879215205,8.220723482526058,3.0,0.7217227217227218,1385.5736696401107,0.36909271021502243,-0.548336344035896,-0.8020511625196659,1358.2417582417581,-1.0,66.38125464244716,0.7260268282116935,
2023-08-16 13:16:06.188000,-5.987951807228916,1.0120481927710845,7.566265060240965,1.2385039852851012,-6.021459227467811,8.210913549969343,3.0,0.7217227217227218,1385.5736696401107,0.7251325680321669,-0.5799195851057635,-1.2468970339723786,1356.0439560439559,-1.0,-1.0,0.7259839137274458,
2023-08-16 13:16:06.196000,-6.0120481927710845,0.9879518072289157,7.518072289156627,1.2507664009809931,-6.004291845493562,8.174126302881668,3.0,0.7217227217227218,1385.5736696401107,0.753452596002564,-0.702756249635803,-1.2459646873725312,1352.3809523809523,-1.0,-1.0,0.7259410747741951,
2023-08-16 13:16:06.203000,-5.987951807228916,1.0,7.542168674698796,1.1919068056407112,-5.982219497240957,8.206008583690986,3.0,0.7217227217227218,1385.5736696401107,0.5408775712371069,-0.685624380863587,-1.0466756016549157,1350.18315018315,-1.0,-1.0,0.7258983068264444,
2023-08-16 13:16:06.211000,-5.975903614457832,1.0,7.578313253012048,1.2728387492335989,-6.004291845493562,8.225628448804414,3.0,0.7217227217227218,1385.5736696401107,0.5303886719888126,-0.48493677524619777,-0.9546063749198765,1347.2527472527472,-1.0,-1.0,0.7258556053587276,
2023-08-16 13:16:06.219000,-5.975903614457832,0.9879518072289157,7.578313253012048,1.2409564684242795,-5.955242182709994,8.16922133660331,3.0,0.7217227217227218,1385.5736696401107,0.9134665812015614,-0.6506613833692684,-1.0760445195501422,1345.054945054945,-1.0,-1.0,0.7258129658629487,
2023-08-16 13:16:06.226000,-5.963855421686747,0.9879518072289157,7.542168674698796,1.2458614347026364,-5.940527283874923,8.213366033108523,3.0,0.7212787212787212,1386.426592797784,0.9765165200163154,-0.41839053668201176,-1.0580968475030592,1344.3223443223442,-1.0,-1.0,0.7257703840045985,
2023-08-16 13:16:06.234000,-5.951807228915663,1.0,7.530120481927711,1.25567136725935,-5.952789699570815,8.210913549969343,3.0,0.7212787212787212,1386.426592797784,0.7906299166715219,-0.28017015325447236,-1.0407318920808815,1342.1245421245421,-1.0,-1.0,0.7257278554706802,
2023-08-16 13:16:06.242000,-5.975903614457832,0.9879518072289157,7.542168674698796,1.2335990190067443,-6.00674432863274,8.147148988350704,3.0,0.7212787212787212,1386.426592797784,0.7923780665462398,-0.27842200337975637,-1.0416642386807293,1342.8571428571427,-1.0,-1.0,0.7256853758175547,
2023-08-16 13:16:06.249000,-5.963855421686747,0.9759036144578314,7.55421686746988,1.260576333537707,-6.00674432863274,8.225628448804414,3.0,0.7212787212787212,1386.426592797784,0.8224462443913528,0.08519317056115634,-1.0110133442107105,1345.7875457875457,-1.0,-1.0,0.7256429406269409,
2023-08-16 13:16:06.257000,-6.0,1.0240963855421688,7.566265060240965,1.285101164929491,-5.972409564684242,8.125076640098099,3.0,0.7212787212787212,1386.426592797784,0.8680146844589467,0.0071091428238449095,-1.057164500903211,1349.4505494505493,-1.0,-1.0,0.7256005455228822,
2023-08-16 13:16:06.265000,-6.0,0.9879518072289157,7.55421686746988,1.2188841201716738,-6.028816676885346,8.188841201716738,3.0,0.7212787212787212,1386.426592797784,1.0047200046617333,-0.11980653808053246,-0.8903910028553108,1352.3809523809523,-1.0,-1.0,0.7255581861884369,
2023-08-16 13:16:06.272000,-6.024096385542169,0.9879518072289157,7.530120481927711,1.2188841201716738,-6.03862660944206,8.215818516247701,3.0,0.7208347208347209,1387.2805666769325,0.8813006235067881,0.229706893537673,-1.1801177087582306,1352.3809523809523,-1.0,-1.0,0.7255158583820845,
2023-08-16 13:16:06.280000,-6.0120481927710845,1.0,7.542168674698796,1.2066217044757817,-6.05334150827713,8.240343347639485,3.0,0.7208347208347209,1387.2805666769325,0.8951692791795354,-0.17038634112231268,-1.1786026455334768,1353.113553113553,-1.0,-1.0,0.7254735580820612,
2023-08-16 13:16:06.288000,-6.0120481927710845,0.9759036144578314,7.55421686746988,1.2041692213366033,-5.99202942979767,8.255058246474555,3.0,0.7208347208347209,1387.2805666769325,0.48493677524619777,-0.4020744711846634,-1.222539479051337,1353.113553113553,-1.0,-1.0,0.7254312813008196,
2023-08-16 13:16:06.295000,-6.024096385542169,0.963855421686747,7.55421686746988,1.231146535867566,-6.001839362354383,8.203556100551808,3.0,0.7212787212787212,1386.426592797784,0.8374803333139085,-0.1903152496940739,-1.129887535691393,1353.8461538461538,-1.0,-1.0,0.7253890239620568,
2023-08-16 13:16:06.303000,-6.024096385542169,0.9759036144578314,7.542168674698796,1.2703862660944205,-6.026364193746168,8.213366033108523,3.0,0.7212787212787212,1386.426592797784,0.5922731775537564,-0.7251325680321669,-1.3740458015267174,1354.5787545787546,-1.0,-1.0,0.7253467822136285,
2023-08-16 13:16:06.311000,-6.024096385542169,0.9518072289156627,7.55421686746988,1.2434089515634579,-6.05334150827713,8.228080931943593,3.0,0.7212787212787212,1386.426592797784,0.7929607831711439,-1.0699842666511268,-1.171959676009557,1354.5787545787546,-1.0,-1.0,0.7253045524631051,
2023-08-16 13:16:06.318000,-5.975903614457832,0.9518072289156627,7.530120481927711,1.1575720416922133,-5.999386879215205,8.17167381974249,3.0,0.7212787212787212,1386.426592797784,0.7616106287512382,-1.061126973952566,-1.6867315424509057,1355.3113553113553,-1.0,-1.0,0.7252623312537646,
2023-08-16 13:16:06.326000,-6.0,0.963855421686747,7.530120481927711,1.1771919068056407,-6.021459227467811,8.181483752299203,3.0,0.7212787212787212,1386.426592797784,0.7635918652759158,-0.8847969232562218,-1.3141425324864515,1356.0439560439559,-1.0,-1.0,0.725220115278907,
2023-08-16 13:16:06.333000,-6.0,0.963855421686747,7.542168674698796,1.2360515021459226,-5.99202942979767,8.250153280196198,3.0,0.7212787212787212,1386.426592797784,0.8702290076335878,-1.2290659052502757,-1.7233261464949594,1353.113553113553,-1.0,-1.0,0.7251779015345128,
2023-08-16 13:16:06.341000,-5.987951807228916,0.963855421686747,7.506024096385542,1.2458614347026364,-5.962599632127529,8.21827099938688,3.0,0.7208347208347209,1387.2805666769325,1.1754559757589886,-1.051686964629099,-1.4108734922207335,1350.18315018315,-1.0,-1.0,0.7251356873123843,
2023-08-16 13:16:06.349000,-5.975903614457832,0.9518072289156627,7.542168674698796,1.1698344573881054,-5.969957081545064,8.17167381974249,3.0,0.7212787212787212,1386.426592797784,1.3572635627294458,-1.2875706543907701,-1.4390769768661502,1349.4505494505493,-1.0,-1.0,0.7250934699159993,
2023-08-16 13:16:06.356000,-6.0,0.9518072289156627,7.530120481927711,1.231146535867566,-6.001839362354383,8.215818516247701,3.0,0.7208347208347209,1387.2805666769325,0.9880543091894408,-1.1211467863178128,-1.5091195151797676,1348.7179487179487,-1.0,-1.0,0.7250512468018249,
2023-08-16 13:16:06.364000,-5.987951807228916,0.9518072289156627,7.530120481927711,1.1698344573881054,-5.982219497240957,8.188841201716738,3.0,0.7208347208347209,1387.2805666769325,1.1073946739700482,-1.0471417749548377,-1.3085484528873603,1347.985347985348,-1.0,-1.0,0.7250090156023126,
2023-08-16 13:16:06.372000,-5.975903614457832,0.9759036144578314,7.55421686746988,1.2066217044757817,-6.033721643163703,8.228080931943593,3.0,0.7208347208347209,1387.2805666769325,1.1804673387331732,-0.6674436221665401,-1.3538838063049945,1345.7875457875457,-1.0,-1.0,0.7249667739779235,
2023-08-16 13:16:06.379000,-5.975903614457832,0.9759036144578314,7.55421686746988,1.2115266707541386,-5.965052115266707,8.183936235438381,3.0,0.7208347208347209,1387.2805666769325,1.208204650078666,-1.1012178777460517,-1.4678631781364722,1343.5897435897434,-1.0,-1.0,0.7249245199051036,
2023-08-16 13:16:06.387000,-5.975903614457832,0.9759036144578314,7.542168674698796,1.231146535867566,-5.974862047823421,8.188841201716738,3.0,0.7208347208347209,1387.2805666769325,0.9293164733989864,-0.677000174814986,-1.291533127440126,1339.9267399267399,-1.0,-1.0,0.7248822515269714,
2023-08-16 13:16:06.395000,-5.963855421686747,0.9759036144578314,7.518072289156627,1.2777437155119558,-5.996934396076027,8.242795830778663,3.0,0.7203907203907204,1388.135593220339,1.0060019812365244,-0.6511275566691916,-1.0242992832585516,1338.4615384615383,-1.0,-1.0,0.7248399670349069,
2023-08-16 13:16:06.402000,-5.975903614457832,0.9759036144578314,7.542168674698796,1.2581238503985284,-6.00674432863274,8.228080931943593,3.0,0.7208347208347209,1387.2805666769325,0.8543791154361627,-0.4582483538255342,-1.2334945515995572,1340.6593406593406,-1.0,-1.0,0.7247976648157174,
2023-08-16 13:16:06.410000,-5.975903614457832,0.9397590361445783,7.55421686746988,1.2213366033108521,-5.972409564684242,8.213366033108523,3.0,0.7208347208347209,1387.2805666769325,0.7942427597459348,-0.4331915389546057,-1.2423518442981174,1342.1245421245421,-1.0,-1.0,0.7247553435665424,
2023-08-16 13:16:06.418000,-6.0,0.9518072289156627,7.55421686746988,1.2164316370324952,-6.011649294911098,8.250153280196198,3.0,0.7208347208347209,1387.2805666769325,0.9921333255637788,-0.3589534409416706,-1.4048132393217172,1345.7875457875457,-1.0,-1.0,0.7247130023131543,
2023-08-16 13:16:06.425000,-6.0120481927710845,0.963855421686747,7.518072289156627,1.2066217044757817,-6.016554261189454,8.228080931943593,3.0,0.7203907203907204,1388.135593220339,0.8984324922790057,-0.23937998951110154,-1.1995804440300688,1350.18315018315,-1.0,-1.0,0.7246706402790092,
2023-08-16 13:16:06.433000,-6.0120481927710845,0.9518072289156627,7.55421686746988,1.120784794604537,-6.001839362354383,8.179031269160024,3.0,0.7203907203907204,1388.135593220339,0.5782879785560283,0.01853038867198945,-1.271837305518327,1358.2417582417581,-1.0,-1.0,0.7246282568818861,
2023-08-16 13:16:06.441000,-5.987951807228916,0.9397590361445783,7.542168674698796,1.1919068056407112,-5.984671980380135,8.257510729613733,3.0,0.7203907203907204,1388.135593220339,0.7163918186585868,-0.12073888468037916,-1.085251442223647,1366.3003663003662,-1.0,-1.0,0.7245858516982362,
2023-08-16 13:16:06.448000,-6.0120481927710845,0.9156626506024097,7.578313253012048,1.184549356223176,-5.987124463519313,8.267320662170446,3.0,0.7208347208347209,1387.2805666769325,0.6705902919410296,-0.31816327719829796,-1.4308024007924938,1370.6959706959706,-1.0,-1.0,0.7245434244583274,
2023-08-16 13:16:06.456000,-5.987951807228916,0.9397590361445783,7.55421686746988,1.1722869405272838,-5.999386879215205,8.220723482526058,3.0,0.7208347208347209,1387.2805666769325,0.44601130470252376,-0.24007924946098655,-1.0846687255987408,1375.8241758241757,-1.0,-1.0,0.7245009752003622,
2023-08-16 13:16:06.464000,-6.0,0.9156626506024097,7.578313253012048,1.20907418761496,-5.982219497240957,8.220723482526058,3.0,0.7203907203907204,1388.135593220339,0.8457549093875635,-0.5461220208612549,-0.8026338791445726,1379.4871794871794,-1.0,-1.0,0.7244585041576141,
2023-08-16 13:16:06.471000,-5.975903614457832,0.9397590361445783,7.506024096385542,1.1722869405272838,-5.99202942979767,8.179031269160024,3.0,0.7203907203907204,1388.135593220339,0.7851523803974122,-0.2829671930540177,-0.6935493269622975,1383.150183150183,-1.0,-1.0,0.7244160116344638,
2023-08-16 13:16:06.479000,-5.987951807228916,0.9277108433734941,7.55421686746988,1.1526670754138564,-6.00674432863274,8.174126302881668,3.0,0.7203907203907204,1388.135593220339,1.0465590583299353,-0.10011071615873118,-0.5963521939280938,1387.5457875457876,-1.0,-1.0,0.7243734981165857,
2023-08-16 13:16:06.487000,-5.975903614457832,0.9277108433734941,7.530120481927711,1.1624770079705702,-6.065603923973022,8.206008583690986,3.0,0.7203907203907204,1388.135593220339,0.9956296253132108,0.14486335295145916,-0.7098653924596476,1391.9413919413919,-1.0,-1.0,0.7243309642629131,
2023-08-16 13:16:06.494000,-6.0120481927710845,0.9397590361445783,7.55421686746988,1.2385039852851012,-5.984671980380135,8.245248313917841,3.0,0.7203907203907204,1388.135593220339,0.8995979255288158,-0.052211409591515406,-0.624905308548454,1392.6739926739926,-1.0,-1.0,0.7242884109075843,
2023-08-16 13:16:06.502000,-5.987951807228916,0.9397590361445783,7.55421686746988,1.1673819742489269,-5.982219497240957,8.174126302881668,3.0,0.7203907203907204,1388.135593220339,0.8485519491871087,-0.3227084668725593,-0.6188450556494366,1391.9413919413919,-1.0,-1.0,0.7242458390613771,
2023-08-16 13:16:06.510000,-6.0120481927710845,0.9518072289156627,7.55421686746988,1.2335990190067443,-5.977314530962599,8.18638871857756,3.0,0.7203907203907204,1388.135593220339,0.5836489715051589,-0.44169920167822413,-0.4287628926053266,1390.4761904761904,-1.0,-1.0,0.7242032499127007,
2023-08-16 13:16:06.517000,-6.0120481927710845,0.963855421686747,7.542168674698796,1.2237890864500305,-5.984671980380135,8.181483752299203,3.0,0.7203907203907204,1388.135593220339,0.5788706951809343,-0.4236349863061598,-0.42561622283083855,1387.5457875457876,-1.0,-1.0,0.7241606448282185,
2023-08-16 13:16:06.525000,-5.987951807228916,0.9759036144578314,7.506024096385542,1.2213366033108521,-5.957694665849172,8.21827099938688,3.0,0.7203907203907204,1388.135593220339,0.6498455800944007,-0.31490006409882937,-0.7276965211817481,1383.8827838827838,-1.0,-1.0,0.7241180253531535,
2023-08-16 13:16:06.533000,-5.987951807228916,0.9879518072289157,7.530120481927711,1.25567136725935,-5.967504598405886,8.21827099938688,3.0,0.7199467199467199,1388.9916743755782,0.8088106753685689,-0.33086649962123343,-0.6301497581726012,1383.150183150183,-1.0,-1.0,0.7240753932113546,
2023-08-16 13:16:06.540000,-5.975903614457832,1.0,7.566265060240965,1.2949110974862048,-6.021459227467811,8.267320662170446,3.0,0.7203907203907204,1388.135593220339,0.7707010080997607,-0.3150166074238102,-0.39484878503583654,1382.4175824175823,-1.0,-1.0,0.7240327501558885,
2023-08-16 13:16:06.548000,-5.987951807228916,0.9879518072289157,7.55421686746988,1.1600245248313916,-5.99202942979767,8.264868179031268,3.0,0.7203907203907204,1388.135593220339,0.6844589476137751,-0.29905017190140437,-0.41745819008216245,1383.150183150183,-1.0,-1.0,0.7239900980962218,
2023-08-16 13:16:06.556000,-5.987951807228916,0.963855421686747,7.566265060240965,1.2385039852851012,-5.984671980380135,8.215818516247701,3.0,0.7199467199467199,1388.9916743755782,0.6598683060427718,-0.0079249460987125,-0.6721053551657822,1380.952380952381,-1.0,-1.0,0.7239474393956207,
2023-08-16 13:16:06.563000,-6.0120481927710845,1.0,7.542168674698796,1.2066217044757817,-5.987124463519313,8.223175965665236,3.0,0.7199467199467199,1388.9916743755782,0.741099003554571,-0.2720121205057982,-0.6640638657420903,1378.7545787545787,-1.0,-1.0,0.7239047765622475,
2023-08-16 13:16:06.571000,-5.987951807228916,0.9759036144578314,7.55421686746988,1.1722869405272838,-6.028816676885346,8.235438381361128,3.0,0.7199467199467199,1388.9916743755782,0.8350329234893057,-0.1364722335528233,-1.0091486510110126,1373.6263736263736,-1.0,-1.0,0.7238621120788781,
2023-08-16 13:16:06.579000,-5.987951807228916,0.963855421686747,7.566265060240965,1.2164316370324952,-5.938074800735745,8.230533415082771,3.0,0.7195027195027196,1389.8488120950324,1.0190548336344023,-0.18623623331973596,-0.8645183847095164,1367.032967032967,-1.0,-1.0,0.7238194485407635,
2023-08-16 13:16:06.586000,-5.987951807228916,0.9397590361445783,7.55421686746988,1.2115266707541386,-5.974862047823421,8.18638871857756,3.0,0.7195027195027196,1389.8488120950324,0.685624380863587,-0.37760037293863913,-0.5953033040032628,1362.6373626373625,-1.0,-1.0,0.7237767887827258,
2023-08-16 13:16:06.594000,-5.975903614457832,0.9759036144578314,7.506024096385542,1.1919068056407112,-5.967504598405886,8.161863887185776,3.0,0.7195027195027196,1389.8488120950324,0.9499446419206343,-0.15733348872443298,-1.1514480508128884,1358.974358974359,-1.0,-1.0,0.7237341356764988,
2023-08-16 13:16:06.602000,-5.963855421686747,1.0240963855421688,7.530120481927711,1.2777437155119558,-5.93071735131821,8.213366033108523,3.0,0.7195027195027196,1389.8488120950324,1.213565643027795,-0.20092069226735085,-1.0765106928500667,1355.3113553113553,-1.0,-1.0,0.7236914919907915,
2023-08-16 13:16:06.609000,-5.963855421686747,1.0120481927710845,7.518072289156627,1.2679337829552422,-5.996934396076027,8.20110361741263,3.0,0.7195027195027196,1389.8488120950324,0.7276965211817488,0.10663714235767191,-1.2017947672047071,1352.3809523809523,-1.0,-1.0,0.7236488605381615,
2023-08-16 13:16:06.617000,-5.963855421686747,1.0,7.578313253012048,1.3047210300429184,-5.955242182709994,8.203556100551808,3.0,0.7195027195027196,1389.8488120950324,0.67501893829031,0.05372647281626975,-0.8204650078666755,1351.6483516483515,-1.0,-1.0,0.7236062441722098,
2023-08-16 13:16:06.625000,-5.987951807228916,0.9759036144578314,7.578313253012048,1.2385039852851012,-6.011649294911098,8.252605763335376,3.0,0.7195027195027196,1389.8488120950324,1.1079773905949541,0.061884505564943924,-0.8093933919934725,1353.8461538461538,-1.0,-1.0,0.7235636457844564,
2023-08-16 13:16:06.632000,-6.0120481927710845,0.9518072289156627,7.566265060240965,1.2066217044757817,-6.03862660944206,8.269773145309626,3.0,0.7195027195027196,1389.8488120950324,0.9126507779266938,-0.13344210710331636,-0.9970281452129837,1357.5091575091574,-1.0,-1.0,0.7235210683009603,
2023-08-16 13:16:06.640000,-6.0361445783132535,0.9397590361445783,7.55421686746988,1.2066217044757817,-6.03862660944206,8.181483752299203,3.0,0.7195027195027196,1389.8488120950324,0.32130994697278575,0.3147835207738485,-1.0576306742031356,1362.6373626373625,-1.0,-1.0,0.7234785146787494,
2023-08-16 13:16:06.648000,-6.0,0.9277108433734941,7.55421686746988,1.150214592274678,-5.996934396076027,8.16922133660331,3.0,0.7195027195027196,1389.8488120950324,0.5863294679797216,-0.20208612551716096,-1.3006235067886491,1362.6373626373625,-1.0,-1.0,0.7234359879021328,
2023-08-16 13:16:06.655000,-6.0361445783132535,0.9277108433734941,7.542168674698796,1.1624770079705702,-5.982219497240957,8.18638871857756,3.0,0.7195027195027196,1389.8488120950324,0.5485694306858595,-0.3749198764640747,-1.374861604801585,1360.4395604395604,-1.0,-1.0,0.7233934909789648,
2023-08-16 13:16:06.663000,-6.0,0.9277108433734941,7.530120481927711,1.179644389944819,-5.996934396076027,8.220723482526058,3.0,0.7195027195027196,1389.8488120950324,0.9210418973253314,-0.1523221257502483,-1.1272070392168279,1356.7765567765566,-1.0,-1.0,0.7233510270756699,
2023-08-16 13:16:06.671000,-5.963855421686747,0.9397590361445783,7.542168674698796,1.1747394236664623,-6.05334150827713,8.13733905579399,3.0,0.7195027195027196,1389.8488120950324,1.0621758638773968,-0.2348347998368385,-0.9733698502418272,1353.8461538461538,-1.0,-1.0,0.7233085993544774,
2023-08-16 13:16:06.678000,-5.963855421686747,0.9277108433734941,7.518072289156627,1.1771919068056407,-5.999386879215205,8.225628448804414,3.0,0.7190587190587191,1390.707008335906,0.8363149000640984,-0.30033214847619527,-0.7733815045743261,1353.113553113553,-1.0,-1.0,0.7232662109810721,
2023-08-16 13:16:06.686000,-5.987951807228916,0.9518072289156627,7.530120481927711,1.2066217044757817,-5.938074800735745,8.193746167995094,3.0,0.7190587190587191,1390.707008335906,0.4761960258726177,-0.06235067886486727,-0.36046850416642273,1355.3113553113553,-1.0,-1.0,0.72322386510074,
2023-08-16 13:16:06.694000,-5.987951807228916,0.9518072289156627,7.566265060240965,1.2237890864500305,-6.023911710606989,8.208461066830164,3.0,0.7190587190587191,1390.707008335906,0.6510110133442091,0.1881009265194328,-0.5330691684633757,1360.4395604395604,-1.0,-1.0,0.7231815646653056,
2023-08-16 13:16:06.701000,-6.0361445783132535,0.963855421686747,7.530120481927711,1.2335990190067443,-6.05334150827713,8.245248313917841,3.0,0.7190587190587191,1390.707008335906,0.0916030534351145,-0.25045160538430183,-0.4294621525552116,1367.032967032967,-1.0,-1.0,0.7231393125684377,
2023-08-16 13:16:06.709000,-6.0361445783132535,0.963855421686747,7.530120481927711,1.1673819742489269,-6.0778663396689145,8.134886572654812,3.0,0.7190587190587191,1390.707008335906,0.17574733407144158,-0.5928558941786607,-0.8320027970398003,1373.6263736263736,-1.0,-1.0,0.723097111642218,
2023-08-16 13:16:06.716000,-6.0120481927710845,0.9518072289156627,7.566265060240965,1.1894543225015328,-6.016554261189454,8.223175965665236,3.0,0.7190587190587191,1390.707008335906,0.350562321543033,-0.824777110890973,-0.7121962589592681,1378.021978021978,-1.0,-1.0,0.7230549646537887,
2023-08-16 13:16:06.724000,-6.0,0.9518072289156627,7.530120481927711,1.1600245248313916,-6.016554261189454,8.198651134273451,3.0,0.7190587190587191,1390.707008335906,0.41536041023250303,-0.9136996678515248,-0.8674319678340433,1381.6849816849815,-1.0,-1.0,0.7230128743021382,
2023-08-16 13:16:06.732000,-5.975903614457832,0.9518072289156627,7.530120481927711,1.1771919068056407,-5.969957081545064,8.203556100551808,3.0,0.7186147186147186,1391.566265060241,0.34380280869413404,-0.9998251850125278,-0.8058970922440422,1383.8827838827838,-1.0,-1.0,0.7229708432150993,
2023-08-16 13:16:06.739000,-5.975903614457832,0.9518072289156627,7.530120481927711,1.20907418761496,-5.962599632127529,8.18638871857756,3.0,0.7186147186147186,1391.566265060241,0.36629567041547545,-0.6835266010139267,-0.7001922964862182,1386.8131868131868,-1.0,-1.0,0.7229288740748204,
2023-08-16 13:16:06.747000,-5.963855421686747,0.9397590361445783,7.530120481927711,1.1820968730839976,-6.021459227467811,8.17167381974249,3.0,0.7186147186147186,1391.566265060241,0.3688596235650608,-0.44286463492803424,-0.4447293281277307,1391.9413919413919,-1.0,-1.0,0.7228869694139822,
2023-08-16 13:16:06.755000,-5.975903614457832,0.963855421686747,7.530120481927711,1.184549356223176,-5.967504598405886,8.210913549969343,3.0,0.7186147186147186,1391.566265060241,0.12738185420429898,-0.28086941320435915,-0.13181050055358184,1398.5347985347985,-1.0,-1.0,0.7228451314752503,
2023-08-16 13:16:06.762000,-5.987951807228916,0.9518072289156627,7.542168674698796,1.1894543225015328,-5.982219497240957,8.159411404046597,3.0,0.7190587190587191,1390.707008335906,0.298234368626535,-0.16549152147310714,-0.37188975001456814,1404.3956043956043,-1.0,-1.0,0.7228033624968003,
2023-08-16 13:16:06.770000,-5.987951807228916,0.9397590361445783,7.542168674698796,1.25567136725935,-6.050889025137952,8.230533415082771,3.0,0.7186147186147186,1391.566265060241,0.5152380397412726,-0.23471825651185765,-0.6700075753161225,1410.989010989011,-1.0,-1.0,0.7227616648388503,
2023-08-16 13:16:06.778000,-5.987951807228916,0.9397590361445783,7.506024096385542,1.1820968730839976,-5.965052115266707,8.208461066830164,3.0,0.7186147186147186,1391.566265060241,0.5183847095157638,-0.05768894586562513,-0.627352718373056,1417.5824175824175,-1.0,-1.0,0.7227200405673201,
2023-08-16 13:16:06.785000,-6.0120481927710845,0.9518072289156627,7.542168674698796,1.184549356223176,-5.982219497240957,8.250153280196198,3.0,0.7186147186147186,1391.566265060241,0.4291125225802695,-0.2498688887593959,-0.41477769360759975,1422.7106227106226,-1.0,-1.0,0.7226784913144723,
2023-08-16 13:16:06.793000,-6.0120481927710845,0.9397590361445783,7.566265060240965,1.2066217044757817,-5.974862047823421,8.20110361741263,3.0,0.7186147186147186,1391.566265060241,0.41675893013227655,-0.24042887943593078,-0.40090903793485133,1427.8388278388277,-1.0,-1.0,0.7226370185651755,
2023-08-16 13:16:06.801000,-5.975903614457832,0.9397590361445783,7.566265060240965,1.2286940527283874,-5.982219497240957,8.237890864500306,3.0,0.7181707181707182,1392.4265842349305,0.41827399335702914,-0.21642095448983162,-0.5552124002097771,1432.2344322344322,-1.0,-1.0,0.7225956237942791,
2023-08-16 13:16:06.808000,-5.975903614457832,0.9397590361445783,7.566265060240965,1.2115266707541386,-5.977314530962599,8.24770079705702,3.0,0.7186147186147186,1391.566265060241,0.9833925761902004,-0.36023541751646154,-0.3105879610745293,1435.8974358974358,-1.0,-1.0,0.7225543082960347,
2023-08-16 13:16:06.816000,-5.987951807228916,0.963855421686747,7.542168674698796,1.1673819742489269,-5.967504598405886,8.242795830778663,3.0,0.7181707181707182,1392.4265842349305,0.3534759046675591,-0.33785909912009754,-0.17633005069634686,1438.095238095238,-1.0,-1.0,0.722513073163155,
2023-08-16 13:16:06.824000,-5.987951807228916,0.963855421686747,7.542168674698796,1.2483139178418148,-5.962599632127529,8.225628448804414,3.0,0.7181707181707182,1392.4265842349305,0.8133558650428302,-0.10115960608356218,-0.28692966610337434,1440.2930402930401,-1.0,-1.0,0.72247191929779,
2023-08-16 13:16:06.831000,-6.0,0.9879518072289157,7.542168674698796,1.1894543225015328,-6.065603923973022,8.225628448804414,3.0,0.7181707181707182,1392.4265842349305,0.7339898607307261,-0.051861779616572894,-0.1378707534525966,1441.0256410256409,-1.0,-1.0,0.7224308472525255,
2023-08-16 13:16:06.839000,-6.024096385542169,0.9879518072289157,7.55421686746988,1.1943592887798895,-6.031269160024524,8.196198651134273,3.0,0.7181707181707182,1392.4265842349305,0.4436804382029036,-0.3074412913000402,0.02412446827108066,1439.5604395604394,-1.0,-1.0,0.7223898573695974,
2023-08-16 13:16:06.847000,-6.0120481927710845,1.0,7.55421686746988,1.2286940527283874,-5.987124463519313,8.188841201716738,3.0,0.7181707181707182,1392.4265842349305,0.45987996037526935,-0.3182798205232788,-0.25394790513373405,1441.0256410256409,-1.0,-1.0,0.722348949781772,
2023-08-16 13:16:06.854000,-5.987951807228916,0.9879518072289157,7.518072289156627,1.2385039852851012,-5.99202942979767,8.188841201716738,3.0,0.7181707181707182,1392.4265842349305,0.3847095157624858,-0.29625313210185905,-0.17702931064623295,1441.0256410256409,-1.0,-1.0,0.7223081244137038,
2023-08-16 13:16:06.862000,-5.975903614457832,0.9879518072289157,7.542168674698796,1.2286940527283874,-6.023911710606989,8.20110361741263,3.0,0.7181707181707182,1392.4265842349305,0.4337742555795134,-0.503117533943243,-0.4672221898490764,1438.095238095238,-1.0,-1.0,0.7222673809838426,
2023-08-16 13:16:06.870000,-6.0,0.9879518072289157,7.518072289156627,1.20907418761496,-5.979767014101777,8.193746167995094,3.0,0.7181707181707182,1392.4265842349305,0.2988170852514427,-0.3891381621117645,-0.20837946506613828,1432.9670329670328,-1.0,-1.0,0.7222267190069491,
2023-08-16 13:16:06.877000,-5.987951807228916,0.9879518072289157,7.55421686746988,1.2041692213366033,-6.001839362354383,8.161863887185776,3.0,0.7181707181707182,1392.4265842349305,0.32037760037293905,-0.1848377134199642,-0.43808635860381084,1428.5714285714284,-1.0,-1.0,0.7221861379360357,
2023-08-16 13:16:06.885000,-5.987951807228916,0.9759036144578314,7.55421686746988,1.1992642550582464,-6.048436541998774,8.215818516247701,3.0,0.7177267177267178,1393.2879678317352,0.40242410115960764,-0.5517161004603456,-0.28576423285356295,1423.4432234432234,-1.0,-1.0,0.7221456371459118,
2023-08-16 13:16:06.893000,-5.987951807228916,0.9879518072289157,7.518072289156627,1.2360515021459226,-5.940527283874923,8.15205395462906,3.0,0.7177267177267178,1393.2879678317352,0.5133733465415774,-0.306858574675136,-0.6229240720237749,1416.8498168498168,-1.0,-1.0,0.7221052157793674,
2023-08-16 13:16:06.900000,-6.0120481927710845,1.0,7.55421686746988,1.1820968730839976,-6.055793991416309,8.149601471489882,3.0,0.7177267177267178,1393.2879678317352,0.47328244274809156,-0.3207272303478816,-0.2857642328535634,1413.1868131868132,-1.0,-1.0,0.7220648725728284,
2023-08-16 13:16:06.908000,-6.0120481927710845,0.9879518072289157,7.518072289156627,1.2335990190067443,-6.021459227467811,8.144696505211526,3.0,0.7177267177267178,1393.2879678317352,0.60264553347707,-0.19777402249286133,-0.6670939921915975,1410.989010989011,-1.0,-1.0,0.7220246058731717,
2023-08-16 13:16:06.916000,-6.0,1.0240963855421688,7.518072289156627,1.2826486817903127,-6.014101778050276,8.179031269160024,3.0,0.7181707181707182,1392.4265842349305,0.5623215430336225,-0.7457607365538131,-0.6348114911718429,1410.989010989011,-1.0,-1.0,0.7219844137930526,
2023-08-16 13:16:06.923000,-6.024096385542169,1.0240963855421688,7.542168674698796,1.2335990190067443,-5.969957081545064,8.208461066830164,3.0,0.7177267177267178,1393.2879678317352,0.902394965328361,-0.5073130936425618,-0.8309539071149697,1410.989010989011,-1.0,-1.0,0.7219442943668398,
2023-08-16 13:16:06.931000,-5.987951807228916,1.0120481927710845,7.55421686746988,1.2654812998160636,-5.984671980380135,8.252605763335376,3.0,0.7177267177267178,1393.2879678317352,0.5976341705028854,-0.5916904609288506,-0.8591573917603872,1409.5238095238094,-1.0,-1.0,0.7219042454305101,
2023-08-16 13:16:06.939000,-6.0,0.9879518072289157,7.566265060240965,1.290006131207848,-5.989576946658492,8.164316370324954,3.0,0.7177267177267178,1393.2879678317352,0.46547403997435993,-0.57852106520599,-0.7945923897208791,1408.058608058608,-1.0,-1.0,0.7218642644707288,
2023-08-16 13:16:06.946000,-6.0,1.0,7.55421686746988,1.2654812998160636,-6.00674432863274,8.188841201716738,3.0,0.7177267177267178,1393.2879678317352,0.2714294038808923,-1.101101334421071,-1.128139385816678,1405.128205128205,-1.0,-1.0,0.7218243487725634,
2023-08-16 13:16:06.954000,-5.975903614457832,1.0,7.55421686746988,1.280196198651134,-5.987124463519313,8.230533415082771,3.0,0.7177267177267178,1393.2879678317352,0.49076394149525177,-0.74762542975351,-1.1545947205873786,1401.4652014652013,-1.0,-1.0,0.7217844954292477,
2023-08-16 13:16:06.962000,-5.975903614457832,1.0,7.566265060240965,1.2679337829552422,-5.987124463519313,8.223175965665236,3.0,0.7177267177267178,1393.2879678317352,0.5696637725074291,-0.6872559874133204,-0.9980770351378122,1396.3369963369962,-1.0,-1.0,0.7217447013527799,
2023-08-16 13:16:06.969000,-5.987951807228916,0.9759036144578314,7.542168674698796,1.2115266707541386,-5.974862047823421,8.203556100551808,3.0,0.7177267177267178,1393.2879678317352,0.4626770001748146,-0.9009964454285876,-1.4080764524211877,1392.6739926739926,-1.0,-1.0,0.7217049632853865,
2023-08-16 13:16:06.977000,-5.987951807228916,1.0,7.566265060240965,1.2115266707541386,-6.009196811771918,8.306560392397301,3.0,0.7177267177267178,1393.2879678317352,0.7533360526775832,-0.9450498222714289,-1.0972554046966958,1388.278388278388,-1.0,-1.0,0.7216652778118872,
2023-08-16 13:16:06.985000,-5.951807228915663,0.9759036144578314,7.590361445783133,1.2360515021459226,-5.99202942979767,8.23298589822195,3.0,0.7172827172827172,1394.150417827298,0.46186119689994876,-0.6991434065613883,-1.110657887069518,1383.150183150183,-1.0,-1.0,0.7216256415117305,
2023-08-16 13:16:06.992000,-5.963855421686747,1.0120481927710845,7.55421686746988,1.196811771919068,-5.935622317596566,8.228080931943593,3.0,0.7177267177267178,1393.2879678317352,0.7379523337800832,-0.9008799021036068,-0.8172017947672048,1380.2197802197802,-1.0,-1.0,0.7215860508035471,
2023-08-16 13:16:07,-5.951807228915663,0.9879518072289157,7.566265060240965,1.2458614347026364,-5.962599632127529,8.21827099938688,3.0,0.7172827172827172,1394.150417827298,0.6307324747975054,-0.4134957170328062,-1.3045859798380048,1377.2893772893772,-1.0,-1.0,0.7215465019397512,
2023-08-16 13:16:07.008000,-5.951807228915663,1.0,7.578313253012048,1.2237890864500305,-5.920907418761495,8.198651134273451,3.0,0.7172827172827172,1394.150417827298,0.7402832002797034,-0.37387098653924544,-1.5302138570013404,1375.8241758241757,-1.0,-1.0,0.7215069910334244,
2023-08-16 13:16:07.015000,-5.927710843373494,1.0,7.55421686746988,1.2581238503985284,-5.940527283874923,8.237890864500306,3.0,0.7172827172827172,1394.150417827298,0.5134898898665583,-0.518967426140668,-1.1415418681894993,1378.021978021978,-1.0,-1.0,0.7214675139155045,
2023-08-16 13:16:07.023000,-5.951807228915663,0.9879518072289157,7.566265060240965,1.2385039852851012,-6.021459227467811,8.24770079705702,3.0,0.7172827172827172,1394.150417827298,0.6837596876638884,0.06841093176388291,-0.9860730726647626,1380.952380952381,-1.0,-1.0,0.7214280662904236,
2023-08-16 13:16:07.031000,-5.9397590361445785,0.9879518072289157,7.542168674698796,1.2728387492335989,-5.957694665849172,8.240343347639485,3.0,0.7172827172827172,1394.150417827298,0.9907348056640053,0.011887419148067882,-1.2768486684925116,1383.8827838827838,-1.0,-1.0,0.7213886437535673,
2023-08-16 13:16:07.038000,-5.951807228915663,1.0,7.590361445783133,1.2703862660944205,-5.911097486204782,8.257510729613733,3.0,0.7168387168387169,1395.013936203159,0.48586912184604625,0.3978789114853446,-1.3204358720354294,1389.7435897435896,-1.0,-1.0,0.7213492418092974,
2023-08-16 13:16:07.046000,-5.9397590361445785,0.9759036144578314,7.578313253012048,1.1722869405272838,-5.977314530962599,8.208461066830164,3.0,0.7168387168387169,1395.013936203159,0.6577705261931115,0.5493852339607254,-0.9805955363906533,1397.8021978021977,-1.0,-1.0,0.7213098560177383,
2023-08-16 13:16:07.054000,-5.951807228915663,0.963855421686747,7.578313253012048,1.1747394236664623,-5.969957081545064,8.181483752299203,3.0,0.7172827172827172,1394.150417827298,0.5236291591399101,0.8198822912417693,-0.7200046617329988,1405.128205128205,-1.0,-1.0,0.7212704818125146,
2023-08-16 13:16:07.061000,-5.951807228915663,0.963855421686747,7.566265060240965,1.2164316370324952,-6.016554261189454,8.17167381974249,3.0,0.7172827172827172,1394.150417827298,0.5418099178369553,0.9967950585630209,-0.7197715750830362,1410.2564102564102,-1.0,-1.0,0.7212311145311576,
2023-08-16 13:16:07.069000,-5.987951807228916,0.9759036144578314,7.566265060240965,1.20907418761496,-6.043531575720417,8.223175965665236,3.0,0.7172827172827172,1394.150417827298,0.5341180583882063,0.9871219625895924,-0.7036885962356496,1414.6520146520145,-1.0,-1.0,0.7211917494667213,
2023-08-16 13:16:07.077000,-6.0,0.9277108433734941,7.530120481927711,1.1992642550582464,-6.036174126302881,8.176578786020846,3.0,0.7172827172827172,1394.150417827298,0.5842316881300631,1.0863003321484768,-0.7207039216828864,1416.8498168498168,-1.0,-1.0,0.7211523819091633,
2023-08-16 13:16:07.084000,-6.0,0.9277108433734941,7.530120481927711,1.1649294911097485,-5.967504598405886,8.17167381974249,3.0,0.7168387168387169,1395.013936203159,0.6168638191247598,1.0611269739525675,-0.5845813181050052,1416.8498168498168,-1.0,-1.0,0.7211130072942419,
2023-08-16 13:16:07.092000,-6.0120481927710845,0.9036144578313253,7.518072289156627,1.1820968730839976,-5.994481912936848,8.198651134273451,3.0,0.7172827172827172,1394.150417827298,0.5610395664588316,1.205407610279121,-0.9829264028902753,1413.9194139194137,-1.0,-1.0,0.7210736209266796,
2023-08-16 13:16:07.099000,-6.024096385542169,0.9397590361445783,7.493975903614459,1.231146535867566,-5.962599632127529,8.125076640098099,3.0,0.7172827172827172,1394.150417827298,0.3675776469902681,1.152263854087757,-0.9055416351028498,1412.4542124542124,-1.0,-1.0,0.7210342181295725,
2023-08-16 13:16:07.107000,-6.024096385542169,0.9277108433734941,7.506024096385542,1.1526670754138564,-6.031269160024524,8.210913549969343,3.0,0.7168387168387169,1395.013936203159,0.49612493444437894,1.0677699434764873,-0.7977390594953673,1408.7912087912086,-1.0,-1.0,0.7209947944255327,
2023-08-16 13:16:07.115000,-6.024096385542169,0.9156626506024097,7.530120481927711,1.1894543225015328,-6.055793991416309,8.16922133660331,3.0,0.7168387168387169,1395.013936203159,0.683293514363965,0.846454169337452,-0.5543965969349108,1406.5934065934066,-1.0,-1.0,0.7209553452708519,
2023-08-16 13:16:07.122000,-6.0361445783132535,0.9397590361445783,7.530120481927711,1.2237890864500305,-6.050889025137952,8.142244022072347,3.0,0.7168387168387169,1395.013936203159,0.8408600897383597,0.400559407959909,-0.540994114562089,1405.8608058608058,-1.0,-1.0,0.7209158660559873,
2023-08-16 13:16:07.130000,-6.060240963855422,0.9397590361445783,7.518072289156627,1.1600245248313916,-6.122011036174126,8.166768853464133,3.0,0.7168387168387169,1395.013936203159,0.7090495891847802,0.4761960258726177,-0.6351611211467862,1406.5934065934066,-1.0,-1.0,0.7208763522651156,
2023-08-16 13:16:07.138000,-6.048192771084338,0.9397590361445783,7.506024096385542,1.1600245248313916,-6.090128755364806,8.179031269160024,3.0,0.7168387168387169,1395.013936203159,0.8072956121438145,-0.335761319270439,-0.8024007924946103,1409.5238095238094,-1.0,-1.0,0.7208367994968357,
2023-08-16 13:16:07.145000,-6.060240963855422,0.9397590361445783,7.530120481927711,1.213979153893317,-6.036174126302881,8.203556100551808,3.0,0.7168387168387169,1395.013936203159,0.7197715750830362,-0.3343627993706655,-0.8037993123943825,1410.989010989011,-1.0,-1.0,0.720797203623495,
2023-08-16 13:16:07.153000,-6.0361445783132535,0.9518072289156627,7.518072289156627,1.226241569589209,-6.072961373390558,8.18638871857756,3.0,0.7168387168387169,1395.013936203159,0.5416933745119745,-0.5941378707534534,-1.0188217469844418,1412.4542124542124,-1.0,-1.0,0.7207575606524766,
2023-08-16 13:16:07.161000,-6.0361445783132535,0.9518072289156627,7.530120481927711,1.1673819742489269,-6.004291845493562,8.161863887185776,3.0,0.7168387168387169,1395.013936203159,0.8861954431559936,-0.7103315657595711,-0.7605617388264089,1410.989010989011,-1.0,-1.0,0.7207178666188122,
2023-08-16 13:16:07.168000,-6.0120481927710845,0.963855421686747,7.530120481927711,1.1943592887798895,-6.043531575720417,8.115266707541386,3.0,0.7163947163947164,1395.87852494577,0.9976108618378885,-0.8394615698385879,-0.7483246897033976,1410.2564102564102,-1.0,-1.0,0.7206781178930208,
2023-08-16 13:16:07.176000,-6.0,0.963855421686747,7.518072289156627,1.2924586143470262,-6.016554261189454,8.21827099938688,3.0,0.7163947163947164,1395.87852494577,0.6186119689994758,-0.876638890507546,-1.0295437328826997,1410.2564102564102,-1.0,-1.0,0.7206383110309743,
2023-08-16 13:16:07.184000,-6.0120481927710845,0.9759036144578314,7.542168674698796,1.1870018393623543,-6.021459227467811,8.166768853464133,3.0,0.7163947163947164,1395.87852494577,0.7300273876813708,-1.2343103548744239,-0.6668609055416355,1409.5238095238094,-1.0,-1.0,0.7205984426232719,
2023-08-16 13:16:07.191000,-5.975903614457832,0.9759036144578314,7.55421686746988,1.2385039852851012,-5.987124463519313,8.206008583690986,3.0,0.7159507159507159,1396.7441860465117,0.7653400151506319,-0.9643960142182859,-0.6422702639706312,1410.2564102564102,-1.0,-1.0,0.7205585094523164,
2023-08-16 13:16:07.199000,-5.987951807228916,0.9879518072289157,7.55421686746988,1.2237890864500305,-5.977314530962599,8.16922133660331,3.0,0.7163947163947164,1395.87852494577,0.8029835091195149,-1.002039508187169,-0.9570537847444784,1416.117216117216,-1.0,-1.0,0.7205185084993501,
2023-08-16 13:16:07.207000,-5.975903614457832,0.9879518072289157,7.542168674698796,1.314530962599632,-5.999386879215205,8.16922133660331,3.0,0.7163947163947164,1395.87852494577,0.7947089330458599,-1.1776702989336278,-1.0861837888234946,1421.9780219780218,-1.0,-1.0,0.7204784370683024,
2023-08-16 13:16:07.214000,-5.975903614457832,1.0120481927710845,7.542168674698796,1.2360515021459226,-6.004291845493562,8.181483752299203,3.0,0.7159507159507159,1396.7441860465117,0.8000699259949888,-0.7563661791270901,-1.075345259600257,1424.9084249084249,-1.0,-1.0,0.7204382928127462,
2023-08-16 13:16:07.222000,-6.0,0.9879518072289157,7.542168674698796,1.2728387492335989,-5.99202942979767,8.242795830778663,3.0,0.7159507159507159,1396.7441860465117,0.8509993590117133,-0.6725715284657072,-0.956937241419498,1427.106227106227,-1.0,-1.0,0.7203980734639727,
2023-08-16 13:16:07.230000,-5.975903614457832,0.9879518072289157,7.55421686746988,1.2115266707541386,-5.965052115266707,8.208461066830164,3.0,0.7159507159507159,1396.7441860465117,0.9043762018530388,-0.7585805023017312,-1.069285006701241,1426.3736263736262,-1.0,-1.0,0.7203577768242176,
