Shimmer_F5D4_Timestamp_FormattedUnix_CAL,Shimmer_F5D4_Accel_LN_X_CAL,Shimmer_F5D4_Accel_LN_Y_CAL,Shimmer_F5D4_Accel_LN_Z_CAL,Shimmer_F5D4_Accel_WR_X_CAL,Shimmer_F5D4_Accel_WR_Y_CAL,Shimmer_F5D4_Accel_WR_Z_CAL,Shimmer_F5D4_GSR_Range_CAL,Shimmer_F5D4_GSR_Skin_Conductance_CAL,Shimmer_F5D4_GSR_Skin_Resistance_CAL,Shimmer_F5D4_Gyro_X_CAL,Shimmer_F5D4_Gyro_Y_CAL,Shimmer_F5D4_Gyro_Z_CAL,Shimmer_F5D4_PPG_A13_CAL,Shimmer_F5D4_PPG_IBI_CAL,Shimmer_F5D4_PPGtoHR_CAL,Shimmer_F5D4_GSR_Skin_Conductance_LPF_CAL,
yyyy/mm/dd hh:mm:ss.000,m/(s^2),m/(s^2),m/(s^2),m/(s^2),m/(s^2),m/(s^2),no_units,uS,kOhms,deg/s,deg/s,deg/s,mV,ms,BPM,uS,
2023-08-16 13:42:25.807000,-5.0602409638554215,1.2650602409638554,8.180722891566266,1.5622317596566522,-5.0772532188841195,8.907418761496015,3.0,1.3131313131313131,761.5384615384615,0.3218926635976917,-0.006992599498864074,0.17085251442223648,1423.4432234432234,-1.0,62.66390438247012,1.326701214164812,
2023-08-16 13:42:25.815000,-5.0361445783132535,1.2771084337349399,8.156626506024097,1.5328019619865112,-5.052728387492336,8.826486817903126,3.0,1.3131313131313131,761.5384615384615,0.2424101159606085,-0.207330575141309,0.032981760969640506,1443.956043956044,-1.0,62.66390438247012,1.326560843813082,
2023-08-16 13:42:25.823000,-5.0361445783132535,1.2650602409638554,8.168674698795181,1.613733905579399,-5.089515634580012,8.848559166155733,3.0,1.3131313131313131,761.5384615384615,0.18017598042072205,-0.008158032748674174,-0.027504224695530776,1468.131868131868,-1.0,62.66390438247012,1.3264205149185277,
2023-08-16 13:42:25.830000,-5.048192771084338,1.2530120481927711,8.168674698795181,1.4935622317596566,-5.0625383200490495,8.897608828939301,3.0,1.3131313131313131,761.5384615384615,-0.0981294796340535,0.21910145096439607,-0.11840801818075852,1496.7032967032967,-1.0,62.66390438247012,1.3262802296928333,
2023-08-16 13:42:25.838000,-5.048192771084338,1.2530120481927711,8.156626506024097,1.5156345800122624,-5.038013488657265,8.877988963825873,3.0,1.3126873126873129,761.7960426179604,-0.052327952916496244,0.2013868655672742,-0.04020744711846625,1525.2747252747251,-1.0,62.66390438247012,1.3261399905915594,
2023-08-16 13:42:25.846000,-5.048192771084338,1.2530120481927711,8.168674698795181,1.542611894543225,-5.064990803188228,8.809319435928877,3.0,1.3126873126873129,761.7960426179604,-0.08496008391119467,0.060136355690227905,-0.5267758289143988,1556.7765567765566,-1.0,62.66390438247012,1.325999800161667,
2023-08-16 13:42:25.853000,-5.096385542168675,1.2530120481927711,8.180722891566266,1.5107296137339055,-5.072348252605763,8.860821581851624,3.0,1.3122433122433121,762.0537980037219,0.2490530854845283,0.14742730610104277,-0.26222248120738884,1587.5457875457873,-1.0,62.66390438247012,1.3258596608886548,
2023-08-16 13:42:25.861000,-5.096385542168675,1.2409638554216869,8.180722891566266,1.4984671980380133,-5.0698957694665845,8.851011649294911,3.0,1.3122433122433121,762.0537980037219,0.23157158673736986,0.021793601771458074,-0.22854146028786204,1614.6520146520145,-1.0,62.66390438247012,1.3257195752023594,
2023-08-16 13:42:25.869000,-5.072289156626506,1.2409638554216869,8.168674698795181,1.5475168608215817,-5.0625383200490495,8.917228694052728,3.0,1.3122433122433121,762.0537980037219,0.10733640230755867,0.09556552648446988,-0.24089505273585457,1635.164835164835,-1.0,62.66390438247012,1.3255795454710786,
2023-08-16 13:42:25.876000,-5.0602409638554215,1.2530120481927711,8.144578313253012,1.525444512568976,-5.001226241569589,8.885346413243408,3.0,1.3109113109113109,762.8281117696868,0.2453236990851346,-0.42549967950585665,0.12749839752928155,1646.153846153846,-1.0,62.66390438247012,1.3254395741544165,
2023-08-16 13:42:25.884000,-5.0843373493975905,1.2530120481927711,8.180722891566266,1.5328019619865112,-5.042918454935622,8.851011649294911,3.0,1.3113553113553114,762.5698324022347,0.18169104364547464,-0.4236349863061598,0.34345317871918896,1652.7472527472526,-1.0,62.66390438247012,1.3252996637854626,
2023-08-16 13:42:25.892000,-5.0361445783132535,1.2771084337349399,8.156626506024097,1.5009196811771919,-5.0404659717964435,8.865726548129981,3.0,1.3109113109113109,762.8281117696868,0.1633937416234486,-0.11584406503117535,-0.0543091894411748,1654.9450549450548,-1.0,62.66390438247012,1.3251598170069803,
2023-08-16 13:42:25.899000,-5.0602409638554215,1.2891566265060241,8.19277108433735,1.5205395462906193,-5.072348252605763,8.85346413243409,3.0,1.3113553113553114,762.5698324022347,0.0102558125983327,-0.08216304411164765,0.2976516520016317,1654.212454212454,-1.0,62.66390438247012,1.325020036424834,
2023-08-16 13:42:25.907000,-5.0602409638554215,1.2891566265060241,8.204819277108435,1.5941140404659717,-5.0404659717964435,8.831391784181482,3.0,1.3113553113553114,762.5698324022347,-0.23413553988695346,-0.29823436862653674,0.6151156692500438,1649.084249084249,919.189453125,65.27490039840637,1.324880324471035,
2023-08-16 13:42:25.915000,-5.0602409638554215,1.2771084337349399,8.168674698795181,1.5475168608215817,-5.018393623543838,8.877988963825873,3.0,1.3113553113553114,762.5698324022347,-0.17329992424683882,-0.08286230406153441,0.07726822446244384,1638.8278388278386,-1.0,65.27490039840637,1.3247406837342257,
2023-08-16 13:42:25.922000,-5.048192771084338,1.2891566265060241,8.168674698795181,1.6039239730226853,-5.067443286327406,8.83629675045984,3.0,1.3109113109113109,762.8281117696868,0.1480100227259487,-0.19206339956878993,0.01689878212225383,1620.5128205128203,-1.0,65.27490039840637,1.3246011169602183,
2023-08-16 13:42:25.930000,-5.0361445783132535,1.2891566265060241,8.180722891566266,1.5450643776824033,-5.0478234212139785,8.821581851624769,3.0,1.3109113109113109,762.8281117696868,-0.020395081871686302,-0.05605733931588995,0.07668550783753879,1599.2673992673992,-1.0,65.27490039840637,1.3244616267648885,
2023-08-16 13:42:25.938000,-5.072289156626506,1.2771084337349399,8.156626506024097,1.6407112201103617,-4.9816063764561616,8.821581851624769,3.0,1.3109113109113109,762.8281117696868,0.026338791445719375,-0.31723093059844953,-0.03100052444496238,1575.8241758241757,-1.0,65.27490039840637,1.3243222156235408,
2023-08-16 13:42:25.945000,-5.048192771084338,1.2891566265060241,8.156626506024097,1.5695892090741874,-5.052728387492336,8.865726548129981,3.0,1.3104673104673104,763.0865661528037,0.4380863586038113,-0.16385991492337196,-0.1991725423926344,1548.7179487179485,-1.0,65.27490039840637,1.32418288615789,
2023-08-16 13:42:25.953000,-5.048192771084338,1.2771084337349399,8.168674698795181,1.567136725935009,-4.9816063764561616,8.88289393010423,3.0,1.3104673104673104,763.0865661528037,0.006526426198938992,0.09544898315948905,0.013985198997727278,1519.4139194139193,-1.0,65.27490039840637,1.3240436409757554,
2023-08-16 13:42:25.961000,-5.048192771084338,1.2530120481927711,8.180722891566266,1.5352544451256898,-4.988963825873697,8.86817903126916,3.0,1.31002331002331,763.3451957295374,0.005943709574034809,0.09824602295903433,0.011421245848144104,1489.3772893772893,-1.0,65.27490039840637,1.3239044826493795,
2023-08-16 13:42:25.968000,-5.048192771084338,1.2650602409638554,8.204819277108435,1.5450643776824033,-5.03065603923973,8.846106683016554,3.0,1.31002331002331,763.3451957295374,0.03484645416933779,0.1596643552240549,-0.020628168521647974,1460.8058608058607,-1.0,65.27490039840637,1.323765413693577,
2023-08-16 13:42:25.976000,-5.048192771084338,1.2530120481927711,8.168674698795181,1.5303494788473329,-5.0625383200490495,8.824034334763947,3.0,1.31002331002331,763.3451957295374,0.12446827107977461,-0.19183031291882827,0.008740749373579658,1432.9670329670328,-1.0,65.27490039840637,1.3236264364049355,
2023-08-16 13:42:25.984000,-5.0602409638554215,1.2771084337349399,8.168674698795181,1.5892090741876148,-5.001226241569589,8.848559166155733,3.0,1.3095793095793093,763.6040006780811,0.07505390128780448,0.2063982285414606,-0.32900180642153704,1410.2564102564102,-1.0,65.27490039840637,1.3234875531479786,
2023-08-16 13:42:25.991000,-5.0602409638554215,1.2650602409638554,8.156626506024097,1.5622317596566522,-5.008583690987124,8.774984671980379,3.0,1.31002331002331,763.3451957295374,0.01200396247304872,0.11246430860672414,0.05547462269098533,1389.7435897435896,-1.0,65.27490039840637,1.3233487661940961,
2023-08-16 13:42:25.999000,-5.072289156626506,1.2771084337349399,8.144578313253012,1.5597792765174738,-5.013488657265481,8.85346413243409,3.0,1.3095793095793093,763.6040006780811,0.2997494318512911,0.4743313326729208,-0.05221140959151584,1371.4285714285713,-1.0,65.27490039840637,1.3232100777097051,
2023-08-16 13:42:26.007000,-5.0602409638554215,1.2891566265060241,8.156626506024097,1.5843041079092581,-5.023298589822195,8.811771919068056,3.0,1.3095793095793093,763.6040006780811,-0.17621350737136493,-0.004428646349280464,-0.23576714643668778,1358.2417582417581,-1.0,65.27490039840637,1.323071489776025,
2023-08-16 13:42:26.014000,-5.0602409638554215,1.2650602409638554,8.180722891566266,1.6039239730226853,-5.0698957694665845,8.85346413243409,3.0,1.3095793095793093,763.6040006780811,0.3579045510168413,0.10080997610861794,-0.036944234018996755,1350.9157509157508,-1.0,65.27490039840637,1.322933004377419,
2023-08-16 13:42:26.022000,-5.0843373493975905,1.2650602409638554,8.144578313253012,1.4984671980380133,-4.988963825873697,8.892703862660944,3.0,1.3095793095793093,763.6040006780811,0.39939397471009896,-0.31326845754909416,0.0849600839111938,1346.5201465201465,-1.0,65.27490039840637,1.322794623528749,
2023-08-16 13:42:26.030000,-5.0602409638554215,1.2530120481927711,8.156626506024097,1.5033721643163702,-5.0110361741263025,8.865726548129981,3.0,1.308247308247308,764.3814695401325,0.11875764815570147,0.3900705087116129,-0.1299458073538839,1342.1245421245421,-1.0,65.27490039840637,1.3226563491367802,
2023-08-16 13:42:26.037000,-5.048192771084338,1.2530120481927711,8.19277108433735,1.5205395462906193,-5.0404659717964435,8.83629675045984,3.0,1.3086913086913088,764.1221374045801,-0.2047666219917254,0.4622108268748913,-0.3107045043995106,1338.4615384615383,-1.0,65.27490039840637,1.322518182979669,
2023-08-16 13:42:26.045000,-5.0602409638554215,1.2650602409638554,8.168674698795181,1.5499693439607602,-5.0036787247087675,8.877988963825873,3.0,1.3086913086913088,764.1221374045801,0.28261756307907515,0.09171959676009533,-0.2905425091777868,1335.5311355311355,-1.0,65.27490039840637,1.3223801266024202,
2023-08-16 13:42:26.052000,-5.0602409638554215,1.2409638554216869,8.216867469879519,1.5450643776824033,-5.015941140404659,8.880441446965051,3.0,1.3086913086913088,764.1221374045801,-0.3011479517510629,0.07610279121263375,0.204416992016782,1332.6007326007325,-1.0,65.27490039840637,1.3222421813387604,
2023-08-16 13:42:26.060000,-5.072289156626506,1.2409638554216869,8.156626506024097,1.5229920294297976,-4.9963212752912325,8.887798896382586,3.0,1.3086913086913088,764.1221374045801,-0.26968125400617626,0.1523221257502483,-0.19322883281860045,1331.8681318681317,-1.0,65.27490039840637,1.3221043483330794,
2023-08-16 13:42:26.068000,-5.072289156626506,1.2530120481927711,8.180722891566266,1.567136725935009,-5.079705702023299,8.895156345800123,3.0,1.3086913086913088,764.1221374045801,0.06689586853912857,0.3676941903152489,0.15989744187401658,1334.065934065934,-1.0,65.27490039840637,1.3219666285521081,
2023-08-16 13:42:26.075000,-5.0602409638554215,1.2530120481927711,8.156626506024097,1.554874310239117,-4.98405885959534,8.851011649294911,3.0,1.308247308247308,764.3814695401325,-0.43843598857875377,3.496299749425094E-4,0.005360992949128891,1334.7985347985348,-1.0,65.27490039840637,1.3218290227970897,
2023-08-16 13:42:26.083000,-5.0602409638554215,1.2650602409638554,8.132530120481928,1.5769466584917229,-5.052728387492336,8.826486817903126,3.0,1.308247308247308,764.3814695401325,-0.099527999533827,-0.07447118466289857,0.2653691509818775,1336.263736263736,-1.0,65.27490039840637,1.3216915315672917,
2023-08-16 13:42:26.091000,-5.048192771084338,1.2650602409638554,8.144578313253012,1.5450643776824033,-5.035561005518087,8.78969957081545,3.0,1.308247308247308,764.3814695401325,-0.06841093176388291,0.17050288444729353,-0.18052561039566456,1338.4615384615383,-1.0,65.27490039840637,1.3215541551905061,
2023-08-16 13:42:26.098000,-5.0602409638554215,1.2771084337349399,8.132530120481928,1.513182096873084,-5.067443286327406,8.890251379521766,3.0,1.3078033078033078,764.6409777626889,-0.26501952100693416,0.3241069867723328,-0.12120505798030425,1343.5897435897434,-1.0,65.27490039840637,1.3214168940930837,
2023-08-16 13:42:26.106000,-5.048192771084338,1.2650602409638554,8.168674698795181,1.5033721643163702,-5.038013488657265,8.880441446965051,3.0,1.3078033078033078,764.6409777626889,0.011188159198181129,0.5194335994405913,0.045335353417633034,1351.6483516483515,-1.0,65.27490039840637,1.3212797484961218,
2023-08-16 13:42:26.114000,-5.0602409638554215,1.2530120481927711,8.132530120481928,1.4935622317596566,-5.0453709380748,8.86817903126916,3.0,1.3078033078033078,764.6409777626889,-0.06374919876464077,0.3472991084435644,-0.06503117533943259,1361.904761904762,-1.0,65.27490039840637,1.321142718261656,
2023-08-16 13:42:26.121000,-5.0843373493975905,1.2530120481927711,8.144578313253012,1.5401594114040464,-5.057633353770693,8.860821581851624,3.0,1.3073593073593073,764.9006622516557,-0.16945399452246426,0.17563079074646074,0.22318046733873315,1373.6263736263736,-1.0,65.27490039840637,1.3210058030479446,
2023-08-16 13:42:26.129000,-5.0843373493975905,1.2530120481927711,8.168674698795181,1.5082771305947271,-4.9963212752912325,8.870631514408338,3.0,1.3073593073593073,764.9006622516557,0.12178777460521016,0.431210302429928,-0.2511508653341881,1384.6153846153845,-1.0,65.27490039840637,1.3208690021775087,
2023-08-16 13:42:26.137000,-5.1084337349397595,1.2650602409638554,8.168674698795181,1.4690374003678723,-5.0625383200490495,8.821581851624769,3.0,1.3073593073593073,764.9006622516557,-0.04603461336751892,0.33249810617096864,-0.01876347532195112,1396.3369963369962,-1.0,65.27490039840637,1.3207323147722958,
2023-08-16 13:42:26.144000,-5.096385542168675,1.2650602409638554,8.120481927710843,1.5082771305947271,-5.074800735744941,8.841201716738198,3.0,1.3073593073593073,764.9006622516557,0.24544024241011544,0.1276149408542624,0.2271429403880894,1407.3260073260071,-1.0,65.27490039840637,1.3205957397509962,
2023-08-16 13:42:26.152000,-5.0843373493975905,1.2530120481927711,8.108433734939759,1.4788473329245861,-5.067443286327406,8.767627222562844,3.0,1.3069153069153068,765.1605231866826,0.09323465998484969,0.3384418157450034,-0.004778276324223407,1416.117216117216,-1.0,65.27490039840637,1.3204592758589078,
2023-08-16 13:42:26.160000,-5.0843373493975905,1.2289156626506024,8.156626506024097,1.4739423666462292,-5.020846106683016,8.863274064990803,3.0,1.3069153069153068,765.1605231866826,2.3308664996167294E-4,-0.18670240661966103,0.07365538138803097,1421.245421245421,-1.0,65.27490039840637,1.3203229218059902,
2023-08-16 13:42:26.167000,-5.0602409638554215,1.2650602409638554,8.168674698795181,1.4763948497854076,-5.072348252605763,8.78969957081545,3.0,1.3069153069153068,765.1605231866826,-0.07633587786259542,-0.004661732999242137,-0.1390361867024065,1425.6410256410256,-1.0,65.27490039840637,1.3201866760976024,
2023-08-16 13:42:26.175000,-5.072289156626506,1.2289156626506024,8.180722891566266,1.5499693439607602,-4.98405885959534,8.821581851624769,3.0,1.3069153069153068,765.1605231866826,0.3041780782005716,-0.052561039566459654,0.16968708117242592,1430.7692307692307,-1.0,65.27490039840637,1.3200505370470463,
2023-08-16 13:42:26.183000,-5.072289156626506,1.2650602409638554,8.120481927710843,1.5401594114040464,-5.013488657265481,8.855916615573268,3.0,1.3055833055833055,765.9411664682877,0.1927626595186767,-0.11304702523163007,0.07866674436221649,1432.2344322344322,-1.0,65.27490039840637,1.3199145029383332,
2023-08-16 13:42:26.190000,-5.048192771084338,1.2650602409638554,8.144578313253012,1.5475168608215817,-5.008583690987124,8.904966278356836,3.0,1.306027306027306,765.6807751147375,0.18973253306916799,0.05594079599090911,0.06398228541460288,1433.6996336996335,-1.0,65.27490039840637,1.3197785718604622,
2023-08-16 13:42:26.198000,-5.072289156626506,1.2650602409638554,8.156626506024097,1.5156345800122624,-5.067443286327406,8.870631514408338,3.0,1.3055833055833055,765.9411664682877,-0.05745585921566346,-0.051395606316647816,0.019113105296894063,1433.6996336996335,-1.0,65.27490039840637,1.3196427416284866,
2023-08-16 13:42:26.206000,-5.0602409638554215,1.2409638554216869,8.19277108433735,1.5867565910484365,-5.074800735744941,8.848559166155733,3.0,1.3055833055833055,765.9411664682877,0.0029135831245261186,-0.2515004953091311,-0.3146669774488668,1428.5714285714284,-1.0,65.27490039840637,1.3195070097997676,
2023-08-16 13:42:26.213000,-5.0602409638554215,1.2650602409638554,8.168674698795181,1.5205395462906193,-5.0625383200490495,8.873083997547516,3.0,1.3055833055833055,765.9411664682877,0.04859856651710253,-0.2955538721519723,-0.037760037293863916,1421.245421245421,-1.0,65.27490039840637,1.3193713734024304,
2023-08-16 13:42:26.221000,-5.0843373493975905,1.2530120481927711,8.168674698795181,1.5622317596566522,-5.0404659717964435,8.83874923359902,3.0,1.3055833055833055,765.9411664682877,0.032865217644660105,0.19474389604335438,-0.06817784511392125,1414.6520146520145,-1.0,65.27490039840637,1.3192358291210566,
2023-08-16 13:42:26.229000,-5.048192771084338,1.2650602409638554,8.180722891566266,1.5475168608215817,-5.0331085223789085,8.860821581851624,3.0,1.306027306027306,765.6807751147375,0.1707359710972552,-0.1414835965270097,-0.09556552648447075,1412.4542124542124,-1.0,65.27490039840637,1.3191003734715658,
2023-08-16 13:42:26.236000,-5.0602409638554215,1.2650602409638554,8.168674698795181,1.5229920294297976,-5.006131207847946,8.83629675045984,3.0,1.3055833055833055,765.9411664682877,0.17003671114736846,-0.14020161995221703,-0.09579861313443286,1411.7216117216117,-1.0,65.27490039840637,1.3189650031154663,
2023-08-16 13:42:26.244000,-5.048192771084338,1.2650602409638554,8.156626506024097,1.5475168608215817,-5.0772532188841195,8.860821581851624,3.0,1.3051393051393052,766.2017349889437,-0.1501078025756072,-0.2748091603053435,-0.0340306508944702,1410.2564102564102,-1.0,65.27490039840637,1.3188297148777255,
2023-08-16 13:42:26.252000,-5.048192771084338,1.2771084337349399,8.168674698795181,1.572041692213366,-5.008583690987124,8.865726548129981,3.0,1.3051393051393052,766.2017349889437,-0.07225686148825747,0.04813239321717919,0.05908746576539821,1408.058608058608,-1.0,65.27490039840637,1.3186945052978962,
2023-08-16 13:42:26.259000,-5.048192771084338,1.2530120481927711,8.156626506024097,1.537706928264868,-4.9963212752912325,8.841201716738198,3.0,1.3051393051393052,766.2017349889437,-0.10092651943359877,0.21385700134024802,-0.07901637433715986,1404.3956043956043,-1.0,65.27490039840637,1.318559370628904,
2023-08-16 13:42:26.267000,-5.0602409638554215,1.2891566265060241,8.19277108433735,1.59656652360515,-5.050275904353157,8.86817903126916,3.0,1.3051393051393052,766.2017349889437,0.3428704620942839,0.028203484645416232,-0.03333139094458345,1397.8021978021977,-1.0,65.27490039840637,1.3184243070058819,
2023-08-16 13:42:26.275000,-5.048192771084338,1.2771084337349399,8.168674698795181,1.5180870631514407,-5.023298589822195,8.843654199877376,3.0,1.3046953046953047,766.4624808575804,0.05116251966668614,0.027271138045567803,0.08717440708583403,1389.0109890109889,-1.0,65.27490039840637,1.3182893106154663,
2023-08-16 13:42:26.282000,-5.072289156626506,1.2771084337349399,8.144578313253012,1.613733905579399,-5.082158185162477,8.851011649294911,3.0,1.3046953046953047,766.4624808575804,-0.011071615873200292,0.008391119398635847,-0.2519666686090553,1379.4871794871794,-1.0,65.27490039840637,1.318154377557188,
2023-08-16 13:42:26.290000,-5.0602409638554215,1.2650602409638554,8.132530120481928,1.5205395462906193,-5.0453709380748,8.848559166155733,3.0,1.3046953046953047,766.4624808575804,-0.3626828273410643,0.17469844414661231,0.00850766272361755,1371.4285714285713,-1.0,65.27490039840637,1.3180195037052824,
2023-08-16 13:42:26.298000,-5.072289156626506,1.2891566265060241,8.156626506024097,1.5180870631514407,-5.082158185162477,8.917228694052728,3.0,1.304251304251304,766.7234042553192,-0.024590641571003356,-0.19521006934327773,0.0984791096089973,1364.8351648351647,-1.0,65.27490039840637,1.3178846848791859,
2023-08-16 13:42:26.305000,-5.072289156626506,1.2891566265060241,8.168674698795181,1.5082771305947271,-5.038013488657265,8.877988963825873,3.0,1.304251304251304,766.7234042553192,0.3411223122195679,0.3377425557951167,0.09358428995979262,1360.4395604395604,-1.0,65.27490039840637,1.3177499168650932,
2023-08-16 13:42:26.313000,-5.0602409638554215,1.2771084337349399,8.19277108433735,1.567136725935009,-5.0698957694665845,8.875536480686694,3.0,1.304251304251304,766.7234042553192,0.04813239321717919,0.027737311345492885,0.04813239321717832,1356.0439560439559,-1.0,65.27490039840637,1.3176151954062219,
2023-08-16 13:42:26.321000,-5.0602409638554215,1.2650602409638554,8.180722891566266,1.5499693439607602,-5.0331085223789085,8.851011649294911,3.0,1.303807303807304,766.984505363528,0.16758930132276742,-0.004195559699318791,0.0928850300099063,1355.3113553113553,-1.0,65.27490039840637,1.317480516363606,
2023-08-16 13:42:26.328000,-5.048192771084338,1.2530120481927711,8.156626506024097,1.554874310239117,-5.028203556100552,8.875536480686694,3.0,1.304251304251304,766.7234042553192,0.012120505798029556,0.1633937416234486,0.001981236524678125,1356.7765567765566,-1.0,65.27490039840637,1.3173458755791785,
2023-08-16 13:42:26.336000,-5.072289156626506,1.2409638554216869,8.180722891566266,1.5303494788473329,-5.015941140404659,8.895156345800123,3.0,1.302919302919303,767.5072414380644,0.11724258493094886,-0.12808111415418746,0.018297302022026472,1356.0439560439559,-1.0,65.27490039840637,1.3172112688881519,
2023-08-16 13:42:26.344000,-5.0602409638554215,1.2530120481927711,8.180722891566266,1.5156345800122624,-5.096873083997547,8.85346413243409,3.0,1.302919302919303,767.5072414380644,0.052677582891440485,0.11840801818075895,-0.04300448691801197,1356.7765567765566,-1.0,65.27490039840637,1.3170766922806443,
2023-08-16 13:42:26.351000,-5.0602409638554215,1.2650602409638554,8.19277108433735,1.537706928264868,-5.094420600858369,8.83874923359902,3.0,1.3033633033633034,767.2457843638222,0.049647456441931796,0.07179068818833412,-0.08950527358545554,1358.2417582417581,-1.0,65.27490039840637,1.3169421415316807,
2023-08-16 13:42:26.359000,-5.024096385542169,1.2650602409638554,8.204819277108435,1.537706928264868,-5.087063151440834,8.848559166155733,3.0,1.3033633033633034,767.2457843638222,0.01759804207214102,0.10337392925820155,-0.1506905192005127,1359.7069597069597,-1.0,65.27490039840637,1.3168076123725214,
2023-08-16 13:42:26.367000,-5.0361445783132535,1.2891566265060241,8.180722891566266,1.5843041079092581,-5.03065603923973,8.858369098712446,3.0,1.3033633033633034,767.2457843638222,-0.043936833517860395,-0.07971563428704662,0.17295029427189543,1360.4395604395604,-1.0,65.27490039840637,1.3166731005541545,
2023-08-16 13:42:26.374000,-5.0602409638554215,1.2650602409638554,8.168674698795181,1.4837522992029428,-5.0404659717964435,8.806866952789699,3.0,1.302919302919303,767.5072414380644,-0.04242177029310605,0.08845638366062497,-0.13519025697803153,1362.6373626373625,-1.0,65.27490039840637,1.3165386018998038,
2023-08-16 13:42:26.382000,-5.0602409638554215,1.2771084337349399,8.156626506024097,1.466584917228694,-5.038013488657265,8.814224402207234,3.0,1.302919302919303,767.5072414380644,-0.07528698793776616,0.34543441524386753,-0.07423809801293646,1365.5677655677655,-1.0,65.27490039840637,1.3164041123149952,
2023-08-16 13:42:26.390000,-5.0843373493975905,1.2530120481927711,8.180722891566266,1.5278969957081545,-5.101778050275904,8.860821581851624,3.0,1.302919302919303,767.5072414380644,-0.28774546937824064,0.16152904842375176,0.07610279121263332,1369.230769230769,-1.0,65.27490039840637,1.3162696276480448,
2023-08-16 13:42:26.397000,-5.0843373493975905,1.2289156626506024,8.168674698795181,1.5352544451256898,-5.104230533415082,8.877988963825873,3.0,1.3024753024753024,767.7688767683654,-0.16234485169861934,0.08332847736145949,-0.12376901112988742,1370.6959706959706,-1.0,65.27490039840637,1.3161351439973024,
2023-08-16 13:42:26.405000,-5.0843373493975905,1.2409638554216869,8.144578313253012,1.5352544451256898,-5.067443286327406,8.831391784181482,3.0,1.3024753024753024,767.7688767683654,0.14486335295145916,0.06642969523920522,0.24322591923547562,1372.161172161172,-1.0,65.27490039840637,1.3160006575709013,
2023-08-16 13:42:26.412000,-5.0602409638554215,1.2771084337349399,8.180722891566266,1.5769466584917229,-4.998773758430411,8.86817903126916,3.0,1.3024753024753024,767.7688767683654,-0.055824252665928276,0.034729910844356955,0.013052852397878852,1376.5567765567764,-1.0,65.27490039840637,1.3158661645460705,
2023-08-16 13:42:26.420000,-5.0602409638554215,1.313253012048193,8.168674698795181,1.554874310239117,-5.013488657265481,8.809319435928877,3.0,1.3024753024753024,767.7688767683654,-0.30079832177612037,0.21700367111473753,0.0441699201678225,1383.150183150183,-1.0,65.27490039840637,1.3157316613750698,
2023-08-16 13:42:26.428000,-5.072289156626506,1.2891566265060241,8.144578313253012,1.525444512568976,-5.0257510729613735,8.811771919068056,3.0,1.3024753024753024,767.7688767683654,-0.11444554513140184,-0.01503408892255741,0.10512207913291756,1389.7435897435896,-1.0,65.27490039840637,1.3155971447927868,
2023-08-16 13:42:26.435000,-5.048192771084338,1.2891566265060241,8.156626506024097,1.5622317596566522,-5.03065603923973,8.811771919068056,3.0,1.3020313020313021,768.0306905370844,-0.024124468271080012,-0.16933745119748342,-0.01794767204708353,1392.6739926739926,-1.0,65.27490039840637,1.3154626116963508,
2023-08-16 13:42:26.443000,-5.024096385542169,1.2650602409638554,8.180722891566266,1.5328019619865112,-5.050275904353157,8.870631514408338,3.0,1.3020313020313021,768.0306905370844,-0.1305285239787885,-0.01841384534700861,-0.21735330108968004,1393.4065934065934,-1.0,65.27490039840637,1.315328059024267,
2023-08-16 13:42:26.451000,-5.0361445783132535,1.2409638554216869,8.168674698795181,1.5401594114040464,-5.0478234212139785,8.851011649294911,3.0,1.3020313020313021,768.0306905370844,0.08414428063632708,0.3337800827457613,-0.06398228541460288,1391.9413919413919,-1.0,65.27490039840637,1.3151934839013302,
2023-08-16 13:42:26.458000,-5.0361445783132535,1.216867469879518,8.19277108433735,1.5156345800122624,-5.0453709380748,8.824034334763947,3.0,1.3015873015873014,768.2926829268293,0.25138395198415026,-0.007691859448750828,-0.14008507662723618,1391.9413919413919,-1.0,65.27490039840637,1.3150588837830526,
2023-08-16 13:42:26.466000,-5.0602409638554215,1.2409638554216869,8.180722891566266,1.525444512568976,-5.064990803188228,8.897608828939301,3.0,1.3015873015873014,768.2926829268293,-0.010605442573276946,0.46500786667443655,-0.4605792203251557,1391.9413919413919,-1.0,65.27490039840637,1.3149242561840275,
2023-08-16 13:42:26.474000,-5.0843373493975905,1.2650602409638554,8.204819277108435,1.601471489883507,-5.064990803188228,8.895156345800123,3.0,1.3015873015873014,768.2926829268293,0.2795874366295665,0.18670240661966103,-0.10826874890740623,1390.4761904761904,-1.0,65.27490039840637,1.314789598821271,
2023-08-16 13:42:26.481000,-5.0843373493975905,1.2409638554216869,8.180722891566266,1.5450643776824033,-5.0698957694665845,8.860821581851624,3.0,1.3015873015873014,768.2926829268293,-0.012586679097954637,0.01957927859681871,-0.22935726356272962,1391.2087912087911,-1.0,65.27490039840637,1.3146549097569526,
2023-08-16 13:42:26.489000,-5.048192771084338,1.2289156626506024,8.156626506024097,1.5573267933782955,-5.0478234212139785,8.92949110974862,3.0,1.3006993006993006,768.8172043010753,-0.014101742322708983,0.0057106229240714,0.12318629450498236,1391.2087912087911,-1.0,65.27490039840637,1.3145201872742733,
2023-08-16 13:42:26.497000,-5.072289156626506,1.2650602409638554,8.168674698795181,1.5033721643163702,-5.038013488657265,8.912323727774371,3.0,1.3006993006993006,768.8172043010753,-0.04463609346774715,0.0067595128489024,0.046151156692500625,1394.139194139194,-1.0,65.27490039840637,1.3143854300197002,
2023-08-16 13:42:26.504000,-5.0843373493975905,1.2530120481927711,8.168674698795181,1.461679950950337,-5.104230533415082,8.863274064990803,3.0,1.3006993006993006,768.8172043010753,0.15465299224986853,0.207330575141309,0.06048598566517085,1394.139194139194,-1.0,65.27490039840637,1.3142506369221518,
2023-08-16 13:42:26.512000,-5.072289156626506,1.2650602409638554,8.132530120481928,1.5229920294297976,-5.042918454935622,8.824034334763947,3.0,1.3006993006993006,768.8172043010753,0.15337101567507758,0.20488316531670625,0.06223413553988687,1393.4065934065934,-1.0,65.27490039840637,1.3141158069080736,
2023-08-16 13:42:26.520000,-5.0602409638554215,1.2771084337349399,8.144578313253012,1.5843041079092581,-5.064990803188228,8.846106683016554,3.0,1.3006993006993006,768.8172043010753,0.10465590583299422,-0.05733931589068263,0.2905425091777868,1394.139194139194,-1.0,65.27490039840637,1.3139809389447592,
2023-08-16 13:42:26.527000,-5.072289156626506,1.2650602409638554,8.156626506024097,1.554874310239117,-5.074800735744941,8.799509503372164,3.0,1.3006993006993006,768.8172043010753,0.08880601363556921,-0.10267466930831479,0.3356447759454577,1399.2673992673992,-1.0,65.27490039840637,1.3138460322101388,
2023-08-16 13:42:26.535000,-5.072289156626506,1.2650602409638554,8.132530120481928,1.4812998160637645,-5.067443286327406,8.858369098712446,3.0,1.3002553002553001,769.0797336520403,-0.003845929724374546,0.2628051978322948,0.1666569547229181,1406.5934065934066,-1.0,65.27490039840637,1.3137110862511925,
2023-08-16 13:42:26.543000,-5.0602409638554215,1.2891566265060241,8.144578313253012,1.5622317596566522,-5.101778050275904,8.814224402207234,3.0,1.3002553002553001,769.0797336520403,0.19392809276848677,0.33447934269564633,0.2728279237806654,1415.3846153846152,-1.0,65.27490039840637,1.3135761008332363,
2023-08-16 13:42:26.550000,-5.048192771084338,1.2771084337349399,8.144578313253012,1.6161863887185774,-5.0478234212139785,8.816676885346412,3.0,1.3002553002553001,769.0797336520403,0.1764465940213266,-0.11188159198181996,0.4539362508012354,1431.5018315018315,-1.0,65.27490039840637,1.3134410757884418,
2023-08-16 13:42:26.558000,-5.048192771084338,1.2650602409638554,8.144578313253012,1.572041692213366,-5.0478234212139785,8.875536480686694,3.0,1.2998112998112998,769.3424423569599,0.21956762426431942,-0.08018180758696997,0.403822621059379,1454.9450549450548,-1.0,65.27490039840637,1.3133060111719392,
2023-08-16 13:42:26.566000,-5.0602409638554215,1.2891566265060241,8.180722891566266,1.6284488044144696,-5.074800735744941,8.826486817903126,3.0,1.2998112998112998,769.3424423569599,0.08181341413670515,0.14905891265077795,0.3703746867898143,1482.7838827838827,-1.0,65.27490039840637,1.3131709071291817,
2023-08-16 13:42:26.573000,-5.048192771084338,1.2771084337349399,8.156626506024097,1.554874310239117,-5.072348252605763,8.843654199877376,3.0,1.2998112998112998,769.3424423569599,0.30942252782471963,0.13064506730376935,0.07761785443738722,1513.5531135531135,-1.0,65.27490039840637,1.3130357640289219,
2023-08-16 13:42:26.581000,-5.0361445783132535,1.2771084337349399,8.156626506024097,1.5475168608215817,-5.0453709380748,8.833844267320663,3.0,1.2993672993672993,769.6053305996925,0.41186411048307275,0.22236466406386643,0.15465299224986895,1545.7875457875457,-1.0,65.27490039840637,1.3129005825955675,
2023-08-16 13:42:26.589000,-5.048192771084338,1.2650602409638554,8.156626506024097,1.5499693439607602,-5.0698957694665845,8.880441446965051,3.0,1.2998112998112998,769.3424423569599,0.13519025697803239,0.435289318804266,0.09195268341005788,1579.4871794871794,-1.0,65.27490039840637,1.3127653636254155,
2023-08-16 13:42:26.596000,-5.0843373493975905,1.2771084337349399,8.180722891566266,1.5524218270999386,-5.0110361741263025,8.831391784181482,3.0,1.2993672993672993,769.6053305996925,0.2424101159606085,0.769302488199989,-0.09078725016024691,1611.7216117216117,-1.0,65.27490039840637,1.312630108267123,
2023-08-16 13:42:26.604000,-5.048192771084338,1.2530120481927711,8.168674698795181,1.5450643776824033,-4.993868792152053,8.909871244635193,3.0,1.2993672993672993,769.6053305996925,0.5316706485636035,0.27725657012994626,0.1527882990501721,1639.5604395604394,-1.0,65.27490039840637,1.3124948180248992,
2023-08-16 13:42:26.612000,-5.048192771084338,1.2530120481927711,8.144578313253012,1.5156345800122624,-5.0331085223789085,8.83874923359902,3.0,1.2989232989232988,769.868398564348,0.5109259367169746,0.734572577355632,0.10698677233261486,1662.2710622710622,-1.0,65.27490039840637,1.3123594946021293,
2023-08-16 13:42:26.619000,-5.048192771084338,1.2530120481927711,8.168674698795181,1.5499693439607602,-5.018393623543838,8.85346413243409,3.0,1.2989232989232988,769.868398564348,0.1712021443971803,0.47200046617330066,-0.12108851465532297,1676.923076923077,-1.0,65.27490039840637,1.312224139883291,
2023-08-16 13:42:26.627000,-5.0602409638554215,1.2771084337349399,8.144578313253012,1.5573267933782955,-5.038013488657265,8.83874923359902,3.0,1.2989232989232988,769.868398564348,0.4901812248703459,0.2876289260532598,0.33890798904492725,1683.5164835164835,-1.0,65.27490039840637,1.3120887557765795,
2023-08-16 13:42:26.635000,-5.072289156626506,1.2650602409638554,8.144578313253012,1.6186388718577558,-5.057633353770693,8.843654199877376,3.0,1.2989232989232988,769.868398564348,-0.10920109550725551,0.42456733290600823,0.2291241769127675,1684.9816849816848,-1.0,65.27490039840637,1.3119533443643858,
2023-08-16 13:42:26.642000,-5.048192771084338,1.2771084337349399,8.180722891566266,1.59656652360515,-5.018393623543838,8.917228694052728,3.0,1.2975912975912975,770.6586826347306,0.12132160130528508,0.0417225103432193,0.42619893945574255,1676.923076923077,-1.0,65.27490039840637,1.3118179079146048,
2023-08-16 13:42:26.650000,-5.0843373493975905,1.3012048192771084,8.180722891566266,1.554874310239117,-5.0551808706315144,8.858369098712446,3.0,1.2975912975912975,770.6586826347306,-0.017714585397121858,0.5143056931414258,0.39414952508595086,1661.5384615384614,-1.0,65.27490039840637,1.3116824488600176,
2023-08-16 13:42:26.658000,-5.0602409638554215,1.2771084337349399,8.168674698795181,1.567136725935009,-4.993868792152053,8.860821581851624,3.0,1.298035298035298,770.3950743971268,0.24124468271079838,0.20383427539187698,-0.17364955422178174,1641.0256410256409,-1.0,65.27490039840637,1.3115469696824245,
2023-08-16 13:42:26.665000,-5.0843373493975905,1.3012048192771084,8.180722891566266,1.4812998160637645,-5.0698957694665845,8.833844267320663,3.0,1.298035298035298,770.3950743971268,-0.0658469786142993,-0.10255812598333396,-0.048715109842083805,1613.9194139194137,-1.0,65.27490039840637,1.311411472901305,
2023-08-16 13:42:26.673000,-5.0602409638554215,1.2891566265060241,8.168674698795181,1.542611894543225,-5.057633353770693,8.917228694052728,3.0,1.2975912975912975,770.6586826347306,-0.09474972320960402,-0.08880601363556921,0.16490880484820253,1588.278388278388,888.5498046875,67.52575903283417,1.311275961124837,
2023-08-16 13:42:26.681000,-5.072289156626506,1.2530120481927711,8.180722891566266,1.4886572654812997,-5.067443286327406,8.816676885346412,3.0,1.2975912975912975,770.6586826347306,-0.2478876522347182,0.4285298059553636,-0.2177029310646234,1561.1721611721612,-1.0,67.52575903283417,1.3111404370582254,
2023-08-16 13:42:26.688000,-5.1084337349397595,1.216867469879518,8.144578313253012,1.5597792765174738,-5.0919681177191904,8.855916615573268,3.0,1.2975912975912975,770.6586826347306,-0.10687022900763359,0.604976399976692,-0.09428354990967895,1534.7985347985348,-1.0,67.52575903283417,1.311004903469498,
2023-08-16 13:42:26.696000,-5.0843373493975905,1.2409638554216869,8.144578313253012,1.513182096873084,-5.038013488657265,8.865726548129981,3.0,1.2975912975912975,770.6586826347306,-0.1653749781481263,0.23040615348755977,-0.2313385000874073,1509.89010989011,-1.0,67.52575903283417,1.3108693631865322,
2023-08-16 13:42:26.704000,-5.0843373493975905,1.2409638554216869,8.144578313253012,1.5450643776824033,-5.064990803188228,8.760269773145309,3.0,1.2975912975912975,770.6586826347306,-0.04382029019287956,-3.496299749425094E-4,-0.07855020103723565,1487.179487179487,-1.0,67.52575903283417,1.3107338191042965,
2023-08-16 13:42:26.711000,-5.096385542168675,1.216867469879518,8.144578313253012,1.5082771305947271,-5.087063151440834,8.843654199877376,3.0,1.2975912975912975,770.6586826347306,-0.18005943709573946,0.35032923489307133,0.13565643027795574,1465.201465201465,-1.0,67.52575903283417,1.310598274191951,
2023-08-16 13:42:26.719000,-5.0602409638554215,1.2530120481927711,8.156626506024097,1.5009196811771919,-5.0625383200490495,8.843654199877376,3.0,1.297147297147297,770.9224713332193,0.21653749781481246,-0.033797564244508534,-0.00384592972437498,1445.4212454212454,-1.0,67.52575903283417,1.3104627316387143,
2023-08-16 13:42:26.727000,-5.0843373493975905,1.2530120481927711,8.156626506024097,1.496014714898835,-5.057633353770693,8.816676885346412,3.0,1.297147297147297,770.9224713332193,0.13740458015267176,0.012703222422935475,0.13181050055358076,1425.6410256410256,-1.0,67.52575903283417,1.3103271946915098,
2023-08-16 13:42:26.734000,-5.0843373493975905,1.2409638554216869,8.120481927710843,1.537706928264868,-5.035561005518087,8.824034334763947,3.0,1.297147297147297,770.9224713332193,-0.2624555678573505,-0.2429928325855144,0.09894528290892152,1409.5238095238094,-1.0,67.52575903283417,1.3101916664927693,
2023-08-16 13:42:26.742000,-5.0843373493975905,1.2530120481927711,8.144578313253012,1.5622317596566522,-5.0919681177191904,8.777437155119559,3.0,1.2967032967032968,771.1864406779662,-0.12400209777984952,-0.10395664588310746,0.1580327486743197,1398.5347985347985,-1.0,67.52575903283417,1.3100561503655468,
2023-08-16 13:42:26.750000,-5.1084337349397595,1.2891566265060241,8.120481927710843,1.59656652360515,-5.096873083997547,8.846106683016554,3.0,1.2967032967032968,771.1864406779662,0.14894236932579713,0.07971563428704662,0.2625721111823318,1394.8717948717947,-1.0,67.52575903283417,1.3099206497905054,
2023-08-16 13:42:26.757000,-5.0843373493975905,1.3012048192771084,8.144578313253012,1.513182096873084,-5.0551808706315144,8.831391784181482,3.0,1.296259296259296,771.4505908545984,0.13309247712837213,-0.7306101043062766,0.30511042480041956,1394.139194139194,-1.0,67.52575903283417,1.3097851682240371,
2023-08-16 13:42:26.765000,-5.0843373493975905,1.313253012048193,8.132530120481928,1.64316370324954,-5.001226241569589,8.801961986511342,3.0,1.296259296259296,771.4505908545984,-0.24893654215954747,-0.6950643901870521,0.09195268341005788,1393.4065934065934,-1.0,67.52575903283417,1.30964970894812,
2023-08-16 13:42:26.773000,-5.0361445783132535,1.313253012048193,8.168674698795181,1.601471489883507,-5.013488657265481,8.895156345800123,3.0,1.296259296259296,771.4505908545984,0.01165433249810621,-0.5085950702173527,0.3356447759454577,1390.4761904761904,-1.0,67.52575903283417,1.3095142750583095,
2023-08-16 13:42:26.780000,-5.0120481927710845,1.3012048192771084,8.180722891566266,1.542611894543225,-5.001226241569589,8.907418761496015,3.0,1.2958152958152958,771.7149220489978,-0.4919293747450619,-0.244507895810267,-0.04813239321717832,1385.3479853479853,-1.0,67.52575903283417,1.3093788697497502,
2023-08-16 13:42:26.788000,-5.048192771084338,1.2891566265060241,8.19277108433735,1.6161863887185774,-5.020846106683016,8.890251379521766,3.0,1.296259296259296,771.4505908545984,0.22947380688771132,-0.04521881009265133,-0.07715168113746301,1380.2197802197802,-1.0,67.52575903283417,1.3092434961563115,
2023-08-16 13:42:26.795000,-5.048192771084338,1.2891566265060241,8.19277108433735,1.572041692213366,-5.0478234212139785,8.919681177191906,3.0,1.2944832944832945,772.5090036014406,0.22737602703805107,-0.04685041664238651,-0.07377192471301224,1372.8937728937728,-1.0,67.52575903283417,1.3091081573392553,
2023-08-16 13:42:26.803000,-5.024096385542169,1.2771084337349399,8.156626506024097,1.537706928264868,-5.042918454935622,8.851011649294911,3.0,1.2949272949272947,772.2441282358992,-0.11106578870695237,0.012470135772973802,-0.16304411164850524,1363.3699633699632,-1.0,67.52575903283417,1.3089728562761997,
2023-08-16 13:42:26.811000,-5.048192771084338,1.2650602409638554,8.156626506024097,1.5303494788473329,-5.006131207847946,8.841201716738198,3.0,1.2949272949272947,772.2441282358992,-0.0030301264495069553,0.16409300157333537,-0.28320027970397976,1354.5787545787546,-1.0,67.52575903283417,1.3088375955955676,
2023-08-16 13:42:26.818000,-5.096385542168675,1.2530120481927711,8.156626506024097,1.5156345800122624,-5.03065603923973,8.865726548129981,3.0,1.2953712953712955,771.9794344473008,-0.15407027562496434,-0.05209486626653457,-0.26455334770700994,1345.7875457875457,-1.0,67.52575903283417,1.3087023777351126,
2023-08-16 13:42:26.826000,-5.072289156626506,1.2409638554216869,8.204819277108435,1.5401594114040464,-5.084610668301655,8.848559166155733,3.0,1.2953712953712955,771.9794344473008,-0.029718547870170576,0.2051162519666679,-0.3692092535400033,1336.263736263736,-1.0,67.52575903283417,1.3085672051107775,
2023-08-16 13:42:26.834000,-5.1084337349397595,1.2530120481927711,8.156626506024097,1.4788473329245861,-5.084610668301655,8.806866952789699,3.0,1.2949272949272947,772.2441282358992,-0.13577297360293658,0.4007924946098707,-0.39717965153545826,1329.6703296703297,-1.0,67.52575903283417,1.3084320801476452,
2023-08-16 13:42:26.841000,-5.096385542168675,1.2771084337349399,8.120481927710843,1.5229920294297976,-5.0772532188841195,8.821581851624769,3.0,1.2949272949272947,772.2441282358992,-0.3041780782005716,-0.02925237457024723,-0.4103490472583184,1324.5421245421244,-1.0,67.52575903283417,1.3082970050028557,
2023-08-16 13:42:26.849000,-5.096385542168675,1.2650602409638554,8.096385542168676,1.5009196811771919,-5.1287553648068664,8.826486817903126,3.0,1.2949272949272947,772.2441282358992,0.20080414894237003,-0.07447118466289857,-0.2090787250160246,1322.3443223443223,-1.0,67.52575903283417,1.308161981555259,
2023-08-16 13:42:26.857000,-5.0843373493975905,1.2771084337349399,8.108433734939759,1.5278969957081545,-5.12385039852851,8.782342121397916,3.0,1.2944832944832945,772.5090036014406,0.2742264436804376,-0.2883281860031466,-0.013052852397878852,1324.5421245421244,-1.0,67.52575903283417,1.308027011693451,
2023-08-16 13:42:26.864000,-5.096385542168675,1.2891566265060241,8.132530120481928,1.5156345800122624,-5.084610668301655,8.779889638258737,3.0,1.2944832944832945,772.5090036014406,0.22749257036303192,0.1719014043470653,-0.24404172251034323,1331.8681318681317,-1.0,67.52575903283417,1.3078920971573222,
2023-08-16 13:42:26.872000,-5.072289156626506,1.2891566265060241,8.120481927710843,1.613733905579399,-5.057633353770693,8.7725321888412,3.0,1.2940392940392942,772.7740607308286,0.013052852397879719,0.184954256744945,0.15290484237515295,1341.3919413919414,-1.0,67.52575903283417,1.307757239380242,
2023-08-16 13:42:26.880000,-5.072289156626506,1.2891566265060241,8.168674698795181,1.537706928264868,-5.0331085223789085,8.806866952789699,3.0,1.2944832944832945,772.5090036014406,0.45580094400093313,-0.12213740458015267,-0.14031816327719832,1350.9157509157508,-1.0,67.52575903283417,1.3076224396296974,
2023-08-16 13:42:26.887000,-5.0843373493975905,1.2891566265060241,8.168674698795181,1.6186388718577558,-5.064990803188228,8.809319435928877,3.0,1.2944832944832945,772.5090036014406,-0.03507954081929947,-0.23238739001223746,0.02948546122020847,1361.1721611721612,-1.0,67.52575903283417,1.3074876991275146,
2023-08-16 13:42:26.895000,-5.0361445783132535,1.3012048192771084,8.19277108433735,1.537706928264868,-4.998773758430411,8.826486817903126,3.0,1.2940392940392942,772.7740607308286,0.33226501952100695,-0.5250276790396836,-0.04463609346774672,1371.4285714285713,-1.0,67.52575903283417,1.3073530190748541,
2023-08-16 13:42:26.903000,-5.0361445783132535,1.3012048192771084,8.168674698795181,1.5843041079092581,-5.0257510729613735,8.887798896382586,3.0,1.2940392940392942,772.7740607308286,-0.051395606316647816,-0.40090903793485155,-0.060136355690227905,1379.4871794871794,-1.0,67.52575903283417,1.307218400518902,
2023-08-16 13:42:26.910000,-5.0361445783132535,1.313253012048193,8.180722891566266,1.5818516247700796,-4.9816063764561616,8.917228694052728,3.0,1.2940392940392942,772.7740607308286,-0.18903327311928123,-0.26222248120738884,-0.45451896742614045,1387.5457875457876,-1.0,67.52575903283417,1.3070838443275672,
2023-08-16 13:42:26.918000,-5.024096385542169,1.3253012048192772,8.156626506024097,1.6382587369711832,-4.991416309012875,8.83629675045984,3.0,1.2935952935952937,773.0392998112236,-0.06794475846395957,0.05698968591573838,-0.15640114212458497,1394.8717948717947,-1.0,67.52575903283417,1.3069493511965706,
2023-08-16 13:42:26.926000,-5.024096385542169,1.313253012048193,8.144578313253012,1.5622317596566522,-5.0257510729613735,8.843654199877376,3.0,1.2935952935952937,773.0392998112236,0.25115086533418857,-0.1131635685566109,-0.5515995571353651,1397.8021978021977,-1.0,67.52575903283417,1.306814921657371,
2023-08-16 13:42:26.933000,-5.0120481927710845,1.3253012048192772,8.180722891566266,1.5401594114040464,-4.959534028203556,8.858369098712446,3.0,1.2931512931512932,773.304721030043,-0.3915855719363673,0.007225686148825746,-0.5320202785385468,1397.069597069597,-1.0,67.52575903283417,1.3066805560543109,
2023-08-16 13:42:26.941000,-5.048192771084338,1.2771084337349399,8.19277108433735,1.5499693439607602,-4.9816063764561616,8.833844267320663,3.0,1.2935952935952937,773.0392998112236,-0.4047549676592278,0.3109375910494722,-0.6342287745469378,1396.3369963369962,-1.0,67.52575903283417,1.306546254404852,
2023-08-16 13:42:26.949000,-5.0602409638554215,1.2409638554216869,8.180722891566266,1.572041692213366,-5.0625383200490495,8.855916615573268,3.0,1.2922632922632922,773.8361106339117,-0.08158032748674347,0.30499388147543915,-0.5074296369675426,1395.6043956043954,-1.0,67.52575903283417,1.3064120166865898,
2023-08-16 13:42:26.956000,-5.072289156626506,1.2289156626506024,8.156626506024097,1.5107296137339055,-5.028203556100552,8.86817903126916,3.0,1.2922632922632922,773.8361106339117,-0.29205757240254027,0.6971621700367107,-0.3981119981353067,1396.3369963369962,-1.0,67.52575903283417,1.3062778425496646,
2023-08-16 13:42:26.964000,-5.120481927710844,1.2530120481927711,8.180722891566266,1.4543225015328018,-5.1066830165542605,8.83874923359902,3.0,1.292707292707293,773.5703245749613,-0.12248703455509517,0.5081288969174294,0.032632130994697126,1397.069597069597,-1.0,67.52575903283417,1.3061437309869233,
2023-08-16 13:42:26.972000,-5.096385542168675,1.2289156626506024,8.180722891566266,1.471489883507051,-5.118945432250153,8.880441446965051,3.0,1.292707292707293,773.5703245749613,0.030534351145038167,0.36629567041547717,0.002097779849658962,1399.2673992673992,-1.0,67.52575903283417,1.3060096810578785,
2023-08-16 13:42:26.979000,-5.0843373493975905,1.2409638554216869,8.144578313253012,1.5303494788473329,-5.116492949110975,8.83629675045984,3.0,1.2922632922632922,773.8361106339117,-0.1074529456325395,0.21071033156576022,-0.1200396247304937,1399.2673992673992,-1.0,67.52575903283417,1.305875691910293,
2023-08-16 13:42:26.987000,-5.096385542168675,1.2409638554216869,8.132530120481928,1.525444512568976,-5.10913549969344,8.824034334763947,3.0,1.292707292707293,773.5703245749613,-0.13682186352776582,0.252083211934037,0.14066779325214124,1397.069597069597,-1.0,67.52575903283417,1.3057417623664591,
2023-08-16 13:42:26.995000,-5.0843373493975905,1.2409638554216869,8.096385542168676,1.5597792765174738,-5.0331085223789085,8.860821581851624,3.0,1.2922632922632922,773.8361106339117,0.047433133267292434,-0.11607715168113703,0.3662956704154767,1392.6739926739926,-1.0,67.52575903283417,1.3056078910748603,
2023-08-16 13:42:27.002000,-5.0843373493975905,1.2530120481927711,8.132530120481928,1.5156345800122624,-5.0404659717964435,8.81912936848559,3.0,1.2922632922632922,773.8361106339117,-0.15185595245032324,-0.23786492628634717,0.1198065380805316,1386.8131868131868,-1.0,67.52575903283417,1.305474076683535,
2023-08-16 13:42:27.010000,-5.0843373493975905,1.2650602409638554,8.132530120481928,1.5082771305947271,-5.0478234212139785,8.814224402207234,3.0,1.2922632922632922,773.8361106339117,-0.011537789173125373,-0.20325155876697107,0.1491754559757588,1382.4175824175823,-1.0,67.52575903283417,1.3053403176846836,
2023-08-16 13:42:27.018000,-5.072289156626506,1.2771084337349399,8.168674698795181,1.5009196811771919,-5.084610668301655,8.814224402207234,3.0,1.291819291819292,774.1020793950851,0.29205757240254027,-0.32515587669716206,0.10057688945865627,1374.3589743589744,-1.0,67.52575903283417,1.3052066124302484,
2023-08-16 13:42:27.025000,-5.096385542168675,1.2530120481927711,8.144578313253012,1.5401594114040464,-5.096873083997547,8.83629675045984,3.0,1.291819291819292,774.1020793950851,-0.24229357263562765,-0.2010372355923317,0.26758347415651773,1367.032967032967,-1.0,67.52575903283417,1.3050729590093681,
2023-08-16 13:42:27.033000,-5.072289156626506,1.2530120481927711,8.180722891566266,1.5058246474555486,-5.052728387492336,8.824034334763947,3.0,1.291819291819292,774.1020793950851,-0.0393916438435991,0.17854437387098687,0.022026688421420616,1362.6373626373625,-1.0,67.52575903283417,1.3049393553927016,
2023-08-16 13:42:27.041000,-5.072289156626506,1.2530120481927711,8.168674698795181,1.466584917228694,-5.121397915389331,8.792152053954629,3.0,1.2913752913752914,774.3682310469314,0.5263096556144746,-0.004312103024299628,0.06677932521414817,1358.2417582417581,-1.0,67.52575903283417,1.3048057995773235,
2023-08-16 13:42:27.048000,-5.072289156626506,1.2289156626506024,8.144578313253012,1.567136725935009,-5.079705702023299,8.821581851624769,3.0,1.2913752913752914,774.3682310469314,0.382961365887768,0.05908746576539864,0.10978381213216014,1356.0439560439559,-1.0,67.52575903283417,1.3046722894553902,
2023-08-16 13:42:27.056000,-5.0602409638554215,1.2409638554216869,8.144578313253012,1.5180870631514407,-5.028203556100552,8.806866952789699,3.0,1.2913752913752914,774.3682310469314,0.4886661616455915,0.2566284016082983,-0.2291241769127675,1357.5091575091574,-1.0,67.52575903283417,1.3045388226621772,
2023-08-16 13:42:27.064000,-5.0843373493975905,1.2289156626506024,8.180722891566266,1.5082771305947271,-5.067443286327406,8.811771919068056,3.0,1.2913752913752914,774.3682310469314,0.5585921566342288,-0.05127906299166698,-0.012120505798030423,1359.7069597069597,-1.0,67.52575903283417,1.3044053967539342,
2023-08-16 13:42:27.071000,-5.072289156626506,1.2650602409638554,8.144578313253012,1.5818516247700796,-5.0331085223789085,8.83874923359902,3.0,1.2909312909312909,774.63456577816,0.5518326437853264,-0.050929433016724465,-0.013519025697803066,1363.3699633699632,-1.0,67.52575903283417,1.3042720093650673,
2023-08-16 13:42:27.079000,-5.096385542168675,1.2289156626506024,8.156626506024097,1.5009196811771919,-5.057633353770693,8.897608828939301,3.0,1.2909312909312909,774.63456577816,0.21175922149058948,0.21059378824077765,-0.11910727813064484,1364.102564102564,-1.0,67.52575903283417,1.3041386580784309,
2023-08-16 13:42:27.087000,-5.0843373493975905,1.2650602409638554,8.168674698795181,1.537706928264868,-5.096873083997547,8.863274064990803,3.0,1.2909312909312909,774.63456577816,0.29788473865159426,0.07039216828856061,-0.07237340481323917,1362.6373626373625,-1.0,67.52575903283417,1.3040053404136387,
2023-08-16 13:42:27.094000,-5.072289156626506,1.2409638554216869,8.180722891566266,1.5450643776824033,-5.10913549969344,8.85346413243409,3.0,1.2909312909312909,774.63456577816,0.24847036885962412,0.022259775071383155,0.021793601771458507,1362.6373626373625,-1.0,67.52575903283417,1.3038720538471893,
2023-08-16 13:42:27.102000,-5.072289156626506,1.2650602409638554,8.132530120481928,1.525444512568976,-5.035561005518087,8.85346413243409,3.0,1.2895992895992896,775.434670339129,0.33704329584522996,-0.008391119398635847,0.26455334770700994,1359.7069597069597,-1.0,67.52575903283417,1.3037387958433078,
2023-08-16 13:42:27.110000,-5.0843373493975905,1.2771084337349399,8.156626506024097,1.496014714898835,-5.013488657265481,8.890251379521766,3.0,1.29004329004329,775.1677852348994,0.11805838820581471,0.03869238389371234,0.47538022259775053,1357.5091575091574,-1.0,67.52575903283417,1.3036055638533754,
2023-08-16 13:42:27.117000,-5.0602409638554215,1.2650602409638554,8.156626506024097,1.5892090741876148,-5.0478234212139785,8.846106683016554,3.0,1.2895992895992896,775.434670339129,0.1165433249810621,0.1480100227259487,0.31944525377309024,1353.8461538461538,-1.0,67.52575903283417,1.3034723552310679,
2023-08-16 13:42:27.125000,-5.0843373493975905,1.2771084337349399,8.168674698795181,1.5401594114040464,-5.096873083997547,8.86817903126916,3.0,1.29004329004329,775.1677852348994,0.11444554513140184,0.04148942369325762,0.33179884622108274,1353.113553113553,-1.0,67.52575903283417,1.3033391671242152,
2023-08-16 13:42:27.133000,-5.0602409638554215,1.2650602409638554,8.168674698795181,1.5278969957081545,-5.0478234212139785,8.860821581851624,3.0,1.29004329004329,775.1677852348994,0.4626770001748146,0.08717440708583403,0.010372355923314406,1355.3113553113553,-1.0,67.52575903283417,1.303205996642932,
2023-08-16 13:42:27.140000,-5.072289156626506,1.2891566265060241,8.156626506024097,1.5524218270999386,-5.052728387492336,8.851011649294911,3.0,1.29004329004329,775.1677852348994,0.12341938115494361,-0.06398228541460245,0.22213157741390344,1358.2417582417581,-1.0,67.52575903283417,1.3030728410484296,
2023-08-16 13:42:27.148000,-5.0602409638554215,1.2891566265060241,8.156626506024097,1.5892090741876148,-5.079705702023299,8.806866952789699,3.0,1.2895992895992896,775.434670339129,-0.10768603228250118,-0.22993998018763467,0.2813355865042829,1361.904761904762,-1.0,67.52575903283417,1.3029396977824632,
2023-08-16 13:42:27.156000,-5.0602409638554215,1.2891566265060241,8.204819277108435,1.537706928264868,-5.057633353770693,8.880441446965051,3.0,1.2895992895992896,775.434670339129,0.2758580502301728,-0.014451372297651493,0.25033506205932055,1365.5677655677655,-1.0,67.52575903283417,1.3028065643269748,
2023-08-16 13:42:27.163000,-5.0602409638554215,1.2891566265060241,8.156626506024097,1.5695892090741874,-5.0036787247087675,8.892703862660944,3.0,1.2895992895992896,775.434670339129,0.07517044461278531,0.04836547986714086,0.21781947438960425,1367.032967032967,-1.0,67.52575903283417,1.3026734379247127,
2023-08-16 13:42:27.171000,-5.0602409638554215,1.3012048192771084,8.156626506024097,1.601471489883507,-5.096873083997547,8.865726548129981,3.0,1.289155289155289,775.7017392801791,0.1806421537206454,-0.01538371889749992,0.18611968999475556,1369.9633699633698,-1.0,67.52575903283417,1.3025403159057665,
2023-08-16 13:42:27.178000,-5.0361445783132535,1.3012048192771084,8.144578313253012,1.6063764561618639,-5.087063151440834,8.851011649294911,3.0,1.289155289155289,775.7017392801791,0.3915855719363673,-0.107802575607482,0.45836489715051587,1373.6263736263736,-1.0,67.52575903283417,1.3024071956942413,
2023-08-16 13:42:27.186000,-5.048192771084338,1.3012048192771084,8.144578313253012,1.5843041079092581,-5.035561005518087,8.841201716738198,3.0,1.289155289155289,775.7017392801791,0.25266592855894116,0.22760911368801273,0.013285939047840959,1373.6263736263736,-1.0,67.52575903283417,1.3022740746654125,
2023-08-16 13:42:27.194000,-5.048192771084338,1.313253012048193,8.144578313253012,1.6063764561618639,-4.991416309012875,8.855916615573268,3.0,1.2887112887112888,775.968992248062,0.08344502068644033,0.6363265543965977,-0.1390361867024065,1372.161172161172,-1.0,67.52575903283417,1.3021409504497188,
2023-08-16 13:42:27.201000,-5.048192771084338,1.313253012048193,8.156626506024097,1.5818516247700796,-5.074800735744941,8.887798896382586,3.0,1.2887112887112888,775.968992248062,-0.023425208321193255,0.06608006526426272,-2.3308664996210684E-4,1370.6959706959706,-1.0,67.52575903283417,1.3020078207893278,
2023-08-16 13:42:27.209000,-5.048192771084338,1.3012048192771084,8.168674698795181,1.5744941753525443,-5.028203556100552,8.843654199877376,3.0,1.2887112887112888,775.968992248062,0.250335062059321,0.26268865450731393,-0.13763766680263387,1369.230769230769,-1.0,67.52575903283417,1.3018746833943498,
2023-08-16 13:42:27.217000,-5.072289156626506,1.2891566265060241,8.156626506024097,1.5622317596566522,-5.035561005518087,8.83629675045984,3.0,1.2887112887112888,775.968992248062,0.12551716100460386,0.5020686440184138,-0.15441990559990684,1366.3003663003662,-1.0,67.52575903283417,1.3017415362457294,
2023-08-16 13:42:27.224000,-5.096385542168675,1.3012048192771084,8.180722891566266,1.5867565910484365,-5.089515634580012,8.863274064990803,3.0,1.2882672882672883,776.2364294330519,-0.15069051920051313,0.3270205698968589,-0.0926519433599442,1361.1721611721612,-1.0,67.52575903283417,1.3016083775999074,
2023-08-16 13:42:27.232000,-5.0602409638554215,1.2891566265060241,8.156626506024097,1.5524218270999386,-5.1066830165542605,8.816676885346412,3.0,1.2882672882672883,776.2364294330519,0.21630441116485077,0.23331973661208588,-0.031583241069867866,1357.5091575091574,-1.0,67.52575903283417,1.3014752057162404,
2023-08-16 13:42:27.240000,-5.0602409638554215,1.3012048192771084,8.156626506024097,1.601471489883507,-5.087063151440834,8.863274064990803,3.0,1.2878232878232878,776.5040510256853,0.001398519899773509,-0.0759862478876529,-0.16968708117242592,1355.3113553113553,-1.0,67.52575903283417,1.3013420189995057,
2023-08-16 13:42:27.247000,-5.072289156626506,1.313253012048193,8.144578313253012,1.5622317596566522,-5.052728387492336,8.860821581851624,3.0,1.2882672882672883,776.2364294330519,-0.05920400909037948,0.349863061593148,0.09020453353534186,1356.0439560439559,-1.0,67.52575903283417,1.3012088159925876,
2023-08-16 13:42:27.255000,-5.0602409638554215,1.349397590361446,8.144578313253012,1.613733905579399,-5.020846106683016,8.821581851624769,3.0,1.2873792873792875,776.7718572167615,0.09195268341005701,0.008041489423693338,-0.23157158673736944,1358.2417582417581,-1.0,67.52575903283417,1.3010755953790991,
2023-08-16 13:42:27.263000,-5.0602409638554215,1.3253012048192772,8.156626506024097,1.5867565910484365,-5.057633353770693,8.826486817903126,3.0,1.2873792873792875,776.7718572167615,0.059320552415360314,0.06817784511392125,0.24369209253539986,1362.6373626373625,-1.0,67.52575903283417,1.3009423561452096,
2023-08-16 13:42:27.270000,-5.0361445783132535,1.2891566265060241,8.144578313253012,1.5769466584917229,-4.986511342734518,8.831391784181482,3.0,1.2873792873792875,776.7718572167615,-0.23285356331216078,0.3428704620942839,-0.1254006176796226,1368.4981684981683,-1.0,67.52575903283417,1.3008090973797473,
2023-08-16 13:42:27.278000,-5.048192771084338,1.3012048192771084,8.144578313253012,1.5303494788473329,-5.0772532188841195,8.851011649294911,3.0,1.2873792873792875,776.7718572167615,-0.13775421012761427,0.32399044344735195,-0.14020161995221703,1373.6263736263736,-1.0,67.52575903283417,1.300675818275383,
2023-08-16 13:42:27.286000,-5.072289156626506,1.2530120481927711,8.156626506024097,1.567136725935009,-5.035561005518087,8.841201716738198,3.0,1.2873792873792875,776.7718572167615,2.3308664996167294E-4,0.5953033040032634,-0.5050987704679215,1378.021978021978,-1.0,67.52575903283417,1.3005425180111516,
2023-08-16 13:42:27.293000,-5.096385542168675,1.2650602409638554,8.144578313253012,1.537706928264868,-5.052728387492336,8.833844267320663,3.0,1.2873792873792875,776.7718572167615,-0.09230231338500125,0.48272245207155845,-0.21327428471534296,1380.952380952381,-1.0,67.52575903283417,1.3004091959319777,
2023-08-16 13:42:27.301000,-5.120481927710844,1.2650602409638554,8.144578313253012,1.5867565910484365,-5.0698957694665845,8.816676885346412,3.0,1.2873792873792875,776.7718572167615,-0.18681894994464188,0.326437853271953,-0.08962181691043637,1381.6849816849815,-1.0,67.52575903283417,1.3002758516959196,
2023-08-16 13:42:27.309000,-5.1084337349397595,1.2771084337349399,8.168674698795181,1.5646842427958307,-5.089515634580012,8.848559166155733,3.0,1.2873792873792875,776.7718572167615,-0.2475380222597757,-0.22842491696288034,-0.04253831361808732,1382.4175824175823,-1.0,67.52575903283417,1.300142485144056,
2023-08-16 13:42:27.316000,-5.0843373493975905,1.2771084337349399,8.144578313253012,1.567136725935009,-4.993868792152053,8.833844267320663,3.0,1.286935286935287,777.0398481973434,-0.10652059903269108,-0.34753219509352606,-0.11794184488083431,1383.8827838827838,-1.0,67.52575903283417,1.3000090964579054,
2023-08-16 13:42:27.324000,-5.0843373493975905,1.2650602409638554,8.180722891566266,1.5156345800122624,-5.0625383200490495,8.860821581851624,3.0,1.286935286935287,777.0398481973434,-0.16723967134782317,-0.025289901520890112,-0.1931122894936192,1383.150183150183,-1.0,67.52575903283417,1.2998756860080187,
2023-08-16 13:42:27.332000,-5.072289156626506,1.2771084337349399,8.156626506024097,1.5082771305947271,-5.089515634580012,8.799509503372164,3.0,1.2864912864912865,777.3080241587576,-0.1196899947555499,0.11106578870695237,-0.2978847386515938,1380.952380952381,-1.0,67.52575903283417,1.2997422542021104,
2023-08-16 13:42:27.339000,-5.0843373493975905,1.2771084337349399,8.132530120481928,1.5033721643163702,-5.008583690987124,8.80441446965052,3.0,1.2864912864912865,777.3080241587576,-0.37899889283841265,0.018646931996970283,0.05547462269098533,1379.4871794871794,-1.0,67.52575903283417,1.299608801630521,
2023-08-16 13:42:27.347000,-5.0602409638554215,1.2650602409638554,8.120481927710843,1.5499693439607602,-5.087063151440834,8.799509503372164,3.0,1.2864912864912865,777.3080241587576,-0.3759687663889057,0.016316065497348348,0.05512499271604239,1380.952380952381,-1.0,67.52575903283417,1.2994753290408128,
2023-08-16 13:42:27.355000,-5.072289156626506,1.2409638554216869,8.108433734939759,1.59656652360515,-5.094420600858369,8.816676885346412,3.0,1.2864912864912865,777.3080241587576,-0.31233611094924574,-0.1826233902453231,-0.0372938639939397,1385.3479853479853,-1.0,67.52575903283417,1.2993418373433923,
2023-08-16 13:42:27.362000,-5.0843373493975905,1.2650602409638554,8.132530120481928,1.537706928264868,-5.067443286327406,8.873083997547516,3.0,1.2860472860472862,777.5763852925945,-0.17283375094691372,-0.1513897791503999,-0.09882873958394024,1395.6043956043954,-1.0,67.52575903283417,1.2992083276271411,
2023-08-16 13:42:27.370000,-5.0602409638554215,1.2650602409638554,8.132530120481928,1.5278969957081545,-5.057633353770693,8.809319435928877,3.0,1.2860472860472862,777.5763852925945,0.011188159198181129,0.15465299224986853,-0.11456208845638355,1410.2564102564102,-1.0,67.52575903283417,1.2990748010253226,
2023-08-16 13:42:27.378000,-5.048192771084338,1.2650602409638554,8.120481927710843,1.542611894543225,-4.998773758430411,8.797057020232986,3.0,1.2856032856032857,777.8449317907097,-0.2036011887419153,0.16689004137288066,0.22341355398869525,1428.5714285714284,-1.0,67.52575903283417,1.2989412588474,
2023-08-16 13:42:27.385000,-5.0843373493975905,1.2650602409638554,8.120481927710843,1.567136725935009,-5.057633353770693,8.794604537093807,3.0,1.2856032856032857,777.8449317907097,-0.4472932812773147,0.18029252374570287,0.20534933861663088,1451.2820512820513,-1.0,67.52575903283417,1.2988077025611795,
2023-08-16 13:42:27.393000,-5.0843373493975905,1.2771084337349399,8.144578313253012,1.5499693439607602,-5.038013488657265,8.85346413243409,3.0,1.2856032856032857,777.8449317907097,0.21140959151564523,-0.18611968999475512,0.17260066429695248,1478.3882783882782,-1.0,67.52575903283417,1.2986741337745804,
2023-08-16 13:42:27.401000,-5.0602409638554215,1.2650602409638554,8.132530120481928,1.5597792765174738,-5.057633353770693,8.83629675045984,3.0,1.2856032856032857,777.8449317907097,-0.08309539071149782,0.07482081463784107,-0.05722277256570135,1512.087912087912,-1.0,67.52575903283417,1.2985405543662227,
2023-08-16 13:42:27.408000,-5.0843373493975905,1.2650602409638554,8.144578313253012,1.5597792765174738,-5.0453709380748,8.809319435928877,3.0,1.2847152847152847,778.3825816485225,-0.22178194743896051,0.10418973253306914,-0.11887419148068318,1544.3223443223442,765.9912109375,78.32988047808765,1.2984069663493227,
2023-08-16 13:42:27.416000,-5.0843373493975905,1.2650602409638554,8.120481927710843,1.513182096873084,-5.0625383200490495,8.767627222562844,3.0,1.2847152847152847,778.3825816485225,-0.036478060719072974,0.40801818075869645,-0.17726239729619506,1575.8241758241757,-1.0,78.32988047808765,1.2982733720021638,
2023-08-16 13:42:27.424000,-5.096385542168675,1.2891566265060241,8.132530120481928,1.5033721643163702,-5.114040465971796,8.774984671980379,3.0,1.2847152847152847,778.3825816485225,0.023774838296135765,-0.05407610279121226,-0.0689936483887884,1603.6630036630036,-1.0,78.32988047808765,1.2981397736370048,
2023-08-16 13:42:27.431000,-5.096385542168675,1.2530120481927711,8.156626506024097,1.5107296137339055,-5.116492949110975,8.83874923359902,3.0,1.2847152847152847,778.3825816485225,0.0816968708117243,0.28261756307907515,-0.15978089854903574,1627.106227106227,-1.0,78.32988047808765,1.2980061736018018,
2023-08-16 13:42:27.439000,-5.0843373493975905,1.2530120481927711,8.144578313253012,1.5229920294297976,-5.138565297363581,8.90006131207848,3.0,1.2847152847152847,778.3825816485225,-0.21059378824077765,0.004312103024299628,-0.12726531087931944,1647.6190476190475,-1.0,78.32988047808765,1.2978725742810928,
2023-08-16 13:42:27.447000,-5.1084337349397595,1.2530120481927711,8.144578313253012,1.5573267933782955,-5.067443286327406,8.799509503372164,3.0,1.2847152847152847,778.3825816485225,0.2939222656022371,-0.37993123943826107,-0.050113629741856444,1662.2710622710622,-1.0,78.32988047808765,1.2977389779785178,
2023-08-16 13:42:27.454000,-5.096385542168675,1.2530120481927711,8.132530120481928,1.5450643776824033,-5.050275904353157,8.858369098712446,3.0,1.2847152847152847,778.3825816485225,0.2746926169803627,-0.04253831361808689,0.04020744711846625,1668.131868131868,-1.0,78.32988047808765,1.2976053870756012,
2023-08-16 13:42:27.462000,-5.0843373493975905,1.2891566265060241,8.156626506024097,1.567136725935009,-5.064990803188228,8.848559166155733,3.0,1.2847152847152847,778.3825816485225,0.3182798205232788,-0.2699143406561397,0.23786492628634676,1665.9340659340658,-1.0,78.32988047808765,1.2974718041797135,
2023-08-16 13:42:27.470000,-5.072289156626506,1.2891566265060241,8.144578313253012,1.4935622317596566,-5.118945432250153,8.828939301042304,3.0,1.2842712842712842,778.6516853932584,0.24066196608589246,0.0973136763591859,0.18914981644426293,1657.142857142857,-1.0,78.32988047808765,1.2973382321127784,
2023-08-16 13:42:27.477000,-5.072289156626506,1.2891566265060241,8.156626506024097,1.59656652360515,-5.104230533415082,8.833844267320663,3.0,1.2842712842712842,778.6516853932584,-0.021560515121496402,-0.282734106404056,9.323465998484274E-4,1642.4908424908424,-1.0,78.32988047808765,1.2972046736231198,
2023-08-16 13:42:27.485000,-5.0843373493975905,1.3012048192771084,8.180722891566266,1.6186388718577558,-5.111587982832618,8.858369098712446,3.0,1.2838272838272837,778.92097527235,0.08682477711089152,-0.15814929199930056,-0.0916030534351145,1624.1758241758241,-1.0,78.32988047808765,1.2970711315127634,
2023-08-16 13:42:27.493000,-5.0602409638554215,1.2891566265060241,8.204819277108435,1.5450643776824033,-5.035561005518087,8.811771919068056,3.0,1.2838272838272837,778.92097527235,-0.1131635685566109,-0.21898490763941522,0.01410174232270855,1600.7326007326005,-1.0,78.32988047808765,1.2969376086154167,
2023-08-16 13:42:27.500000,-5.0602409638554215,1.3012048192771084,8.168674698795181,1.5622317596566522,-5.0404659717964435,8.86817903126916,3.0,1.2838272838272837,778.92097527235,0.14637841617621353,0.02587261814579603,0.19800710914282388,1573.6263736263736,-1.0,78.32988047808765,1.2968041077743728,
2023-08-16 13:42:27.508000,-5.048192771084338,1.313253012048193,8.156626506024097,1.6112814224402205,-5.094420600858369,8.88289393010423,3.0,1.2838272838272837,778.92097527235,-0.32911834974651744,-0.12808111415418746,-0.1086183788823496,1545.054945054945,-1.0,78.32988047808765,1.296670631969602,
2023-08-16 13:42:27.516000,-5.0602409638554215,1.3012048192771084,8.156626506024097,1.5475168608215817,-5.067443286327406,8.821581851624769,3.0,1.2833832833832834,779.1904514789828,0.13181050055358118,0.2549967950585631,0.09102033681020902,1519.4139194139193,-1.0,78.32988047808765,1.2965371841785245,
2023-08-16 13:42:27.523000,-5.048192771084338,1.2771084337349399,8.204819277108435,1.5082771305947271,-5.064990803188228,8.797057020232986,3.0,1.2833832833832834,779.1904514789828,-0.1741157275217064,0.32981760969640417,0.1517394091253424,1492.3076923076922,-1.0,78.32988047808765,1.29640376737555,
2023-08-16 13:42:27.531000,-5.0843373493975905,1.2891566265060241,8.180722891566266,1.6186388718577558,-5.0698957694665845,8.78969957081545,3.0,1.2833832833832834,779.1904514789828,-0.21851873433949015,0.035662257444205384,-0.33587786259541985,1465.201465201465,-1.0,78.32988047808765,1.2962703843613144,
2023-08-16 13:42:27.539000,-5.0602409638554215,1.2771084337349399,8.132530120481928,1.5646842427958307,-5.001226241569589,8.824034334763947,3.0,1.282939282939283,779.4601142066101,-0.2016199522172376,0.5677990793077322,0.08134724083678094,1441.0256410256409,-1.0,78.32988047808765,1.2961370379214416,
2023-08-16 13:42:27.546000,-5.048192771084338,1.2530120481927711,8.156626506024097,1.5303494788473329,-5.0993255671367255,8.779889638258737,3.0,1.282939282939283,779.4601142066101,0.1503408892255689,0.350562321543033,0.23460171318687725,1419.7802197802198,-1.0,78.32988047808765,1.2960037308151329,
2023-08-16 13:42:27.554000,-5.072289156626506,1.2771084337349399,8.132530120481928,1.5744941753525443,-5.060085836909871,8.846106683016554,3.0,1.282939282939283,779.4601142066101,-0.1553522521997553,0.33401316939572295,-0.2689819940562904,1401.4652014652013,-1.0,78.32988047808765,1.2958704656146944,
2023-08-16 13:42:27.561000,-5.072289156626506,1.2650602409638554,8.108433734939759,1.59656652360515,-5.084610668301655,8.846106683016554,3.0,1.2820512820512822,780.0,-0.21455626129013475,-0.15908163859914898,0.24031233611094907,1383.8827838827838,-1.0,78.32988047808765,1.2957372448536997,
2023-08-16 13:42:27.569000,-5.1084337349397595,1.2771084337349399,8.108433734939759,1.5843041079092581,-5.155732679337829,8.843654199877376,3.0,1.2820512820512822,780.0,0.1392692733523686,0.11514480508128859,0.10418973253306914,1370.6959706959706,-1.0,78.32988047808765,1.2956040711544066,
2023-08-16 13:42:27.577000,-5.1084337349397595,1.313253012048193,8.120481927710843,1.5843041079092581,-5.121397915389331,8.784794604537094,3.0,1.2820512820512822,780.0,0.19928908571761567,0.14474680962647835,0.02995163452013268,1359.7069597069597,-1.0,78.32988047808765,1.2954709469943937,
2023-08-16 13:42:27.584000,-5.072289156626506,1.313253012048193,8.132530120481928,1.625996321275291,-5.0331085223789085,8.81912936848559,3.0,1.2820512820512822,780.0,0.18425499679505827,0.051861779616572894,-0.19858982576772935,1350.9157509157508,-1.0,78.32988047808765,1.295337874567999,
2023-08-16 13:42:27.592000,-5.0843373493975905,1.3012048192771084,8.132530120481928,1.5818516247700796,-5.087063151440834,8.848559166155733,3.0,1.2820512820512822,780.0,-0.013052852397879719,-0.3755025930889806,-0.10418973253306914,1344.3223443223442,-1.0,78.32988047808765,1.2952048559455929,
2023-08-16 13:42:27.600000,-5.0602409638554215,1.3012048192771084,8.144578313253012,1.5622317596566522,-5.104230533415082,8.848559166155733,3.0,1.2820512820512822,780.0,-0.04300448691801197,-0.0651477186644143,-0.14835965270089163,1339.194139194139,-1.0,78.32988047808765,1.2950718930837286,
2023-08-16 13:42:27.607000,-5.072289156626506,1.2891566265060241,8.156626506024097,1.6186388718577558,-5.082158185162477,8.863274064990803,3.0,1.2820512820512822,780.0,0.21816910436454764,0.10803566225744368,-0.16304411164850524,1334.065934065934,-1.0,78.32988047808765,1.294938987835626,
2023-08-16 13:42:27.615000,-5.0843373493975905,1.2891566265060241,8.156626506024097,1.5941140404659717,-5.064990803188228,8.809319435928877,3.0,1.2816072816072814,780.2702234540101,-0.008973836023541765,0.24567332906007885,-0.08414428063632665,1328.937728937729,-1.0,78.32988047808765,1.2948061421008894,
2023-08-16 13:42:27.623000,-5.072289156626506,1.2771084337349399,8.156626506024097,1.5695892090741874,-5.057633353770693,8.848559166155733,3.0,1.2816072816072814,780.2702234540101,-0.005477536274109728,0.2483538255346433,-0.0825126740865919,1327.4725274725274,-1.0,78.32988047808765,1.2946733576674352,
2023-08-16 13:42:27.630000,-5.072289156626506,1.2650602409638554,8.144578313253012,1.5180870631514407,-5.028203556100552,8.821581851624769,3.0,1.2816072816072814,780.2702234540101,0.1633937416234486,-0.2089621816910442,-0.18949944641920632,1325.2747252747251,-1.0,78.32988047808765,1.2945406360540015,
2023-08-16 13:42:27.638000,-5.0843373493975905,1.2650602409638554,8.144578313253012,1.6112814224402205,-5.038013488657265,8.860821581851624,3.0,1.2811632811632812,780.5406342055103,-0.048248936542160024,-0.022959035021269912,-0.2311054134374452,1321.6117216117216,-1.0,78.32988047808765,1.2944079788003577,
2023-08-16 13:42:27.646000,-5.072289156626506,1.2650602409638554,8.156626506024097,1.5867565910484365,-5.057633353770693,8.821581851624769,3.0,1.2816072816072814,780.2702234540101,0.08833984033564414,-0.20371773206689614,0.16957053784744466,1320.14652014652,-1.0,78.32988047808765,1.2942753873110073,
2023-08-16 13:42:27.653000,-5.072289156626506,1.2891566265060241,8.156626506024097,1.542611894543225,-5.0551808706315144,8.765174739423665,3.0,1.2811632811632812,780.5406342055103,0.11875764815570147,0.056756599265776704,0.019113105296894063,1323.076923076923,-1.0,78.32988047808765,1.2941428628487934,
2023-08-16 13:42:27.661000,-5.072289156626506,1.2891566265060241,8.168674698795181,1.554874310239117,-5.03065603923973,8.831391784181482,3.0,1.2811632811632812,780.5406342055103,-0.17271720762193288,0.15092360585047482,0.006992599498863639,1326.7399267399267,-1.0,78.32988047808765,1.2940104066995,
2023-08-16 13:42:27.669000,-5.0843373493975905,1.2891566265060241,8.144578313253012,1.5990190067443286,-5.060085836909871,8.784794604537094,3.0,1.2811632811632812,780.5406342055103,-0.0019812365246776914,0.10465590583299422,-0.17726239729619506,1331.8681318681317,-1.0,78.32988047808765,1.2938780200077282,
2023-08-16 13:42:27.676000,-5.0843373493975905,1.2891566265060241,8.132530120481928,1.5818516247700796,-5.087063151440834,8.843654199877376,3.0,1.2807192807192807,780.8112324492979,-0.06386574208962162,-0.27947089330458563,-0.11491171843132691,1337.7289377289376,-1.0,78.32988047808765,1.2937457037838236,
2023-08-16 13:42:27.684000,-5.0843373493975905,1.2891566265060241,8.156626506024097,1.5401594114040464,-5.079705702023299,8.83874923359902,3.0,1.2807192807192807,780.8112324492979,-0.33925761901987106,0.19439426606841012,0.07074179826350442,1342.8571428571427,-1.0,78.32988047808765,1.293613458772756,
2023-08-16 13:42:27.692000,-5.096385542168675,1.3012048192771084,8.132530120481928,1.5597792765174738,-5.138565297363581,8.826486817903126,3.0,1.2802752802752801,781.0820183804404,-0.0030301264495069553,0.05792203251558681,-0.3586038109667268,1345.7875457875457,-1.0,78.32988047808765,1.2934812855899869,
2023-08-16 13:42:27.699000,-5.120481927710844,1.2771084337349399,8.132530120481928,1.5156345800122624,-5.0478234212139785,8.86817903126916,3.0,1.2802752802752801,781.0820183804404,0.14847619602587203,0.06130178894003801,-0.2799370666045103,1348.7179487179487,-1.0,78.32988047808765,1.293349184708775,
2023-08-16 13:42:27.707000,-5.120481927710844,1.2650602409638554,8.108433734939759,1.542611894543225,-5.0478234212139785,8.75781729000613,3.0,1.2802752802752801,781.0820183804404,-0.0680613017889404,0.18402191014509658,-0.05023017306683771,1352.3809523809523,-1.0,78.32988047808765,1.293217156309365,
2023-08-16 13:42:27.715000,-5.096385542168675,1.2771084337349399,8.144578313253012,1.525444512568976,-5.018393623543838,8.846106683016554,3.0,1.2793872793872794,781.6241540864133,-0.08356156401142116,0.10558825243284264,0.026222248120738974,1354.5787545787546,-1.0,78.32988047808765,1.2930852004371514,
2023-08-16 13:42:27.722000,-5.1084337349397595,1.2771084337349399,8.168674698795181,1.5867565910484365,-5.0698957694665845,8.792152053954629,3.0,1.2793872793872794,781.6241540864133,-0.08472699726123126,-0.15278829905017166,0.10372355923314493,1359.7069597069597,-1.0,78.32988047808765,1.2929533171403909,
2023-08-16 13:42:27.730000,-5.096385542168675,1.2771084337349399,8.156626506024097,1.5524218270999386,-5.111587982832618,8.799509503372164,3.0,1.2798312798312799,781.3529921942758,-0.14393100635161074,-0.19835673911776724,-0.49216246139502356,1364.8351648351647,-1.0,78.32988047808765,1.2928215062473614,
2023-08-16 13:42:27.738000,-5.120481927710844,1.2650602409638554,8.156626506024097,1.6088289393010422,-5.096873083997547,8.811771919068056,3.0,1.2798312798312799,781.3529921942758,-0.1574500320494138,-0.36536332381562875,0.19998834566750198,1370.6959706959706,-1.0,78.32988047808765,1.292689767526544,
2023-08-16 13:42:27.745000,-5.1084337349397595,1.2530120481927711,8.132530120481928,1.525444512568976,-5.0919681177191904,8.794604537093807,3.0,1.2798312798312799,781.3529921942758,-0.15861546529922566,0.0012819765747909368,0.18437154012003953,1375.091575091575,-1.0,78.32988047808765,1.2925581008582214,
2023-08-16 13:42:27.753000,-5.072289156626506,1.2530120481927711,8.144578313253012,1.5695892090741874,-5.087063151440834,8.826486817903126,3.0,1.2793872793872794,781.6241540864133,0.009206922673503438,-0.19870636909270975,0.07773439776236805,1378.021978021978,-1.0,78.32988047808765,1.2924265059704585,
2023-08-16 13:42:27.761000,-5.096385542168675,1.2650602409638554,8.144578313253012,1.5328019619865112,-5.089515634580012,8.83874923359902,3.0,1.2793872793872794,781.6241540864133,0.1931122894936192,0.06223413553988644,-0.3173474739234308,1378.021978021978,-1.0,78.32988047808765,1.292294982314169,
2023-08-16 13:42:27.768000,-5.096385542168675,1.2771084337349399,8.132530120481928,1.5205395462906193,-5.028203556100552,8.828939301042304,3.0,1.2793872793872794,781.6241540864133,0.1922964862187516,-0.4330749956296249,0.10011071615873206,1377.2893772893772,-1.0,78.32988047808765,1.2921635289272664,
2023-08-16 13:42:27.776000,-5.096385542168675,1.2650602409638554,8.156626506024097,1.5278969957081545,-5.0478234212139785,8.809319435928877,3.0,1.2793872793872794,781.6241540864133,0.005360992949128891,-0.19159722626886486,0.07004253831361809,1377.2893772893772,-1.0,78.32988047808765,1.2920321447561338,
2023-08-16 13:42:27.784000,-5.0843373493975905,1.3012048192771084,8.144578313253012,1.4862047823421214,-5.0625383200490495,8.762722256284487,3.0,1.2789432789432789,781.8955042527339,-0.17819474389604262,0.18681894994464188,-0.0037293863993941435,1377.2893772893772,-1.0,78.32988047808765,1.2919008289459781,
2023-08-16 13:42:27.791000,-5.0843373493975905,1.2771084337349399,8.132530120481928,1.5867565910484365,-4.9816063764561616,8.873083997547516,3.0,1.2789432789432789,781.8955042527339,0.1548860788998302,-0.15325447235009676,-0.01876347532195112,1375.8241758241757,-1.0,78.32988047808765,1.2917695805465457,
2023-08-16 13:42:27.799000,-5.072289156626506,1.2891566265060241,8.156626506024097,1.5597792765174738,-5.0772532188841195,8.787247087676272,3.0,1.2789432789432789,781.8955042527339,0.20080414894237003,-0.21443971796515393,0.17982635044577824,1371.4285714285713,-1.0,78.32988047808765,1.2916383983675093,
2023-08-16 13:42:27.807000,-5.096385542168675,1.2891566265060241,8.144578313253012,1.5622317596566522,-5.072348252605763,8.81912936848559,3.0,1.2789432789432789,781.8955042527339,-0.18110832702057048,-0.3209603169978433,-0.050579803041780655,1364.8351648351647,-1.0,78.32988047808765,1.2915072811425428,
2023-08-16 13:42:27.814000,-5.1084337349397595,1.2650602409638554,8.132530120481928,1.5278969957081545,-5.074800735744941,8.846106683016554,3.0,1.2784992784992786,782.1670428893905,-0.2115261348406278,-0.1513897791503999,-0.03566225744420495,1359.7069597069597,-1.0,78.32988047808765,1.2913762276937397,
2023-08-16 13:42:27.822000,-5.072289156626506,1.2771084337349399,8.132530120481928,1.5818516247700796,-5.074800735744941,8.7725321888412,3.0,1.2784992784992786,782.1670428893905,-0.07295612143814421,-0.13460754035312647,0.1614125050987705,1356.0439560439559,-1.0,78.32988047808765,1.2912452367880343,
2023-08-16 13:42:27.830000,-5.096385542168675,1.2771084337349399,8.144578313253012,1.5401594114040464,-5.0625383200490495,8.811771919068056,3.0,1.2784992784992786,782.1670428893905,-0.10453936250801164,-0.2569780315832408,-0.11619369500611873,1353.113553113553,-1.0,78.32988047808765,1.2911143069939206,
2023-08-16 13:42:27.837000,-5.0843373493975905,1.2650602409638554,8.144578313253012,1.5622317596566522,-5.082158185162477,8.779889638258737,3.0,1.278055278055278,782.4387701928088,0.09405046325971728,-0.07109142823844736,0.01969582192179955,1348.7179487179487,-1.0,78.32988047808765,1.2909834369855213,
2023-08-16 13:42:27.845000,-5.096385542168675,1.2891566265060241,8.180722891566266,1.59656652360515,-5.0698957694665845,8.828939301042304,3.0,1.278055278055278,782.4387701928088,0.015500262222480757,-0.17516461744653566,-0.15104014917545608,1345.054945054945,-1.0,78.32988047808765,1.2908526253997357,
2023-08-16 13:42:27.853000,-5.096385542168675,1.2771084337349399,8.168674698795181,1.5524218270999386,-5.087063151440834,8.875536480686694,3.0,1.278055278055278,782.4387701928088,0.25686148825826,-0.35802109434182217,-0.10687022900763359,1342.1245421245421,-1.0,78.32988047808765,1.2907218706935109,
2023-08-16 13:42:27.860000,-5.072289156626506,1.2771084337349399,8.156626506024097,1.5082771305947271,-5.0331085223789085,8.760269773145309,3.0,1.2776112776112776,782.7106863596872,-0.03414719421945104,-0.11234776528174331,-0.1989394557426723,1338.4615384615383,-1.0,78.32988047808765,1.2905911714482736,
2023-08-16 13:42:27.868000,-5.0843373493975905,1.3012048192771084,8.132530120481928,1.6186388718577558,-5.064990803188228,8.855916615573268,3.0,1.2767232767232768,783.2550860719874,0.1661907814229939,-0.28238447642911174,0.23028961016257807,1333.3333333333333,-1.0,78.32988047808765,1.2904605260885118,
2023-08-16 13:42:27.876000,-5.0843373493975905,1.2771084337349399,8.156626506024097,1.5990190067443286,-5.0919681177191904,8.831391784181482,3.0,1.2767232767232768,783.2550860719874,-0.04754967659227327,-0.12703222422935648,0.19649204591806996,1328.2051282051282,-1.0,78.32988047808765,1.2903299328770823,
2023-08-16 13:42:27.883000,-5.0843373493975905,1.3012048192771084,8.156626506024097,1.567136725935009,-5.0257510729613735,8.880441446965051,3.0,1.2771672771672773,782.982791586998,0.1661907814229939,-0.20173649554221845,0.07435464133791729,1325.2747252747251,-1.0,78.32988047808765,1.2901993901238076,
2023-08-16 13:42:27.891000,-5.0843373493975905,1.2771084337349399,8.19277108433735,1.6210913549969344,-5.064990803188228,8.83874923359902,3.0,1.2771672771672773,782.982791586998,-0.015267175572519083,-0.07971563428704662,0.39368335178602626,1323.076923076923,-1.0,78.32988047808765,1.290068896051693,
2023-08-16 13:42:27.899000,-5.0843373493975905,1.2891566265060241,8.156626506024097,1.5941140404659717,-5.067443286327406,8.809319435928877,3.0,1.2771672771672773,782.982791586998,-0.015849892197425,-0.08158032748674347,0.39123594196142436,1323.076923076923,-1.0,78.32988047808765,1.2899384488644199,
2023-08-16 13:42:27.906000,-5.096385542168675,1.313253012048193,8.156626506024097,1.5744941753525443,-5.057633353770693,8.814224402207234,3.0,1.2771672771672773,782.982791586998,0.12376901112988785,0.036478060719072974,0.03706077734397759,1325.2747252747251,-1.0,78.32988047808765,1.2898080467817885,
2023-08-16 13:42:27.914000,-5.096385542168675,1.3012048192771084,8.156626506024097,1.6039239730226853,-5.0698957694665845,8.833844267320663,3.0,1.2767232767232768,783.2550860719874,0.21362391469028633,-0.043936833517860395,0.1129304819066488,1331.135531135531,-1.0,78.32988047808765,1.2896776882031085,
2023-08-16 13:42:27.922000,-5.072289156626506,1.313253012048193,8.144578313253012,1.5401594114040464,-5.094420600858369,8.799509503372164,3.0,1.2767232767232768,783.2550860719874,0.05745585921566346,-0.199055999067654,-0.1506905192005127,1337.7289377289376,-1.0,78.32988047808765,1.2895473715620223,
2023-08-16 13:42:27.929000,-5.096385542168675,1.2891566265060241,8.156626506024097,1.5524218270999386,-5.082158185162477,8.841201716738198,3.0,1.2771672771672773,782.982791586998,-0.18821746984441537,-0.167356214672804,0.18530388671988796,1342.1245421245421,-1.0,78.32988047808765,1.2894170951810322,
2023-08-16 13:42:27.937000,-5.0602409638554215,1.3012048192771084,8.156626506024097,1.5916615573267934,-5.074800735744941,8.831391784181482,3.0,1.2767232767232768,783.2550860719874,-0.17003671114736846,-0.1982401957927864,0.08822329701066374,1342.8571428571427,-1.0,78.32988047808765,1.289286857722163,
2023-08-16 13:42:27.944000,-5.096385542168675,1.2891566265060241,8.144578313253012,1.5867565910484365,-5.0772532188841195,8.83629675045984,3.0,1.2767232767232768,783.2550860719874,-0.21793601771458596,0.07738476778742467,0.11409591515645932,1340.6593406593406,-1.0,78.32988047808765,1.2891566580627236,
2023-08-16 13:42:27.952000,-5.096385542168675,1.2891566265060241,8.108433734939759,1.567136725935009,-5.079705702023299,8.833844267320663,3.0,1.2762792762792763,783.527570012176,-0.20453353534176372,0.17003671114736846,-0.1816910436454751,1337.7289377289376,-1.0,78.32988047808765,1.2890264950117825,
2023-08-16 13:42:27.960000,-5.096385542168675,1.3012048192771084,8.120481927710843,1.6039239730226853,-5.096873083997547,8.811771919068056,3.0,1.2762792762792763,783.527570012176,-0.02086125517160965,-0.07388846803799265,0.24322591923547562,1334.065934065934,-1.0,78.32988047808765,1.2888963673242155,
2023-08-16 13:42:27.967000,-5.096385542168675,1.313253012048193,8.108433734939759,1.5769466584917229,-5.082158185162477,8.792152053954629,3.0,1.2762792762792763,783.527570012176,-0.22189849076394133,0.007691859448750828,0.20768020511625196,1331.135531135531,-1.0,78.32988047808765,1.2887662737032393,
2023-08-16 13:42:27.975000,-5.1084337349397595,1.3012048192771084,8.096385542168676,1.5867565910484365,-5.074800735744941,8.821581851624769,3.0,1.275835275835276,783.8002436053592,0.09894528290892109,-0.14171668317697136,0.05349338616630721,1329.6703296703297,-1.0,78.32988047808765,1.2886362131005213,
2023-08-16 13:42:27.983000,-5.1084337349397595,1.3012048192771084,8.108433734939759,1.5082771305947271,-5.082158185162477,8.831391784181482,3.0,1.275835275835276,783.8002436053592,-0.024241011596060846,-0.1994056290425965,0.06817784511392125,1330.4029304029302,-1.0,78.32988047808765,1.28850618456892,
2023-08-16 13:42:27.990000,-5.096385542168675,1.3012048192771084,8.132530120481928,1.5524218270999386,-5.060085836909871,8.83629675045984,3.0,1.275835275835276,783.8002436053592,-0.0712079715634282,-0.47153429287337556,-0.025056814870928437,1331.8681318681317,-1.0,78.32988047808765,1.2883761871149275,
2023-08-16 13:42:27.998000,-5.096385542168675,1.2891566265060241,8.156626506024097,1.59656652360515,-5.072348252605763,8.770079705702022,3.0,1.2753912753912753,784.0731070496083,-0.1333255637783338,-0.3290018064215366,0.09812947963405393,1330.4029304029302,-1.0,78.32988047808765,1.2882462199978864,
2023-08-16 13:42:28.006000,-5.072289156626506,1.313253012048193,8.132530120481928,1.64316370324954,-5.079705702023299,8.814224402207234,3.0,1.2753912753912753,784.0731070496083,0.05069634636676106,-0.15978089854903574,0.29846745527649887,1326.7399267399267,-1.0,78.32988047808765,1.2881162825817363,
2023-08-16 13:42:28.013000,-5.1084337349397595,1.313253012048193,8.144578313253012,1.5916615573267934,-5.104230533415082,8.787247087676272,3.0,1.2753912753912753,784.0731070496083,-0.3788823495134318,-0.4202552298817086,-0.008391119398636281,1325.2747252747251,-1.0,78.32988047808765,1.287986374186361,
2023-08-16 13:42:28.021000,-5.0843373493975905,1.3253012048192772,8.132530120481928,1.6358062538320048,-5.087063151440834,8.83874923359902,3.0,1.2745032745032745,784.6194042849678,-0.4835382553464243,-0.32737019987180316,0.1605967018239029,1322.3443223443223,-1.0,78.32988047808765,1.2878564942468718,
2023-08-16 13:42:28.029000,-5.072289156626506,1.3373493975903614,8.144578313253012,1.5695892090741874,-5.057633353770693,8.858369098712446,3.0,1.2745032745032745,784.6194042849678,0.0867082337859107,-0.17504807412155482,-0.20639822854146014,1318.6813186813185,-1.0,78.32988047808765,1.2877266423126543,
2023-08-16 13:42:28.036000,-5.096385542168675,1.313253012048193,8.144578313253012,1.5818516247700796,-5.035561005518087,8.875536480686694,3.0,1.2745032745032745,784.6194042849678,-0.0079249460987125,-0.2825010197540943,-0.1418332265019522,1317.216117216117,-1.0,78.32988047808765,1.2875968179827129,
2023-08-16 13:42:28.044000,-5.072289156626506,1.3012048192771084,8.156626506024097,1.542611894543225,-5.0625383200490495,8.851011649294911,3.0,1.274947274947275,784.34616054327,-0.06980945166365643,0.14812656605092953,-0.32387390012237066,1315.7509157509157,-1.0,78.32988047808765,1.2874670209034704,
2023-08-16 13:42:28.052000,-5.072289156626506,1.2771084337349399,8.168674698795181,1.5180870631514407,-5.0698957694665845,8.855916615573268,3.0,1.2745032745032745,784.6194042849678,-0.004778276324222974,0.1466115028261752,-0.3362274925703632,1317.216117216117,-1.0,78.32988047808765,1.2873372509361067,
2023-08-16 13:42:28.059000,-5.072289156626506,1.2771084337349399,8.156626506024097,1.5990190067443286,-5.0331085223789085,8.85346413243409,3.0,1.2745032745032745,784.6194042849678,-0.17026979779733184,0.0692267350387505,-0.1801759804207216,1319.4139194139193,-1.0,78.32988047808765,1.287207508046452,
2023-08-16 13:42:28.067000,-5.072289156626506,1.2530120481927711,8.168674698795181,1.5646842427958307,-5.0772532188841195,8.826486817903126,3.0,1.2745032745032745,784.6194042849678,-0.05885437911543697,-0.03659460404405381,-0.10418973253306914,1320.8791208791208,-1.0,78.32988047808765,1.2870777921627503,
2023-08-16 13:42:28.075000,-5.072289156626506,1.2650602409638554,8.168674698795181,1.6112814224402205,-5.0551808706315144,8.855916615573268,3.0,1.2745032745032745,784.6194042849678,0.06759512848901532,0.19194685624380908,-0.3019637550259309,1324.5421245421244,-1.0,78.32988047808765,1.2869481034695578,
2023-08-16 13:42:28.082000,-5.096385542168675,1.2650602409638554,8.168674698795181,1.5892090741876148,-5.023298589822195,8.865726548129981,3.0,1.274059274059274,784.8928384736016,-0.05116251966668614,0.3882058155119161,-0.5592914165841151,1326.007326007326,-1.0,78.32988047808765,1.2868184424033895,
2023-08-16 13:42:28.090000,-5.096385542168675,1.2650602409638554,8.144578313253012,1.5352544451256898,-5.0772532188841195,8.826486817903126,3.0,1.274059274059274,784.8928384736016,0.14905891265077795,0.14218285647689471,-0.32690402657187806,1328.2051282051282,-1.0,78.32988047808765,1.2866888093712303,
2023-08-16 13:42:28.098000,-5.0843373493975905,1.2650602409638554,8.144578313253012,1.4592274678111588,-5.087063151440834,8.779889638258737,3.0,1.274059274059274,784.8928384736016,-0.04848202319212169,0.2481207388846799,-0.1875182098945282,1334.7985347985348,-1.0,78.32988047808765,1.2865592048841787,
2023-08-16 13:42:28.105000,-5.0843373493975905,1.2650602409638554,8.120481927710843,1.5229920294297976,-5.111587982832618,8.824034334763947,3.0,1.274059274059274,784.8928384736016,-0.2143231746401731,0.2154886078899832,0.16525843482314548,1339.9267399267399,-1.0,78.32988047808765,1.28642962969072,
2023-08-16 13:42:28.113000,-5.132530120481928,1.2771084337349399,8.156626506024097,1.5818516247700796,-5.0257510729613735,8.816676885346412,3.0,1.274059274059274,784.8928384736016,0.06456500203950837,0.2897267059029201,-0.01713186877221594,1343.5897435897434,-1.0,78.32988047808765,1.286300084643373,
2023-08-16 13:42:28.121000,-5.132530120481928,1.2650602409638554,8.132530120481928,1.567136725935009,-5.060085836909871,8.787247087676272,3.0,1.2736152736152735,785.1664633083493,-0.026688421420663622,-0.43016141250509876,-0.22702639706310812,1347.2527472527472,-1.0,78.32988047808765,1.2861705708530653,
2023-08-16 13:42:28.128000,-5.120481927710844,1.2530120481927711,8.132530120481928,1.5107296137339055,-5.12385039852851,8.885346413243408,3.0,1.2736152736152735,785.1664633083493,0.020161995221722892,-0.04451955014276631,0.1131635685566109,1349.4505494505493,-1.0,78.32988047808765,1.2860410893961371,
2023-08-16 13:42:28.136000,-5.132530120481928,1.2530120481927711,8.156626506024097,1.5892090741876148,-5.0919681177191904,8.877988963825873,3.0,1.2736152736152735,785.1664633083493,0.14299865975176232,-0.1358895169279174,0.053959559466231426,1350.18315018315,-1.0,78.32988047808765,1.2859116413189606,
2023-08-16 13:42:28.144000,-5.132530120481928,1.2530120481927711,8.156626506024097,1.5328019619865112,-5.138565297363581,8.81912936848559,3.0,1.2736152736152735,785.1664633083493,-0.11409591515645932,-0.39414952508595086,0.05384301614125059,1350.9157509157508,-1.0,78.32988047808765,1.2857822279191358,
2023-08-16 13:42:28.151000,-5.1084337349397595,1.2771084337349399,8.120481927710843,1.5793991416309012,-5.104230533415082,8.846106683016554,3.0,1.2731712731712732,785.440278988666,0.07097488491346653,-0.37678456966377327,0.46757181982401974,1350.9157509157508,-1.0,78.32988047808765,1.285652850749762,
2023-08-16 13:42:28.159000,-5.072289156626506,1.2891566265060241,8.120481927710843,1.5303494788473329,-5.101778050275904,8.806866952789699,3.0,1.2731712731712732,785.440278988666,-0.05244449624147708,-0.284482256278772,0.2679331041314607,1345.7875457875457,-1.0,78.32988047808765,1.2855235114645107,
2023-08-16 13:42:28.167000,-5.0843373493975905,1.313253012048193,8.120481927710843,1.6063764561618639,-5.0331085223789085,8.770079705702022,3.0,1.2731712731712732,785.440278988666,0.22492861721344828,-0.5576598100343804,-0.11362974185653511,1338.4615384615383,-1.0,78.32988047808765,1.2853942116625423,
2023-08-16 13:42:28.174000,-5.048192771084338,1.3373493975903614,8.132530120481928,1.6701410177805027,-5.035561005518087,8.816676885346412,3.0,1.271839271839272,786.2628731017629,0.22387972728861905,-0.5534642503350615,-0.11083270205698983,1331.8681318681317,-1.0,78.32988047808765,1.2852649530416178,
2023-08-16 13:42:28.182000,-5.0361445783132535,1.3012048192771084,8.156626506024097,1.5499693439607602,-5.0036787247087675,8.855916615573268,3.0,1.2722832722832724,785.9884836852207,0.10150923605850469,-0.5039333372181106,-0.09300157333488714,1326.007326007326,-1.0,78.32988047808765,1.2851357373807286,
2023-08-16 13:42:28.190000,-5.0120481927710845,1.3012048192771084,8.168674698795181,1.4862047823421214,-5.0404659717964435,8.85346413243409,3.0,1.2722832722832724,785.9884836852207,0.05803857584056938,-0.5317871918885843,0.2626886545073131,1324.5421245421244,-1.0,78.32988047808765,1.2850065665769044,
2023-08-16 13:42:28.197000,-5.0602409638554215,1.2771084337349399,8.168674698795181,1.5156345800122624,-5.018393623543838,8.851011649294911,3.0,1.2722832722832724,785.9884836852207,-0.26094050463259794,0.06911019171376967,-0.19684167589301332,1324.5421245421244,-1.0,78.32988047808765,1.2848774425099554,
2023-08-16 13:42:28.205000,-5.0843373493975905,1.2771084337349399,8.180722891566266,1.5695892090741874,-5.116492949110975,8.814224402207234,3.0,1.2722832722832724,785.9884836852207,0.21513897791504066,0.4243342462560448,-0.08915564361051216,1326.007326007326,-1.0,78.32988047808765,1.2847483669381552,
2023-08-16 13:42:28.213000,-5.0843373493975905,1.2891566265060241,8.156626506024097,1.5793991416309012,-5.12385039852851,8.806866952789699,3.0,1.2722832722832724,785.9884836852207,-0.07656896451255708,0.28401608297884695,-0.1339082804032397,1326.007326007326,-1.0,78.32988047808765,1.2846193417984448,
2023-08-16 13:42:28.220000,-5.096385542168675,1.3012048192771084,8.156626506024097,1.5401594114040464,-5.101778050275904,8.851011649294911,3.0,1.2722832722832724,785.9884836852207,-0.31816327719829796,0.4974069110191716,0.15651768544956582,1326.7399267399267,-1.0,78.32988047808765,1.284490369197982,
2023-08-16 13:42:28.228000,-5.096385542168675,1.2891566265060241,8.168674698795181,1.5401594114040464,-5.089515634580012,8.80441446965052,3.0,1.271839271839272,786.2628731017629,-0.28401608297884695,-0.06759512848901532,0.1392692733523686,1326.007326007326,-1.0,78.32988047808765,1.2843614512779662,
2023-08-16 13:42:28.236000,-5.1084337349397595,1.2891566265060241,8.168674698795181,1.5867565910484365,-5.074800735744941,8.851011649294911,3.0,1.271839271839272,786.2628731017629,-0.40487151098420865,0.2101276149408543,-0.06060252899015212,1323.8095238095236,735.3515625,81.59362549800797,1.284232590077296,
2023-08-16 13:42:28.243000,-5.096385542168675,1.2650602409638554,8.144578313253012,1.5180870631514407,-5.0698957694665845,8.875536480686694,3.0,1.271839271839272,786.2628731017629,-0.07924946098712153,0.25604568498339236,0.3674611036652877,1323.076923076923,-1.0,81.59362549800797,1.2841037875236145,
2023-08-16 13:42:28.251000,-5.1084337349397595,1.2650602409638554,8.132530120481928,1.59656652360515,-5.042918454935622,8.806866952789699,3.0,1.271839271839272,786.2628731017629,-0.017248412097196776,0.2229473806887706,0.18052561039566456,1325.2747252747251,-1.0,81.59362549800797,1.2839750455833965,
2023-08-16 13:42:28.259000,-5.132530120481928,1.2891566265060241,8.144578313253012,1.5524218270999386,-5.052728387492336,8.806866952789699,3.0,1.2713952713952714,786.537454164484,-0.07831711438727311,0.23914690286113813,-0.32364081347240814,1329.6703296703297,-1.0,81.59362549800797,1.283846366412079,
2023-08-16 13:42:28.266000,-5.096385542168675,1.2771084337349399,8.144578313253012,1.6333537706928265,-5.0478234212139785,8.851011649294911,3.0,1.2713952713952714,786.537454164484,-0.12248703455509517,0.22213157741390302,0.07435464133791729,1336.263736263736,-1.0,81.59362549800797,1.2837177521959635,
2023-08-16 13:42:28.274000,-5.0843373493975905,1.2771084337349399,8.132530120481928,1.5867565910484365,-5.096873083997547,8.855916615573268,3.0,1.2713952713952714,786.537454164484,-0.3192121671231272,0.26676767088165015,0.1981236524678047,1347.985347985348,-1.0,81.59362549800797,1.2835892049942377,
2023-08-16 13:42:28.282000,-5.096385542168675,1.2771084337349399,8.132530120481928,1.537706928264868,-5.0404659717964435,8.740649908031882,3.0,1.270951270951271,786.8122270742358,0.017714585397121858,0.11467863178136525,0.34869762834333656,1362.6373626373625,-1.0,81.59362549800797,1.2834607270282246,
2023-08-16 13:42:28.289000,-5.120481927710844,1.2771084337349399,8.132530120481928,1.5867565910484365,-5.104230533415082,8.833844267320663,3.0,1.270951270951271,786.8122270742358,-0.013635569022783902,-0.20430044869180033,0.33005069634636675,1379.4871794871794,-1.0,81.59362549800797,1.2833323205236664,
2023-08-16 13:42:28.297000,-5.096385542168675,1.3012048192771084,8.144578313253012,1.6382587369711832,-5.10913549969344,8.75781729000613,3.0,1.270951270951271,786.8122270742358,-0.08950527358545597,-0.3355282326204773,0.44612784802750416,1399.2673992673992,-1.0,81.59362549800797,1.2832039876918575,
2023-08-16 13:42:28.304000,-5.0843373493975905,1.313253012048193,8.156626506024097,1.5695892090741874,-5.035561005518087,8.860821581851624,3.0,1.270951270951271,786.8122270742358,-0.3944991550608934,-0.39018705203659376,0.10547170910786094,1421.9780219780218,-1.0,81.59362549800797,1.2830757308601421,
2023-08-16 13:42:28.312000,-5.072289156626506,1.313253012048193,8.144578313253012,1.630901287553648,-5.0772532188841195,8.83629675045984,3.0,1.270951270951271,786.8122270742358,-0.1329759338033913,-0.09440009323465978,0.11945690810558822,1446.153846153846,-1.0,81.59362549800797,1.2829475523362097,
2023-08-16 13:42:28.320000,-5.0843373493975905,1.3012048192771084,8.132530120481928,1.6382587369711832,-5.018393623543838,8.799509503372164,3.0,1.270951270951271,786.8122270742358,-0.04183905366820187,-0.29357263562729463,0.19474389604335393,1471.062271062271,-1.0,81.59362549800797,1.2828194545605445,
2023-08-16 13:42:28.327000,-5.072289156626506,1.313253012048193,8.144578313253012,1.5916615573267934,-5.1287553648068664,8.843654199877376,3.0,1.27006327006327,787.3623492396434,0.06491463201445088,0.19486043936833522,-0.06701241186411028,1496.7032967032967,-1.0,81.59362549800797,1.282691439961216,
2023-08-16 13:42:28.335000,-5.072289156626506,1.3012048192771084,8.108433734939759,1.4763948497854076,-5.020846106683016,8.848559166155733,3.0,1.27006327006327,787.3623492396434,0.017714585397121858,-0.2798205232795299,-0.11362974185653511,1521.6117216117216,-1.0,81.59362549800797,1.2825635110969273,
2023-08-16 13:42:28.343000,-5.0843373493975905,1.3012048192771084,8.168674698795181,1.6235438381361127,-5.0453709380748,8.80441446965052,3.0,1.27006327006327,787.3623492396434,-0.19672513256803206,0.12038925470543665,-0.19124759629392235,1543.5897435897434,-1.0,81.59362549800797,1.2824356705568,
2023-08-16 13:42:28.350000,-5.1084337349397595,1.2891566265060241,8.168674698795181,1.513182096873084,-5.082158185162477,8.83874923359902,3.0,1.27006327006327,787.3623492396434,-0.07563661791270866,0.4099994172833759,-0.09766330633412972,1559.7069597069597,-1.0,81.59362549800797,1.2823079206779664,
2023-08-16 13:42:28.358000,-5.0843373493975905,1.2771084337349399,8.132530120481928,1.5573267933782955,-5.079705702023299,8.81912936848559,3.0,1.27006327006327,787.3623492396434,-0.26082396130761537,0.3920517452362924,-0.32538896334712414,1570.6959706959706,-1.0,81.59362549800797,1.2821802635712065,
2023-08-16 13:42:28.366000,-5.096385542168675,1.2771084337349399,8.108433734939759,1.5524218270999386,-5.0919681177191904,8.858369098712446,3.0,1.27006327006327,787.3623492396434,-0.15407027562496434,0.37270555328943533,-0.01771458539712142,1573.6263736263736,-1.0,81.59362549800797,1.282052701156235,
2023-08-16 13:42:28.373000,-5.096385542168675,1.2409638554216869,8.120481927710843,1.5450643776824033,-5.116492949110975,8.811771919068056,3.0,1.27006327006327,787.3623492396434,0.07505390128780448,0.23157158673736986,-0.2777227434298701,1567.7655677655678,-1.0,81.59362549800797,1.2819252354632835,
2023-08-16 13:42:28.381000,-5.1084337349397595,1.2530120481927711,8.120481927710843,1.5499693439607602,-5.089515634580012,8.83629675045984,3.0,1.2696192696192696,787.6376988984088,-0.10838529223238792,-0.1199230814055133,0.28856127265310866,1558.2417582417581,-1.0,81.59362549800797,1.281797868626513,
2023-08-16 13:42:28.389000,-5.156626506024097,1.2530120481927711,8.120481927710843,1.5156345800122624,-5.150827713059472,8.784794604537094,3.0,1.2696192696192696,787.6376988984088,-0.0019812365246776914,-0.31594895402365863,0.5019521006934329,1542.8571428571427,-1.0,81.59362549800797,1.2816706026008846,
2023-08-16 13:42:28.396000,-5.132530120481928,1.2650602409638554,8.108433734939759,1.6063764561618639,-5.096873083997547,8.81912936848559,3.0,1.2696192696192696,787.6376988984088,-0.1883340131693962,-0.3882058155119161,0.5761901987063689,1520.8791208791208,-1.0,81.59362549800797,1.2815434392947844,
2023-08-16 13:42:28.404000,-5.132530120481928,1.313253012048193,8.108433734939759,1.5941140404659717,-5.12385039852851,8.83629675045984,3.0,1.2691752691752693,787.913241210425,-0.2919410290775594,-0.5848144047549673,0.6190781422993996,1497.4358974358972,-1.0,81.59362549800797,1.2814163807028596,
2023-08-16 13:42:28.412000,-5.120481927710844,1.3253012048192772,8.096385542168676,1.6873083997547516,-5.089515634580012,8.801961986511342,3.0,1.2691752691752693,787.913241210425,-0.47328244274809156,-0.7931938698211056,0.5835324281801759,1473.260073260073,-1.0,81.59362549800797,1.281289428762268,
2023-08-16 13:42:28.419000,-5.120481927710844,1.3373493975903614,8.132530120481928,1.64316370324954,-5.064990803188228,8.806866952789699,3.0,1.2691752691752693,787.913241210425,-0.08938873026047514,-0.9233727638249516,0.45615057397587566,1449.8168498168498,-1.0,81.59362549800797,1.2811625851879898,
2023-08-16 13:42:28.427000,-5.096385542168675,1.3373493975903614,8.096385542168676,1.6456161863887184,-5.0551808706315144,8.821581851624769,3.0,1.2687312687312686,788.1889763779527,0.0181807586970452,-0.98910319911427,0.13076161062875105,1425.6410256410256,-1.0,81.59362549800797,1.2810358514989493,
2023-08-16 13:42:28.435000,-5.0843373493975905,1.3373493975903614,8.132530120481928,1.6407112201103617,-5.050275904353157,8.799509503372164,3.0,1.2687312687312686,788.1889763779527,0.3391410756948902,-0.5539304236349867,0.06817784511392125,1402.9304029304028,-1.0,81.59362549800797,1.2809092291717967,
2023-08-16 13:42:28.442000,-5.048192771084338,1.3614457831325302,8.096385542168676,1.6554261189454322,-5.020846106683016,8.809319435928877,3.0,1.2687312687312686,788.1889763779527,0.001631606549735182,-0.5622049997086417,-0.13204358720354287,1381.6849816849815,-1.0,81.59362549800797,1.280782719614068,
2023-08-16 13:42:28.450000,-5.048192771084338,1.349397590361446,8.144578313253012,1.672593500919681,-5.064990803188228,8.814224402207234,3.0,1.2687312687312686,788.1889763779527,3.496299749425094E-4,-0.5571936367344552,-0.13204358720354287,1360.4395604395604,-1.0,81.59362549800797,1.2806563241691262,
2023-08-16 13:42:28.458000,-5.048192771084338,1.349397590361446,8.132530120481928,1.6088289393010422,-4.9816063764561616,8.824034334763947,3.0,1.2682872682872683,788.4649046035357,-0.18029252374570287,-0.5092943301672395,-0.29939980187634774,1339.9267399267399,-1.0,81.59362549800797,1.280530044270604,
2023-08-16 13:42:28.465000,-5.0361445783132535,1.3373493975903614,8.168674698795181,1.6088289393010422,-5.0551808706315144,8.858369098712446,3.0,1.2682872682872683,788.4649046035357,-0.4665229298991892,-0.0927684866849246,-0.6174465357496649,1320.8791208791208,-1.0,81.59362549800797,1.2804038812887062,
2023-08-16 13:42:28.473000,-5.0602409638554215,1.3012048192771084,8.156626506024097,1.6063764561618639,-5.013488657265481,8.828939301042304,3.0,1.2682872682872683,788.4649046035357,-0.5364489248878265,-0.2612901346075404,-0.5498514072606491,1304.0293040293038,-1.0,81.59362549800797,1.2802778365154739,
2023-08-16 13:42:28.481000,-5.048192771084338,1.3012048192771084,8.168674698795181,1.5941140404659717,-5.035561005518087,8.91477621091355,3.0,1.2669552669552668,789.2938496583143,-0.2399627061360057,0.184954256744945,-0.8189499446419207,1289.3772893772893,-1.0,81.59362549800797,1.2801519111606974,
2023-08-16 13:42:28.488000,-5.072289156626506,1.3012048192771084,8.156626506024097,1.5524218270999386,-5.0551808706315144,8.85346413243409,3.0,1.2673992673992673,789.0173410404624,-0.17667968067129,0.609638132975934,-0.5224637258900996,1276.1904761904761,-1.0,81.59362549800797,1.2800261062091658,
2023-08-16 13:42:28.496000,-5.0843373493975905,1.2891566265060241,8.168674698795181,1.5107296137339055,-5.094420600858369,8.841201716738198,3.0,1.2673992673992673,789.0173410404624,-0.3420546588194163,0.23809801293630886,-0.6869063574383775,1267.3992673992673,-1.0,81.59362549800797,1.2799004226090895,
2023-08-16 13:42:28.504000,-5.096385542168675,1.2530120481927711,8.168674698795181,1.5401594114040464,-5.087063151440834,8.865726548129981,3.0,1.267843267843268,788.7410260900017,-0.5229298991900234,0.41850708000699255,-0.6813122778392869,1264.4688644688645,-1.0,81.59362549800797,1.2797748611394388,
2023-08-16 13:42:28.511000,-5.1084337349397595,1.2289156626506024,8.156626506024097,1.4837522992029428,-5.163090128755364,8.887798896382586,3.0,1.267843267843268,788.7410260900017,-0.28821164267816574,0.29403880892721795,-0.521647922615232,1263.7362637362637,-1.0,81.59362549800797,1.2796494224577415,
2023-08-16 13:42:28.519000,-5.120481927710844,1.216867469879518,8.156626506024097,1.4641324340895157,-5.192519926425506,8.83629675045984,3.0,1.267843267843268,788.7410260900017,-0.05885437911543697,-0.029135831245264657,-0.5639531495833576,1264.4688644688645,-1.0,81.59362549800797,1.2795241074252253,
2023-08-16 13:42:28.527000,-5.144578313253012,1.2048192771084338,8.132530120481928,1.4984671980380133,-5.138565297363581,8.787247087676272,3.0,1.2673992673992673,789.0173410404624,0.11118233203193321,-0.04160596701823846,-0.4059204009090379,1265.9340659340658,-1.0,81.59362549800797,1.2793989168257995,
2023-08-16 13:42:28.534000,-5.132530120481928,1.1927710843373494,8.144578313253012,1.4224402207234825,-5.131207847946045,8.843654199877376,3.0,1.2673992673992673,789.0173410404624,-0.11934036478060739,0.08402773731134625,0.10255812598333439,1268.131868131868,-1.0,81.59362549800797,1.2792738512450292,
2023-08-16 13:42:28.542000,-5.144578313253012,1.2409638554216869,8.096385542168676,1.525444512568976,-5.153280196198651,8.787247087676272,3.0,1.2673992673992673,789.0173410404624,-0.07365538138803097,-0.19043179301905475,0.3286521764465941,1268.131868131868,-1.0,81.59362549800797,1.2791489111944636,
2023-08-16 13:42:28.550000,-5.144578313253012,1.2409638554216869,8.084337349397591,1.5597792765174738,-5.167995095033722,8.828939301042304,3.0,1.2669552669552668,789.2938496583143,-0.39461569838587424,-0.3518442981178257,0.3118699376493211,1268.8644688644688,-1.0,81.59362549800797,1.2790240971184754,
2023-08-16 13:42:28.557000,-5.120481927710844,1.2650602409638554,8.096385542168676,1.554874310239117,-5.12385039852851,8.755364806866952,3.0,1.2669552669552668,789.2938496583143,-0.46617329992424666,-0.4372705553289437,0.23530097313676357,1269.5970695970695,-1.0,81.59362549800797,1.2788994094012909,
2023-08-16 13:42:28.565000,-5.120481927710844,1.2771084337349399,8.120481927710843,1.5180870631514407,-5.084610668301655,8.806866952789699,3.0,1.2669552669552668,789.2938496583143,-0.2036011887419153,-0.7663889050754611,0.5218810092651941,1271.7948717948716,-1.0,81.59362549800797,1.2787748483426074,
2023-08-16 13:42:28.573000,-5.1084337349397595,1.2771084337349399,8.132530120481928,1.513182096873084,-5.199877375843041,8.801961986511342,3.0,1.2665112665112666,789.5705521472393,-0.05034671639181855,-1.1424742147893476,0.18413845347007743,1276.1904761904761,-1.0,81.59362549800797,1.2786504141649406,
2023-08-16 13:42:28.580000,-5.132530120481928,1.2891566265060241,8.144578313253012,1.542611894543225,-5.0772532188841195,8.83874923359902,3.0,1.2665112665112666,789.5705521472393,0.05862129246547356,-1.0249985432084372,-0.0146844589476136,1282.7838827838827,-1.0,81.59362549800797,1.2785261070210905,
2023-08-16 13:42:28.588000,-5.096385542168675,1.2650602409638554,8.132530120481928,1.5769466584917229,-5.089515634580012,8.81912936848559,3.0,1.2669552669552668,789.2938496583143,0.09090379348522774,-1.2134490997028142,0.3675776469902685,1288.6446886446886,-1.0,81.59362549800797,1.2784019269701126,
2023-08-16 13:42:28.596000,-5.096385542168675,1.2891566265060241,8.132530120481928,1.567136725935009,-5.015941140404659,8.83874923359902,3.0,1.2665112665112666,789.5705521472393,-0.0451022667676705,-1.1720762193345373,-0.06398228541460288,1296.7032967032967,-1.0,81.59362549800797,1.2782778741342422,
2023-08-16 13:42:28.603000,-5.072289156626506,1.3012048192771084,8.132530120481928,1.537706928264868,-5.10913549969344,8.821581851624769,3.0,1.2665112665112666,789.5705521472393,-0.15104014917545566,-1.0578637608530972,0.2870462094283552,1302.5641025641025,-1.0,81.59362549800797,1.2781539485896805,
2023-08-16 13:42:28.611000,-5.0602409638554215,1.2771084337349399,8.144578313253012,1.572041692213366,-5.050275904353157,8.83874923359902,3.0,1.2665112665112666,789.5705521472393,-0.02738768137054864,-1.0642736437270555,-0.09777984965911098,1305.4945054945053,-1.0,81.59362549800797,1.2780301503647593,
2023-08-16 13:42:28.619000,-5.0602409638554215,1.3012048192771084,8.156626506024097,1.5278969957081545,-5.023298589822195,8.814224402207234,3.0,1.266067266067266,789.8474487112046,-0.1774954839461576,-1.0082163044111654,0.02400792494609874,1311.3553113553112,-1.0,81.59362549800797,1.2779064795770925,
2023-08-16 13:42:28.626000,-5.0602409638554215,1.2771084337349399,8.144578313253012,1.5769466584917229,-4.961986511342734,8.855916615573268,3.0,1.266067266067266,789.8474487112046,-0.20604859856651633,-0.2949711555270664,-0.28203484645416926,1316.4835164835165,-1.0,81.59362549800797,1.2777829361554032,
2023-08-16 13:42:28.634000,-5.024096385542169,1.2771084337349399,8.144578313253012,1.5818516247700796,-5.015941140404659,8.909871244635193,3.0,1.2651792651792653,790.4018248815581,0.009906182623390191,-0.27410990035545674,-0.11246430860672459,1317.216117216117,-1.0,81.59362549800797,1.2776595198383018,
2023-08-16 13:42:28.642000,-5.072289156626506,1.2650602409638554,8.180722891566266,1.5278969957081545,-5.038013488657265,8.794604537093807,3.0,1.2651792651792653,790.4018248815581,-0.01876347532195112,-0.16525843482314548,-0.06712895518909155,1317.216117216117,-1.0,81.59362549800797,1.2775362304499789,
2023-08-16 13:42:28.649000,-5.0843373493975905,1.2891566265060241,8.180722891566266,1.5573267933782955,-5.0404659717964435,8.824034334763947,3.0,1.2656232656232658,790.124539554464,0.34811491171843195,-0.34590058854379085,-0.4957753044694364,1315.018315018315,-1.0,81.59362549800797,1.2774130676760789,
2023-08-16 13:42:28.657000,-5.0602409638554215,1.3012048192771084,8.168674698795181,1.6235438381361127,-5.0698957694665845,8.858369098712446,3.0,1.2656232656232658,790.124539554464,-0.08064798088689504,-0.14486335295145916,-0.07843365771225438,1313.5531135531135,-1.0,81.59362549800797,1.2772900312220856,
2023-08-16 13:42:28.665000,-5.072289156626506,1.3012048192771084,8.19277108433735,1.5769466584917229,-5.0919681177191904,8.86817903126916,3.0,1.2656232656232658,790.124539554464,-0.10896800885729212,-0.12656605092943313,-0.3676941903152498,1315.7509157509157,-1.0,81.59362549800797,1.2771671208438609,
2023-08-16 13:42:28.672000,-5.096385542168675,1.3012048192771084,8.144578313253012,1.59656652360515,-5.0036787247087675,8.858369098712446,3.0,1.2651792651792653,790.4018248815581,0.2424101159606085,-0.260357788007692,-0.16630732474797516,1319.4139194139193,-1.0,81.59362549800797,1.2770443361011956,
2023-08-16 13:42:28.680000,-5.0602409638554215,1.2650602409638554,8.180722891566266,1.537706928264868,-5.057633353770693,8.81912936848559,3.0,1.2651792651792653,790.4018248815581,-0.09463317988462146,-0.04230522696812521,-0.21210885146553243,1326.7399267399267,-1.0,81.59362549800797,1.276921676377557,
2023-08-16 13:42:28.687000,-5.096385542168675,1.2650602409638554,8.144578313253012,1.5303494788473329,-5.0478234212139785,8.799509503372164,3.0,1.2651792651792653,790.4018248815581,-0.1242351844298112,-0.3326146494959495,-0.11968999475555032,1332.6007326007325,-1.0,81.59362549800797,1.2767991410168438,
2023-08-16 13:42:28.695000,-5.072289156626506,1.2771084337349399,8.168674698795181,1.513182096873084,-5.0625383200490495,8.870631514408338,3.0,1.2651792651792653,790.4018248815581,-0.4763125691975985,-0.342287745469378,-0.3319153895460636,1336.263736263736,-1.0,81.59362549800797,1.2766767294601744,
2023-08-16 13:42:28.703000,-5.096385542168675,1.2771084337349399,8.180722891566266,1.537706928264868,-5.015941140404659,8.828939301042304,3.0,1.2651792651792653,790.4018248815581,-0.07505390128780448,-0.16968708117242592,-0.17936017714585403,1338.4615384615383,-1.0,81.59362549800797,1.2765544411164516,
2023-08-16 13:42:28.710000,-5.0843373493975905,1.2530120481927711,8.144578313253012,1.4886572654812997,-5.052728387492336,8.83874923359902,3.0,1.2647352647352648,790.6793048973143,-0.25581259833343073,-0.3189790804731656,-0.057922032515587675,1339.194139194139,-1.0,81.59362549800797,1.2764322755210202,
2023-08-16 13:42:28.718000,-5.0843373493975905,1.2530120481927711,8.168674698795181,1.4469650521152666,-5.094420600858369,8.787247087676272,3.0,1.2647352647352648,790.6793048973143,0.05174523629159206,-0.35930307091661307,-0.012003962473049587,1339.9267399267399,-1.0,81.59362549800797,1.2763102321860398,
2023-08-16 13:42:28.726000,-5.0843373493975905,1.2650602409638554,8.132530120481928,1.4690374003678723,-5.0698957694665845,8.81912936848559,3.0,1.2647352647352648,790.6793048973143,0.05151214964162865,-0.354058621292465,-0.01165433249810621,1342.1245421245421,-1.0,81.59362549800797,1.2761883104509109,
2023-08-16 13:42:28.733000,-5.096385542168675,1.2530120481927711,8.144578313253012,1.5622317596566522,-5.060085836909871,8.83629675045984,3.0,1.2647352647352648,790.6793048973143,-0.40673620418390555,-0.10652059903269108,-0.025989161470776866,1344.3223443223442,-1.0,81.59362549800797,1.276066509779813,
2023-08-16 13:42:28.741000,-5.0843373493975905,1.2891566265060241,8.144578313253012,1.513182096873084,-5.072348252605763,8.83874923359902,3.0,1.2642912642912645,790.956979806848,-0.26653458423168847,-0.28867781597808906,0.1689878212225396,1344.3223443223442,-1.0,81.59362549800797,1.2759448297613976,
2023-08-16 13:42:28.749000,-5.072289156626506,1.2771084337349399,8.144578313253012,1.601471489883507,-5.094420600858369,8.809319435928877,3.0,1.2642912642912645,790.956979806848,-0.020628168521647974,-0.5928558941786607,0.2608239613076162,1344.3223443223442,-1.0,81.59362549800797,1.2758232698317273,
2023-08-16 13:42:28.756000,-5.0843373493975905,1.313253012048193,8.156626506024097,1.5941140404659717,-5.10913549969344,8.848559166155733,3.0,1.2642912642912645,790.956979806848,-0.21933453761435773,-0.3728220966144162,0.5350504049880542,1342.1245421245421,-1.0,81.59362549800797,1.2757018292739424,
2023-08-16 13:42:28.764000,-5.072289156626506,1.3253012048192772,8.120481927710843,1.5867565910484365,-5.008583690987124,8.787247087676272,3.0,1.2642912642912645,790.956979806848,-0.07936600431210238,-0.4154769535574856,0.6689586853912944,1336.9963369963368,-1.0,81.59362549800797,1.2755805075157403,
2023-08-16 13:42:28.772000,-5.048192771084338,1.349397590361446,8.144578313253012,1.601471489883507,-5.0625383200490495,8.828939301042304,3.0,1.263847263847264,791.2348498155629,-0.030650894470019004,-0.6542742264436813,0.29497115552706726,1331.135531135531,-1.0,81.59362549800797,1.2754593041289923,
2023-08-16 13:42:28.779000,-5.0361445783132535,1.349397590361446,8.144578313253012,1.702023298589822,-5.008583690987124,8.892703862660944,3.0,1.263847263847264,791.2348498155629,-0.04335411689295448,-0.5437911543616347,0.15593496882466032,1324.5421245421244,-1.0,81.59362549800797,1.2753382186913207,
2023-08-16 13:42:28.787000,-4.9879518072289155,1.349397590361446,8.144578313253012,1.6456161863887184,-5.0036787247087675,8.816676885346412,3.0,1.262959262959263,791.7911759535946,-0.10314084260823987,-0.050579803041780225,0.35359244799254125,1317.216117216117,-1.0,81.59362549800797,1.2752172506265123,
2023-08-16 13:42:28.795000,-5.0,1.3614457831325302,8.168674698795181,1.630901287553648,-4.986511342734518,8.890251379521766,3.0,1.2634032634032635,791.5129151291512,-0.10279121263329563,0.27387681370549505,0.06060252899015212,1309.89010989011,-1.0,81.59362549800797,1.275096399214383,
2023-08-16 13:42:28.802000,-5.024096385542169,1.3373493975903614,8.180722891566266,1.6456161863887184,-4.988963825873697,8.904966278356836,3.0,1.2634032634032635,791.5129151291512,-0.3136180875240367,0.5475205407610285,-0.23028961016257807,1303.2967032967033,-1.0,81.59362549800797,1.2749756638244678,
2023-08-16 13:42:28.810000,-5.0120481927710845,1.3373493975903614,8.19277108433735,1.5941140404659717,-4.986511342734518,8.831391784181482,3.0,1.2634032634032635,791.5129151291512,-0.3850591457374283,0.5743255055066729,-0.3495134316182042,1296.7032967032967,-1.0,81.59362549800797,1.2748550439357191,
2023-08-16 13:42:28.818000,-5.0120481927710845,1.313253012048193,8.204819277108435,1.6799509503372163,-4.986511342734518,8.936848559166155,3.0,1.2634032634032635,791.5129151291512,-0.15348755900005842,0.8138220383427536,-0.6374919876464074,1290.10989010989,-1.0,81.59362549800797,1.2747345390177662,
2023-08-16 13:42:28.825000,-5.0120481927710845,1.2771084337349399,8.180722891566266,1.572041692213366,-4.9816063764561616,8.897608828939301,3.0,1.2634032634032635,791.5129151291512,-0.244507895810267,1.1748732591340827,-0.5567274634345319,1287.9120879120878,-1.0,81.59362549800797,1.2746141485506015,
