Shimmer_F5D4_Timestamp_FormattedUnix_CAL,Shimmer_F5D4_Accel_LN_X_CAL,Shimmer_F5D4_Accel_LN_Y_CAL,Shimmer_F5D4_Accel_LN_Z_CAL,Shimmer_F5D4_Accel_WR_X_CAL,Shimmer_F5D4_Accel_WR_Y_CAL,Shimmer_F5D4_Accel_WR_Z_CAL,Shimmer_F5D4_GSR_Range_CAL,Shimmer_F5D4_GSR_Skin_Conductance_CAL,Shimmer_F5D4_GSR_Skin_Resistance_CAL,Shimmer_F5D4_Gyro_X_CAL,Shimmer_F5D4_Gyro_Y_CAL,Shimmer_F5D4_Gyro_Z_CAL,Shimmer_F5D4_PPG_A13_CAL,Shimmer_F5D4_PPG_IBI_CAL,Shimmer_F5D4_PPGtoHR_CAL,Shimmer_F5D4_GSR_Skin_Conductance_LPF_CAL,
yyyy/mm/dd hh:mm:ss.000,m/(s^2),m/(s^2),m/(s^2),m/(s^2),m/(s^2),m/(s^2),no_units,uS,kOhms,deg/s,deg/s,deg/s,mV,ms,BPM,uS,
2023-08-16 13:53:03.327000,-7.734939759036145,1.5783132530120483,5.55421686746988,1.8099325567136726,-7.76026977314531,6.187614960147148,3.0,0.46375846375846375,2156.294877932025,0.05815511916555022,0.04032399044344752,0.02703805139560613,1373.6263736263736,-1.0,70.56745989016905,0.46416609045780677,
2023-08-16 13:53:03.334000,-7.746987951807229,1.602409638554217,5.590361445783133,1.8761496014714898,-7.762722256284488,6.096873083997547,3.0,0.46375846375846375,2156.294877932025,0.33133267292115853,0.13344210710331636,0.1494085426257209,1372.8937728937728,-1.0,70.56745989016905,0.4641644555702903,
2023-08-16 13:53:03.342000,-7.746987951807229,1.5903614457831325,5.566265060240964,1.854077253218884,-7.799509503372164,6.209687308399754,3.0,0.46375846375846375,2156.294877932025,-0.03589534409416706,-0.1721344909970287,0.1019754093584289,1371.4285714285713,-1.0,70.56745989016905,0.46416280407415217,
2023-08-16 13:53:03.350000,-7.746987951807229,1.5783132530120483,5.566265060240964,1.836909871244635,-7.799509503372164,6.202329858982219,3.0,0.46375846375846375,2156.294877932025,0.4390187052036597,-0.12411864110483035,0.11596060835615618,1371.4285714285713,-1.0,70.56745989016905,0.4641611347062734,
2023-08-16 13:53:03.357000,-7.734939759036145,1.5783132530120483,5.542168674698796,1.812385039852851,-7.711220110361741,6.187614960147148,3.0,0.46375846375846375,2156.294877932025,0.3882058155119161,-0.27748965677990794,0.15954781189907363,1373.6263736263736,-1.0,70.56745989016905,0.4641594463862173,
2023-08-16 13:53:03.365000,-7.698795180722892,1.602409638554217,5.578313253012048,1.8712446351931329,-7.733292458614347,6.121397915389331,3.0,0.4633144633144633,2158.361284139914,0.400559407959909,-0.21642095448983162,0.3239904434473515,1375.091575091575,-1.0,70.56745989016905,0.4641577379286377,
2023-08-16 13:53:03.372000,-7.710843373493976,1.6144578313253013,5.566265060240964,1.9031269160024524,-7.762722256284488,6.163090128755364,3.0,0.4633144633144633,2158.361284139914,-0.19532661266825857,-0.03228250101975418,0.4133791737078258,1376.5567765567764,-1.0,70.56745989016905,0.4641560080531901,
2023-08-16 13:53:03.380000,-7.698795180722892,1.6265060240963856,5.578313253012048,1.841814837522992,-7.748007357449417,6.160637645616186,3.0,0.46375846375846375,2156.294877932025,-0.05477536274109902,-0.21642095448983162,0.24171085601072215,1380.2197802197802,-1.0,70.56745989016905,0.4641542554899915,
2023-08-16 13:53:03.388000,-7.710843373493976,1.602409638554217,5.590361445783133,1.854077253218884,-7.762722256284488,6.1361128142244015,3.0,0.46375846375846375,2156.294877932025,-0.05127906299166698,-0.21595478118990652,0.24066196608589246,1383.8827838827838,-1.0,70.56745989016905,0.46415247911627233,
2023-08-16 13:53:03.395000,-7.72289156626506,1.602409638554217,5.590361445783133,1.8442673206621703,-7.76026977314531,6.204782342121398,3.0,0.46375846375846375,2156.294877932025,-0.11269739525668582,-0.15325447235009676,0.13099469727871316,1389.0109890109889,-1.0,70.56745989016905,0.46415067797566417,
2023-08-16 13:53:03.403000,-7.72289156626506,1.6265060240963856,5.590361445783133,1.8614347026364193,-7.733292458614347,6.182709993868792,3.0,0.46375846375846375,2156.294877932025,-0.02086125517160965,-0.12155468795524675,0.12982926402890263,1396.3369963369962,-1.0,70.56745989016905,0.4641488509993479,
2023-08-16 13:53:03.411000,-7.698795180722892,1.6144578313253013,5.602409638554217,1.8467198038013488,-7.728387492335989,6.18516247700797,3.0,0.46375846375846375,2156.294877932025,0.023774838296135765,-0.24345900588543773,0.039624730493560766,1405.8608058608058,-1.0,70.56745989016905,0.4641469970248464,
2023-08-16 13:53:03.418000,-7.698795180722892,1.5903614457831325,5.566265060240964,1.8638871857755976,-7.733292458614347,6.204782342121398,3.0,0.4633144633144633,2158.361284139914,-0.02191014509643891,-0.0745877279878794,-0.509877046792145,1416.117216117216,-1.0,70.56745989016905,0.4641451149422392,
2023-08-16 13:53:03.426000,-7.698795180722892,1.5903614457831325,5.590361445783133,1.8221949724095645,-7.728387492335989,6.145922746781116,3.0,0.46375846375846375,2156.294877932025,-0.023075578346250746,0.03309830429462177,-0.3073247479750598,1427.106227106227,-1.0,70.56745989016905,0.46414320354182187,
2023-08-16 13:53:03.434000,-7.698795180722892,1.5903614457831325,5.566265060240964,1.812385039852851,-7.789699570815451,6.114040465971796,3.0,0.46375846375846375,2156.294877932025,0.4351727754792852,0.3851756890624091,-0.18134141367053214,1437.3626373626373,-1.0,70.56745989016905,0.46414126163855374,
2023-08-16 13:53:03.441000,-7.746987951807229,1.5783132530120483,5.590361445783133,1.8221949724095645,-7.779889638258736,6.158185162477007,3.0,0.46375846375846375,2156.294877932025,0.3408892255696062,0.21490589126507728,-0.10442281918303124,1449.084249084249,-1.0,70.56745989016905,0.46413928836688356,
2023-08-16 13:53:03.449000,-7.759036144578314,1.5783132530120483,5.578313253012048,1.8565297363580624,-7.782342121397915,6.175352544451257,3.0,0.46375846375846375,2156.294877932025,0.2483538255346433,0.014567915622632328,0.1075694889575199,1459.3406593406592,-1.0,70.56745989016905,0.46413728287996664,
2023-08-16 13:53:03.457000,-7.759036144578314,1.5783132530120483,5.590361445783133,1.7706928264868178,-7.730839975475168,6.163090128755364,3.0,0.46375846375846375,2156.294877932025,0.12644950760445228,0.2126915680904379,-0.029135831245265524,1465.201465201465,-1.0,70.56745989016905,0.4641352442193305,
2023-08-16 13:53:03.464000,-7.759036144578314,1.602409638554217,5.578313253012048,1.8761496014714898,-7.777437155119558,6.165542611894543,3.0,0.46375846375846375,2156.294877932025,0.4622108268748913,-0.002214323174639364,-0.3491638016432608,1468.8644688644688,-1.0,70.56745989016905,0.464133171461466,
2023-08-16 13:53:03.472000,-7.734939759036145,1.6144578313253013,5.590361445783133,1.888412017167382,-7.843654199877375,6.138565297363581,3.0,0.46375846375846375,2156.294877932025,0.18611968999475512,-0.18542043004486836,0.32573859332206756,1471.7948717948716,-1.0,70.56745989016905,0.4641310637153694,
2023-08-16 13:53:03.480000,-7.710843373493976,1.6265060240963856,5.578313253012048,1.883507050889025,-7.794604537093807,6.1066830165542605,3.0,0.46375846375846375,2156.294877932025,0.14101742322708463,-0.38237864926286386,0.01631606549734878,1470.3296703296703,-1.0,70.56745989016905,0.46412892012035806,
2023-08-16 13:53:03.487000,-7.72289156626506,1.6265060240963856,5.566265060240964,1.8270999386879214,-7.716125076640098,6.175352544451257,3.0,0.46420246420246414,2154.232424677188,-0.00967309597342852,-0.0896218169104368,-0.04603461336751936,1468.131868131868,-1.0,70.56745989016905,0.4641267398441886,
2023-08-16 13:53:03.495000,-7.72289156626506,1.6265060240963856,5.590361445783133,1.8663396689147762,-7.721030042918454,6.160637645616186,3.0,0.46420246420246414,2154.232424677188,0.02191014509643891,-0.22679331041314688,0.10698677233261486,1467.3992673992673,-1.0,70.56745989016905,0.46412452236954044,
2023-08-16 13:53:03.503000,-7.72289156626506,1.6626506024096386,5.590361445783133,1.8344573881054567,-7.6989576946658485,6.155732679337829,3.0,0.46420246420246414,2154.232424677188,-0.11491171843132691,-0.20849600839111912,0.10721985898257697,1464.4688644688645,-1.0,70.56745989016905,0.4641222673555478,
2023-08-16 13:53:03.510000,-7.710843373493976,1.63855421686747,5.55421686746988,1.8761496014714898,-7.77498467198038,6.202329858982219,3.0,0.46375846375846375,2156.294877932025,-0.11467863178136525,-0.1611794184488075,0.135772973602937,1461.5384615384614,-1.0,70.56745989016905,0.46411997437227154,
2023-08-16 13:53:03.518000,-7.734939759036145,1.6265060240963856,5.602409638554217,1.807480073574494,-7.765174739423666,6.182709993868792,3.0,0.4633144633144633,2158.361284139914,-0.405337684284132,-0.06782821513897873,-0.047899306567216214,1457.8754578754579,-1.0,70.56745989016905,0.46411764304064373,
2023-08-16 13:53:03.526000,-7.72289156626506,1.602409638554217,5.578313253012048,1.8491722869405272,-7.701410177805027,6.155732679337829,3.0,0.46375846375846375,2156.294877932025,-0.09719713303420506,-0.29485461220208553,-0.2608239613076162,1454.212454212454,-1.0,70.56745989016905,0.4641152728426749,
2023-08-16 13:53:03.533000,-7.72289156626506,1.602409638554217,5.614457831325302,1.8393623543838136,-7.703862660944206,6.116492949110975,3.0,0.46375846375846375,2156.294877932025,-0.17516461744653566,0.04335411689295448,0.03146669774488659,1446.153846153846,-1.0,70.56745989016905,0.46411286324025514,
2023-08-16 13:53:03.541000,-7.734939759036145,1.5783132530120483,5.578313253012048,1.7755977927651747,-7.723482526057633,6.121397915389331,3.0,0.46375846375846375,2156.294877932025,0.14614532952625184,0.24310937591049522,-0.014334828972670657,1436.6300366300366,-1.0,70.56745989016905,0.4641104138361861,
2023-08-16 13:53:03.549000,-7.72289156626506,1.602409638554217,5.566265060240964,1.8663396689147762,-7.782342121397915,6.192519926425505,3.0,0.46375846375846375,2156.294877932025,-0.03950818716857993,-0.03123361109492492,-0.015267175572519083,1426.3736263736262,-1.0,70.56745989016905,0.4641079242375059,
2023-08-16 13:53:03.556000,-7.72289156626506,1.5903614457831325,5.578313253012048,1.7878602084610666,-7.6817903126916,6.153280196198651,3.0,0.46375846375846375,2156.294877932025,0.11386282850649766,0.07575316123768949,-0.1828564768952856,1417.5824175824175,-1.0,70.56745989016905,0.4641053940577264,
2023-08-16 13:53:03.564000,-7.72289156626506,1.602409638554217,5.578313253012048,1.8638871857755976,-7.738197424892704,6.177805027590435,3.0,0.46375846375846375,2156.294877932025,0.09754676300914931,0.3967134782355345,-0.21455626129013475,1408.058608058608,-1.0,70.56745989016905,0.4641028229192303,
2023-08-16 13:53:03.572000,-7.72289156626506,1.602409638554217,5.578313253012048,1.812385039852851,-7.77498467198038,6.118945432250153,3.0,0.46375846375846375,2156.294877932025,0.11188159198181996,0.0587378357904544,-0.04754967659227327,1397.8021978021977,-1.0,70.56745989016905,0.46410021031707327,
2023-08-16 13:53:03.579000,-7.710843373493976,1.5783132530120483,5.578313253012048,1.8172900061312078,-7.801961986511342,6.18516247700797,3.0,0.46375846375846375,2156.294877932025,0.09381737660975387,-0.06293339548977318,-0.23203776003729365,1386.8131868131868,-1.0,70.56745989016905,0.46409755578081047,
2023-08-16 13:53:03.587000,-7.72289156626506,1.5903614457831325,5.590361445783133,1.8712446351931329,-7.789699570815451,6.141017780502759,3.0,0.46375846375846375,2156.294877932025,0.0451022667676705,0.1064040557077085,-0.07703513781248174,1378.7545787545787,-1.0,70.56745989016905,0.46409485900494074,
2023-08-16 13:53:03.595000,-7.72289156626506,1.5783132530120483,5.578313253012048,1.8786020846106681,-7.755364806866952,6.101778050275904,3.0,0.46420246420246414,2154.232424677188,0.02925237457024723,-0.10850183555736877,0.13565643027795574,1374.3589743589744,-1.0,70.56745989016905,0.4640921197027721,
2023-08-16 13:53:03.602000,-7.72289156626506,1.602409638554217,5.542168674698796,1.8786020846106681,-7.75781729000613,6.0698957694665845,3.0,0.46375846375846375,2156.294877932025,-0.03414719421945104,-0.1222539479051335,-0.03449682419439442,1373.6263736263736,-1.0,70.56745989016905,0.4640893377589856,
2023-08-16 13:53:03.610000,-7.710843373493976,1.5903614457831325,5.566265060240964,1.8442673206621703,-7.755364806866952,6.148375229920294,3.0,0.46375846375846375,2156.294877932025,0.012120505798029556,-0.10733640230755867,-0.0476662199172541,1375.091575091575,-1.0,70.56745989016905,0.46408651310558824,
2023-08-16 13:53:03.618000,-7.710843373493976,1.6265060240963856,5.578313253012048,1.841814837522992,-7.684242795830778,6.143470263641937,3.0,0.46375846375846375,2156.294877932025,0.5011362974185654,-0.25872618145795684,-0.1834391935201911,1377.2893772893772,-1.0,70.56745989016905,0.4640836455664313,
2023-08-16 13:53:03.625000,-7.72289156626506,1.6144578313253013,5.55421686746988,1.8393623543838136,-7.694052728387492,6.10913549969344,3.0,0.46375846375846375,2156.294877932025,0.12936309072897842,-0.2569780315832408,0.09533243983450865,1382.4175824175823,-1.0,70.56745989016905,0.4640807349996643,
2023-08-16 13:53:03.633000,-7.710843373493976,1.6144578313253013,5.578313253012048,1.8467198038013488,-7.745554874310239,6.163090128755364,3.0,0.46375846375846375,2156.294877932025,0.0658469786142993,0.01934619194685704,0.15488607889983105,1386.8131868131868,-1.0,70.56745989016905,0.4640777813014834,
2023-08-16 13:53:03.641000,-7.734939759036145,1.6265060240963856,5.578313253012048,1.8908645003065603,-7.728387492335989,6.158185162477007,3.0,0.46375846375846375,2156.294877932025,-0.23786492628634717,-0.16316065497348695,-0.2415943126857409,1389.0109890109889,-1.0,70.56745989016905,0.46407478440989736,
2023-08-16 13:53:03.648000,-7.734939759036145,1.6144578313253013,5.590361445783133,1.9031269160024524,-7.733292458614347,6.217044757817289,3.0,0.46375846375846375,2156.294877932025,-0.11421245848144017,0.25138395198415026,-0.056173882640871656,1386.8131868131868,-1.0,70.56745989016905,0.4640717443084919,
2023-08-16 13:53:03.656000,-7.710843373493976,1.6144578313253013,5.578313253012048,1.8565297363580624,-7.738197424892704,6.160637645616186,3.0,0.46375846375846375,2156.294877932025,-0.39974360468504144,0.00827457607365501,-0.02389138162111747,1384.6153846153845,-1.0,70.56745989016905,0.4640686610301729,
2023-08-16 13:53:03.664000,-7.734939759036145,1.5783132530120483,5.602409638554217,1.888412017167382,-7.74310239117106,6.190067443286327,3.0,0.46375846375846375,2156.294877932025,-0.39659693491055364,0.010139269273351865,-0.02319212167123115,1383.150183150183,-1.0,70.56745989016905,0.46406553466086115,
2023-08-16 13:53:03.671000,-7.710843373493976,1.602409638554217,5.566265060240964,1.841814837522992,-7.762722256284488,6.1704475781729,3.0,0.4633144633144633,2158.361284139914,0.03309830429462177,0.25534642503350563,-0.16071324514888416,1380.2197802197802,-1.0,70.56745989016905,0.46406236534312106,
2023-08-16 13:53:03.679000,-7.698795180722892,1.6144578313253013,5.578313253012048,1.8859595340282034,-7.76026977314531,6.141017780502759,3.0,0.46375846375846375,2156.294877932025,-0.10535516578287923,0.1307616106287519,0.2670007575316123,1377.2893772893772,-1.0,70.56745989016905,0.46405915326915487,
2023-08-16 13:53:03.687000,-7.72289156626506,1.5783132530120483,5.590361445783133,1.8663396689147762,-7.725935009196811,6.1361128142244015,3.0,0.46375846375846375,2156.294877932025,-0.13484062700308813,-0.05360992949128891,-0.04207214031816311,1377.2893772893772,-1.0,70.56745989016905,0.4640558986525156,
2023-08-16 13:53:03.694000,-7.686746987951808,1.6144578313253013,5.590361445783133,1.8982219497240955,-7.782342121397915,6.190067443286327,3.0,0.46375846375846375,2156.294877932025,0.04941436979197012,0.23611677641163117,0.06433191538954626,1376.5567765567764,-1.0,70.56745989016905,0.46405260176272256,
2023-08-16 13:53:03.702000,-7.710843373493976,1.602409638554217,5.578313253012048,1.807480073574494,-7.779889638258736,6.138565297363581,3.0,0.46375846375846375,2156.294877932025,-0.012703222422935475,0.28098595652934,-0.012936309072898016,1373.6263736263736,-1.0,70.56745989016905,0.46404926293855586,
2023-08-16 13:53:03.710000,-7.710843373493976,1.566265060240964,5.566265060240964,1.8295524218270998,-7.809319435928877,6.175352544451257,3.0,0.46375846375846375,2156.294877932025,-0.07295612143814421,0.18938290309422548,0.10966726880717886,1371.4285714285713,-1.0,70.56745989016905,0.46404588259063834,
2023-08-16 13:53:03.717000,-7.734939759036145,1.5903614457831325,5.590361445783133,1.8295524218270998,-7.782342121397915,6.096873083997547,3.0,0.46375846375846375,2156.294877932025,0.15873200862420647,0.06759512848901532,-0.13682186352776626,1372.161172161172,-1.0,70.56745989016905,0.46404246120382925,
2023-08-16 13:53:03.725000,-7.746987951807229,1.602409638554217,5.578313253012048,1.8565297363580624,-7.797057020232986,6.172900061312078,3.0,0.46375846375846375,2156.294877932025,-0.10139269273352386,0.0848435405862121,0.2897267059029192,1374.3589743589744,-1.0,70.56745989016905,0.46403899933941845,
2023-08-16 13:53:03.733000,-7.734939759036145,1.6144578313253013,5.530120481927711,1.8712446351931329,-7.721030042918454,6.121397915389331,3.0,0.46375846375846375,2156.294877932025,0.31035487442456805,0.17667968067129,0.24066196608589246,1379.4871794871794,-1.0,70.56745989016905,0.4640354974983524,
2023-08-16 13:53:03.740000,-7.72289156626506,1.5783132530120483,5.578313253012048,1.8148375229920293,-7.718577559779276,6.1361128142244015,3.0,0.46375846375846375,2156.294877932025,-0.025756074820815194,-0.08344502068644033,0.010488899248295677,1386.080586080586,-1.0,70.56745989016905,0.4640319562821062,
2023-08-16 13:53:03.748000,-7.72289156626506,1.5903614457831325,5.578313253012048,1.8442673206621703,-7.735744941753525,6.0993255671367255,3.0,0.46375846375846375,2156.294877932025,0.06701241186411114,-0.29846745527649843,0.009440009323465979,1391.9413919413919,-1.0,70.56745989016905,0.4640283765217974,
2023-08-16 13:53:03.755000,-7.734939759036145,1.602409638554217,5.602409638554217,1.8197424892703862,-7.740649908031882,6.177805027590435,3.0,0.46375846375846375,2156.294877932025,0.28040323990443405,-0.2821513897791501,-0.2813355865042829,1394.8717948717947,-1.0,70.56745989016905,0.46402475913032876,
2023-08-16 13:53:03.763000,-7.710843373493976,1.602409638554217,5.578313253012048,1.8393623543838136,-7.686695278969957,6.177805027590435,3.0,0.46375846375846375,2156.294877932025,-0.1341413670532014,-0.32713711322183975,-0.01946273527183744,1393.4065934065934,-1.0,70.56745989016905,0.46402110510355793,
2023-08-16 13:53:03.771000,-7.734939759036145,1.602409638554217,5.578313253012048,1.8172900061312078,-7.706315144083384,6.1361128142244015,3.0,0.46375846375846375,2156.294877932025,-0.08775712371073996,-0.02109434182157132,0.013402482372822228,1391.9413919413919,-1.0,70.56745989016905,0.46401741552118253,
2023-08-16 13:53:03.778000,-7.734939759036145,1.5903614457831325,5.614457831325302,1.8712446351931329,-7.703862660944206,6.160637645616186,3.0,0.46375846375846375,2156.294877932025,0.15779966202435805,-0.5105763067420321,-0.3659460404405338,1386.8131868131868,-1.0,70.56745989016905,0.46401369154733296,
2023-08-16 13:53:03.786000,-7.710843373493976,1.602409638554217,5.578313253012048,1.836909871244635,-7.750459840588595,6.1361128142244015,3.0,0.46375846375846375,2156.294877932025,0.15733348872443298,0.010955072548219456,0.11048307208204645,1383.150183150183,-1.0,70.56745989016905,0.4640099344308616,
2023-08-16 13:53:03.794000,-7.72289156626506,1.5903614457831325,5.590361445783133,1.824647455548743,-7.74310239117106,6.150827713059472,3.0,0.46375846375846375,2156.294877932025,-0.024940271545947603,-0.050812889691743635,0.01410174232270855,1380.2197802197802,-1.0,70.56745989016905,0.46400614550531516,
2023-08-16 13:53:03.801000,-7.72289156626506,1.6144578313253013,5.590361445783133,1.841814837522992,-7.713672593500919,6.141017780502759,3.0,0.46375846375846375,2156.294877932025,-0.3155993240487144,-0.0666627818891669,-0.07621933453761415,1376.5567765567764,-1.0,70.56745989016905,0.4640023261885932,
2023-08-16 13:53:03.809000,-7.710843373493976,1.5903614457831325,5.578313253012048,1.8050275904353157,-7.779889638258736,6.172900061312078,3.0,0.46375846375846375,2156.294877932025,0.20371773206689614,0.2682827341064045,-0.13414136705320182,1374.3589743589744,-1.0,70.56745989016905,0.4639984779822756,
2023-08-16 13:53:03.817000,-7.72289156626506,1.5903614457831325,5.578313253012048,1.836909871244635,-7.77498467198038,6.148375229920294,3.0,0.46375846375846375,2156.294877932025,-0.024007924946099175,0.02167705844647724,-0.041839053668201,1371.4285714285713,-1.0,70.56745989016905,0.4639946024706221,
2023-08-16 13:53:03.824000,-7.710843373493976,1.5903614457831325,5.590361445783133,1.8614347026364193,-7.711220110361741,6.163090128755364,3.0,0.4633144633144633,2158.361284139914,0.08286230406153441,0.18903327311928123,0.12703222422935734,1371.4285714285713,-1.0,70.56745989016905,0.4639907013192392,
2023-08-16 13:53:03.832000,-7.746987951807229,1.5903614457831325,5.590361445783133,1.8638871857755976,-7.77498467198038,6.182709993868792,3.0,0.46375846375846375,2156.294877932025,-0.14824310937591037,0.29671930540178243,0.1575665753743955,1369.9633699633698,-1.0,70.56745989016905,0.4639867761241196,
2023-08-16 13:53:03.840000,-7.734939759036145,1.6265060240963856,5.578313253012048,1.8687921520539545,-7.777437155119558,6.1704475781729,3.0,0.46375846375846375,2156.294877932025,0.14486335295145916,0.27795583007983304,0.17213449099702827,1369.230769230769,-1.0,70.56745989016905,0.46398282853706024,
2023-08-16 13:53:03.847000,-7.734939759036145,1.6144578313253013,5.590361445783133,1.8320049049662783,-7.784794604537093,6.131207847946045,3.0,0.46375846375846375,2156.294877932025,-0.1443971796515358,0.18297302022026732,-0.45463551075112174,1368.4981684981683,-1.0,70.56745989016905,0.46397886042227077,
2023-08-16 13:53:03.855000,-7.72289156626506,1.5783132530120483,5.578313253012048,1.8393623543838136,-7.784794604537093,6.150827713059472,3.0,0.46375846375846375,2156.294877932025,-0.1272653108793199,0.22679331041314688,0.0071091428238449095,1367.032967032967,-1.0,70.56745989016905,0.46397487371478463,
2023-08-16 13:53:03.863000,-7.72289156626506,1.602409638554217,5.590361445783133,1.7976701410177804,-7.735744941753525,6.199877375843041,3.0,0.46375846375846375,2156.294877932025,0.025989161470776866,0.010721985898257782,-0.03950818716857993,1364.8351648351647,-1.0,70.56745989016905,0.46397087041730595,
2023-08-16 13:53:03.870000,-7.72289156626506,1.602409638554217,5.578313253012048,1.854077253218884,-7.767627222562845,6.163090128755364,3.0,0.46375846375846375,2156.294877932025,0.23949653283608235,-0.050113629741856874,0.32364081347240814,1361.1721611721612,-1.0,70.56745989016905,0.46396685259675857,
2023-08-16 13:53:03.878000,-7.72289156626506,1.5903614457831325,5.590361445783133,1.9006744328632739,-7.787247087676271,6.163090128755364,3.0,0.46375846375846375,2156.294877932025,-0.11362974185653599,-0.06689586853912857,0.12248703455509605,1361.904761904762,-1.0,70.56745989016905,0.46396282238054287,
2023-08-16 13:53:03.886000,-7.746987951807229,1.602409638554217,5.590361445783133,1.883507050889025,-7.718577559779276,6.202329858982219,3.0,0.46375846375846375,2156.294877932025,-0.311636850999359,-0.32597167997202964,-0.12388555445486868,1363.3699633699632,-1.0,70.56745989016905,0.46395878195251594,
2023-08-16 13:53:03.893000,-7.710843373493976,1.602409638554217,5.590361445783133,1.8516247700797055,-7.69650521152667,6.182709993868792,3.0,0.46375846375846375,2156.294877932025,-0.23297010663714163,-0.2316881300623507,0.012936309072898016,1367.032967032967,-1.0,70.56745989016905,0.4639547335487091,
2023-08-16 13:53:03.901000,-7.72289156626506,1.602409638554217,5.602409638554217,1.836909871244635,-7.787247087676271,6.155732679337829,3.0,0.46375846375846375,2156.294877932025,0.1956762426432028,-0.13728803682769092,-0.04941436979197012,1369.230769230769,-1.0,70.56745989016905,0.46395067945279983,
2023-08-16 13:53:03.909000,-7.710843373493976,1.5903614457831325,5.578313253012048,1.8320049049662783,-7.721030042918454,6.163090128755364,3.0,0.46375846375846375,2156.294877932025,-0.003496299749432037,-0.030068177845113085,0.0870578637608532,1369.9633699633698,-1.0,70.56745989016905,0.4639466218526023,
2023-08-16 13:53:03.916000,-7.698795180722892,1.602409638554217,5.590361445783133,1.8786020846106681,-7.782342121397915,6.150827713059472,3.0,0.46375846375846375,2156.294877932025,-0.14160013985199055,0.2581434648330509,0.16502534817318337,1368.4981684981683,-1.0,70.56745989016905,0.4639425629942287,
2023-08-16 13:53:03.924000,-7.710843373493976,1.602409638554217,5.590361445783133,1.8344573881054567,-7.730839975475168,6.114040465971796,3.0,0.46375846375846375,2156.294877932025,-0.2320377600372932,0.4866849251209138,-0.0791329176621407,1365.5677655677655,-1.0,70.56745989016905,0.4639385053045395,
2023-08-16 13:53:03.932000,-7.710843373493976,1.602409638554217,5.590361445783133,1.8344573881054567,-7.713672593500919,6.160637645616186,3.0,0.46375846375846375,2156.294877932025,0.18122487034555132,0.20872909504108078,0.13705495017772837,1362.6373626373625,-1.0,70.56745989016905,0.4639344512367174,
2023-08-16 13:53:03.939000,-7.72289156626506,1.5903614457831325,5.590361445783133,1.8614347026364193,-7.711220110361741,6.163090128755364,3.0,0.46375846375846375,2156.294877932025,0.17842783054600603,0.20651477186644143,0.13588951692791784,1361.1721611721612,-1.0,70.56745989016905,0.4639304032649834,
2023-08-16 13:53:03.947000,-7.734939759036145,1.5903614457831325,5.590361445783133,1.824647455548743,-7.745554874310239,6.148375229920294,3.0,0.46375846375846375,2156.294877932025,-0.2805197832294149,0.17329992424683882,0.029135831245265524,1361.1721611721612,-1.0,70.56745989016905,0.46392636387918296,
2023-08-16 13:53:03.955000,-7.710843373493976,1.6144578313253013,5.55421686746988,1.8614347026364193,-7.723482526057633,6.172900061312078,3.0,0.46375846375846375,2156.294877932025,-0.08041489423693338,0.15407027562496434,-0.06025289901520874,1362.6373626373625,-1.0,70.56745989016905,0.4639223355792681,
2023-08-16 13:53:03.962000,-7.759036144578314,1.6144578313253013,5.578313253012048,1.8099325567136726,-7.804414469650521,6.177805027590435,3.0,0.46375846375846375,2156.294877932025,0.10255812598333396,0.2742264436804376,-0.09195268341005788,1365.5677655677655,-1.0,70.56745989016905,0.4639183208696877,
2023-08-16 13:53:03.970000,-7.710843373493976,1.6144578313253013,5.578313253012048,1.8172900061312078,-7.777437155119558,6.180257510729613,3.0,0.46375846375846375,2156.294877932025,0.05698968591573838,0.19660858924305122,0.0011654332498105342,1369.9633699633698,-1.0,70.56745989016905,0.4639143222537188,
2023-08-16 13:53:03.978000,-7.72289156626506,1.5903614457831325,5.566265060240964,1.8516247700797055,-7.792152053954629,6.160637645616186,3.0,0.4633144633144633,2158.361284139914,-0.0816968708117243,0.02447409824602252,0.2313385000874073,1374.3589743589744,-1.0,70.56745989016905,0.46391034222775324,
2023-08-16 13:53:03.985000,-7.746987951807229,1.6144578313253013,5.590361445783133,1.8663396689147762,-7.799509503372164,6.148375229920294,3.0,0.4633144633144633,2158.361284139914,-0.17225103432200956,0.040557077093409194,-0.045568440067595146,1377.2893772893772,-1.0,70.56745989016905,0.463906383265022,
2023-08-16 13:53:03.993000,-7.759036144578314,1.5903614457831325,5.578313253012048,1.8663396689147762,-7.745554874310239,6.160637645616186,3.0,0.46375846375846375,2156.294877932025,-0.18670240661966103,0.009789639298409356,-0.02890274459530342,1380.2197802197802,-1.0,70.56745989016905,0.4639024476288656,
2023-08-16 13:53:04.001000,-7.734939759036145,1.602409638554217,5.590361445783133,1.8491722869405272,-7.772532188841201,6.163090128755364,3.0,0.46375846375846375,2156.294877932025,-0.2771400268049654,-0.24998543208437674,-0.1506905192005127,1383.150183150183,-1.0,70.56745989016905,0.46389853752577576,
2023-08-16 13:53:04.008000,-7.734939759036145,1.6144578313253013,5.590361445783133,1.8761496014714898,-7.782342121397915,6.143470263641937,3.0,0.46375846375846375,2156.294877932025,-0.30790746459996526,-0.2019695821921801,-0.14824310937591037,1386.080586080586,-1.0,70.56745989016905,0.46389465526885143,
2023-08-16 13:53:04.016000,-7.72289156626506,1.602409638554217,5.590361445783133,1.858982219497241,-7.738197424892704,6.153280196198651,3.0,0.46375846375846375,2156.294877932025,0.04626770001748233,-0.13903618670240694,0.14276557310180063,1386.8131868131868,-1.0,70.56745989016905,0.46389080313291764,
2023-08-16 13:53:04.024000,-7.698795180722892,1.602409638554217,5.566265060240964,1.8221949724095645,-7.755364806866952,6.192519926425505,3.0,0.46375846375846375,2156.294877932025,0.018996561971912792,-0.07866674436221735,-0.13519025697803153,1388.278388278388,-1.0,70.56745989016905,0.46388698334851586,
2023-08-16 13:53:04.031000,-7.710843373493976,1.602409638554217,5.55421686746988,1.854077253218884,-7.779889638258736,6.10913549969344,3.0,0.46375846375846375,2156.294877932025,-0.27189557718081736,0.1523221257502483,-0.3326146494959499,1386.8131868131868,-1.0,70.56745989016905,0.4638831980960436,
2023-08-16 13:53:04.039000,-7.698795180722892,1.602409638554217,5.518072289156627,1.778050275904353,-7.667075413856529,6.10913549969344,3.0,0.46375846375846375,2156.294877932025,-0.2104772449157968,0.16782238797272908,0.0816968708117243,1384.6153846153845,-1.0,70.56745989016905,0.4638794495000685,
2023-08-16 13:53:04.047000,-7.72289156626506,1.5903614457831325,5.542168674698796,1.8712446351931329,-7.750459840588595,6.165542611894543,3.0,0.46375846375846375,2156.294877932025,-0.08554280053609885,0.027504224695531213,-0.11665986830604294,1378.7545787545787,-1.0,70.56745989016905,0.4638757396238504,
2023-08-16 13:53:04.054000,-7.698795180722892,1.5783132530120483,5.55421686746988,1.8565297363580624,-7.750459840588595,6.141017780502759,3.0,0.46375846375846375,2156.294877932025,-0.1307616106287519,0.10302429928325904,-0.024357554921041684,1374.3589743589744,-1.0,70.56745989016905,0.4638720704640914,
2023-08-16 13:53:04.062000,-7.72289156626506,1.566265060240964,5.566265060240964,1.812385039852851,-7.716125076640098,6.079705702023298,3.0,0.46375846375846375,2156.294877932025,-0.008391119398635847,0.1772623972961942,-0.03985781714352331,1369.230769230769,-1.0,70.56745989016905,0.4638684439459451,
2023-08-16 13:53:04.070000,-7.710843373493976,1.5783132530120483,5.530120481927711,1.8491722869405272,-7.752912323727774,6.114040465971796,3.0,0.46375846375846375,2156.294877932025,-0.1602470718489591,0.06817784511392125,0.15884855194918732,1366.3003663003662,-1.0,70.56745989016905,0.4638648619183018,
2023-08-16 13:53:04.077000,-7.710843373493976,1.5783132530120483,5.542168674698796,1.8491722869405272,-7.76026977314531,6.1361128142244015,3.0,0.46375846375846375,2156.294877932025,-0.08216304411164765,0.2487034555095858,0.03507954081929947,1364.8351648351647,-1.0,70.56745989016905,0.4638613261493808,
2023-08-16 13:53:04.085000,-7.710843373493976,1.5903614457831325,5.530120481927711,1.8099325567136726,-7.75781729000613,6.172900061312078,3.0,0.46375846375846375,2156.294877932025,-0.1434648330516874,0.18145795699551298,0.06561389196433763,1364.8351648351647,-1.0,70.56745989016905,0.4638578383226412,
2023-08-16 13:53:04.093000,-7.734939759036145,1.602409638554217,5.55421686746988,1.917841814837523,-7.797057020232986,6.131207847946045,3.0,0.46375846375846375,2156.294877932025,0.03997436046850501,-0.1545364489248877,0.11223122195676248,1362.6373626373625,-1.0,70.56745989016905,0.46385440003303896,
2023-08-16 13:53:04.100000,-7.746987951807229,1.5783132530120483,5.590361445783133,1.9006744328632739,-7.838749233599018,6.155732679337829,3.0,0.46375846375846375,2156.294877932025,-0.006876056173883237,-0.32154303362274916,0.0801818075869704,1358.2417582417581,-1.0,70.56745989016905,0.463851012783639,
2023-08-16 13:53:04.108000,-7.746987951807229,1.602409638554217,5.590361445783133,1.836909871244635,-7.748007357449417,6.1704475781729,3.0,0.4633144633144633,2158.361284139914,0.23821455626128968,-0.5197832294155356,0.322825010197541,1356.7765567765566,-1.0,70.56745989016905,0.4638476779826073,
2023-08-16 13:53:04.116000,-7.734939759036145,1.5903614457831325,5.590361445783133,1.836909871244635,-7.740649908031882,6.163090128755364,3.0,0.46375846375846375,2156.294877932025,0.29741856535166916,-0.1642095448983162,0.3969465648854962,1356.7765567765566,-1.0,70.56745989016905,0.4638443967912905,
2023-08-16 13:53:04.123000,-7.710843373493976,1.602409638554217,5.602409638554217,1.8908645003065603,-7.6695278969957075,6.165542611894543,3.0,0.46375846375846375,2156.294877932025,0.23401899656197264,-0.4678049064739819,0.13460754035312647,1356.7765567765566,-1.0,70.56745989016905,0.4638411702494133,
2023-08-16 13:53:04.131000,-7.686746987951808,1.6144578313253013,5.590361445783133,1.8859595340282034,-7.6989576946658485,6.167995095033722,3.0,0.4633144633144633,2158.361284139914,0.04918128314200845,-0.12738185420430073,0.009789639298409356,1353.113553113553,-1.0,70.56745989016905,0.4638379994321987,
2023-08-16 13:53:04.138000,-7.698795180722892,1.602409638554217,5.590361445783133,1.8712446351931329,-7.711220110361741,6.177805027590435,3.0,0.4633144633144633,2158.361284139914,-0.0451022667676705,0.13484062700308813,0.13227667385350497,1350.18315018315,-1.0,70.56745989016905,0.4638348852994893,
2023-08-16 13:53:04.146000,-7.686746987951808,1.602409638554217,5.602409638554217,1.8614347026364193,-7.708767627222563,6.141017780502759,3.0,0.4633144633144633,2158.361284139914,0.1086183788823496,0.13379173707825887,-0.17283375094691458,1347.985347985348,-1.0,70.56745989016905,0.4638318286523345,
2023-08-16 13:53:04.154000,-7.698795180722892,1.5783132530120483,5.578313253012048,1.8344573881054567,-7.779889638258736,6.143470263641937,3.0,0.46375846375846375,2156.294877932025,0.016432608822329185,0.12097197133034257,-0.10896800885729255,1346.5201465201465,-1.0,70.56745989016905,0.46382882998258573,
2023-08-16 13:53:04.161000,-7.72289156626506,1.5783132530120483,5.590361445783133,1.8344573881054567,-7.765174739423666,6.131207847946045,3.0,0.46375846375846375,2156.294877932025,0.5193170561156105,0.3954315016607418,-0.15383718897500137,1346.5201465201465,-1.0,70.56745989016905,0.4638258896415125,
2023-08-16 13:53:04.169000,-7.710843373493976,1.5783132530120483,5.566265060240964,1.8344573881054567,-7.75781729000613,6.084610668301655,3.0,0.46375846375846375,2156.294877932025,0.10267466930831479,0.5446069576365006,-0.1685216479226154,1347.985347985348,-1.0,70.56745989016905,0.46382300800867426,
2023-08-16 13:53:04.177000,-7.759036144578314,1.5903614457831325,5.578313253012048,1.858982219497241,-7.74310239117106,6.182709993868792,3.0,0.4633144633144633,2158.361284139914,0.2838995396538661,0.25115086533418857,0.15232212575024745,1353.113553113553,-1.0,70.56745989016905,0.46382018535283387,
2023-08-16 13:53:04.184000,-7.746987951807229,1.602409638554217,5.55421686746988,1.8393623543838136,-7.728387492335989,6.145922746781116,3.0,0.46375846375846375,2156.294877932025,0.388788532136822,0.09638132975933747,0.3347124293456093,1358.2417582417581,-1.0,70.56745989016905,0.46381742168279155,
2023-08-16 13:53:04.192000,-7.734939759036145,1.6144578313253013,5.55421686746988,1.8270999386879214,-7.694052728387492,6.158185162477007,3.0,0.4633144633144633,2158.361284139914,-0.11724258493094886,0.051861779616572894,0.16420954489831577,1363.3699633699632,-1.0,70.56745989016905,0.46381471687540554,
2023-08-16 13:53:04.200000,-7.746987951807229,1.6144578313253013,5.55421686746988,1.8614347026364193,-7.752912323727774,6.148375229920294,3.0,0.4633144633144633,2158.361284139914,-0.2118757648155703,-0.35825418099178385,0.037760037293863916,1364.8351648351647,-1.0,70.56745989016905,0.46381207068630975,
2023-08-16 13:53:04.207000,-7.710843373493976,1.6144578313253013,5.542168674698796,1.841814837522992,-7.770079705702023,6.131207847946045,3.0,0.46375846375846375,2156.294877932025,-0.31641512732358196,0.07132451488840903,0.40568731425907584,1367.7655677655678,-1.0,70.56745989016905,0.4638094825906515,
2023-08-16 13:53:04.215000,-7.710843373493976,1.6144578313253013,5.542168674698796,1.841814837522992,-7.784794604537093,6.148375229920294,3.0,0.46375846375846375,2156.294877932025,-0.3136180875240367,0.0712079715634282,0.403822621059379,1369.230769230769,-1.0,70.56745989016905,0.4638069520712847,
2023-08-16 13:53:04.223000,-7.710843373493976,1.602409638554217,5.55421686746988,1.8638871857755976,-7.750459840588595,6.116492949110975,3.0,0.46375846375846375,2156.294877932025,0.17656313734630918,-0.09777984965911098,0.14171668317697095,1369.230769230769,-1.0,70.56745989016905,0.4638044786410844,
2023-08-16 13:53:04.230000,-7.72289156626506,1.602409638554217,5.542168674698796,1.8933169834457386,-7.748007357449417,6.1287553648068664,3.0,0.46375846375846375,2156.294877932025,0.1602470718489591,-0.12738185420430073,-0.18134141367053214,1369.9633699633698,-1.0,70.56745989016905,0.46380206170661314,
2023-08-16 13:53:04.238000,-7.710843373493976,1.602409638554217,5.566265060240964,1.8270999386879214,-7.718577559779276,6.153280196198651,3.0,0.46375846375846375,2156.294877932025,-0.11607715168113703,-0.7670881650253478,0.04813239321717832,1369.230769230769,-1.0,70.56745989016905,0.46379970057101205,
2023-08-16 13:53:04.246000,-7.72289156626506,1.6144578313253013,5.578313253012048,1.8786020846106681,-7.745554874310239,6.0919681177191904,3.0,0.46375846375846375,2156.294877932025,-0.025173358195909275,-0.10372355923314405,-0.10384010255812619,1369.9633699633698,-1.0,70.56745989016905,0.4637973944373575,
2023-08-16 13:53:04.253000,-7.710843373493976,1.5903614457831325,5.590361445783133,1.812385039852851,-7.752912323727774,6.158185162477007,3.0,0.46375846375846375,2156.294877932025,-0.08694132043587237,-0.43948487850358303,0.018413845347007744,1369.230769230769,-1.0,70.56745989016905,0.46379514241247755,
2023-08-16 13:53:04.261000,-7.698795180722892,1.602409638554217,5.602409638554217,1.8344573881054567,-7.667075413856529,6.177805027590435,3.0,0.46375846375846375,2156.294877932025,0.1256337043295847,-0.5261931122894937,-0.07388846803799308,1368.4981684981683,988.128662109375,60.7208375799129,0.4637929435112098,
2023-08-16 13:53:04.269000,-7.698795180722892,1.6144578313253013,5.602409638554217,1.8859595340282034,-7.733292458614347,6.177805027590435,3.0,0.46375846375846375,2156.294877932025,0.03216595769477335,-0.2629217411572756,-0.3323815628459878,1368.4981684981683,-1.0,60.7208375799129,0.4637907966610876,
2023-08-16 13:53:04.276000,-7.698795180722892,1.63855421686747,5.578313253012048,1.9153893316983446,-7.711220110361741,6.0919681177191904,3.0,0.46375846375846375,2156.294877932025,-0.2724782938057216,0.012470135772973802,0.11118233203193277,1367.032967032967,-1.0,60.7208375799129,0.4637887007074359,
2023-08-16 13:53:04.284000,-7.686746987951808,1.6265060240963856,5.602409638554217,1.888412017167382,-7.718577559779276,6.143470263641937,3.0,0.4633144633144633,2158.361284139914,-0.39181865858632897,-0.017248412097196776,-0.040790163743371737,1363.3699633699632,-1.0,60.7208375799129,0.4637866544188557,
2023-08-16 13:53:04.292000,-7.674698795180723,1.63855421686747,5.614457831325302,1.854077253218884,-7.718577559779276,6.187614960147148,3.0,0.4633144633144633,2158.361284139914,0.20371773206689614,0.37993123943826107,0.03659460404405338,1359.7069597069597,-1.0,60.7208375799129,0.4637846564825304,
2023-08-16 13:53:04.299000,-7.686746987951808,1.6265060240963856,5.590361445783133,1.8467198038013488,-7.730839975475168,6.214592274678111,3.0,0.46375846375846375,2156.294877932025,-0.19544315599324114,0.4862187518209887,-0.22259775071382767,1358.2417582417581,-1.0,60.7208375799129,0.4637827053294107,
2023-08-16 13:53:04.307000,-7.710843373493976,1.602409638554217,5.602409638554217,1.8516247700797055,-7.779889638258736,6.158185162477007,3.0,0.46375846375846375,2156.294877932025,-0.10675368568265274,0.2695647106811954,-0.22224812073888472,1358.2417582417581,-1.0,60.7208375799129,0.4637807992994605,
2023-08-16 13:53:04.315000,-7.72289156626506,1.5903614457831325,5.626506024096386,1.8148375229920293,-7.755364806866952,6.163090128755364,3.0,0.46375846375846375,2156.294877932025,-0.10570479575782349,0.8201153778917308,-0.28051978322941534,1359.7069597069597,-1.0,60.7208375799129,0.4637789368175482,
2023-08-16 13:53:04.322000,-7.746987951807229,1.5903614457831325,5.602409638554217,1.8393623543838136,-7.784794604537093,6.192519926425505,3.0,0.46375846375846375,2156.294877932025,0.09288503000990543,0.5876114445545126,-0.3725890099644545,1362.6373626373625,-1.0,60.7208375799129,0.46377711626117724,
2023-08-16 13:53:04.330000,-7.746987951807229,1.5903614457831325,5.578313253012048,1.8908645003065603,-7.75781729000613,6.116492949110975,3.0,0.46375846375846375,2156.294877932025,-0.13530680030301323,0.21665404113979328,-0.11339665520657301,1367.7655677655678,-1.0,60.7208375799129,0.4637753359672171,
2023-08-16 13:53:04.338000,-7.759036144578314,1.602409638554217,5.578313253012048,1.8148375229920293,-7.765174739423666,6.175352544451257,3.0,0.46375846375846375,2156.294877932025,-0.04230522696812521,0.24590641571004052,-0.35673911776702993,1373.6263736263736,-1.0,60.7208375799129,0.4637735942388447,
2023-08-16 13:53:04.345000,-7.734939759036145,1.6144578313253013,5.55421686746988,1.8442673206621703,-7.748007357449417,6.187614960147148,3.0,0.46375846375846375,2156.294877932025,0.41850708000699255,0.19928908571761567,-0.10873492220733044,1378.7545787545787,-1.0,60.7208375799129,0.46377188935267444,
2023-08-16 13:53:04.353000,-7.746987951807229,1.5903614457831325,5.55421686746988,1.8442673206621703,-7.728387492335989,6.180257510729613,3.0,0.4633144633144633,2158.361284139914,0.5982168871277895,0.0896218169104368,-0.2751587902802869,1378.021978021978,-1.0,60.7208375799129,0.4637702195660478,
2023-08-16 13:53:04.361000,-7.746987951807229,1.5903614457831325,5.590361445783133,1.836909871244635,-7.765174739423666,6.158185162477007,3.0,0.46375846375846375,2156.294877932025,0.0015150632247543454,0.13379173707825887,0.002563953149583175,1378.021978021978,-1.0,60.7208375799129,0.46376858297514933,
2023-08-16 13:53:04.368000,-7.710843373493976,1.602409638554217,5.578313253012048,1.883507050889025,-7.752912323727774,6.118945432250153,3.0,0.46375846375846375,2156.294877932025,0.12656605092943313,0.0848435405862121,0.06479808868947047,1378.7545787545787,-1.0,60.7208375799129,0.4637669776499353,
2023-08-16 13:53:04.376000,-7.734939759036145,1.602409638554217,5.578313253012048,1.8761496014714898,-7.801961986511342,6.145922746781116,3.0,0.46375846375846375,2156.294877932025,0.23553405978672523,-0.08542625721111802,0.1278480275042245,1380.952380952381,-1.0,60.7208375799129,0.46376540193938365,
2023-08-16 13:53:04.384000,-7.759036144578314,1.602409638554217,5.590361445783133,1.8295524218270998,-7.75781729000613,6.197424892703863,3.0,0.46375846375846375,2156.294877932025,-0.027271138045567803,-0.23774838296136636,0.40487151098420826,1385.3479853479853,-1.0,60.7208375799129,0.4637638541810279,
2023-08-16 13:53:04.391000,-7.72289156626506,1.6144578313253013,5.590361445783133,1.8442673206621703,-7.765174739423666,6.138565297363581,3.0,0.46375846375846375,2156.294877932025,-0.11910727813064571,-0.40557077093409544,0.4495076044519549,1390.4761904761904,-1.0,60.7208375799129,0.46376233271950057,
2023-08-16 13:53:04.399000,-7.710843373493976,1.6506024096385543,5.566265060240964,1.854077253218884,-7.6817903126916,6.180257510729613,3.0,0.46375846375846375,2156.294877932025,0.049297826466989284,0.16071324514888416,0.18845055649437661,1394.8717948717947,-1.0,60.7208375799129,0.46376083604262786,
2023-08-16 13:53:04.407000,-7.698795180722892,1.6506024096385543,5.578313253012048,1.8614347026364193,-7.735744941753525,6.1361128142244015,3.0,0.46375846375846375,2156.294877932025,-0.36419789056581864,0.1582658353242814,0.2644368043820291,1398.5347985347985,-1.0,60.7208375799129,0.46375936250180394,
2023-08-16 13:53:04.414000,-7.710843373493976,1.6506024096385543,5.566265060240964,1.9325567136725934,-7.725935009196811,6.148375229920294,3.0,0.46375846375846375,2156.294877932025,-0.34636676184371595,0.14078433657712294,0.3093059844997379,1402.197802197802,-1.0,60.7208375799129,0.4637579103404952,
2023-08-16 13:53:04.422000,-7.710843373493976,1.6265060240963856,5.55421686746988,1.8393623543838136,-7.74310239117106,6.116492949110975,3.0,0.4633144633144633,2158.361284139914,-0.17563079074646074,0.22935726356272876,0.15465299224986895,1408.058608058608,-1.0,60.7208375799129,0.4637564778500349,
2023-08-16 13:53:04.430000,-7.698795180722892,1.6265060240963856,5.578313253012048,1.8786020846106681,-7.74310239117106,6.167995095033722,3.0,0.46375846375846375,2156.294877932025,-0.47980886894703056,0.5169861896159903,-0.018297302022026472,1413.9194139194137,-1.0,60.7208375799129,0.46375506322668136,
2023-08-16 13:53:04.437000,-7.72289156626506,1.5903614457831325,5.55421686746988,1.8197424892703862,-7.767627222562845,6.177805027590435,3.0,0.4633144633144633,2158.361284139914,-0.1557018821746978,0.5284074354641332,-0.3716566633646056,1420.5128205128203,-1.0,60.7208375799129,0.4637536647052043,
2023-08-16 13:53:04.445000,-7.72289156626506,1.5903614457831325,5.55421686746988,1.8295524218270998,-7.801961986511342,6.0919681177191904,3.0,0.4633144633144633,2158.361284139914,0.047316589942311596,0.43552240545422766,-0.1717848610220849,1427.106227106227,-1.0,60.7208375799129,0.4637522807132511,
2023-08-16 13:53:04.453000,-7.746987951807229,1.602409638554217,5.578313253012048,1.8614347026364193,-7.77498467198038,6.153280196198651,3.0,0.4633144633144633,2158.361284139914,0.15651768544956537,0.5099935901171262,-0.0033797564244507665,1437.3626373626373,-1.0,60.7208375799129,0.4637509096958973,
2023-08-16 13:53:04.460000,-7.759036144578314,1.5783132530120483,5.590361445783133,1.7608828939301042,-7.801961986511342,6.12385039852851,3.0,0.4633144633144633,2158.361284139914,0.1420663131519139,0.5060311170677692,-0.017831128722102258,1446.8864468864467,-1.0,60.7208375799129,0.4637495501100347,
2023-08-16 13:53:04.468000,-7.759036144578314,1.566265060240964,5.566265060240964,1.8516247700797055,-7.74310239117106,6.0919681177191904,3.0,0.4633144633144633,2158.361284139914,0.2336693665870284,0.4577821805256108,-0.01794767204708353,1454.212454212454,-1.0,60.7208375799129,0.4637482004286556,
2023-08-16 13:53:04.476000,-7.734939759036145,1.5903614457831325,5.55421686746988,1.854077253218884,-7.765174739423666,6.084610668301655,3.0,0.46375846375846375,2156.294877932025,0.06759512848901532,0.2097779849659118,0.1474273061010432,1459.3406593406592,-1.0,60.7208375799129,0.46374685900573653,
2023-08-16 13:53:04.483000,-7.746987951807229,1.5903614457831325,5.566265060240964,1.8638871857755976,-7.748007357449417,6.082158185162477,3.0,0.46375846375846375,2156.294877932025,0.0533768428413255,0.3286521764465941,0.07237340481323917,1463.7362637362637,-1.0,60.7208375799129,0.46374552424888366,
2023-08-16 13:53:04.491000,-7.734939759036145,1.6144578313253013,5.542168674698796,1.883507050889025,-7.750459840588595,6.064990803188228,3.0,0.46375846375846375,2156.294877932025,0.054192646116193094,0.3229415535225227,0.07190723151331495,1465.9340659340658,-1.0,60.7208375799129,0.46374419479151385,
2023-08-16 13:53:04.498000,-7.710843373493976,1.602409638554217,5.530120481927711,1.8148375229920293,-7.721030042918454,6.138565297363581,3.0,0.46375846375846375,2156.294877932025,-0.17516461744653566,0.19730784919293798,-0.05116251966668614,1463.7362637362637,-1.0,60.7208375799129,0.4637428694950991,
2023-08-16 13:53:04.506000,-7.72289156626506,1.6144578313253013,5.530120481927711,1.8221949724095645,-7.748007357449417,6.126302881667688,3.0,0.46375846375846375,2156.294877932025,-0.02086125517160965,-0.08111415418681839,-0.20266884214206643,1460.07326007326,-1.0,60.7208375799129,0.4637415472920194,
2023-08-16 13:53:04.514000,-7.710843373493976,1.6144578313253013,5.542168674698796,1.8442673206621703,-7.752912323727774,6.096873083997547,3.0,0.46375846375846375,2156.294877932025,-0.25045160538430183,0.08542625721111802,0.12027271138045581,1456.4102564102564,-1.0,60.7208375799129,0.4637402270596744,
2023-08-16 13:53:04.521000,-7.698795180722892,1.602409638554217,5.542168674698796,1.858982219497241,-7.740649908031882,6.084610668301655,3.0,0.46375846375846375,2156.294877932025,-0.12714876755433904,0.22049997086416956,0.15092360585047482,1450.5494505494505,-1.0,60.7208375799129,0.46373890777105414,
2023-08-16 13:53:04.529000,-7.72289156626506,1.5903614457831325,5.506024096385542,1.8712446351931329,-7.706315144083384,6.1361128142244015,3.0,0.46375846375846375,2156.294877932025,-0.2512674086591694,0.5994988637025822,-0.07959909096206534,1443.956043956044,-1.0,60.7208375799129,0.46373758849576985,
2023-08-16 13:53:04.537000,-7.710843373493976,1.566265060240964,5.493975903614458,1.824647455548743,-7.735744941753525,6.138565297363581,3.0,0.4633144633144633,2158.361284139914,-0.478993065672163,0.45475205407610214,0.16327719829846735,1435.164835164835,-1.0,60.7208375799129,0.4637362685395973,
2023-08-16 13:53:04.544000,-7.734939759036145,1.566265060240964,5.506024096385542,1.8712446351931329,-7.767627222562845,6.12385039852851,3.0,0.46375846375846375,2156.294877932025,-0.2628051978322948,0.4968241943942657,-0.005710622924071835,1424.9084249084249,-1.0,60.7208375799129,0.46373494713661856,
2023-08-16 13:53:04.552000,-7.759036144578314,1.566265060240964,5.530120481927711,1.7706928264868178,-7.740649908031882,6.114040465971796,3.0,0.4633144633144633,2158.361284139914,-0.9618320610687022,0.7232678748324683,-0.021094341821572188,1413.1868131868132,-1.0,60.7208375799129,0.46373362344936936,
2023-08-16 13:53:04.560000,-7.771084337349398,1.566265060240964,5.55421686746988,1.824647455548743,-7.755364806866952,6.079705702023298,3.0,0.4633144633144633,2158.361284139914,-0.7255987413320902,0.5336518850882812,0.039974360468504146,1397.8021978021977,-1.0,60.7208375799129,0.46373229672771327,
2023-08-16 13:53:04.567000,-7.771084337349398,1.5542168674698795,5.542168674698796,1.8859595340282034,-7.782342121397915,6.12385039852851,3.0,0.4633144633144633,2158.361284139914,-0.42887943593030786,0.0867082337859107,0.22143231746401712,1380.2197802197802,-1.0,60.7208375799129,0.46373096614776427,
2023-08-16 13:53:04.575000,-7.771084337349398,1.5421686746987953,5.55421686746988,1.7805027590435314,-7.789699570815451,6.187614960147148,3.0,0.46375846375846375,2156.294877932025,-0.8673154245090616,-0.003263213099470364,0.3707243167647572,1363.3699633699632,-1.0,60.7208375799129,0.4637296309483163,
2023-08-16 13:53:04.583000,-7.759036144578314,1.5421686746987953,5.590361445783133,1.7903126916002452,-7.797057020232986,6.180257510729613,3.0,0.4633144633144633,2158.361284139914,-0.5541635102849483,-0.40044286463492823,0.01631606549734878,1350.9157509157508,-1.0,60.7208375799129,0.46372829057746073,
2023-08-16 13:53:04.590000,-7.807228915662651,1.530120481927711,5.602409638554217,1.719190680564071,-7.858369098712446,6.167995095033722,3.0,0.4628704628704628,2160.4316546762593,-0.289260532602995,-0.5817842783054603,0.18227376027038059,1341.3919413919414,-1.0,60.7208375799129,0.4637269447009155,
2023-08-16 13:53:04.598000,-7.771084337349398,1.5421686746987953,5.602409638554217,1.8001226241569588,-7.767627222562845,6.172900061312078,3.0,0.4633144633144633,2158.361284139914,-0.19462735271837353,-1.2642619893945577,0.10384010255812619,1336.9963369963368,-1.0,60.7208375799129,0.46372559287009796,
2023-08-16 13:53:04.606000,-7.734939759036145,1.5783132530120483,5.578313253012048,1.8908645003065603,-7.735744941753525,6.194972409564684,3.0,0.4633144633144633,2158.361284139914,-0.4214206631315187,-1.3324398345084791,0.21082687489074062,1338.4615384615383,-1.0,60.7208375799129,0.4637242346368901,
2023-08-16 13:53:04.613000,-7.72289156626506,1.5903614457831325,5.590361445783133,1.8516247700797055,-7.748007357449417,6.217044757817289,3.0,0.4633144633144633,2158.361284139914,-0.12784802750422405,-1.4306858574675134,0.33098304294621517,1339.9267399267399,-1.0,60.7208375799129,0.4637228697100048,
2023-08-16 13:53:04.621000,-7.686746987951808,1.63855421686747,5.650602409638554,1.8908645003065603,-7.745554874310239,6.270999386879215,3.0,0.4633144633144633,2158.361284139914,0.34706602179360097,-1.833343045277081,0.31268574092418866,1340.6593406593406,-1.0,60.7208375799129,0.4637214976742965,
2023-08-16 13:53:04.629000,-7.662650602409639,1.63855421686747,5.698795180722892,1.9153893316983446,-7.657265481299816,6.300429184549356,3.0,0.4633144633144633,2158.361284139914,0.516753102966027,-1.8218052561039573,0.23238739001223702,1338.4615384615383,-1.0,60.7208375799129,0.4637201180075535,
2023-08-16 13:53:04.636000,-7.650602409638554,1.63855421686747,5.686746987951808,1.917841814837523,-7.647455548743102,6.253832004904966,3.0,0.4633144633144633,2158.361284139914,0.6365596410465594,-1.3369850241827403,0.29217411572752156,1336.263736263736,-1.0,60.7208375799129,0.4637187302245432,
2023-08-16 13:53:04.644000,-7.626506024096386,1.6506024096385543,5.662650602409639,1.9399141630901287,-7.627835683629675,6.273451870018393,3.0,0.46375846375846375,2156.294877932025,0.5870287279296084,-0.731542450906125,0.12295320785502026,1335.5311355311355,-1.0,60.7208375799129,0.4637173338716409,
2023-08-16 13:53:04.652000,-7.650602409638554,1.6626506024096386,5.626506024096386,1.9227467811158798,-7.657265481299816,6.244022072348252,3.0,0.4633144633144633,2158.361284139914,0.4897150515704208,0.12749839752928155,-0.2159547811899074,1336.263736263736,-1.0,60.7208375799129,0.46371592880941537,
2023-08-16 13:53:04.659000,-7.662650602409639,1.674698795180723,5.63855421686747,1.9399141630901287,-7.686695278969957,6.23175965665236,3.0,0.4633144633144633,2158.361284139914,0.10395664588310746,0.32667093992191637,-0.10815220558242539,1335.5311355311355,-1.0,60.7208375799129,0.463714514920585,
2023-08-16 13:53:04.667000,-7.662650602409639,1.6506024096385543,5.602409638554217,1.8467198038013488,-7.740649908031882,6.207234825260576,3.0,0.4633144633144633,2158.361284139914,0.13111124060369442,0.5377309014626191,-0.03146669774488659,1334.065934065934,-1.0,60.7208375799129,0.4637130919567172,
2023-08-16 13:53:04.675000,-7.710843373493976,1.63855421686747,5.590361445783133,1.8687921520539545,-7.708767627222563,6.197424892703863,3.0,0.4633144633144633,2158.361284139914,0.12749839752928155,0.7776936075986248,-0.12330283782996321,1331.8681318681317,-1.0,60.7208375799129,0.4637116598004213,
2023-08-16 13:53:04.682000,-7.710843373493976,1.6265060240963856,5.530120481927711,1.8467198038013488,-7.750459840588595,6.18516247700797,3.0,0.4633144633144633,2158.361284139914,0.32562204999708716,1.0023891381621115,-0.551366470485403,1331.135531135531,-1.0,60.7208375799129,0.4637102181732062,
2023-08-16 13:53:04.690000,-7.72289156626506,1.63855421686747,5.542168674698796,1.824647455548743,-7.716125076640098,6.163090128755364,3.0,0.4633144633144633,2158.361284139914,0.13950236000233027,1.1938698211059955,-0.43855253190373505,1331.8681318681317,-1.0,60.7208375799129,0.46370876679042694,
2023-08-16 13:53:04.698000,-7.759036144578314,1.6265060240963856,5.542168674698796,1.8982219497240955,-7.831391784181483,6.057633353770693,3.0,0.4633144633144633,2158.361284139914,0.3209603169978433,1.0465590583299336,-0.11514480508128903,1334.7985347985348,-1.0,60.7208375799129,0.4637073053459189,
2023-08-16 13:53:04.705000,-7.807228915662651,1.602409638554217,5.566265060240964,1.841814837522992,-7.853464132434089,6.096873083997547,3.0,0.4633144633144633,2158.361284139914,-0.16933745119748342,0.5819008216304412,-0.34298700541926475,1339.194139194139,-1.0,60.7208375799129,0.46370583337904364,
2023-08-16 13:53:04.713000,-7.819277108433735,1.5903614457831325,5.566265060240964,1.8221949724095645,-7.819129368485592,6.160637645616186,3.0,0.4633144633144633,2158.361284139914,-0.534234601713187,0.16689004137288066,-0.2795874366295669,1344.3223443223442,-1.0,60.7208375799129,0.4637043504186775,
2023-08-16 13:53:04.721000,-7.807228915662651,1.5903614457831325,5.530120481927711,1.8197424892703862,-7.8779889638258735,6.148375229920294,3.0,0.4633144633144633,2158.361284139914,-0.07237340481324003,0.22760911368801273,-0.001981236524678125,1347.2527472527472,-1.0,60.7208375799129,0.4637028561169263,
2023-08-16 13:53:04.728000,-7.807228915662651,1.602409638554217,5.530120481927711,1.8957694665849172,-7.831391784181483,6.0993255671367255,3.0,0.4633144633144633,2158.361284139914,0.03659460404405381,-0.3542917079424284,-0.1558184254996795,1349.4505494505493,-1.0,60.7208375799129,0.46370135022401937,
2023-08-16 13:53:04.736000,-7.771084337349398,1.5903614457831325,5.518072289156627,1.8565297363580624,-7.772532188841201,6.111587982832618,3.0,0.4633144633144633,2158.361284139914,-0.16257793834858103,-0.5347007750131104,0.2291241769127675,1354.5787545787546,-1.0,60.7208375799129,0.4636998324359376,
2023-08-16 13:53:04.744000,-7.72289156626506,1.602409638554217,5.542168674698796,1.9055793991416308,-7.76026977314531,6.067443286327406,3.0,0.4633144633144633,2158.361284139914,-0.14334828972670657,-1.0794242759745936,-0.09148651011013323,1361.904761904762,-1.0,60.7208375799129,0.46369830239151577,
2023-08-16 13:53:04.751000,-7.72289156626506,1.6144578313253013,5.55421686746988,1.8638871857755976,-7.730839975475168,6.167995095033722,3.0,0.4633144633144633,2158.361284139914,0.1632771982984678,-1.2097197133034205,-0.029718547870170576,1371.4285714285713,-1.0,60.7208375799129,0.46369675966976176,
2023-08-16 13:53:04.759000,-7.710843373493976,1.602409638554217,5.55421686746988,1.8270999386879214,-7.708767627222563,6.133660331085223,3.0,0.4633144633144633,2158.361284139914,-0.2798205232795299,-0.9131169512266188,-0.304294621525552,1378.021978021978,-1.0,60.7208375799129,0.46369520378741613,
2023-08-16 13:53:04.767000,-7.72289156626506,1.5903614457831325,5.566265060240964,1.836909871244635,-7.748007357449417,6.150827713059472,3.0,0.4633144633144633,2158.361284139914,-0.275158790280286,-0.9086883048773384,-0.30417807820057113,1380.952380952381,-1.0,60.7208375799129,0.4636936340580406,
2023-08-16 13:53:04.774000,-7.710843373493976,1.602409638554217,5.602409638554217,1.78295524218271,-7.730839975475168,6.153280196198651,3.0,0.4633144633144633,2158.361284139914,-0.19730784919293798,-0.9198764640755196,0.0032632130994699297,1378.7545787545787,-1.0,60.7208375799129,0.4636920497492849,
2023-08-16 13:53:04.782000,-7.698795180722892,1.6265060240963856,5.602409638554217,1.8663396689147762,-7.725935009196811,6.160637645616186,3.0,0.4633144633144633,2158.361284139914,-0.08915564361051173,-0.5011362974185654,0.018530388671989015,1377.2893772893772,-1.0,60.7208375799129,0.46369045007022025,
2023-08-16 13:53:04.790000,-7.674698795180723,1.602409638554217,5.578313253012048,1.8638871857755976,-7.691600245248313,6.207234825260576,3.0,0.46375846375846375,2156.294877932025,-0.43796981527883044,-0.0587378357904544,0.33611094924538193,1375.091575091575,-1.0,60.7208375799129,0.4636888341801972,
2023-08-16 13:53:04.797000,-7.698795180722892,1.602409638554217,5.614457831325302,1.8001226241569588,-7.762722256284488,6.209687308399754,3.0,0.4633144633144633,2158.361284139914,-0.7688363149000639,-0.05850474914049272,0.4411164850533187,1372.8937728937728,-1.0,60.7208375799129,0.463687201326404,
2023-08-16 13:53:04.805000,-7.710843373493976,1.6144578313253013,5.614457831325302,1.854077253218884,-7.772532188841201,6.241569589209074,3.0,0.4633144633144633,2158.361284139914,-0.48785035837072394,0.3382087290950418,0.02552298817085265,1372.161172161172,-1.0,60.7208375799129,0.4636855507262839,
2023-08-16 13:53:04.813000,-7.72289156626506,1.6144578313253013,5.63855421686747,1.930104230533415,-7.728387492335989,6.199877375843041,3.0,0.4633144633144633,2158.361284139914,-0.24171085601072173,0.5333022551133386,0.16199522172367598,1369.9633699633698,-1.0,60.7208375799129,0.46368388153662404,
2023-08-16 13:53:04.820000,-7.698795180722892,1.63855421686747,5.590361445783133,1.8221949724095645,-7.762722256284488,6.212139791538933,3.0,0.4633144633144633,2158.361284139914,0.18973253306916799,0.21036070159081596,0.2969523920517454,1367.7655677655678,-1.0,60.7208375799129,0.4636821928442372,
2023-08-16 13:53:04.828000,-7.686746987951808,1.6144578313253013,5.602409638554217,1.8442673206621703,-7.676885346413243,6.138565297363581,3.0,0.4633144633144633,2158.361284139914,-0.009789639298409356,0.407085834158848,0.172017947672047,1368.4981684981683,-1.0,60.7208375799129,0.4636804835288707,
2023-08-16 13:53:04.836000,-7.674698795180723,1.63855421686747,5.602409638554217,1.807480073574494,-7.735744941753525,6.229307173513182,3.0,0.4633144633144633,2158.361284139914,-0.22224812073888384,0.49670765106928483,0.1409008799021038,1367.7655677655678,-1.0,60.7208375799129,0.46367875242442486,
2023-08-16 13:53:04.843000,-7.686746987951808,1.63855421686747,5.590361445783133,1.8908645003065603,-7.708767627222563,6.165542611894543,3.0,0.4633144633144633,2158.361284139914,0.0079249460987125,0.34217120214439717,-0.17982635044577824,1365.5677655677655,-1.0,60.7208375799129,0.4636769983103468,
2023-08-16 13:53:04.851000,-7.698795180722892,1.6506024096385543,5.566265060240964,1.8736971183323115,-7.725935009196811,6.145922746781116,3.0,0.4633144633144633,2158.361284139914,0.5439076976866156,0.7993706660451021,0.1890332731192821,1364.102564102564,-1.0,60.7208375799129,0.4636752199246252,
2023-08-16 13:53:04.859000,-7.686746987951808,1.6265060240963856,5.542168674698796,1.8565297363580624,-7.728387492335989,6.148375229920294,3.0,0.4633144633144633,2158.361284139914,0.2949711555270664,0.47374861604801666,-0.21304119806538085,1363.3699633699632,-1.0,60.7208375799129,0.4636734160949941,
2023-08-16 13:53:04.866000,-7.72289156626506,1.6144578313253013,5.578313253012048,1.8810545677498467,-7.787247087676271,6.118945432250153,3.0,0.4633144633144633,2158.361284139914,-0.07412155468795606,0.4409999417283374,-0.25744420488316544,1361.1721611721612,-1.0,60.7208375799129,0.4636715855938498,
2023-08-16 13:53:04.874000,-7.771084337349398,1.63855421686747,5.55421686746988,1.8270999386879214,-7.76026977314531,6.197424892703863,3.0,0.4633144633144633,2158.361284139914,0.35464133791737096,0.34578404521881,-0.6682594254414076,1360.4395604395604,-1.0,60.7208375799129,0.46366972714287374,
2023-08-16 13:53:04.881000,-7.759036144578314,1.6265060240963856,5.55421686746988,1.8786020846106681,-7.740649908031882,6.1066830165542605,3.0,0.4633144633144633,2158.361284139914,0.7359710972554055,0.2508012353592443,-0.27923780665462394,1360.4395604395604,-1.0,60.7208375799129,0.46366783941804934,
2023-08-16 13:53:04.889000,-7.759036144578314,1.6144578313253013,5.530120481927711,1.8859595340282034,-7.789699570815451,6.1361128142244015,3.0,0.4633144633144633,2158.361284139914,0.08880601363556921,0.23273701998717997,-0.3373929258201738,1362.6373626373625,-1.0,60.7208375799129,0.46366592105505633,
2023-08-16 13:53:04.897000,-7.72289156626506,1.6265060240963856,5.590361445783133,1.8320049049662783,-7.74310239117106,6.089515634580012,3.0,0.4628704628704628,2160.4316546762593,0.22364664063865736,0.12120505798030425,-0.32061068702290074,1364.102564102564,-1.0,60.7208375799129,0.46366397065502296,
2023-08-16 13:53:04.904000,-7.72289156626506,1.6265060240963856,5.55421686746988,1.8442673206621703,-7.748007357449417,6.0993255671367255,3.0,0.4633144633144633,2158.361284139914,0.2664180409067077,-0.034613367519376124,-0.2265602237631839,1367.7655677655678,-1.0,60.7208375799129,0.4636619867800668,
2023-08-16 13:53:04.912000,-7.734939759036145,1.6506024096385543,5.566265060240964,1.836909871244635,-7.792152053954629,6.121397915389331,3.0,0.4633144633144633,2158.361284139914,0.0983625662840169,0.10150923605850469,-0.4084843540586211,1370.6959706959706,-1.0,60.7208375799129,0.4636599680667271,
2023-08-16 13:53:04.920000,-7.746987951807229,1.5903614457831325,5.55421686746988,1.8320049049662783,-7.74310239117106,6.163090128755364,3.0,0.4633144633144633,2158.361284139914,-0.16152904842375176,-0.06794475846395957,-0.3894877920867083,1372.161172161172,-1.0,60.7208375799129,0.46365791310483884,
2023-08-16 13:53:04.927000,-7.759036144578314,1.6265060240963856,5.566265060240964,1.8467198038013488,-7.787247087676271,6.155732679337829,3.0,0.4633144633144633,2158.361284139914,0.11386282850649766,0.11724258493094886,-0.27842200337975637,1369.230769230769,-1.0,60.7208375799129,0.46365582032701097,
2023-08-16 13:53:04.935000,-7.746987951807229,1.602409638554217,5.590361445783133,1.9055793991416308,-7.797057020232986,6.155732679337829,3.0,0.4633144633144633,2158.361284139914,-0.04102325039333428,-0.2926402890274462,-0.5517161004603459,1364.102564102564,-1.0,60.7208375799129,0.4636536881645044,
2023-08-16 13:53:04.943000,-7.734939759036145,1.602409638554217,5.602409638554217,1.8957694665849172,-7.752912323727774,6.138565297363581,3.0,0.46375846375846375,2156.294877932025,0.2206165141891504,-0.12132160130528508,-0.08845638366062585,1358.974358974359,-1.0,60.7208375799129,0.46365151505402125,
2023-08-16 13:53:04.950000,-7.734939759036145,1.602409638554217,5.590361445783133,1.8957694665849172,-7.762722256284488,6.138565297363581,3.0,0.4633144633144633,2158.361284139914,-0.038808927218693175,-0.10395664588310746,0.02016199522172376,1356.0439560439559,-1.0,60.7208375799129,0.46364929959396406,
2023-08-16 13:53:04.958000,-7.698795180722892,1.63855421686747,5.602409638554217,1.8516247700797055,-7.745554874310239,6.155732679337829,3.0,0.4633144633144633,2158.361284139914,0.036128430744128734,-0.11747567158091053,-0.3766680263387916,1355.3113553113553,-1.0,60.7208375799129,0.4636470405628863,
2023-08-16 13:53:04.966000,-7.698795180722892,1.6265060240963856,5.590361445783133,1.854077253218884,-7.716125076640098,6.121397915389331,3.0,0.4633144633144633,2158.361284139914,-0.08647514713594728,-0.23786492628634717,-0.08414428063632665,1354.5787545787546,-1.0,60.7208375799129,0.4636447366086599,
2023-08-16 13:53:04.973000,-7.674698795180723,1.602409638554217,5.578313253012048,1.8810545677498467,-7.708767627222563,6.197424892703863,3.0,0.4633144633144633,2158.361284139914,-0.08461045393625043,-0.21898490763941522,-0.3436862653691511,1353.8461538461538,-1.0,60.7208375799129,0.4636423862671239,
2023-08-16 13:53:04.981000,-7.686746987951808,1.6144578313253013,5.542168674698796,1.8687921520539545,-7.654812998160637,6.187614960147148,3.0,0.4633144633144633,2158.361284139914,0.008507662723616683,-0.06339956878969827,-0.4478759979022202,1354.5787545787546,-1.0,60.7208375799129,0.46363998811874035,
2023-08-16 13:53:04.989000,-7.710843373493976,1.602409638554217,5.578313253012048,1.841814837522992,-7.730839975475168,6.165542611894543,3.0,0.4633144633144633,2158.361284139914,0.11514480508128859,-0.01713186877221594,-0.5342346017131866,1353.8461538461538,-1.0,60.7208375799129,0.4636375407959687,
2023-08-16 13:53:04.996000,-7.746987951807229,1.5903614457831325,5.566265060240964,1.8467198038013488,-7.708767627222563,6.204782342121398,3.0,0.4633144633144633,2158.361284139914,0.1744653574966489,-0.09323465998484969,-0.14870928267583458,1353.8461538461538,-1.0,60.7208375799129,0.46363504299062486,
2023-08-16 13:53:05.004000,-7.771084337349398,1.602409638554217,5.578313253012048,1.7805027590435314,-7.804414469650521,6.177805027590435,3.0,0.4633144633144633,2158.361284139914,0.15686731542450963,-0.18425499679505827,-0.05605733931589082,1353.113553113553,-1.0,60.7208375799129,0.46363249346118274,
2023-08-16 13:53:05.012000,-7.795180722891566,1.5903614457831325,5.578313253012048,1.8393623543838136,-7.75781729000613,6.172900061312078,3.0,0.4633144633144633,2158.361284139914,0.06235067886486727,-0.03228250101975418,-0.2093118116659867,1352.3809523809523,-1.0,60.7208375799129,0.4636298910399917,
2023-08-16 13:53:05.019000,-7.759036144578314,1.602409638554217,5.602409638554217,1.854077253218884,-7.735744941753525,6.0919681177191904,3.0,0.4633144633144633,2158.361284139914,0.1820406736204189,-0.6597517627177909,-0.23926344618611983,1349.4505494505493,-1.0,60.7208375799129,0.46362723464036965,
2023-08-16 13:53:05.027000,-7.710843373493976,1.602409638554217,5.578313253012048,1.8957694665849172,-7.745554874310239,6.141017780502759,3.0,0.4633144633144633,2158.361284139914,0.19660858924305122,-0.5033506205932047,0.08437736728628875,1346.5201465201465,-1.0,60.7208375799129,0.46362452312479363,
2023-08-16 13:53:05.035000,-7.72289156626506,1.6144578313253013,5.578313253012048,1.858982219497241,-7.721030042918454,6.126302881667688,3.0,0.4633144633144633,2158.361284139914,0.13449099702814563,-0.3171143872734687,-0.1614125050987705,1345.054945054945,-1.0,60.7208375799129,0.4636217553320275,
2023-08-16 13:53:05.042000,-7.686746987951808,1.602409638554217,5.55421686746988,1.8614347026364193,-7.725935009196811,6.158185162477007,3.0,0.4633144633144633,2158.361284139914,0.13169395722860036,-0.31373463084901754,-0.16257793834858103,1345.7875457875457,-1.0,60.7208375799129,0.4636189302316403,
2023-08-16 13:53:05.050000,-7.674698795180723,1.5783132530120483,5.530120481927711,1.8516247700797055,-7.649908031882281,6.0919681177191904,3.0,0.4628704628704628,2160.4316546762593,0.37363789988928375,-0.06596352193928014,-0.05372647281626932,1350.18315018315,-1.0,60.7208375799129,0.4636160470679236,
2023-08-16 13:53:05.058000,-7.674698795180723,1.566265060240964,5.506024096385542,1.7805027590435314,-7.735744941753525,6.067443286327406,3.0,0.4628704628704628,2160.4316546762593,0.2635044577821798,0.3621001107161584,-0.35941961424159435,1357.5091575091574,-1.0,60.7208375799129,0.4636131053340389,
2023-08-16 13:53:05.065000,-7.698795180722892,1.530120481927711,5.542168674698796,1.7290006131207847,-7.801961986511342,6.114040465971796,3.0,0.4633144633144633,2158.361284139914,0.13857001340248185,0.25313210185886625,-0.8147543849426024,1363.3699633699632,-1.0,60.7208375799129,0.4636101044479729,
2023-08-16 13:53:05.073000,-7.783132530120482,1.530120481927711,5.530120481927711,1.7510729613733904,-7.801961986511342,6.121397915389331,3.0,0.4633144633144633,2158.361284139914,0.12237049123011434,0.4509061243517276,-0.6254880251733582,1367.7655677655678,-1.0,60.7208375799129,0.4636070439171708,
2023-08-16 13:53:05.081000,-7.795180722891566,1.5180722891566265,5.55421686746988,1.753525444512569,-7.8779889638258735,6.094420600858369,3.0,0.4633144633144633,2158.361284139914,0.059320552415360314,0.508944700192297,-0.3903035953615755,1372.161172161172,-1.0,60.7208375799129,0.4636039235131368,
2023-08-16 13:53:05.088000,-7.83132530120482,1.5060240963855422,5.566265060240964,1.706928264868179,-7.816676885346413,6.104230533415082,3.0,0.4633144633144633,2158.361284139914,-0.24695530563486978,-0.27177903385583657,-0.5547462269098533,1376.5567765567764,-1.0,60.7208375799129,0.4636007431372011,
2023-08-16 13:53:05.096000,-7.843373493975904,1.5180722891566265,5.590361445783133,1.7633353770692826,-7.811771919068056,6.172900061312078,3.0,0.4633144633144633,2158.361284139914,-0.2154886078899832,-0.8638191247596296,-0.19858982576772935,1381.6849816849815,-1.0,60.7208375799129,0.46359750282460016,
2023-08-16 13:53:05.104000,-7.795180722891566,1.530120481927711,5.578313253012048,1.8320049049662783,-7.816676885346413,6.1704475781729,3.0,0.4633144633144633,2158.361284139914,0.030883981119980676,-1.3164733989860733,-0.1195734514305695,1383.150183150183,-1.0,60.7208375799129,0.4635942027480954,
2023-08-16 13:53:05.111000,-7.72289156626506,1.5542168674698795,5.578313253012048,1.812385039852851,-7.671980380134886,6.175352544451257,3.0,0.4633144633144633,2158.361284139914,0.47351552939805325,-1.5837072431676467,0.05023017306683771,1379.4871794871794,-1.0,60.7208375799129,0.46359084322111427,
2023-08-16 13:53:05.119000,-7.686746987951808,1.5903614457831325,5.590361445783133,1.8393623543838136,-7.718577559779276,6.194972409564684,3.0,0.4633144633144633,2158.361284139914,0.44134957170327993,-1.5602820348464534,0.12901346075403503,1373.6263736263736,-1.0,60.7208375799129,0.4635874247003894,
2023-08-16 13:53:05.127000,-7.650602409638554,1.602409638554217,5.578313253012048,1.8516247700797055,-7.647455548743102,6.1287553648068664,3.0,0.4633144633144633,2158.361284139914,0.10453936250801164,-1.7480333313909437,-0.18914981644426293,1367.032967032967,-1.0,60.7208375799129,0.4635839477880818,
2023-08-16 13:53:05.134000,-7.650602409638554,1.5783132530120483,5.578313253012048,1.78295524218271,-7.659717964438994,6.163090128755364,3.0,0.4633144633144633,2158.361284139914,0.48738418507080056,-1.5396538663248054,-0.23203776003729407,1361.1721611721612,-1.0,60.7208375799129,0.4635804130946238,
2023-08-16 13:53:05.142000,-7.674698795180723,1.5903614457831325,5.578313253012048,1.7976701410177804,-7.6695278969957075,6.138565297363581,3.0,0.4633144633144633,2158.361284139914,0.468970339723792,-0.96381329759338,-0.1075694889575199,1359.7069597069597,-1.0,60.7208375799129,0.46357682139889844,
2023-08-16 13:53:05.150000,-7.698795180722892,1.566265060240964,5.602409638554217,1.7903126916002452,-7.745554874310239,6.12385039852851,3.0,0.4633144633144633,2158.361284139914,0.35837072431676464,-0.2681661907814237,-0.12050579803041792,1359.7069597069597,-1.0,60.7208375799129,0.4635731737763494,
2023-08-16 13:53:05.157000,-7.72289156626506,1.5783132530120483,5.578313253012048,1.8320049049662783,-7.801961986511342,6.207234825260576,3.0,0.4633144633144633,2158.361284139914,0.41769127673212497,0.10162577938348553,-0.12038925470543665,1359.7069597069597,-1.0,60.7208375799129,0.46356947144982685,
2023-08-16 13:53:05.165000,-7.734939759036145,1.5783132530120483,5.614457831325302,1.8663396689147762,-7.748007357449417,6.155732679337829,3.0,0.4633144633144633,2158.361284139914,0.4300448691801179,0.07155760153837244,0.13973544665229282,1360.4395604395604,-1.0,60.7208375799129,0.46356571578915984,
2023-08-16 13:53:05.173000,-7.698795180722892,1.566265060240964,5.602409638554217,1.8516247700797055,-7.777437155119558,6.187614960147148,3.0,0.4633144633144633,2158.361284139914,0.32399044344735195,-0.03251558766971586,-0.25895926810791936,1361.904761904762,-1.0,60.7208375799129,0.4635619083101658,
2023-08-16 13:53:05.180000,-7.734939759036145,1.5903614457831325,5.55421686746988,1.8467198038013488,-7.762722256284488,6.148375229920294,3.0,0.4633144633144633,2158.361284139914,0.4904143115203075,0.09440009323465978,0.23075578346250228,1362.6373626373625,-1.0,60.7208375799129,0.4635580506730928,
2023-08-16 13:53:05.188000,-7.72289156626506,1.602409638554217,5.530120481927711,1.8687921520539545,-7.748007357449417,6.10913549969344,3.0,0.4633144633144633,2158.361284139914,0.7790921274983983,0.5845813181050057,0.001631606549734748,1365.5677655677655,-1.0,60.7208375799129,0.4635541446804966,
2023-08-16 13:53:05.196000,-7.759036144578314,1.6144578313253013,5.55421686746988,1.858982219497241,-7.782342121397915,6.104230533415082,3.0,0.4633144633144633,2158.361284139914,0.39461569838587424,0.12330283782996276,-0.102208496008391,1368.4981684981683,-1.0,60.7208375799129,0.4635501922745598,
2023-08-16 13:53:05.203000,-7.746987951807229,1.5783132530120483,5.506024096385542,1.824647455548743,-7.811771919068056,6.163090128755364,3.0,0.4628704628704628,2160.4316546762593,0.2229473806887706,-0.18215721694539974,0.12936309072897842,1370.6959706959706,-1.0,60.7208375799129,0.46354619553385673,
2023-08-16 13:53:05.211000,-7.771084337349398,1.5903614457831325,5.578313253012048,1.8320049049662783,-7.816676885346413,6.150827713059472,3.0,0.4633144633144633,2158.361284139914,0.17399918419672555,-0.534234601713187,-0.3898374220616513,1372.161172161172,-1.0,60.7208375799129,0.4635421566590349,
2023-08-16 13:53:05.219000,-7.783132530120482,1.5783132530120483,5.578313253012048,1.8172900061312078,-7.801961986511342,6.172900061312078,3.0,0.4628704628704628,2160.4316546762593,0.0787832876871982,-0.6666278188916724,-0.06258376551482982,1371.4285714285713,-1.0,60.7208375799129,0.4635380779367987,
2023-08-16 13:53:05.226000,-7.771084337349398,1.6265060240963856,5.566265060240964,1.8516247700797055,-7.824034334763948,6.1287553648068664,3.0,0.4633144633144633,2158.361284139914,0.564419322883281,-1.0575141308781546,0.2316881300623507,1371.4285714285713,-1.0,60.7208375799129,0.4635339616171259,
2023-08-16 13:53:05.234000,-7.734939759036145,1.6265060240963856,5.578313253012048,1.8516247700797055,-7.777437155119558,6.118945432250153,3.0,0.4633144633144633,2158.361284139914,0.37829963288852586,-0.7290950410815223,0.38435988578754154,1372.8937728937728,-1.0,60.7208375799129,0.463529810045535,
2023-08-16 13:53:05.242000,-7.698795180722892,1.6506024096385543,5.55421686746988,1.9350091968117717,-7.691600245248313,6.1287553648068664,3.0,0.4633144633144633,2158.361284139914,0.14766039275100445,-1.5025930889808283,0.10593788240778515,1373.6263736263736,-1.0,60.7208375799129,0.463525625815868,
2023-08-16 13:53:05.249000,-7.638554216867471,1.6506024096385543,5.602409638554217,1.8761496014714898,-7.6695278969957075,6.118945432250153,3.0,0.4633144633144633,2158.361284139914,0.45102266767670846,-1.2674086591690457,0.1519724957753045,1374.3589743589744,-1.0,60.7208375799129,0.46352141162476174,
2023-08-16 13:53:05.257000,-7.662650602409639,1.6265060240963856,5.626506024096386,1.9055793991416308,-7.664622930717351,6.160637645616186,3.0,0.4633144633144633,2158.361284139914,-0.36175048074121585,-0.9068236116776416,-0.18518734339490714,1375.091575091575,980.46875,61.19521912350598,0.46351717026447137,
2023-08-16 13:53:05.264000,-7.662650602409639,1.602409638554217,5.590361445783133,1.8761496014714898,-7.6695278969957075,6.199877375843041,3.0,0.4633144633144633,2158.361284139914,-0.20698094516636475,-0.8568265252607655,-0.3661791270904959,1378.021978021978,-1.0,61.19521912350598,0.4635129046153314,
2023-08-16 13:53:05.272000,-7.72289156626506,1.6144578313253013,5.614457831325302,1.8957694665849172,-7.779889638258736,6.1704475781729,3.0,0.4633144633144633,2158.361284139914,0.513140259891614,-0.3956645883107052,-0.302196841675893,1380.2197802197802,-1.0,61.19521912350598,0.4635086176378849,
2023-08-16 13:53:05.280000,-7.771084337349398,1.5903614457831325,5.602409638554217,1.8516247700797055,-7.902513795217658,6.131207847946045,3.0,0.4633144633144633,2158.361284139914,0.3873900122370485,-0.4093001573334891,0.06468154536448921,1382.4175824175823,-1.0,61.19521912350598,0.4635043123647258,
2023-08-16 13:53:05.287000,-7.771084337349398,1.602409638554217,5.614457831325302,1.8663396689147762,-7.787247087676271,6.256284488044145,3.0,0.4633144633144633,2158.361284139914,0.3976458248353829,-0.8329351436396472,0.12679913757939523,1383.150183150183,-1.0,61.19521912350598,0.46349999189208296,
2023-08-16 13:53:05.295000,-7.759036144578314,1.6144578313253013,5.614457831325302,1.908031882280809,-7.833844267320662,6.251379521765788,3.0,0.4633144633144633,2158.361284139914,0.5900588543791153,-1.5130819882291244,-0.10279121263329649,1382.4175824175823,-1.0,61.19521912350598,0.4634956593711965,
2023-08-16 13:53:05.303000,-7.734939759036145,1.6265060240963856,5.626506024096386,1.8614347026364193,-7.689147762109135,6.239117106069895,3.0,0.4633144633144633,2158.361284139914,0.6480974302196847,-1.8643435697220443,-0.009440009323465979,1378.021978021978,-1.0,61.19521912350598,0.4634913179995162,
2023-08-16 13:53:05.310000,-7.698795180722892,1.6265060240963856,5.626506024096386,1.8859595340282034,-7.6695278969957075,6.241569589209074,3.0,0.4633144633144633,2158.361284139914,0.840044286463492,-1.3875648272245205,0.05069634636676193,1374.3589743589744,-1.0,61.19521912350598,0.4634869710117731,
2023-08-16 13:53:05.318000,-7.662650602409639,1.6626506024096386,5.662650602409639,1.8908645003065603,-7.6817903126916,6.167995095033722,3.0,0.4633144633144633,2158.361284139914,0.9243051104248,-0.6869063574383779,0.36990851348989,1368.4981684981683,-1.0,61.19521912350598,0.4634826216709553,
2023-08-16 13:53:05.326000,-7.650602409638554,1.6626506024096386,5.63855421686747,1.9350091968117717,-7.657265481299816,6.221949724095647,3.0,0.4633144633144633,2158.361284139914,0.9162636210011067,-0.6743196783404233,0.3655964104655904,1363.3699633699632,-1.0,61.19521912350598,0.4634782732592387,
2023-08-16 13:53:05.333000,-7.638554216867471,1.674698795180723,5.63855421686747,1.8957694665849172,-7.716125076640098,6.256284488044145,3.0,0.4633144633144633,2158.361284139914,0.421187576481557,-0.6634811491171847,-0.17376609754676303,1361.904761904762,-1.0,61.19521912350598,0.4634739290689103,
2023-08-16 13:53:05.341000,-7.72289156626506,1.6626506024096386,5.63855421686747,1.8442673206621703,-7.755364806866952,6.217044757817289,3.0,0.4633144633144633,2158.361284139914,0.3250393333721812,-0.7317755375560867,0.19369500611852425,1361.1721611721612,-1.0,61.19521912350598,0.4634695923933226,
2023-08-16 13:53:05.349000,-7.759036144578314,1.6265060240963856,5.674698795180723,1.9104843654199877,-7.738197424892704,6.207234825260576,3.0,0.4633144633144633,2158.361284139914,0.23028961016257718,-0.4175747334071441,0.19008216304411138,1358.974358974359,-1.0,61.19521912350598,0.4634652665179259,
2023-08-16 13:53:05.356000,-7.710843373493976,1.63855421686747,5.686746987951808,1.8442673206621703,-7.706315144083384,6.241569589209074,3.0,0.4628704628704628,2160.4316546762593,0.5214148359652707,-0.5640696929083385,0.3257385933220671,1354.5787545787546,-1.0,61.19521912350598,0.4634609547114138,
2023-08-16 13:53:05.364000,-7.710843373493976,1.6265060240963856,5.63855421686747,1.841814837522992,-7.748007357449417,6.182709993868792,3.0,0.4628704628704628,2160.4316546762593,0.3689761668900416,-0.3743371598391705,0.5964687372530739,1355.3113553113553,-1.0,61.19521912350598,0.4634566602064773,
2023-08-16 13:53:05.372000,-7.662650602409639,1.63855421686747,5.602409638554217,1.9399141630901287,-7.69650521152667,6.167995095033722,3.0,0.4628704628704628,2160.4316546762593,0.3352951459705139,0.13495717032806898,0.2717790338558357,1361.1721611721612,-1.0,61.19521912350598,0.4634523860102921,
2023-08-16 13:53:05.379000,-7.638554216867471,1.6506024096385543,5.578313253012048,1.9276517473942365,-7.676885346413243,6.094420600858369,3.0,0.4628704628704628,2160.4316546762593,-0.0025639531495836093,0.04463609346774715,-0.06526426198939425,1371.4285714285713,-1.0,61.19521912350598,0.46344813490568465,
2023-08-16 13:53:05.387000,-7.626506024096386,1.6144578313253013,5.578313253012048,1.841814837522992,-7.694052728387492,6.167995095033722,3.0,0.4633144633144633,2158.361284139914,-0.016432608822329185,0.5186177961657238,-0.07866674436221649,1383.150183150183,-1.0,61.19521912350598,0.463443909590339,
2023-08-16 13:53:05.395000,-7.638554216867471,1.5903614457831325,5.578313253012048,1.8491722869405272,-7.701410177805027,6.190067443286327,3.0,0.4628704628704628,2160.4316546762593,-0.24590641571004052,0.5450731309364257,-0.7768778043237572,1398.5347985347985,-1.0,61.19521912350598,0.4634397128161235,
2023-08-16 13:53:05.402000,-7.686746987951808,1.566265060240964,5.566265060240964,1.7976701410177804,-7.799509503372164,6.187614960147148,3.0,0.4633144633144633,2158.361284139914,-0.04685041664238651,0.9364256162228313,-0.5991492337276384,1416.117216117216,-1.0,61.19521912350598,0.46343554725187214,
2023-08-16 13:53:05.410000,-7.746987951807229,1.566265060240964,5.578313253012048,1.836909871244635,-7.762722256284488,6.1704475781729,3.0,0.4633144633144633,2158.361284139914,0.2130411980653804,1.176388322358837,-0.14987471592564555,1435.164835164835,-1.0,61.19521912350598,0.4634314154641492,
2023-08-16 13:53:05.418000,-7.759036144578314,1.5542168674698795,5.590361445783133,1.8025751072961373,-7.811771919068056,6.153280196198651,3.0,0.4633144633144633,2158.361284139914,0.20826292174115743,0.9870054192646115,-0.1308781539537323,1454.212454212454,-1.0,61.19521912350598,0.4634273200687226,
2023-08-16 13:53:05.425000,-7.771084337349398,1.5542168674698795,5.566265060240964,1.812385039852851,-7.75781729000613,6.104230533415082,3.0,0.4633144633144633,2158.361284139914,-0.4986888875939625,0.46302663014975887,0.08682477711089066,1471.062271062271,-1.0,61.19521912350598,0.46342326358464225,
2023-08-16 13:53:05.433000,-7.759036144578314,1.5180722891566265,5.602409638554217,1.8099325567136726,-7.794604537093807,6.167995095033722,3.0,0.4628704628704628,2160.4316546762593,-0.2829671930540177,0.7070683526601008,0.13379173707825887,1481.3186813186812,-1.0,61.19521912350598,0.46341924842757953,
2023-08-16 13:53:05.441000,-7.746987951807229,1.5180722891566265,5.578313253012048,1.748620478234212,-7.745554874310239,6.180257510729613,3.0,0.4633144633144633,2158.361284139914,-0.37655148301380986,0.5087116135423335,-0.04988054309189434,1487.9120879120878,-1.0,61.19521912350598,0.4634152767544251,
2023-08-16 13:53:05.448000,-7.734939759036145,1.530120481927711,5.578313253012048,1.78295524218271,-7.797057020232986,6.145922746781116,3.0,0.4633144633144633,2158.361284139914,-0.7570654390769769,0.03717732066895799,-0.08216304411164853,1490.8424908424906,-1.0,61.19521912350598,0.46341135058517036,
2023-08-16 13:53:05.456000,-7.734939759036145,1.530120481927711,5.602409638554217,1.8270999386879214,-7.784794604537093,6.0919681177191904,3.0,0.4633144633144633,2158.361284139914,-0.4461278480275046,0.07237340481324003,0.20791329176621406,1488.6446886446886,-1.0,61.19521912350598,0.4634074719569107,
2023-08-16 13:53:05.464000,-7.710843373493976,1.5542168674698795,5.590361445783133,1.8148375229920293,-7.75781729000613,6.133660331085223,3.0,0.4633144633144633,2158.361284139914,-0.3504457782180522,0.10791911893246285,0.4054542276091137,1485.7142857142856,-1.0,61.19521912350598,0.46340364278059765,
2023-08-16 13:53:05.471000,-7.710843373493976,1.5542168674698795,5.590361445783133,1.7952176578786019,-7.708767627222563,6.194972409564684,3.0,0.4633144633144633,2158.361284139914,-0.7441291300040797,-0.48272245207155845,0.35708874774197286,1479.120879120879,-1.0,61.19521912350598,0.46339986483718926,
2023-08-16 13:53:05.479000,-7.662650602409639,1.5903614457831325,5.602409638554217,1.7805027590435314,-7.679337829552422,6.1704475781729,3.0,0.4633144633144633,2158.361284139914,-0.3401899656197195,-0.36687838704038306,0.43121030242992847,1466.6666666666665,-1.0,61.19521912350598,0.4633961397744629,
2023-08-16 13:53:05.487000,-7.638554216867471,1.602409638554217,5.578313253012048,1.8172900061312078,-7.615573267933782,6.133660331085223,3.0,0.4633144633144633,2158.361284139914,-0.7649903851756894,0.06689586853912857,0.44496241477769366,1452.7472527472526,-1.0,61.19521912350598,0.4633924691045049,
2023-08-16 13:53:05.494000,-7.650602409638554,1.6265060240963856,5.590361445783133,1.8565297363580624,-7.6400980993255665,6.180257510729613,3.0,0.4633144633144633,2158.361284139914,-0.40801818075869645,0.2693316240312338,0.6870229007633587,1435.164835164835,-1.0,61.19521912350598,0.46338885420188236,
2023-08-16 13:53:05.502000,-7.614457831325302,1.6265060240963856,5.602409638554217,1.8712446351931329,-7.649908031882281,6.121397915389331,3.0,0.4628704628704628,2160.4316546762593,-0.5270089155643614,0.8366645300390426,0.48447060194627356,1419.7802197802198,-1.0,61.19521912350598,0.4633852963025058,
2023-08-16 13:53:05.510000,-7.662650602409639,1.6265060240963856,5.602409638554217,1.858982219497241,-7.58859595340282,6.207234825260576,3.0,0.4628704628704628,2160.4316546762593,-0.3262047666219913,1.3071499329875889,0.46570712662432245,1403.6630036630036,-1.0,61.19521912350598,0.463381796353885,
2023-08-16 13:53:05.517000,-7.686746987951808,1.5783132530120483,5.578313253012048,1.7854077253218883,-7.716125076640098,6.18516247700797,3.0,0.4628704628704628,2160.4316546762593,-0.7211700949828098,1.8787949420196957,0.09474972320960316,1391.9413919413919,-1.0,61.19521912350598,0.463378355132233,
2023-08-16 13:53:05.525000,-7.698795180722892,1.5421686746987953,5.578313253012048,1.807480073574494,-7.75781729000613,6.138565297363581,3.0,0.4633144633144633,2158.361284139914,-0.7331740574558585,2.2182856476895285,0.21758638773964215,1383.150183150183,-1.0,61.19521912350598,0.46337497336006284,
2023-08-16 13:53:05.533000,-7.759036144578314,1.5421686746987953,5.614457831325302,1.7927651747394235,-7.833844267320662,6.116492949110975,3.0,0.4633144633144633,2158.361284139914,-0.8662665345842324,1.8843890216187862,-0.19462735271837311,1377.2893772893772,-1.0,61.19521912350598,0.4633716515684384,
2023-08-16 13:53:05.540000,-7.771084337349398,1.5180722891566265,5.590361445783133,1.7437155119558552,-7.83629675045984,6.180257510729613,3.0,0.4628704628704628,2160.4316546762593,-0.6022959035021275,1.540586212924654,0.005244449624147621,1373.6263736263736,-1.0,61.19521912350598,0.46336839014051195,
2023-08-16 13:53:05.548000,-7.795180722891566,1.493975903614458,5.590361445783133,1.7976701410177804,-7.924586143470263,6.190067443286327,3.0,0.4628704628704628,2160.4316546762593,-0.41839053668201176,1.1219625895926806,0.4039391643843598,1370.6959706959706,-1.0,61.19521912350598,0.4633651891747086,
2023-08-16 13:53:05.556000,-7.795180722891566,1.5180722891566265,5.578313253012048,1.778050275904353,-7.838749233599018,6.145922746781116,3.0,0.4633144633144633,2158.361284139914,-0.5548627702348351,0.3404230522696811,0.08076452421187588,1370.6959706959706,-1.0,61.19521912350598,0.4633620484654305,
2023-08-16 13:53:05.563000,-7.759036144578314,1.530120481927711,5.590361445783133,1.7706928264868178,-7.767627222562845,6.160637645616186,3.0,0.4633144633144633,2158.361284139914,-0.28343336635394273,-0.05174523629159206,0.7064856360351962,1372.8937728937728,-1.0,61.19521912350598,0.4633589677926186,
2023-08-16 13:53:05.571000,-7.759036144578314,1.5421686746987953,5.602409638554217,1.78295524218271,-7.841201716738197,6.182709993868792,3.0,0.4633144633144633,2158.361284139914,0.07924946098712153,-0.6712895518909145,0.21339082804032378,1375.091575091575,-1.0,61.19521912350598,0.46335594694557575,
2023-08-16 13:53:05.579000,-7.746987951807229,1.5783132530120483,5.626506024096386,1.8148375229920293,-7.782342121397915,6.1704475781729,3.0,0.4633144633144633,2158.361284139914,0.05967018239030283,-0.6787483246897037,0.5040498805430919,1377.2893772893772,-1.0,61.19521912350598,0.46335298558826277,
2023-08-16 13:53:05.586000,-7.734939759036145,1.602409638554217,5.626506024096386,1.8614347026364193,-7.689147762109135,6.236664622930717,3.0,0.4628704628704628,2160.4316546762593,0.15896509527416816,-0.7325913408309543,0.12190431793019056,1381.6849816849815,-1.0,61.19521912350598,0.4633500832639249,
2023-08-16 13:53:05.594000,-7.698795180722892,1.602409638554217,5.63855421686747,1.858982219497241,-7.713672593500919,6.248927038626609,3.0,0.4633144633144633,2158.361284139914,0.2597750713827861,-0.5294563253889641,0.6102208496008391,1385.3479853479853,-1.0,61.19521912350598,0.46334723925098587,
2023-08-16 13:53:05.602000,-7.72289156626506,1.6265060240963856,5.626506024096386,1.854077253218884,-7.723482526057633,6.224402207234825,3.0,0.4633144633144633,2158.361284139914,0.2548802517335823,-0.5277081755142481,0.6075403531262746,1388.278388278388,-1.0,61.19521912350598,0.4633444526961828,
2023-08-16 13:53:05.609000,-7.734939759036145,1.602409638554217,5.662650602409639,1.9055793991416308,-7.711220110361741,6.268546903740036,3.0,0.4628704628704628,2160.4316546762593,-0.05465881941611818,-0.5922731775537547,0.5432084377367284,1389.0109890109889,-1.0,61.19521912350598,0.4633417227797215,
2023-08-16 13:53:05.617000,-7.72289156626506,1.6144578313253013,5.698795180722892,1.8712446351931329,-7.770079705702023,6.300429184549356,3.0,0.4633144633144633,2158.361284139914,0.0027970397995452823,-0.7790921274983983,0.3580210943418213,1389.0109890109889,-1.0,61.19521912350598,0.4633390484337367,
2023-08-16 13:53:05.625000,-7.734939759036145,1.63855421686747,5.698795180722892,1.9104843654199877,-7.752912323727774,6.315144083384427,3.0,0.4633144633144633,2158.361284139914,0.18413845347007743,-0.3088398111998137,0.5110424800419555,1387.5457875457876,-1.0,61.19521912350598,0.46333642847665024,
2023-08-16 13:53:05.632000,-7.662650602409639,1.6144578313253013,5.626506024096386,1.8344573881054567,-7.654812998160637,6.160637645616186,3.0,0.4633144633144633,2158.361284139914,0.16922090787250085,-0.1964920459180704,0.7696521181749315,1380.2197802197802,-1.0,61.19521912350598,0.46333386177945796,
2023-08-16 13:53:05.640000,-7.578313253012048,1.6265060240963856,5.55421686746988,1.836909871244635,-7.593500919681177,6.087063151440834,3.0,0.4633144633144633,2158.361284139914,0.10990035545714054,0.8767554338325267,0.39974360468504144,1372.161172161172,-1.0,61.19521912350598,0.4633313471345102,
2023-08-16 13:53:05.647000,-7.590361445783133,1.6506024096385543,5.530120481927711,1.9202942979767013,-7.598405885959534,6.160637645616186,3.0,0.4633144633144633,2158.361284139914,-0.7877163335469959,1.6094633179884619,-0.10430627585805041,1369.230769230769,-1.0,61.19521912350598,0.46332888340212747,
2023-08-16 13:53:05.655000,-7.590361445783133,1.6265060240963856,5.481927710843374,1.8442673206621703,-7.5567136725935,6.0453709380748,3.0,0.4628704628704628,2160.4316546762593,-0.7933104131460864,2.402074471184663,-0.08670823378591026,1367.7655677655678,-1.0,61.19521912350598,0.46332646935963295,
2023-08-16 13:53:05.663000,-7.650602409638554,1.566265060240964,5.493975903614458,1.8565297363580624,-7.75781729000613,6.114040465971796,3.0,0.4628704628704628,2160.4316546762593,-1.2880368276906935,2.5232795291649674,-0.5145387797913875,1365.5677655677655,-1.0,61.19521912350598,0.4633241034328616,
2023-08-16 13:53:05.670000,-7.759036144578314,1.5421686746987953,5.566265060240964,1.807480073574494,-7.846106683016554,6.148375229920294,3.0,0.4628704628704628,2160.4316546762593,-1.3085484528873608,2.5228133558650425,-0.006992599498863639,1364.8351648351647,-1.0,61.19521912350598,0.4633217839707608,
2023-08-16 13:53:05.678000,-7.843373493975904,1.5542168674698795,5.566265060240964,1.7706928264868178,-7.863274064990803,6.1361128142244015,3.0,0.4628704628704628,2160.4316546762593,-0.9011129887535684,2.0811141541868183,0.10034380280869372,1366.3003663003662,-1.0,61.19521912350598,0.4633195093706701,
2023-08-16 13:53:05.686000,-7.855421686746988,1.5783132530120483,5.542168674698796,1.8148375229920293,-7.912323727774371,6.116492949110975,3.0,0.4628704628704628,2160.4316546762593,-0.344035895344094,1.5987413320902042,0.6489132334945519,1371.4285714285713,-1.0,61.19521912350598,0.46331727793718364,
2023-08-16 13:53:05.693000,-7.855421686746988,1.6265060240963856,5.566265060240964,1.9227467811158798,-7.831391784181483,6.101778050275904,3.0,0.4628704628704628,2160.4316546762593,-0.8278072373404817,1.152263854087757,1.174756715809102,1376.5567765567764,-1.0,61.19521912350598,0.4633150877512632,
2023-08-16 13:53:05.701000,-7.783132530120482,1.6265060240963856,5.566265060240964,1.836909871244635,-7.770079705702023,6.116492949110975,3.0,0.4633144633144633,2158.361284139914,-0.683293514363965,0.20686440184138566,1.6820698094516635,1380.2197802197802,-1.0,61.19521912350598,0.4633129366981593,
2023-08-16 13:53:05.709000,-7.710843373493976,1.6265060240963856,5.542168674698796,1.9251992642550582,-7.6695278969957075,6.167995095033722,3.0,0.4633144633144633,2158.361284139914,-0.6300332148476204,0.15313792902511592,1.699318221548861,1378.7545787545787,-1.0,61.19521912350598,0.4633108227718879,
2023-08-16 13:53:05.716000,-7.614457831325302,1.5903614457831325,5.566265060240964,1.8099325567136726,-7.576333537706928,6.145922746781116,3.0,0.4633144633144633,2158.361284139914,-0.7640580385758409,0.5391294213623908,1.3176388322358839,1376.5567765567764,-1.0,61.19521912350598,0.46330874424156737,
2023-08-16 13:53:05.724000,-7.614457831325302,1.566265060240964,5.530120481927711,1.8197424892703862,-7.6327406499080315,6.114040465971796,3.0,0.4633144633144633,2158.361284139914,-1.1288386457665638,1.8045568440067605,0.6644134957170327,1377.2893772893772,-1.0,61.19521912350598,0.46330669936074387,
2023-08-16 13:53:05.732000,-7.638554216867471,1.530120481927711,5.542168674698796,1.8050275904353157,-7.684242795830778,6.060085836909871,3.0,0.4628704628704628,2160.4316546762593,-1.3346541576831183,2.327952916496707,0.14031816327719873,1377.2893772893772,-1.0,61.19521912350598,0.46330468638569783,
2023-08-16 13:53:05.739000,-7.72289156626506,1.457831325301205,5.518072289156627,1.7265481299816063,-7.750459840588595,6.060085836909871,3.0,0.4628704628704628,2160.4316546762593,-1.6754268399277439,2.96497873084319,-0.6405221140959156,1380.952380952381,-1.0,61.19521912350598,0.463302703561987,
2023-08-16 13:53:05.747000,-7.771084337349398,1.457831325301205,5.493975903614458,1.702023298589822,-7.873083997547517,5.988963825873697,3.0,0.4633144633144633,2158.361284139914,-1.7402249286172138,3.183380921857701,-0.19113105296894106,1386.080586080586,-1.0,61.19521912350598,0.4633007488226697,
2023-08-16 13:53:05.755000,-7.843373493975904,1.4457831325301205,5.493975903614458,1.6971183323114654,-7.909871244635193,6.008583690987124,3.0,0.4628704628704628,2160.4316546762593,-2.0485985665171023,3.3651885088281563,-0.022376318396363993,1394.139194139194,-1.0,61.19521912350598,0.46329882010288775,
2023-08-16 13:53:05.762000,-7.855421686746988,1.457831325301205,5.481927710843374,1.702023298589822,-7.9662783568362965,6.0404659717964435,3.0,0.4633144633144633,2158.361284139914,-2.0621175922149053,2.4450789581026737,0.6035778800769184,1400.7326007326005,-1.0,61.19521912350598,0.46329691536609685,
2023-08-16 13:53:05.770000,-7.879518072289157,1.4698795180722892,5.433734939759036,1.7118332311465358,-7.9147762109135495,6.008583690987124,3.0,0.4633144633144633,2158.361284139914,-1.681836722801702,1.8240195792785967,0.9325796864984564,1402.197802197802,-1.0,61.19521912350598,0.4632950325984623,
2023-08-16 13:53:05.778000,-7.855421686746988,1.4698795180722892,5.46987951807229,1.6873083997547516,-7.868179031269159,6.101778050275904,3.0,0.4633144633144633,2158.361284139914,-2.021910145096439,0.963230580968474,0.7093992191597227,1402.197802197802,-1.0,61.19521912350598,0.4632931699733881,
2023-08-16 13:53:05.785000,-7.855421686746988,1.493975903614458,5.481927710843374,1.7216431637032494,-7.892703862660944,6.0036787247087675,3.0,0.4633144633144633,2158.361284139914,-2.00757531612377,0.06293339548977318,1.1619369500611851,1402.9304029304028,-1.0,61.19521912350598,0.4632913257180277,
2023-08-16 13:53:05.793000,-7.83132530120482,1.5180722891566265,5.481927710843374,1.753525444512569,-7.806866952789699,6.094420600858369,3.0,0.4628704628704628,2160.4316546762593,-2.297768195326612,-0.796923256220501,1.5194918711030825,1405.128205128205,-1.0,61.19521912350598,0.4632894981183924,
2023-08-16 13:53:05.801000,-7.843373493975904,1.4819277108433735,5.55421686746988,1.7927651747394235,-7.838749233599018,6.116492949110975,3.0,0.4628704628704628,2160.4316546762593,-2.374570246489132,-1.4331332672921162,1.6018880018646928,1406.5934065934066,-1.0,61.19521912350598,0.4632876853750078,
2023-08-16 13:53:05.808000,-7.819277108433735,1.4819277108433735,5.590361445783133,1.7388105456774983,-7.863274064990803,6.153280196198651,3.0,0.4628704628704628,2160.4316546762593,-2.6211759221490594,-2.507196550317581,1.6996678515238046,1405.8608058608058,-1.0,61.19521912350598,0.4632858855858224,
2023-08-16 13:53:05.816000,-7.783132530120482,1.4819277108433735,5.626506024096386,1.7461679950950337,-7.765174739423666,6.270999386879215,3.0,0.46242646242646235,2162.506000960154,-2.6804964745644195,-2.134840627003088,2.1446302663014976,1402.9304029304028,-1.0,61.19521912350598,0.46328409688787453,
2023-08-16 13:53:05.824000,-7.746987951807229,1.493975903614458,5.63855421686747,1.7118332311465358,-7.762722256284488,6.167995095033722,3.0,0.4628704628704628,2160.4316546762593,-2.508361983567391,-2.2063982285414605,2.159664355224054,1400.0,-1.0,61.19521912350598,0.46328231744930165,
2023-08-16 13:53:05.831000,-7.686746987951808,1.5180722891566265,5.63855421686747,1.7952176578786019,-7.770079705702023,6.256284488044145,3.0,0.4628704628704628,2160.4316546762593,-2.4257327661558166,-1.7758871860614174,1.8396363848260586,1394.8717948717947,-1.0,61.19521912350598,0.4632805455785593,
2023-08-16 13:53:05.839000,-7.662650602409639,1.5421686746987953,5.614457831325302,1.7805027590435314,-7.708767627222563,6.150827713059472,3.0,0.4628704628704628,2160.4316546762593,-2.2534817318338103,-1.102732940970806,1.9026863236408138,1389.0109890109889,-1.0,61.19521912350598,0.46327877959843616,
2023-08-16 13:53:05.847000,-7.614457831325302,1.566265060240964,5.626506024096386,1.8638871857755976,-7.652360515021459,6.180257510729613,3.0,0.4628704628704628,2160.4316546762593,-3.061126973952566,0.05465881941611818,2.2855311462036014,1380.952380952381,-1.0,61.19521912350598,0.4632770177300616,
2023-08-16 13:53:05.854000,-7.626506024096386,1.566265060240964,5.626506024096386,1.8197424892703862,-7.6180257510729605,6.217044757817289,3.0,0.4633144633144633,2158.361284139914,-3.219509352601828,0.5151214964162935,1.8232037760037294,1372.161172161172,-1.0,61.19521912350598,0.4632752582427376,
2023-08-16 13:53:05.862000,-7.662650602409639,1.5542168674698795,5.63855421686747,1.8001226241569588,-7.713672593500919,6.192519926425505,3.0,0.4628704628704628,2160.4316546762593,-3.0823378590991197,0.8076452421187588,1.870869995920984,1366.3003663003662,-1.0,61.19521912350598,0.46327349960344294,
2023-08-16 13:53:05.870000,-7.686746987951808,1.5421686746987953,5.63855421686747,1.7682403433476395,-7.767627222562845,6.209687308399754,3.0,0.4628704628704628,2160.4316546762593,-3.146320144513722,1.416117941844881,1.6860322825010203,1362.6373626373625,-1.0,61.19521912350598,0.4632717403493176,
2023-08-16 13:53:05.877000,-7.746987951807229,1.530120481927711,5.614457831325302,1.7608828939301042,-7.762722256284488,6.172900061312078,3.0,0.4628704628704628,2160.4316546762593,-3.120797156342872,1.409008799021036,1.6700658469786138,1359.7069597069597,-1.0,61.19521912350598,0.4632699789283396,
2023-08-16 13:53:05.885000,-7.795180722891566,1.530120481927711,5.578313253012048,1.7339055793991416,-7.863274064990803,6.160637645616186,3.0,0.4633144633144633,2158.361284139914,-3.107278130645069,1.9355515412854725,2.0631664821397355,1358.2417582417581,-1.0,61.19521912350598,0.4632682138376088,
2023-08-16 13:53:05.893000,-7.819277108433735,1.5180722891566265,5.566265060240964,1.753525444512569,-7.853464132434089,6.145922746781116,3.0,0.4628704628704628,2160.4316546762593,-3.1365305052153145,2.1061709690577484,2.3338966260707426,1356.7765567765566,-1.0,61.19521912350598,0.4632664439106738,
2023-08-16 13:53:05.900000,-7.807228915662651,1.5180722891566265,5.566265060240964,1.78295524218271,-7.858369098712446,6.10913549969344,3.0,0.4628704628704628,2160.4316546762593,-3.7350970223180466,1.5882524328419096,2.617213449099702,1353.113553113553,-1.0,61.19521912350598,0.4632646680300397,
2023-08-16 13:53:05.908000,-7.783132530120482,1.5060240963855422,5.566265060240964,1.7461679950950337,-7.752912323727774,6.192519926425505,3.0,0.4633144633144633,2158.361284139914,-3.3660043121030223,1.2413029543732896,2.6540411397937187,1353.113553113553,-1.0,61.19521912350598,0.46326288483947015,
2023-08-16 13:53:05.916000,-7.698795180722892,1.4819277108433735,5.530120481927711,1.7044757817290006,-7.701410177805027,6.1066830165542605,3.0,0.4628704628704628,2160.4316546762593,-3.6861488258260033,1.7965153545830654,2.4468271079773896,1353.113553113553,-1.0,61.19521912350598,0.4632610931799835,
2023-08-16 13:53:05.923000,-7.698795180722892,1.4819277108433735,5.518072289156627,1.7927651747394235,-7.728387492335989,6.0453709380748,3.0,0.4628704628704628,2160.4316546762593,-3.913291766214089,1.6767088165025348,2.575490938756482,1356.0439560439559,-1.0,61.19521912350598,0.4632592919609325,
2023-08-16 13:53:05.931000,-7.734939759036145,1.5060240963855422,5.506024096385542,1.7584304107909257,-7.792152053954629,6.0478234212139785,3.0,0.4628704628704628,2160.4316546762593,-4.033564477594546,2.0602528990152087,2.519899772740516,1359.7069597069597,-1.0,61.19521912350598,0.4632574799994293,
2023-08-16 13:53:05.939000,-7.759036144578314,1.457831325301205,5.518072289156627,1.6627835683629675,-7.833844267320662,6.067443286327406,3.0,0.4628704628704628,2160.4316546762593,-4.30837363789989,1.8465124409999416,2.993182215488608,1362.6373626373625,-1.0,61.19521912350598,0.46325565615753245,
2023-08-16 13:53:05.946000,-7.807228915662651,1.421686746987952,5.566265060240964,1.648068669527897,-7.824034334763948,6.10913549969344,3.0,0.4628704628704628,2160.4316546762593,-4.277839286754852,1.9075811432900178,2.7336402307557837,1364.102564102564,-1.0,61.19521912350598,0.46325381934059273,
2023-08-16 13:53:05.954000,-7.843373493975904,1.4698795180722892,5.614457831325302,1.7388105456774983,-7.990803188228081,6.180257510729613,3.0,0.4628704628704628,2160.4316546762593,-4.125167531029661,1.7396422119923078,3.237457024648913,1363.3699633699632,-1.0,61.19521912350598,0.4632519684955335,
2023-08-16 13:53:05.962000,-7.855421686746988,1.385542168674699,5.578313253012048,1.537706928264868,-7.811771919068056,6.094420600858369,3.0,0.4628704628704628,2160.4316546762593,-4.369442340189966,0.15185595245032324,4.184021910145097,1360.4395604395604,-1.0,61.19521912350598,0.4632501027478386,
2023-08-16 13:53:05.969000,-7.686746987951808,1.3012048192771084,5.506024096385542,1.542611894543225,-7.735744941753525,6.0772532188841195,3.0,0.4628704628704628,2160.4316546762593,-4.14043470660218,2.8388788532136817,2.764174581900822,1356.7765567765566,-1.0,61.19521912350598,0.463248221240643,
2023-08-16 13:53:05.977000,-7.734939759036145,1.4698795180722892,5.542168674698796,1.7461679950950337,-7.83629675045984,6.138565297363581,3.0,0.4628704628704628,2160.4316546762593,-5.102266767670883,1.1442223646640637,3.405395955946623,1356.0439560439559,-1.0,61.19521912350598,0.4632463231440946,
2023-08-16 13:53:05.985000,-7.795180722891566,1.4457831325301205,5.542168674698796,1.5646842427958307,-7.711220110361741,6.0257510729613735,3.0,0.4628704628704628,2160.4316546762593,-4.7816560806479815,1.1289551890915446,4.7489074063283025,1356.0439560439559,-1.0,61.19521912350598,0.4632444077823257,
2023-08-16 13:53:05.992000,-7.698795180722892,1.3734939759036144,5.55421686746988,1.5892090741876148,-7.728387492335989,6.145922746781116,3.0,0.4628704628704628,2160.4316546762593,-5.086999592098364,1.9839170211526131,3.6344035895344096,1358.2417582417581,-1.0,61.19521912350598,0.4632424744835687,
2023-08-16 13:53:06,-7.746987951807229,1.385542168674699,5.614457831325302,1.6088289393010422,-7.828939301042305,6.273451870018393,3.0,0.4628704628704628,2160.4316546762593,-5.850358370724318,1.022084960083911,4.519899772740517,1362.6373626373625,-1.0,61.19521912350598,0.4632405225794403,
2023-08-16 13:53:06.008000,-7.795180722891566,1.349397590361446,5.566265060240964,1.6456161863887184,-7.804414469650521,6.121397915389331,3.0,0.4628704628704628,2160.4316546762593,-5.086999592098364,2.319794883748033,4.321426490297768,1369.9633699633698,-1.0,61.19521912350598,0.46323855140412806,
2023-08-16 13:53:06.015000,-7.807228915662651,1.3975903614457832,5.542168674698796,1.6210913549969344,-7.88289393010423,6.064990803188228,3.0,0.4628704628704628,2160.4316546762593,-5.071732416525844,2.487733815045743,4.703105879610745,1375.091575091575,-1.0,61.19521912350598,0.46323656015474596,
2023-08-16 13:53:06.023000,-7.807228915662651,1.421686746987952,5.518072289156627,1.7240956468424278,-7.890251379521765,6.0772532188841195,3.0,0.4628704628704628,2160.4316546762593,-6.384709515762485,2.5946040440533764,5.191655497931356,1378.7545787545787,-1.0,61.19521912350598,0.4632345479107697,
2023-08-16 13:53:06.030000,-7.843373493975904,1.4457831325301205,5.530120481927711,1.6358062538320048,-7.853464132434089,6.126302881667688,3.0,0.4628704628704628,2160.4316546762593,-6.369442340189966,1.602237631839636,5.573334887244333,1381.6849816849815,-1.0,61.19521912350598,0.46323251378105296,
2023-08-16 13:53:06.038000,-7.83132530120482,1.421686746987952,5.542168674698796,1.6382587369711832,-7.927038626609441,6.0625383200490495,3.0,0.4628704628704628,2160.4316546762593,-6.64425150049531,1.0831536623739872,6.000815803274867,1384.6153846153845,-1.0,61.19521912350598,0.46323045690174625,
2023-08-16 13:53:06.046000,-7.807228915662651,1.3734939759036144,5.542168674698796,1.6848559166155732,-7.831391784181483,6.116492949110975,3.0,0.4628704628704628,2160.4316546762593,-6.415243866907524,0.8236116776411629,5.267991375793951,1387.5457875457876,-1.0,61.19521912350598,0.46322837643443293,
2023-08-16 13:53:06.053000,-7.783132530120482,1.421686746987952,5.542168674698796,1.6701410177805027,-7.777437155119558,6.111587982832618,3.0,0.4628704628704628,2160.4316546762593,-6.766388905075463,0.6709399219159721,5.283258551366471,1391.2087912087911,-1.0,61.19521912350598,0.46322627156450663,
2023-08-16 13:53:06.061000,-7.795180722891566,1.4819277108433735,5.542168674698796,1.6995708154506437,-7.804414469650521,6.072348252605763,3.0,0.4628704628704628,2160.4316546762593,-6.8885263096556155,0.6709399219159721,5.893945574267234,1392.6739926739926,-1.0,61.19521912350598,0.46322414149981245,
2023-08-16 13:53:06.069000,-7.759036144578314,1.5060240963855422,5.530120481927711,1.6922133660331085,-7.750459840588595,6.10913549969344,3.0,0.4633144633144633,2158.361284139914,-7.285472874541111,0.5946040440533766,5.802342520832119,1392.6739926739926,-1.0,61.19521912350598,0.4632219854695634,
2023-08-16 13:53:06.076000,-7.72289156626506,1.4698795180722892,5.590361445783133,1.6750459840588594,-7.794604537093807,6.182709993868792,3.0,0.4628704628704628,2160.4316546762593,-8.033564477594547,0.13658877687780416,5.527533360526776,1390.4761904761904,-1.0,61.19521912350598,0.46321980301159743,
2023-08-16 13:53:06.084000,-7.746987951807229,1.4698795180722892,5.602409638554217,1.7118332311465358,-7.814224402207234,6.175352544451257,3.0,0.4628704628704628,2160.4316546762593,-8.201503408892256,0.3655964104655904,5.924479925412272,1387.5457875457876,-1.0,61.19521912350598,0.46321759368534987,
2023-08-16 13:53:06.092000,-7.734939759036145,1.4698795180722892,5.578313253012048,1.706928264868179,-7.83629675045984,6.167995095033722,3.0,0.4628704628704628,2160.4316546762593,-8.109900355457142,0.8999475555037584,5.848144047549677,1383.150183150183,-1.0,61.19521912350598,0.463215356923884,
2023-08-16 13:53:06.099000,-7.710843373493976,1.4698795180722892,5.55421686746988,1.6897608828939301,-7.750459840588595,6.180257510729613,3.0,0.4628704628704628,2160.4316546762593,-8.430511042480044,1.0526193112289493,5.985548627702348,1381.6849816849815,-1.0,61.19521912350598,0.46321309230169627,
2023-08-16 13:53:06.107000,-7.72289156626506,1.4819277108433735,5.590361445783133,1.7265481299816063,-7.779889638258736,6.138565297363581,3.0,0.4628704628704628,2160.4316546762593,-8.873259134083096,1.5106345784045216,6.504632597167997,1381.6849816849815,-1.0,61.19521912350598,0.4632107993871815,
2023-08-16 13:53:06.115000,-7.746987951807229,1.5180722891566265,5.566265060240964,1.719190680564071,-7.777437155119558,6.121397915389331,3.0,0.4628704628704628,2160.4316546762593,-8.980129363090729,1.922848318862537,6.44356389487792,1383.8827838827838,-1.0,61.19521912350598,0.46320847760575684,
2023-08-16 13:53:06.122000,-7.72289156626506,1.530120481927711,5.590361445783133,1.8099325567136726,-7.75781729000613,6.1704475781729,3.0,0.46242646242646235,2162.506000960154,-8.903793485228134,1.7854437387098652,6.351960841442806,1384.6153846153845,-1.0,61.19521912350598,0.4632061264009822,
2023-08-16 13:53:06.130000,-7.72289156626506,1.530120481927711,5.590361445783133,1.8148375229920293,-7.765174739423666,6.133660331085223,3.0,0.46242646242646235,2162.506000960154,-9.63661791270905,1.4801002272594834,6.504632597167997,1383.8827838827838,-1.0,61.19521912350598,0.46320374535373027,
2023-08-16 13:53:06.138000,-7.734939759036145,1.5060240963855422,5.602409638554217,1.6971183323114654,-7.76026977314531,6.204782342121398,3.0,0.4628704628704628,2160.4316546762593,-9.163335469960959,1.3121612959617737,6.382495192587845,1381.6849816849815,-1.0,61.19521912350598,0.4632013338542939,
2023-08-16 13:53:06.145000,-7.759036144578314,1.5060240963855422,5.602409638554217,1.8197424892703862,-7.816676885346413,6.121397915389331,3.0,0.4628704628704628,2160.4316546762593,-9.392343103548745,1.220558242526659,7.344327253656546,1378.7545787545787,-1.0,61.19521912350598,0.4631988912636353,
2023-08-16 13:53:06.153000,-7.734939759036145,1.530120481927711,5.626506024096386,1.7388105456774983,-7.806866952789699,6.194972409564684,3.0,0.4628704628704628,2160.4316546762593,-9.392343103548745,1.220558242526659,7.344327253656546,1378.021978021978,-1.0,61.19521912350598,0.46319641708508713,
2023-08-16 13:53:06.161000,-7.710843373493976,1.5421686746987953,5.650602409638554,1.753525444512569,-7.789699570815451,6.194972409564684,3.0,0.4628704628704628,2160.4316546762593,-9.254938523396072,1.20529106695414,7.038983742206165,1378.021978021978,-1.0,61.19521912350598,0.46319391082773276,
2023-08-16 13:53:06.168000,-7.710843373493976,1.530120481927711,5.650602409638554,1.8172900061312078,-7.738197424892704,6.192519926425505,3.0,0.4628704628704628,2160.4316546762593,-9.514480508128898,1.2816269448167354,7.206922673503875,1378.7545787545787,-1.0,61.19521912350598,0.46319137200863136,
2023-08-16 13:53:06.176000,-7.686746987951808,1.530120481927711,5.674698795180723,1.7412630288166768,-7.725935009196811,6.187614960147148,3.0,0.4628704628704628,2160.4316546762593,-9.911427073014394,1.770176563137346,7.267991375793951,1381.6849816849815,-1.0,61.19521912350598,0.46318880015514013,
2023-08-16 13:53:06.184000,-7.674698795180723,1.5060240963855422,5.614457831325302,1.7559779276517473,-7.733292458614347,6.177805027590435,3.0,0.4628704628704628,2160.4316546762593,-9.865625546296837,2.335062059320552,7.222189849076394,1385.3479853479853,-1.0,61.19521912350598,0.46318619466857636,
2023-08-16 13:53:06.191000,-7.638554216867471,1.5180722891566265,5.602409638554217,1.7510729613733904,-7.706315144083384,6.192519926425505,3.0,0.4628704628704628,2160.4316546762593,-10.201503408892256,3.03735213565643,7.100052444496241,1391.9413919413919,-1.0,61.19521912350598,0.46318355498584407,
2023-08-16 13:53:06.199000,-7.650602409638554,1.530120481927711,5.542168674698796,1.7559779276517473,-7.721030042918454,6.131207847946045,3.0,0.4628704628704628,2160.4316546762593,-10.338907989044928,3.8312452654274223,7.023716566633646,1399.2673992673992,-1.0,61.19521912350598,0.46318088070962593,
2023-08-16 13:53:06.207000,-7.674698795180723,1.5180722891566265,5.518072289156627,1.7216431637032494,-7.728387492335989,6.143470263641937,3.0,0.4628704628704628,2160.4316546762593,-10.277839286754851,4.167123128022842,6.932113513198532,1406.5934065934066,-1.0,61.19521912350598,0.46317817146193724,
2023-08-16 13:53:06.214000,-7.72289156626506,1.4819277108433735,5.55421686746988,1.7216431637032494,-7.718577559779276,6.1066830165542605,3.0,0.4628704628704628,2160.4316546762593,-10.690053027212867,4.090787250160247,7.130586795641279,1412.4542124542124,-1.0,61.19521912350598,0.46317542688704294,
2023-08-16 13:53:06.222000,-7.771084337349398,1.4698795180722892,5.566265060240964,1.6750459840588594,-7.82158185162477,6.10913549969344,3.0,0.4628704628704628,2160.4316546762593,-10.461045393625081,3.8617796165724605,7.329060078084027,1419.047619047619,-1.0,61.19521912350598,0.46317264665442803,
2023-08-16 13:53:06.230000,-7.819277108433735,1.457831325301205,5.55421686746988,1.672593500919681,-7.824034334763948,6.028203556100552,3.0,0.4628704628704628,2160.4316546762593,-10.690053027212867,3.7243750364197887,7.466464658236699,1428.5714285714284,995.78857421875,60.253754213913574,0.46316983046181354,
2023-08-16 13:53:06.237000,-7.843373493975904,1.457831325301205,5.566265060240964,1.6824034334763946,-7.912323727774371,6.141017780502759,3.0,0.4628704628704628,2160.4316546762593,-10.613717149350272,3.4953674028320023,7.893945574267233,1441.0256410256409,-1.0,60.253754213913574,0.46316697803820917,
2023-08-16 13:53:06.245000,-7.83132530120482,1.4457831325301205,5.55421686746988,1.6652360515021458,-7.858369098712446,6.180257510729613,3.0,0.4628704628704628,2160.4316546762593,-10.567915622632714,2.86941320435872,7.726006642969524,1453.4798534798533,-1.0,60.253754213913574,0.4631640891469832,
2023-08-16 13:53:06.253000,-7.83132530120482,1.4698795180722892,5.566265060240964,1.7584304107909257,-7.855916615573268,6.141017780502759,3.0,0.4628704628704628,2160.4316546762593,-11.010663714235768,2.70147427306101,8.321426490297767,1466.6666666666665,-1.0,60.253754213913574,0.4631611635889457,
2023-08-16 13:53:06.260000,-7.795180722891566,1.4698795180722892,5.590361445783133,1.7339055793991416,-7.806866952789699,6.118945432250153,3.0,0.4628704628704628,2160.4316546762593,-11.010663714235768,2.136588776877804,8.351960841442807,1480.5860805860805,-1.0,60.253754213913574,0.46315820120542506,
2023-08-16 13:53:06.268000,-7.734939759036145,1.4819277108433735,5.590361445783133,1.7388105456774983,-7.76026977314531,6.141017780502759,3.0,0.4628704628704628,2160.4316546762593,-10.751121729502943,2.1518559524503234,8.413029543732883,1493.7728937728937,-1.0,60.253754213913574,0.4631552018813285,
2023-08-16 13:53:06.276000,-7.686746987951808,1.493975903614458,5.566265060240964,1.6676885346413242,-7.713672593500919,6.148375229920294,3.0,0.46242646242646235,2162.506000960154,-11.056465240953324,2.503000990618262,8.718373055183264,1504.7619047619046,-1.0,60.253754213913574,0.4631521655481711,
2023-08-16 13:53:06.283000,-7.710843373493976,1.5060240963855422,5.566265060240964,1.8001226241569588,-7.738197424892704,6.084610668301655,3.0,0.46242646242646235,2162.506000960154,-11.209136996678517,2.854146028786201,8.642037177320669,1513.5531135531135,-1.0,60.253754213913574,0.4631490920377648,
2023-08-16 13:53:06.291000,-7.686746987951808,1.530120481927711,5.55421686746988,1.7755977927651747,-7.76026977314531,6.155732679337829,3.0,0.4628704628704628,2160.4316546762593,-11.651885088281569,2.9152147310762775,8.809976108618379,1520.8791208791208,-1.0,60.253754213913574,0.4631459810632682,
2023-08-16 13:53:06.299000,-7.734939759036145,1.5060240963855422,5.530120481927711,1.765787860208461,-7.75781729000613,6.10913549969344,3.0,0.4628704628704628,2160.4316546762593,-11.80455684400676,2.8846803799312393,8.94738068877105,1524.5421245421244,-1.0,60.253754213913574,0.46314283250839183,
2023-08-16 13:53:06.306000,-7.746987951807229,1.530120481927711,5.578313253012048,1.7412630288166768,-7.755364806866952,6.133660331085223,3.0,0.4628704628704628,2160.4316546762593,-12.12516753102966,2.899947555503758,8.94738068877105,1523.8095238095236,-1.0,60.253754213913574,0.46313964645016376,
2023-08-16 13:53:06.314000,-7.771084337349398,1.5421686746987953,5.578313253012048,1.858982219497241,-7.801961986511342,6.138565297363581,3.0,0.4628704628704628,2160.4316546762593,-11.774022492861722,2.7625429753510864,8.871044810908455,1519.4139194139193,-1.0,60.253754213913574,0.4631364230224804,
2023-08-16 13:53:06.322000,-7.759036144578314,1.530120481927711,5.602409638554217,1.7706928264868178,-7.806866952789699,6.121397915389331,3.0,0.4628704628704628,2160.4316546762593,-12.064098828739585,2.670939921915972,9.374861604801584,1509.1575091575091,-1.0,60.253754213913574,0.4631331624183072,
2023-08-16 13:53:06.329000,-7.783132530120482,1.5421686746987953,5.566265060240964,1.8001226241569588,-7.75781729000613,6.187614960147148,3.0,0.4628704628704628,2160.4316546762593,-12.216770584464776,2.5488025173358193,9.359594429229066,1495.2380952380952,-1.0,60.253754213913574,0.4631298647530256,
2023-08-16 13:53:06.337000,-7.746987951807229,1.5421686746987953,5.578313253012048,1.7510729613733904,-7.755364806866952,6.116492949110975,3.0,0.4628704628704628,2160.4316546762593,-12.430511042480042,2.5946040440533764,9.161121146786318,1479.120879120879,-1.0,60.253754213913574,0.46312653022554046,
2023-08-16 13:53:06.345000,-7.698795180722892,1.5542168674698795,5.566265060240964,1.807480073574494,-7.75781729000613,6.1361128142244015,3.0,0.4628704628704628,2160.4316546762593,-12.62898432492279,2.5488025173358193,9.573334887244332,1465.201465201465,-1.0,60.253754213913574,0.46312315924774633,
2023-08-16 13:53:06.352000,-7.698795180722892,1.5783132530120483,5.542168674698796,1.824647455548743,-7.75781729000613,6.199877375843041,3.0,0.4628704628704628,2160.4316546762593,-12.49157974477012,2.3655964104655904,9.4664646582367,1454.212454212454,-1.0,60.253754213913574,0.46311975229714925,
