Shimmer_F5D4_Timestamp_FormattedUnix_CAL,Shimmer_F5D4_Accel_LN_X_CAL,Shimmer_F5D4_Accel_LN_Y_CAL,Shimmer_F5D4_Accel_LN_Z_CAL,Shimmer_F5D4_Accel_WR_X_CAL,Shimmer_F5D4_Accel_WR_Y_CAL,Shimmer_F5D4_Accel_WR_Z_CAL,Shimmer_F5D4_GSR_Range_CAL,Shimmer_F5D4_GSR_Skin_Conductance_CAL,Shimmer_F5D4_GSR_Skin_Resistance_CAL,Shimmer_F5D4_Gyro_X_CAL,Shimmer_F5D4_Gyro_Y_CAL,Shimmer_F5D4_Gyro_Z_CAL,Shimmer_F5D4_PPG_A13_CAL,Shimmer_F5D4_PPG_IBI_CAL,Shimmer_F5D4_PPGtoHR_CAL,Shimmer_F5D4_GSR_Skin_Conductance_LPF_CAL,
yyyy/mm/dd hh:mm:ss.000,m/(s^2),m/(s^2),m/(s^2),m/(s^2),m/(s^2),m/(s^2),no_units,uS,kOhms,deg/s,deg/s,deg/s,mV,ms,BPM,uS,
2023-08-17 19:46:11.479000,-7.301204819277109,-0.03614457831325302,-6.590361445783133,0.04659717964438994,-7.152053954629062,-6.283261802575107,3.0,0.9992229992229992,1000.7776049766719,-0.018996561971912792,0.13344210710331636,-0.32107686032282495,1872.5274725274724,-1.0,65.8234289731829,1.000112164737566,
2023-08-17 19:46:11.486000,-7.36144578313253,-0.04819277108433735,-6.578313253012048,-0.014714898835070508,-7.152053954629062,-6.293071735131821,3.0,0.9992229992229992,1000.7776049766719,-0.09603169978439496,0.13262630382844878,0.04813239321717832,1793.4065934065932,-1.0,65.8234289731829,1.0000996565891789,
2023-08-17 19:46:11.494000,-7.349397590361447,-0.07228915662650603,-6.626506024096386,-0.014714898835070508,-7.09319435928878,-6.253832004904966,3.0,0.9992229992229992,1000.7776049766719,-0.09976108618378868,0.1290134607540359,0.04906473981702718,1715.7509157509157,-1.0,65.8234289731829,1.000087182606999,
2023-08-17 19:46:11.502000,-7.373493975903615,-0.07228915662650603,-6.590361445783133,0.004904966278356836,-7.1814837522992025,-6.302881667688534,3.0,0.9992229992229992,1000.7776049766719,-0.14742730610104277,0.2787716333546989,-0.3182798205232797,1642.4908424908424,-1.0,65.8234289731829,1.0000747436026158,
2023-08-17 19:46:11.509000,-7.349397590361447,-0.060240963855421686,-6.602409638554217,-0.009809932556713672,-7.10790925812385,-6.317596566523605,3.0,0.9992229992229992,1000.7776049766719,0.03589534409416706,-0.1517394091253424,-0.4069692908338676,1576.5567765567764,-1.0,65.8234289731829,1.000062340424238,
2023-08-17 19:46:11.517000,-7.36144578313253,-0.04819277108433735,-6.590361445783133,0.007357449417535254,-7.120171673819742,-6.297976701410177,3.0,0.9992229992229992,1000.7776049766719,-0.39356680846104497,0.30569314142532417,-0.3724724666394732,1517.9487179487178,-1.0,65.8234289731829,1.0000499739576352,
2023-08-17 19:46:11.525000,-7.373493975903615,-0.07228915662650603,-6.614457831325302,0.0,-7.166768853464132,-6.312691600245248,3.0,0.9992229992229992,1000.7776049766719,-0.01083852922323862,0.10500553580793673,0.14905891265077795,1464.4688644688645,-1.0,65.8234289731829,1.0000376451269555,
2023-08-17 19:46:11.532000,-7.349397590361447,-0.060240963855421686,-6.602409638554217,0.019619865113427344,-7.142244022072348,-6.312691600245248,3.0,0.9992229992229992,1000.7776049766719,-0.040557077093409194,-0.03169978439484827,0.026222248120738974,1415.3846153846152,-1.0,65.8234289731829,1.0000253548954432,
2023-08-17 19:46:11.540000,-7.36144578313253,-0.08433734939759037,-6.626506024096386,0.02207234825260576,-7.152053954629062,-6.342121397915389,3.0,0.9992229992229992,1000.7776049766719,-0.05815511916555022,0.04673387331740568,-0.12831420080414915,1368.4981684981683,-1.0,65.8234289731829,1.0000131042660498,
2023-08-17 19:46:11.548000,-7.337349397590362,-0.03614457831325302,-6.578313253012048,0.03923973022685469,-7.06131207847946,-6.305334150827712,3.0,0.9983349983349983,1001.6677785190127,-0.1517394091253424,-0.13577297360293658,0.19252957286871414,1323.8095238095236,-1.0,65.8234289731829,1.0000008942819676,
2023-08-17 19:46:11.555000,-7.337349397590362,-0.04819277108433735,-6.578313253012048,0.034334763948497854,-7.085836909871245,-6.322501532801962,3.0,0.9987789987789988,1001.2224938875306,0.13693840685274666,0.12435172775479203,0.34333663539420767,1287.179487179487,-1.0,65.8234289731829,0.9999887260059936,
2023-08-17 19:46:11.563000,-7.337349397590362,-0.04819277108433735,-6.626506024096386,0.04414469650521152,-7.1446965052115265,-6.37155119558553,3.0,0.9992229992229992,1000.7776049766719,-0.06491463201445088,-0.05908746576539864,0.18402191014509658,1254.212454212454,-1.0,65.8234289731829,0.999976600446949,
2023-08-17 19:46:11.571000,-7.313253012048193,-0.04819277108433735,-6.626506024096386,-0.004904966278356836,-7.056407112201104,-6.312691600245248,3.0,0.9992229992229992,1000.7776049766719,-0.021210885146553893,-0.11922382145562654,0.22644368043820307,1224.9084249084249,-1.0,65.8234289731829,0.9999645185909467,
2023-08-17 19:46:11.578000,-7.325301204819278,-0.060240963855421686,-6.602409638554217,0.02207234825260576,-7.080931943592887,-6.320049049662783,3.0,0.9992229992229992,1000.7776049766719,0.08461045393625043,-0.31548278072373354,0.22621059378824096,1202.9304029304028,-1.0,65.8234289731829,0.9999524814533206,
2023-08-17 19:46:11.586000,-7.325301204819278,-0.07228915662650603,-6.63855421686747,0.041692213366033105,-7.100551808706315,-6.329858982219497,3.0,0.9992229992229992,1000.7776049766719,-0.0844939106112696,0.053027212866383,-0.1890332731192821,1186.080586080586,-1.0,65.8234289731829,0.9999404900882788,
2023-08-17 19:46:11.594000,-7.337349397590362,-0.04819277108433735,-6.614457831325302,0.02452483139178418,-7.100551808706315,-6.351931330472103,3.0,0.9992229992229992,1000.7776049766719,-0.19241302954373243,0.004661732999242137,-0.3397237923197948,1173.6263736263736,-1.0,65.8234289731829,0.999928545588013,
2023-08-17 19:46:11.601000,-7.313253012048193,-0.03614457831325302,-6.614457831325302,0.05150214592274678,-7.063764561618639,-6.300429184549356,3.0,0.9992229992229992,1000.7776049766719,0.0079249460987125,-0.1333255637783338,-0.27620768020511616,1164.8351648351647,-1.0,65.8234289731829,0.9999166490818311,
2023-08-17 19:46:11.609000,-7.349397590361447,-0.04819277108433735,-6.626506024096386,0.056407112201103615,-7.066217044757817,-6.32495401594114,3.0,0.9992229992229992,1000.7776049766719,-0.3893712487617279,0.21828564768952846,0.003612843074412873,1163.3699633699632,-1.0,65.8234289731829,0.9999048017353256,
2023-08-17 19:46:11.617000,-7.349397590361447,-0.04819277108433735,-6.602409638554217,0.08828939301042305,-7.129981606376456,-6.293071735131821,3.0,0.9992229992229992,1000.7776049766719,-0.2013868655672742,-0.22609405046326014,-0.10022725948371289,1168.4981684981685,-1.0,65.8234289731829,0.9998930047495929,
2023-08-17 19:46:11.624000,-7.373493975903615,-0.04819277108433735,-6.590361445783133,0.02207234825260576,-7.103004291845493,-6.317596566523605,3.0,0.9987789987789988,1001.2224938875306,-0.25965852805780526,-0.3178136472233555,-0.35720529106695414,1179.4871794871794,-1.0,65.8234289731829,0.9998812593605227,
2023-08-17 19:46:11.632000,-7.36144578313253,-0.04819277108433735,-6.614457831325302,0.04659717964438994,-7.129981606376456,-6.31023911710607,3.0,0.9992229992229992,1000.7776049766719,-0.1665404113979364,-0.22504516053843088,-0.10570479575782304,1196.3369963369962,-1.0,65.8234289731829,0.9998695666888757,
2023-08-17 19:46:11.640000,-7.373493975903615,-0.04819277108433735,-6.614457831325302,0.041692213366033105,-7.115266707541386,-6.290619251992642,3.0,0.9992229992229992,1000.7776049766719,-0.3171143872734687,-0.31688130062350706,-0.30056523512615824,1217.5824175824175,-1.0,65.8234289731829,0.9998579280059096,
2023-08-17 19:46:11.647000,-7.36144578313253,-0.04819277108433735,-6.602409638554217,0.014714898835070508,-7.1446965052115265,-6.273451870018393,3.0,0.9992229992229992,1000.7776049766719,-0.17481498747159316,-0.45358662082629203,0.10115960608356175,1238.8278388278388,-1.0,65.8234289731829,0.9998463447327484,
2023-08-17 19:46:11.655000,-7.349397590361447,-0.04819277108433735,-6.578313253012048,0.056407112201103615,-7.112814224402207,-6.295524218270999,3.0,0.9987789987789988,1001.2224938875306,-0.4175747334071441,-0.25313210185886625,-0.0045451896742613,1262.2710622710622,-1.0,65.8234289731829,0.9998348181735021,
2023-08-17 19:46:11.662000,-7.337349397590362,-0.04819277108433735,-6.578313253012048,0.019619865113427344,-7.10790925812385,-6.31023911710607,3.0,0.9987789987789988,1001.2224938875306,-0.07750131111240552,-0.13122778392867526,0.33005069634636675,1284.2490842490843,-1.0,65.8234289731829,0.9998233496534198,
2023-08-17 19:46:11.670000,-7.337349397590362,-0.03614457831325302,-6.590361445783133,0.06376456161863887,-7.152053954629062,-6.261189454322501,3.0,0.9992229992229992,1000.7776049766719,-0.09125342346017198,-0.23518442981178272,-0.11561097838121324,1307.6923076923076,-1.0,65.8234289731829,0.9998119404761664,
2023-08-17 19:46:11.678000,-7.349397590361447,-0.024096385542168676,-6.578313253012048,0.007357449417535254,-7.117719190680564,-6.26364193746168,3.0,0.9987789987789988,1001.2224938875306,-0.33389662607074216,-0.27725657012994626,-0.11514480508128903,1331.135531135531,-1.0,65.8234289731829,0.9998005919230906,
2023-08-17 19:46:11.685000,-7.36144578313253,-0.03614457831325302,-6.590361445783133,0.034334763948497854,-7.063764561618639,-6.297976701410177,3.0,0.9987789987789988,1001.2224938875306,-0.025056814870928437,-0.2887943593030716,-0.22283083736378978,1353.113553113553,-1.0,65.8234289731829,0.9997893051452127,
2023-08-17 19:46:11.693000,-7.349397590361447,-0.07228915662650603,-6.566265060240964,0.017167381974248927,-7.179031269160024,-6.285714285714286,3.0,0.9992229992229992,1000.7776049766719,0.2970689353767267,0.037293863993940565,-0.010139269273352298,1371.4285714285713,-1.0,65.8234289731829,0.9997780811510626,
2023-08-17 19:46:11.701000,-7.337349397590362,-0.04819277108433735,-6.590361445783133,0.056407112201103615,-7.085836909871245,-6.356836296750459,3.0,0.9983349983349983,1001.6677785190127,-0.2093118116659867,0.130178894003846,-0.31571586737369606,1386.080586080586,-1.0,65.8234289731829,0.9997669212311076,
2023-08-17 19:46:11.708000,-7.349397590361447,-0.060240963855421686,-6.566265060240964,0.029429797670141016,-7.117719190680564,-6.270999386879215,3.0,0.9987789987789988,1001.2224938875306,0.003962473049355383,-0.21828564768952846,-0.13122778392867526,1397.8021978021977,-1.0,65.8234289731829,0.9997558269357686,
2023-08-17 19:46:11.716000,-7.349397590361447,-0.060240963855421686,-6.578313253012048,0.06376456161863887,-7.164316370324953,-6.261189454322501,3.0,0.9992229992229992,1000.7776049766719,-0.07586970456267034,-0.0787832876871982,0.09859565293397814,1405.128205128205,-1.0,65.8234289731829,0.9997447995752464,
2023-08-17 19:46:11.724000,-7.36144578313253,-0.060240963855421686,-6.590361445783133,0.03188228080931944,-7.117719190680564,-6.339668914776211,3.0,0.9987789987789988,1001.2224938875306,-0.04615115669249976,0.1020919526834106,0.08297884738651612,1408.058608058608,-1.0,65.8234289731829,0.9997338404101529,
2023-08-17 19:46:11.731000,-7.349397590361447,-0.060240963855421686,-6.590361445783133,0.05885959534028203,-7.117719190680564,-6.3077866339668915,3.0,0.9992229992229992,1000.7776049766719,-0.047433133267292434,-0.03659460404405381,0.14323174640172487,1405.8608058608058,-1.0,65.8234289731829,0.9997229506820317,
2023-08-17 19:46:11.739000,-7.349397590361447,-0.060240963855421686,-6.614457831325302,0.004904966278356836,-7.120171673819742,-6.32495401594114,3.0,0.9992229992229992,1000.7776049766719,-0.14008507662723618,-0.023891381621118337,0.40102558125983323,1397.8021978021977,-1.0,65.8234289731829,0.9997121316016342,
2023-08-17 19:46:11.747000,-7.36144578313253,-0.07228915662650603,-6.614457831325302,0.004904966278356836,-7.090741876149601,-6.320049049662783,3.0,0.9987789987789988,1001.2224938875306,0.18099178369558963,-0.16292756832352354,0.4153604102325039,1386.080586080586,-1.0,65.8234289731829,0.9997013845074896,
2023-08-17 19:46:11.754000,-7.349397590361447,-0.060240963855421686,-6.614457831325302,0.007357449417535254,-7.159411404046597,-6.3077866339668915,3.0,0.9992229992229992,1000.7776049766719,0.1927626595186767,0.1272653108793199,0.48808344502068646,1373.6263736263736,-1.0,65.8234289731829,0.9996907105773467,
2023-08-17 19:46:11.762000,-7.349397590361447,-0.060240963855421686,-6.578313253012048,-0.034334763948497854,-7.115266707541386,-6.305334150827712,3.0,0.9987789987789988,1001.2224938875306,-0.19019870636909308,0.24345900588543773,-0.04988054309189434,1361.904761904762,-1.0,65.8234289731829,0.9996801109551329,
2023-08-17 19:46:11.770000,-7.349397590361447,-0.060240963855421686,-6.590361445783133,0.03188228080931944,-7.1446965052115265,-6.302881667688534,3.0,0.9987789987789988,1001.2224938875306,-0.18751820989452864,0.23833109958627052,-0.05116251966668614,1351.6483516483515,-1.0,65.8234289731829,0.9996695867602102,
2023-08-17 19:46:11.777000,-7.349397590361447,-0.060240963855421686,-6.578313253012048,0.02452483139178418,-7.085836909871245,-6.3372164316370325,3.0,0.9987789987789988,1001.2224938875306,-0.35300973136763575,-0.25394790513373383,0.1928792028436571,1342.8571428571427,-1.0,65.8234289731829,0.9996591389262571,
2023-08-17 19:46:11.785000,-7.337349397590362,-0.060240963855421686,-6.578313253012048,0.05150214592274678,-7.088289393010423,-6.290619251992642,3.0,0.9987789987789988,1001.2224938875306,-0.5026513606433196,-0.34275391876930306,0.39193520191131065,1330.4029304029302,-1.0,65.8234289731829,0.9996487683379434,
2023-08-17 19:46:11.793000,-7.313253012048193,-0.03614457831325302,-6.590361445783133,-0.004904966278356836,-7.115266707541386,-6.359288779889638,3.0,0.9987789987789988,1001.2224938875306,-0.4835382553464243,-0.28040323990443405,0.38960433541168915,1314.2857142857142,-1.0,65.8234289731829,0.999638475828782,
2023-08-17 19:46:11.800000,-7.337349397590362,-0.03614457831325302,-6.602409638554217,0.03188228080931944,-7.071122011036174,-6.31023911710607,3.0,0.9987789987789988,1001.2224938875306,-0.17434881417166806,0.08868947031058838,0.44671056465240966,1295.2380952380952,-1.0,65.8234289731829,0.9996282621789316,
2023-08-17 19:46:11.808000,-7.337349397590362,-0.060240963855421686,-6.614457831325302,0.03678724708767627,-7.07602697731453,-6.3077866339668915,3.0,0.9987789987789988,1001.2224938875306,-0.4756133092477135,0.16700658469786148,0.16957053784744466,1274.7252747252746,-1.0,65.8234289731829,0.9996181281129706,
2023-08-17 19:46:11.816000,-7.337349397590362,-0.03614457831325302,-6.590361445783133,0.0956468424279583,-7.053954629061924,-6.26364193746168,3.0,0.9987789987789988,1001.2224938875306,-0.35009614824310964,-0.045684983392576414,0.45556785735097016,1258.6080586080586,-1.0,65.8234289731829,0.9996080742976602,
2023-08-17 19:46:11.823000,-7.337349397590362,-0.04819277108433735,-6.602409638554217,0.08338442673206621,-7.137339055793991,-6.293071735131821,3.0,0.9987789987789988,1001.2224938875306,-0.40941670065846997,0.01759804207214102,0.3454344152438671,1245.4212454212454,-1.0,65.8234289731829,0.9995981013397243,
2023-08-17 19:46:11.831000,-7.325301204819278,-0.04819277108433735,-6.626506024096386,0.04904966278356836,-7.142244022072348,-6.327406499080318,3.0,0.9987789987789988,1001.2224938875306,-0.16036361517394165,0.0632830254647157,-0.06980945166365599,1235.8974358974358,-1.0,65.8234289731829,0.999588209783667,
2023-08-17 19:46:11.839000,-7.337349397590362,-0.04819277108433735,-6.63855421686747,0.03678724708767627,-7.115266707541386,-6.312691600245248,3.0,0.9987789987789988,1001.2224938875306,-0.14323174640172398,0.0011654332498101003,-0.11619369500611873,1230.03663003663,-1.0,65.8234289731829,0.9995784001096434,
2023-08-17 19:46:11.846000,-7.349397590361447,-0.03614457831325302,-6.626506024096386,-0.034334763948497854,-7.088289393010423,-6.315144083384427,3.0,0.9987789987789988,1001.2224938875306,-0.003612843074412873,0.12295320785502026,-0.2707301439310064,1225.6410256410256,-1.0,65.8234289731829,0.9995686728701726,
2023-08-17 19:46:11.854000,-7.373493975903615,-0.060240963855421686,-6.602409638554217,0.05150214592274678,-7.191293684855916,-6.327406499080318,3.0,0.9978909978909979,1002.1134593993327,-0.1396189033273111,-0.30650894470019174,0.1562845987996037,1219.7802197802198,-1.0,65.8234289731829,0.9995590286678174,
2023-08-17 19:46:11.862000,-7.373493975903615,-0.04819277108433735,-6.63855421686747,0.04904966278356836,-7.090741876149601,-6.317596566523605,3.0,0.9983349983349983,1001.6677785190127,-0.565002039508187,0.05850474914049272,-0.22690985373812728,1214.6520146520145,-1.0,65.8234289731829,0.9995494678455444,
2023-08-17 19:46:11.869000,-7.36144578313253,-0.03614457831325302,-6.578313253012048,0.009809932556713672,-7.129981606376456,-6.300429184549356,3.0,0.9987789987789988,1001.2224938875306,-0.30184721170094964,-0.2154886078899832,-0.13460754035312647,1208.7912087912086,-1.0,65.8234289731829,0.9995399904325856,
2023-08-17 19:46:11.877000,-7.349397590361447,-0.04819277108433735,-6.602409638554217,0.002452483139178418,-7.1446965052115265,-6.266094420600858,3.0,0.9987789987789988,1001.2224938875306,-0.5280578054891906,-0.4901812248703459,0.049530913116951396,1204.3956043956043,-1.0,65.8234289731829,0.9995305964615356,
2023-08-17 19:46:11.885000,-7.337349397590362,-0.04819277108433735,-6.590361445783133,0.03188228080931944,-7.100551808706315,-6.285714285714286,3.0,0.9987789987789988,1001.2224938875306,0.010372355923315273,-0.42666511275566676,0.1722510343220091,1200.0,-1.0,65.8234289731829,0.999521285997937,
2023-08-17 19:46:11.892000,-7.373493975903615,-0.04819277108433735,-6.55421686746988,0.019619865113427344,-7.176578786020846,-6.27835683629675,3.0,0.9987789987789988,1001.2224938875306,-0.2501019754093576,0.033681020919527696,-0.013052852397878852,1196.3369963369962,-1.0,65.8234289731829,0.999512059000241,
2023-08-17 19:46:11.900000,-7.36144578313253,-0.060240963855421686,-6.602409638554217,-0.0269773145309626,-7.083384426732066,-6.283261802575107,3.0,0.9992229992229992,1000.7776049766719,-0.17108560107219944,0.018064215372064367,0.04848202319212169,1192.6739926739926,-1.0,65.8234289731829,0.9995029153185951,
2023-08-17 19:46:11.908000,-7.349397590361447,-0.04819277108433735,-6.590361445783133,-0.014714898835070508,-7.073574494175352,-6.27835683629675,3.0,0.9987789987789988,1001.2224938875306,-0.29275683235242705,0.2918244857525786,0.07820057106229227,1189.7435897435896,-1.0,65.8234289731829,0.9994938548430514,
2023-08-17 19:46:11.915000,-7.325301204819278,-0.03614457831325302,-6.566265060240964,0.05150214592274678,-7.127529123237277,-6.261189454322501,3.0,0.9987789987789988,1001.2224938875306,-0.36687838704038306,-0.0018646931996968547,0.30557659810034377,1186.8131868131868,-1.0,65.8234289731829,0.9994848773752087,
2023-08-17 19:46:11.923000,-7.36144578313253,-0.04819277108433735,-6.602409638554217,0.0,-7.137339055793991,-6.288166768853464,3.0,0.9987789987789988,1001.2224938875306,0.07866674436221735,-0.034380280869412715,0.2256278771633355,1181.6849816849815,-1.0,65.8234289731829,0.9994759824685323,
2023-08-17 19:46:11.931000,-7.373493975903615,-0.04819277108433735,-6.578313253012048,0.0539546290619252,-7.07602697731453,-6.300429184549356,3.0,0.9987789987789988,1001.2224938875306,-0.06001981236524707,-0.18938290309422548,0.5740924188567099,1175.8241758241757,-1.0,65.8234289731829,0.9994671695667666,
2023-08-17 19:46:11.938000,-7.36144578313253,-0.04819277108433735,-6.55421686746988,0.041692213366033105,-7.134886572654812,-6.256284488044145,3.0,0.9987789987789988,1001.2224938875306,0.20115377891731254,-0.11339665520657258,0.07983217761202745,1171.4285714285713,-1.0,65.8234289731829,0.999458438003854,
2023-08-17 19:46:11.946000,-7.349397590361447,-0.04819277108433735,-6.602409638554217,0.07112201103617412,-7.117719190680564,-6.3445738810545675,3.0,0.9987789987789988,1001.2224938875306,0.30650894470019174,-0.038226210593788994,0.09300157333488714,1171.4285714285713,-1.0,65.8234289731829,0.9994497868653877,
2023-08-17 19:46:11.954000,-7.36144578313253,-0.024096385542168676,-6.614457831325302,0.0,-7.127529123237277,-6.312691600245248,3.0,0.9987789987789988,1001.2224938875306,0.33471242934560974,0.0363615173940904,0.35032923489307133,1173.6263736263736,-1.0,65.8234289731829,0.9994412151482583,
2023-08-17 19:46:11.961000,-7.36144578313253,-0.024096385542168676,-6.566265060240964,0.04904966278356836,-7.083384426732066,-6.364193746167995,3.0,0.9987789987789988,1001.2224938875306,0.5616222830837357,-0.08857292698560755,0.2390303595361577,1176.5567765567764,-1.0,65.8234289731829,0.9994327218891341,
2023-08-17 19:46:11.969000,-7.349397590361447,-0.012048192771084338,-6.602409638554217,0.009809932556713672,-7.100551808706315,-6.26364193746168,3.0,0.9987789987789988,1001.2224938875306,0.374686789814113,0.06281685216479235,0.3884389021618786,1183.150183150183,-1.0,65.8234289731829,0.9994243060165947,
2023-08-17 19:46:11.977000,-7.349397590361447,-0.012048192771084338,-6.590361445783133,0.09809932556713671,-7.115266707541386,-6.349478847332924,3.0,0.9987789987789988,1001.2224938875306,0.06573043528931848,0.30452770817551406,0.032981760969640506,1190.4761904761904,-1.0,65.8234289731829,0.9994159663529707,
2023-08-17 19:46:11.984000,-7.36144578313253,-0.024096385542168676,-6.602409638554217,0.007357449417535254,-7.078479460453709,-6.339668914776211,3.0,0.9987789987789988,1001.2224938875306,-0.16432608822329706,0.21001107161587346,8.15803274867591E-4,1199.2673992673992,-1.0,65.8234289731829,0.9994077014778447,
2023-08-17 19:46:11.992000,-7.349397590361447,-0.012048192771084338,-6.578313253012048,0.029429797670141016,-7.063764561618639,-6.300429184549356,3.0,0.9987789987789988,1001.2224938875306,0.051395606316647816,-0.06631315191422439,-0.028553114620360042,1207.3260073260074,-1.0,65.8234289731829,0.9993995098898736,
2023-08-17 19:46:12,-7.349397590361447,-0.04819277108433735,-6.602409638554217,0.04904966278356836,-7.112814224402207,-6.317596566523605,3.0,0.9987789987789988,1001.2224938875306,0.02284249169628734,0.1496416292756839,0.30499388147543827,1214.6520146520145,-1.0,65.8234289731829,0.999391390137551,
2023-08-17 19:46:12.007000,-7.337349397590362,-0.04819277108433735,-6.626506024096386,0.08583690987124463,-7.13979153893317,-6.283261802575107,3.0,0.9978909978909979,1002.1134593993327,-0.09743021968416674,-0.03531262746926114,0.30452770817551406,1219.7802197802198,-1.0,65.8234289731829,0.9993833406737297,
2023-08-17 19:46:12.015000,-7.36144578313253,-0.04819277108433735,-6.614457831325302,-0.01226241569589209,-7.125076640098099,-6.334763948497853,3.0,0.9983349983349983,1001.6677785190127,0.13344210710331636,-0.4752636792727693,0.4397179651535456,1226.3736263736264,-1.0,65.8234289731829,0.9993753597000788,
2023-08-17 19:46:12.023000,-7.36144578313253,-0.04819277108433735,-6.614457831325302,0.03188228080931944,-7.137339055793991,-6.349478847332924,3.0,0.9987789987789988,1001.2224938875306,-0.23355282326204754,-0.16630732474797474,0.48447060194627356,1232.967032967033,-1.0,65.8234289731829,0.9993674451182752,
2023-08-17 19:46:12.030000,-7.36144578313253,-0.060240963855421686,-6.63855421686747,0.05150214592274678,-7.071122011036174,-6.351931330472103,3.0,0.9987789987789988,1001.2224938875306,-0.21374045801526717,0.004195559699318791,0.25359827515879046,1242.4908424908424,-1.0,65.8234289731829,0.9993595948529529,
2023-08-17 19:46:12.038000,-7.349397590361447,-0.060240963855421686,-6.626506024096386,0.07112201103617412,-7.09319435928878,-6.378908645003065,3.0,0.9987789987789988,1001.2224938875306,-0.24007924946098655,-0.376434939688829,0.23891381621117644,1252.014652014652,-1.0,65.8234289731829,0.9993518068876208,
2023-08-17 19:46:12.045000,-7.337349397590362,-0.04819277108433735,-6.626506024096386,0.03923973022685469,-7.156958920907418,-6.349478847332924,3.0,0.9987789987789988,1001.2224938875306,-0.22201503408892218,-0.7549676592273183,0.28483188625371497,1261.5384615384614,-1.0,65.8234289731829,0.9993440791314109,
2023-08-17 19:46:12.053000,-7.373493975903615,-0.04819277108433735,-6.590361445783133,0.007357449417535254,-7.127529123237277,-6.32495401594114,3.0,0.9987789987789988,1001.2224938875306,-0.21816910436454764,-0.7485577763533602,0.2822679331041318,1271.062271062271,-1.0,65.8234289731829,0.9993364094250821,
2023-08-17 19:46:12.061000,-7.349397590361447,-0.060240963855421686,-6.602409638554217,0.05885959534028203,-7.117719190680564,-6.300429184549356,3.0,0.9987789987789988,1001.2224938875306,-0.184954256744945,-0.5470543674611034,0.12936309072897842,1279.8534798534797,-1.0,65.8234289731829,0.9993287955475284,
2023-08-17 19:46:12.068000,-7.325301204819278,-0.060240963855421686,-6.614457831325302,0.041692213366033105,-7.090741876149601,-6.32495401594114,3.0,0.9987789987789988,1001.2224938875306,-0.060136355690227905,-0.5597575898840389,-0.22224812073888472,1285.7142857142856,-1.0,65.8234289731829,0.9993212352227792,
2023-08-17 19:46:12.076000,-7.337349397590362,-0.04819277108433735,-6.578313253012048,0.0539546290619252,-7.120171673819742,-6.3077866339668915,3.0,0.9987789987789988,1001.2224938875306,0.0476662199172541,-0.17609696404638409,-0.2174698444146613,1287.9120879120878,-1.0,65.8234289731829,0.9993137261274831,
2023-08-17 19:46:12.084000,-7.36144578313253,-0.024096385542168676,-6.55421686746988,0.041692213366033105,-7.129981606376456,-6.300429184549356,3.0,0.9987789987789988,1001.2224938875306,-0.22621059378824096,-0.3574383777169162,-0.06130178894003844,1284.2490842490843,-1.0,65.8234289731829,0.9993062658988656,
2023-08-17 19:46:12.091000,-7.313253012048193,-0.03614457831325302,-6.590361445783133,0.12998160637645614,-7.149601471489883,-6.275904353157571,3.0,0.9987789987789988,1001.2224938875306,-0.29963288852631026,-0.1242351844298112,-0.07703513781248174,1276.1904761904761,-1.0,65.8234289731829,0.9992988521431332,
2023-08-17 19:46:12.099000,-7.349397590361447,-0.04819277108433735,-6.614457831325302,0.0269773145309626,-7.080931943592887,-6.339668914776211,3.0,0.9987789987789988,1001.2224938875306,-0.374686789814113,-0.13239321717848537,-0.19998834566750157,1268.131868131868,-1.0,65.8234289731829,0.9992914824443082,
2023-08-17 19:46:12.107000,-7.36144578313253,-0.04819277108433735,-6.578313253012048,0.11281422440220723,-7.103004291845493,-6.322501532801962,3.0,0.9987789987789988,1001.2224938875306,-0.12376901112988785,0.1466115028261752,-0.12202086125517139,1260.07326007326,-1.0,65.8234289731829,0.9992841543734658,
2023-08-17 19:46:12.114000,-7.36144578313253,-0.03614457831325302,-6.614457831325302,0.08338442673206621,-7.166768853464132,-6.295524218270999,3.0,0.9987789987789988,1001.2224938875306,-0.26082396130761537,0.1934619194685617,0.04731658994231073,1253.4798534798533,-1.0,65.8234289731829,0.9992768654983442,
2023-08-17 19:46:12.122000,-7.385542168674699,-0.03614457831325302,-6.602409638554217,0.10055180870631514,-7.095646842427958,-6.290619251992642,3.0,0.9987789987789988,1001.2224938875306,-0.2896101625779375,-0.01841384534700861,0.1250509877046792,1246.8864468864467,-1.0,65.8234289731829,0.9992696133932942,
2023-08-17 19:46:12.130000,-7.36144578313253,-0.03614457831325302,-6.590361445783133,0.08583690987124463,-7.1814837522992025,-6.261189454322501,3.0,0.9987789987789988,1001.2224938875306,-0.41046559058329923,0.38167938931297707,-0.0750539012878036,1241.7582417582416,-1.0,65.8234289731829,0.9992623957882799,
2023-08-17 19:46:12.137000,-7.349397590361447,-0.04819277108433735,-6.566265060240964,0.007357449417535254,-7.129981606376456,-6.293071735131821,3.0,0.9983349983349983,1001.6677785190127,-0.05535807936600493,0.3806304993881478,-0.1368218635277667,1237.3626373626373,-1.0,65.8234289731829,0.9992552104202661,
2023-08-17 19:46:12.145000,-7.36144578313253,-0.060240963855421686,-6.614457831325302,0.029429797670141016,-7.137339055793991,-6.285714285714286,3.0,0.9987789987789988,1001.2224938875306,0.11211467863178164,0.14929199930073964,-0.07412155468795519,1232.967032967033,-1.0,65.8234289731829,0.9992480549057974,
2023-08-17 19:46:12.153000,-7.349397590361447,-0.060240963855421686,-6.602409638554217,0.029429797670141016,-7.090741876149601,-6.305334150827712,3.0,0.9983349983349983,1001.6677785190127,-0.10197540935842977,-0.11269739525668582,-0.16654041139793727,1230.7692307692307,-1.0,65.8234289731829,0.9992409270080416,
2023-08-17 19:46:12.160000,-7.349397590361447,-0.060240963855421686,-6.590361445783133,0.06131207847946045,-7.161863887185775,-6.290619251992642,3.0,0.9978909978909979,1002.1134593993327,0.17260066429695206,-0.31326845754909416,0.06211759221490603,1226.3736263736264,-1.0,65.8234289731829,0.9992338243705304,
2023-08-17 19:46:12.168000,-7.349397590361447,-0.060240963855421686,-6.590361445783133,0.029429797670141016,-7.127529123237277,-6.317596566523605,3.0,0.9978909978909979,1002.1134593993327,0.032865217644660105,-0.49356098129479703,0.3213099469727871,1221.9780219780218,-1.0,65.8234289731829,0.9992267445169585,
2023-08-17 19:46:12.176000,-7.349397590361447,-0.04819277108433735,-6.602409638554217,0.014714898835070508,-7.169221336603311,-6.322501532801962,3.0,0.9983349983349983,1001.6677785190127,-0.05943709574034115,-0.2917079424275978,0.19486043936833522,1216.117216117216,-1.0,65.8234289731829,0.9992196850852773,
2023-08-17 19:46:12.183000,-7.36144578313253,-0.060240963855421686,-6.578313253012048,0.03678724708767627,-7.149601471489883,-6.280809319435929,3.0,0.9983349983349983,1001.6677785190127,0.2019695821921801,-0.30406153487559073,0.177612027271138,1210.989010989011,-1.0,65.8234289731829,0.9992126436878072,
2023-08-17 19:46:12.191000,-7.337349397590362,-0.04819277108433735,-6.578313253012048,0.07357449417535254,-7.137339055793991,-6.273451870018393,3.0,0.9987789987789988,1001.2224938875306,0.30639240137521095,-0.12936309072897842,0.20779674844123322,1208.7912087912086,-1.0,65.8234289731829,0.9992056179620906,
2023-08-17 19:46:12.199000,-7.349397590361447,-0.024096385542168676,-6.590361445783133,0.004904966278356836,-7.080931943592887,-6.305334150827712,3.0,0.9983349983349983,1001.6677785190127,0.3021968416758921,-0.048248936542160024,0.06817784511392125,1208.7912087912086,-1.0,65.8234289731829,0.9991986057388698,
2023-08-17 19:46:12.206000,-7.349397590361447,-0.04819277108433735,-6.590361445783133,0.12507664009809932,-7.15450643776824,-6.270999386879215,3.0,0.9987789987789988,1001.2224938875306,0.6036944234018993,0.0015150632247543454,0.44962414777693577,1210.2564102564102,934.50927734375,64.20482006400627,0.9991916049223293,
2023-08-17 19:46:12.214000,-7.337349397590362,-0.060240963855421686,-6.590361445783133,0.08338442673206621,-7.098099325567136,-6.285714285714286,3.0,0.9987789987789988,1001.2224938875306,0.36804382029019317,-0.07388846803799265,0.03496299749431863,1211.7216117216117,-1.0,64.20482006400627,0.9991846134876174,
2023-08-17 19:46:12.222000,-7.349397590361447,-0.03614457831325302,-6.602409638554217,0.12507664009809932,-7.149601471489883,-6.251379521765788,3.0,0.9987789987789988,1001.2224938875306,0.4714177495483947,0.15523570887477445,0.3090728978497758,1213.9194139194137,-1.0,64.20482006400627,0.9991776296482986,
2023-08-17 19:46:12.229000,-7.36144578313253,-0.03614457831325302,-6.602409638554217,0.04659717964438994,-7.137339055793991,-6.305334150827712,3.0,0.9987789987789988,1001.2224938875306,0.5434415243866905,-0.1517394091253424,-0.09067070683526607,1216.8498168498168,-1.0,64.20482006400627,0.9991706517255768,
2023-08-17 19:46:12.237000,-7.373493975903615,-0.024096385542168676,-6.602409638554217,0.0539546290619252,-7.15450643776824,-6.322501532801962,3.0,0.9983349983349983,1001.6677785190127,0.6458831070450436,0.030068177845113085,0.45999650370025064,1223.4432234432234,-1.0,64.20482006400627,0.999163678155903,
2023-08-17 19:46:12.245000,-7.385542168674699,-0.03614457831325302,-6.590361445783133,0.06131207847946045,-7.159411404046597,-6.315144083384427,3.0,0.9987789987789988,1001.2224938875306,0.5017190140434712,-0.24963580210943423,0.16793893129770993,1237.3626373626373,-1.0,64.20482006400627,0.999156707348892,
2023-08-17 19:46:12.252000,-7.349397590361447,-0.03614457831325302,-6.590361445783133,0.07602697731453095,-7.129981606376456,-6.302881667688534,3.0,0.9983349983349983,1001.6677785190127,0.1006934327836371,0.06852747508886375,0.45615057397587566,1263.003663003663,-1.0,64.20482006400627,0.9991497378215489,
2023-08-17 19:46:12.260000,-7.349397590361447,-0.012048192771084338,-6.590361445783133,0.10300429184549356,-7.117719190680564,-6.312691600245248,3.0,0.9983349983349983,1001.6677785190127,0.3618670240661967,0.0844939106112696,0.4524211875764815,1302.5641025641025,-1.0,64.20482006400627,0.9991427682142962,
2023-08-17 19:46:12.268000,-7.349397590361447,-0.024096385542168676,-6.602409638554217,0.06621704475781728,-7.120171673819742,-6.236664622930717,3.0,0.9987789987789988,1001.2224938875306,0.20791329176621492,-0.053027212866383,0.29438843890216176,1354.5787545787546,-1.0,64.20482006400627,0.9991357971361063,
2023-08-17 19:46:12.275000,-7.337349397590362,-0.03614457831325302,-6.578313253012048,0.04904966278356836,-7.137339055793991,-6.3445738810545675,3.0,0.9983349983349983,1001.6677785190127,0.42095448983159534,-0.17236757764699037,0.47421478934794004,1420.5128205128203,-1.0,64.20482006400627,0.9991288234561772,
2023-08-17 19:46:12.283000,-7.337349397590362,-0.04819277108433735,-6.590361445783133,0.0269773145309626,-7.120171673819742,-6.332311465358675,3.0,0.9983349983349983,1001.6677785190127,0.3448516986189616,0.06036944234018958,0.8072956121438145,1500.3663003663003,-1.0,64.20482006400627,0.9991218461795025,
2023-08-17 19:46:12.291000,-7.325301204819278,-0.07228915662650603,-6.590361445783133,0.04904966278356836,-7.110361741263028,-6.305334150827712,3.0,0.9987789987789988,1001.2224938875306,0.2498688887593959,-0.28914398927801416,0.28203484645416926,1589.0109890109889,-1.0,64.20482006400627,0.9991148642902907,
2023-08-17 19:46:12.298000,-7.337349397590362,-0.060240963855421686,-6.614457831325302,0.02207234825260576,-7.147148988350705,-6.290619251992642,3.0,0.9983349983349983,1001.6677785190127,0.019812365246780383,-0.07190723151331495,0.34112231221956746,1684.9816849816848,-1.0,64.20482006400627,0.9991078770419117,
2023-08-17 19:46:12.306000,-7.337349397590362,-0.07228915662650603,-6.602409638554217,0.01226241569589209,-7.152053954629062,-6.317596566523605,3.0,0.9983349983349983,1001.6677785190127,-0.07027562496357977,-0.11689295495600462,0.35277664471767367,1780.9523809523807,-1.0,64.20482006400627,0.9991008838307501,
2023-08-17 19:46:12.314000,-7.36144578313253,-0.07228915662650603,-6.614457831325302,0.06621704475781728,-7.103004291845493,-6.334763948497853,3.0,0.9978909978909979,1002.1134593993327,-0.17376609754676214,0.19019870636909308,0.24299283258551352,1872.5274725274724,-1.0,64.20482006400627,0.9990938840379137,
2023-08-17 19:46:12.321000,-7.349397590361447,-0.060240963855421686,-6.614457831325302,0.02207234825260576,-7.07602697731453,-6.280809319435929,3.0,0.9983349983349983,1001.6677785190127,-0.04778276324223494,0.296835848726765,0.33121612959617724,1958.2417582417581,-1.0,64.20482006400627,0.999086877296401,
2023-08-17 19:46:12.329000,-7.325301204819278,-0.07228915662650603,-6.590361445783133,-0.017167381974248927,-7.078479460453709,-6.270999386879215,3.0,0.9983349983349983,1001.6677785190127,-0.04405337684284123,0.29648621875182074,0.3283025464716507,2035.8974358974358,-1.0,64.20482006400627,0.9990798634386198,
2023-08-17 19:46:12.337000,-7.349397590361447,-0.04819277108433735,-6.602409638554217,0.08583690987124463,-7.120171673819742,-6.32495401594114,3.0,0.9983349983349983,1001.6677785190127,-0.023891381621118337,0.4770118291474853,0.23192121671231325,2102.5641025641025,-1.0,64.20482006400627,0.9990728423787344,
2023-08-17 19:46:12.344000,-7.349397590361447,-0.03614457831325302,-6.590361445783133,-0.04904966278356836,-7.164316370324953,-6.332311465358675,3.0,0.9987789987789988,1001.2224938875306,-0.11223122195676248,0.07517044461278531,0.32049414369791945,2152.3809523809523,-1.0,64.20482006400627,0.999065813983626,
2023-08-17 19:46:12.352000,-7.349397590361447,-0.04819277108433735,-6.590361445783133,0.05885959534028203,-7.125076640098099,-6.300429184549356,3.0,0.9987789987789988,1001.2224938875306,0.04242177029310605,0.12155468795524675,0.28669657945341226,2183.8827838827838,-1.0,64.20482006400627,0.9990587782409937,
2023-08-17 19:46:12.360000,-7.373493975903615,-0.012048192771084338,-6.602409638554217,0.0809319435928878,-7.2109135499693435,-6.327406499080318,3.0,0.9987789987789988,1001.2224938875306,-0.42922906590525034,-0.16712312802284232,0.5278247188392281,2192.6739926739924,-1.0,64.20482006400627,0.9990517354269426,
2023-08-17 19:46:12.367000,-7.373493975903615,0.0,-6.614457831325302,0.06621704475781728,-7.10790925812385,-6.32495401594114,3.0,0.9987789987789988,1001.2224938875306,-0.10337392925820155,0.17364955422178133,0.5378474447875999,2180.9523809523807,-1.0,64.20482006400627,0.9990446859648706,
2023-08-17 19:46:12.375000,-7.385542168674699,0.0,-6.590361445783133,0.07847946045370938,-7.169221336603311,-6.297976701410177,3.0,0.9987789987789988,1001.2224938875306,0.06712895518909198,0.09964454285880783,0.4756133092477131,2149.4505494505493,-1.0,64.20482006400627,0.9990376304228572,
2023-08-17 19:46:12.383000,-7.373493975903615,0.012048192771084338,-6.614457831325302,0.10545677498467197,-7.1741263028816675,-6.302881667688534,3.0,0.9987789987789988,1001.2224938875306,0.05151214964162865,-0.03682769069401549,0.5929724375036424,2104.7619047619046,-1.0,64.20482006400627,0.9990305695108354,
2023-08-17 19:46:12.390000,-7.337349397590362,0.04819277108433735,-6.578313253012048,0.10545677498467197,-7.132434089515634,-6.315144083384427,3.0,0.9987789987789988,1001.2224938875306,0.20581551191655467,-0.0791329176621407,0.11456208845638355,2050.5494505494503,-1.0,64.20482006400627,0.9990235040775848,
2023-08-17 19:46:12.398000,-7.36144578313253,0.012048192771084338,-6.566265060240964,0.12507664009809932,-7.125076640098099,-6.315144083384427,3.0,0.9987789987789988,1001.2224938875306,-0.03845929724375067,-0.212108851465532,0.32667093992191554,1986.8131868131866,-1.0,64.20482006400627,0.9990164351075771,
2023-08-17 19:46:12.406000,-7.36144578313253,-0.012048192771084338,-6.578313253012048,0.07357449417535254,-7.147148988350705,-6.27835683629675,3.0,0.9987789987789988,1001.2224938875306,0.023774838296135765,-0.40557077093409544,0.24590641571004007,1917.9487179487178,-1.0,64.20482006400627,0.9990093638564459,
2023-08-17 19:46:12.413000,-7.349397590361447,0.012048192771084338,-6.55421686746988,0.17903126916002451,-7.051502145922746,-6.275904353157571,3.0,0.9987789987789988,1001.2224938875306,0.11607715168113703,-0.29310646232736953,0.19765747916788093,1846.8864468864467,-1.0,64.20482006400627,0.9990022916884973,
2023-08-17 19:46:12.421000,-7.36144578313253,0.0,-6.55421686746988,0.09809932556713671,-7.112814224402207,-6.273451870018393,3.0,0.9987789987789988,1001.2224938875306,0.2237631839636382,-0.05850474914049272,0.02762076802051118,1775.8241758241757,-1.0,64.20482006400627,0.9989952199456634,
2023-08-17 19:46:12.428000,-7.373493975903615,0.024096385542168676,-6.590361445783133,0.10055180870631514,-7.115266707541386,-6.280809319435929,3.0,0.9983349983349983,1001.6677785190127,0.05407610279121226,-0.25709457490822163,0.16385991492337304,1704.7619047619046,-1.0,64.20482006400627,0.998988150093135,
2023-08-17 19:46:12.436000,-7.349397590361447,-0.012048192771084338,-6.542168674698796,0.05150214592274678,-7.132434089515634,-6.241569589209074,3.0,0.9983349983349983,1001.6677785190127,0.17633005069634577,0.18961598974418717,0.4979896276440762,1635.8974358974358,-1.0,64.20482006400627,0.9989810837051398,
2023-08-17 19:46:12.444000,-7.337349397590362,0.024096385542168676,-6.55421686746988,0.09074187614960147,-7.098099325567136,-6.320049049662783,3.0,0.9983349983349983,1001.6677785190127,0.43598857875415103,0.06398228541460245,0.2770234834799833,1568.4981684981683,-1.0,64.20482006400627,0.9989740224190221,
2023-08-17 19:46:12.451000,-7.349397590361447,0.024096385542168676,-6.55421686746988,0.10545677498467197,-7.127529123237277,-6.32495401594114,3.0,0.9983349983349983,1001.6677785190127,0.5236291591399101,0.2756249635802111,0.28937707592797646,1503.2967032967033,-1.0,64.20482006400627,0.9989669679206724,
2023-08-17 19:46:12.459000,-7.397590361445784,0.012048192771084338,-6.566265060240964,0.11526670754138564,-7.188841201716738,-6.31023911710607,3.0,0.9987789987789988,1001.2224938875306,1.011596060835615,0.07353883806305013,0.7584639589767499,1443.956043956044,-1.0,64.20482006400627,0.998959921940173,
2023-08-17 19:46:12.467000,-7.385542168674699,0.0,-6.602409638554217,0.10055180870631514,-7.149601471489883,-6.334763948497853,3.0,0.9978909978909979,1002.1134593993327,0.8226793310413145,-0.06421537206456586,0.537497814812657,1387.5457875457876,-1.0,64.20482006400627,0.9989528863964321,
2023-08-17 19:46:12.474000,-7.349397590361447,-0.012048192771084338,-6.590361445783133,0.06376456161863887,-7.115266707541386,-6.295524218270999,3.0,0.9983349983349983,1001.6677785190127,1.0593788240778517,0.043936833517860395,0.5747916788065963,1337.7289377289376,-1.0,64.20482006400627,0.9989458632542758,
2023-08-17 19:46:12.482000,-7.373493975903615,0.012048192771084338,-6.578313253012048,0.07357449417535254,-7.100551808706315,-6.322501532801962,3.0,0.9983349983349983,1001.6677785190127,1.5248528640522114,-0.09218577006002042,0.6414544606957641,1295.2380952380952,-1.0,64.20482006400627,0.9989388544673532,
2023-08-17 19:46:12.490000,-7.36144578313253,0.024096385542168676,-6.590361445783133,0.09809932556713671,-7.1446965052115265,-6.280809319435929,3.0,0.9983349983349983,1001.6677785190127,1.2386224578987235,-0.19672513256803206,0.7243167647572982,1256.4102564102564,-1.0,64.20482006400627,0.9989318619838475,
2023-08-17 19:46:12.497000,-7.36144578313253,0.024096385542168676,-6.590361445783133,0.11771919068056406,-7.098099325567136,-6.317596566523605,3.0,0.9983349983349983,1001.6677785190127,1.5340597867257149,-0.2546471650836206,0.6566050929433018,1220.5128205128203,-1.0,64.20482006400627,0.9989248876235932,
2023-08-17 19:46:12.505000,-7.337349397590362,0.03614457831325302,-6.55421686746988,0.11526670754138564,-7.171673819742489,-6.295524218270999,3.0,0.9983349983349983,1001.6677785190127,1.582891439892781,0.008507662723616683,0.7725657012994585,1188.278388278388,-1.0,64.20482006400627,0.998917933221193,
2023-08-17 19:46:12.513000,-7.349397590361447,0.024096385542168676,-6.590361445783133,0.0809319435928878,-7.034334763948498,-6.266094420600858,3.0,0.9983349983349983,1001.6677785190127,1.2950294271895577,0.1792436338208736,0.7779266942485872,1157.5091575091574,-1.0,64.20482006400627,0.9989110006197198,
2023-08-17 19:46:12.520000,-7.337349397590362,0.012048192771084338,-6.602409638554217,0.11526670754138564,-7.132434089515634,-6.349478847332924,3.0,0.9983349983349983,1001.6677785190127,1.2702056989685908,0.1774954839461576,0.5992657770526196,1134.7985347985348,-1.0,64.20482006400627,0.9989040916643245,
2023-08-17 19:46:12.528000,-7.36144578313253,0.03614457831325302,-6.590361445783133,0.07357449417535254,-7.134886572654812,-6.342121397915389,3.0,0.9987789987789988,1001.2224938875306,1.1353650719655026,0.49985432084377435,1.1091428238447643,1117.9487179487178,-1.0,64.20482006400627,0.9988972081958061,
2023-08-17 19:46:12.536000,-7.337349397590362,0.04819277108433735,-6.602409638554217,0.0956468424279583,-7.137339055793991,-6.300429184549356,3.0,0.9987789987789988,1001.2224938875306,1.2944467105646518,0.23809801293630886,1.3289435347590464,1106.9597069597069,-1.0,64.20482006400627,0.9988903521934501,
2023-08-17 19:46:12.543000,-7.36144578313253,0.03614457831325302,-6.602409638554217,0.14224402207234824,-7.039239730226854,-6.3445738810545675,3.0,0.9987789987789988,1001.2224938875306,1.3298758813588953,0.14521298292640342,0.9201095507254816,1103.2967032967033,-1.0,64.20482006400627,0.9988835257904902,
2023-08-17 19:46:12.551000,-7.36144578313253,0.012048192771084338,-6.602409638554217,0.07112201103617412,-7.090741876149601,-6.329858982219497,3.0,0.9983349983349983,1001.6677785190127,1.1205640696929087,0.3284190897966324,1.2917662140900883,1106.9597069597069,-1.0,64.20482006400627,0.9988767311306918,
2023-08-17 19:46:12.559000,-7.349397590361447,0.012048192771084338,-6.602409638554217,0.134886572654813,-7.105456774984671,-6.327406499080318,3.0,0.9983349983349983,1001.6677785190127,1.141075694889576,0.1729502942718963,0.5637200629333952,1119.4139194139193,-1.0,64.20482006400627,0.9988699702146754,
2023-08-17 19:46:12.566000,-7.373493975903615,0.0,-6.63855421686747,0.14714898835070508,-7.120171673819742,-6.3740036787247085,3.0,0.9983349983349983,1001.6677785190127,1.377309014626188,0.1885670998193579,0.9262863469494788,1136.2637362637363,-1.0,64.20482006400627,0.9988632448739819,
2023-08-17 19:46:12.574000,-7.385542168674699,0.0,-6.566265060240964,0.07112201103617412,-7.110361741263028,-6.295524218270999,3.0,0.9983349983349983,1001.6677785190127,1.0910786084726998,0.09579861313443329,0.933745119748266,1158.2417582417581,-1.0,64.20482006400627,0.9988565569044103,
2023-08-17 19:46:12.582000,-7.349397590361447,0.0,-6.590361445783133,0.0809319435928878,-7.129981606376456,-6.305334150827712,3.0,0.9983349983349983,1001.6677785190127,1.5095856884796923,0.0643319153895467,0.9414369791970169,1184.6153846153845,-1.0,64.20482006400627,0.9988499080607826,
2023-08-17 19:46:12.589000,-7.36144578313253,0.0,-6.578313253012048,0.09319435928877988,-7.083384426732066,-6.3077866339668915,3.0,0.9983349983349983,1001.6677785190127,1.498164442631548,0.04685041664238651,0.9948138220383423,1211.7216117216117,-1.0,64.20482006400627,0.9988433000519132,
2023-08-17 19:46:12.597000,-7.349397590361447,0.012048192771084338,-6.614457831325302,0.11281422440220723,-7.105456774984671,-6.290619251992642,3.0,0.9983349983349983,1001.6677785190127,1.6534001515063224,0.3070916613250977,1.1056465240953326,1240.2930402930401,-1.0,64.20482006400627,0.9988367345358062,
2023-08-17 19:46:12.605000,-7.373493975903615,0.0,-6.602409638554217,0.134886572654813,-7.164316370324953,-6.283261802575107,3.0,0.9987789987789988,1001.2224938875306,1.6385991492337284,0.3054600547753625,1.0922440417225106,1266.6666666666665,-1.0,64.20482006400627,0.9988302131150998,
2023-08-17 19:46:12.612000,-7.349397590361447,-0.012048192771084338,-6.602409638554217,0.07847946045370938,-7.110361741263028,-6.305334150827712,3.0,0.9987789987789988,1001.2224938875306,1.5489773323232916,0.39438261173591255,0.9571703280694599,1290.8424908424909,-1.0,64.20482006400627,0.9988237374820833,
2023-08-17 19:46:12.620000,-7.337349397590362,0.012048192771084338,-6.578313253012048,0.1079092581238504,-7.083384426732066,-6.317596566523605,3.0,0.9978909978909979,1002.1134593993327,1.4263737544432138,0.04253831361808689,1.359477885904085,1308.4249084249084,-1.0,64.20482006400627,0.9988173094365842,
2023-08-17 19:46:12.628000,-7.337349397590362,0.0,-6.55421686746988,0.07112201103617412,-7.117719190680564,-6.270999386879215,3.0,0.9983349983349983,1001.6677785190127,1.9166715226385405,0.0564069692908342,1.4982809859565298,1324.5421245421244,-1.0,64.20482006400627,0.9988109307241422,
2023-08-17 19:46:12.635000,-7.337349397590362,0.0,-6.590361445783133,0.09074187614960147,-7.115266707541386,-6.329858982219497,3.0,0.9983349983349983,1001.6677785190127,1.6850999359011705,0.09999417283375035,1.3591282559291413,1336.263736263736,-1.0,64.20482006400627,0.9988046029605621,
2023-08-17 19:46:12.643000,-7.36144578313253,-0.012048192771084338,-6.590361445783133,0.11771919068056406,-7.1814837522992025,-6.32495401594114,3.0,0.9987789987789988,1001.2224938875306,1.5321950935260198,-0.43622166540411444,1.3143756191364133,1344.3223443223442,-1.0,64.20482006400627,0.9987983276513469,
2023-08-17 19:46:12.651000,-7.349397590361447,0.0,-6.578313253012048,-0.017167381974248927,-7.10790925812385,-6.302881667688534,3.0,0.9987789987789988,1001.2224938875306,1.8371889750014572,-0.48050812889691735,1.207272303478818,1349.4505494505493,-1.0,64.20482006400627,0.9987921062111867,
2023-08-17 19:46:12.658000,-7.349397590361447,0.0,-6.578313253012048,0.09074187614960147,-7.071122011036174,-6.317596566523605,3.0,0.9987789987789988,1001.2224938875306,1.774372122836665,0.05465881941611818,1.271837305518326,1353.113553113553,-1.0,64.20482006400627,0.9987859400047662,
2023-08-17 19:46:12.666000,-7.36144578313253,0.0,-6.578313253012048,0.06376456161863887,-7.10790925812385,-6.3445738810545675,3.0,0.9987789987789988,1001.2224938875306,2.0153837188975015,0.14451372297651666,1.3350037876580612,1353.8461538461538,-1.0,64.20482006400627,0.9987798303564033,
2023-08-17 19:46:12.674000,-7.36144578313253,-0.012048192771084338,-6.590361445783133,0.07602697731453095,-7.159411404046597,-6.349478847332924,3.0,0.9987789987789988,1001.2224938875306,1.9974360468504146,0.28040323990443405,0.9421362391469023,1351.6483516483515,-1.0,64.20482006400627,0.9987737785496951,
2023-08-17 19:46:12.681000,-7.337349397590362,-0.024096385542168676,-6.578313253012048,0.041692213366033105,-7.10790925812385,-6.300429184549356,3.0,0.9987789987789988,1001.2224938875306,2.193112289493619,0.4602295903502119,1.0831536623739877,1345.7875457875457,-1.0,64.20482006400627,0.9987677858277132,
2023-08-17 19:46:12.689000,-7.337349397590362,0.0,-6.626506024096386,0.1079092581238504,-7.080931943592887,-6.315144083384427,3.0,0.9987789987789988,1001.2224938875306,2.1257502476545636,0.6383077909212754,1.131402598916147,1336.263736263736,-1.0,64.20482006400627,0.9987618535324937,
2023-08-17 19:46:12.697000,-7.349397590361447,-0.024096385542168676,-6.590361445783133,0.07112201103617412,-7.147148988350705,-6.334763948497853,3.0,0.9983349983349983,1001.6677785190127,1.8625954198473282,0.6011304702523157,0.9340947497232089,1324.5421245421244,-1.0,64.20482006400627,0.9987559829471909,
2023-08-17 19:46:12.704000,-7.349397590361447,-0.060240963855421686,-6.590361445783133,0.019619865113427344,-7.156958920907418,-6.283261802575107,3.0,0.9983349983349983,1001.6677785190127,2.1228366645300376,0.3986947147602122,1.3657712254530618,1309.89010989011,-1.0,64.20482006400627,0.9987501750209715,
2023-08-17 19:46:12.712000,-7.36144578313253,-0.04819277108433735,-6.614457831325302,-0.07357449417535254,-7.120171673819742,-6.315144083384427,3.0,0.9987789987789988,1001.2224938875306,2.056523512615815,0.0916030534351145,1.1810500553580787,1294.5054945054944,-1.0,64.20482006400627,0.9987444304985487,
2023-08-17 19:46:12.720000,-7.36144578313253,-0.04819277108433735,-6.578313253012048,0.017167381974248927,-7.164316370324953,-6.283261802575107,3.0,0.9987789987789988,1001.2224938875306,1.946390070508711,0.5627877163335475,1.2127498397529286,1279.8534798534797,-1.0,64.20482006400627,0.9987387502091358,
2023-08-17 19:46:12.727000,-7.373493975903615,-0.04819277108433735,-6.578313253012048,-0.007357449417535254,-7.125076640098099,-6.351931330472103,3.0,0.9983349983349983,1001.6677785190127,1.6226327137113208,0.40545422760911287,1.2153137929025108,1266.6666666666665,-1.0,64.20482006400627,0.9987331352282633,
2023-08-17 19:46:12.735000,-7.36144578313253,-0.04819277108433735,-6.602409638554217,0.05885959534028203,-7.073574494175352,-6.302881667688534,3.0,0.9983349983349983,1001.6677785190127,1.9426606841093172,0.6476312569197596,1.0649729036769418,1257.142857142857,-1.0,64.20482006400627,0.9987275864337388,
2023-08-17 19:46:12.743000,-7.36144578313253,-0.08433734939759037,-6.614457831325302,0.01226241569589209,-7.132434089515634,-6.305334150827712,3.0,0.9987789987789988,1001.2224938875306,1.8631781364722357,0.24567332906007885,0.8703455509585681,1248.3516483516482,-1.0,64.20482006400627,0.9987221043597182,
2023-08-17 19:46:12.750000,-7.337349397590362,-0.04819277108433735,-6.578313253012048,0.004904966278356836,-7.085836909871245,-6.327406499080318,3.0,0.9987789987789988,1001.2224938875306,1.6002563953149602,0.198007109142823,1.0302429928325847,1239.5604395604396,-1.0,64.20482006400627,0.9987166897748527,
2023-08-17 19:46:12.758000,-7.36144578313253,-0.07228915662650603,-6.578313253012048,-0.029429797670141016,-7.191293684855916,-6.332311465358675,3.0,0.9983349983349983,1001.6677785190127,1.9065322533651867,0.27177903385583657,1.0668375968766388,1229.3040293040292,-1.0,64.20482006400627,0.9987113436860271,
2023-08-17 19:46:12.766000,-7.337349397590362,-0.07228915662650603,-6.602409638554217,0.029429797670141016,-7.166768853464132,-6.347026364193746,3.0,0.9983349983349983,1001.6677785190127,1.5081871685799189,0.11817493153079728,1.088398111998136,1220.5128205128203,-1.0,64.20482006400627,0.9987060669063921,
2023-08-17 19:46:12.773000,-7.36144578313253,-0.060240963855421686,-6.602409638554217,0.019619865113427344,-7.1814837522992025,-6.322501532801962,3.0,0.9978909978909979,1002.1134593993327,1.7052619311228934,-0.06386574208962162,1.1667152263854088,1211.7216117216117,-1.0,64.20482006400627,0.9987008600389645,
2023-08-17 19:46:12.781000,-7.373493975903615,-0.08433734939759037,-6.626506024096386,-0.017167381974248927,-7.13979153893317,-6.349478847332924,3.0,0.9983349983349983,1001.6677785190127,1.4121554687955256,-0.29030942252782427,1.030592622807529,1205.8608058608058,-1.0,64.20482006400627,0.9986957236086949,
2023-08-17 19:46:12.789000,-7.373493975903615,-0.07228915662650603,-6.626506024096386,0.007357449417535254,-7.080931943592887,-6.32495401594114,3.0,0.9983349983349983,1001.6677785190127,1.0893304585979837,-0.21339082804032466,0.912534234601713,1200.0,-1.0,64.20482006400627,0.9986906581732137,
2023-08-17 19:46:12.796000,-7.36144578313253,-0.0963855421686747,-6.614457831325302,-0.03188228080931944,-7.103004291845493,-6.351931330472103,3.0,0.9983349983349983,1001.6677785190127,1.2256861488258246,-0.7789755841734157,0.9952799953382674,1192.6739926739926,-1.0,64.20482006400627,0.9986856641985515,
2023-08-17 19:46:12.804000,-7.337349397590362,-0.0963855421686747,-6.63855421686747,0.017167381974248927,-7.105456774984671,-6.317596566523605,3.0,0.9983349983349983,1001.6677785190127,1.269389895693725,-0.13367519375327805,0.8330516869646287,1182.4175824175823,-1.0,64.20482006400627,0.99868074194501,
2023-08-17 19:46:12.811000,-7.373493975903615,-0.10843373493975904,-6.63855421686747,0.019619865113427344,-7.1446965052115265,-6.320049049662783,3.0,0.9987789987789988,1001.2224938875306,1.0401491754559735,-0.31490006409882937,0.7793252141483595,1171.4285714285713,-1.0,64.20482006400627,0.9986758916189766,
2023-08-17 19:46:12.819000,-7.36144578313253,-0.08433734939759037,-6.578313253012048,0.04414469650521152,-7.120171673819742,-6.322501532801962,3.0,0.9983349983349983,1001.6677785190127,0.44379698152788094,-0.17353301089680048,0.662781889167299,1158.2417582417581,-1.0,64.20482006400627,0.9986711135245006,
2023-08-17 19:46:12.827000,-7.349397590361447,-0.10843373493975904,-6.614457831325302,-0.04904966278356836,-7.132434089515634,-6.300429184549356,3.0,0.9987789987789988,1001.2224938875306,0.9520424217702946,-0.26385408775712405,0.4423984616281107,1149.4505494505493,-1.0,64.20482006400627,0.9986664079379083,
2023-08-17 19:46:12.834000,-7.325301204819278,-0.12048192771084337,-6.602409638554217,-0.04904966278356836,-7.110361741263028,-6.3445738810545675,3.0,0.9983349983349983,1001.6677785190127,0.6314317347473939,-0.10873492220733044,0.3144338907989047,1144.3223443223442,-1.0,64.20482006400627,0.9986617750999381,
2023-08-17 19:46:12.842000,-7.349397590361447,-0.10843373493975904,-6.614457831325302,-0.02452483139178418,-7.083384426732066,-6.315144083384427,3.0,0.9983349983349983,1001.6677785190127,0.7577646990268654,-0.3055765981003433,0.24532369908513438,1142.1245421245421,-1.0,64.20482006400627,0.9986572150900187,
2023-08-17 19:46:12.850000,-7.36144578313253,-0.12048192771084337,-6.602409638554217,-0.07112201103617412,-7.103004291845493,-6.329858982219497,3.0,0.9983349983349983,1001.6677785190127,0.3182798205232806,-0.16549152147310714,0.23739875298642274,1141.3919413919414,-1.0,64.20482006400627,0.9986527278278841,
2023-08-17 19:46:12.857000,-7.349397590361447,-0.10843373493975904,-6.578313253012048,0.009809932556713672,-7.129981606376456,-6.305334150827712,3.0,0.9983349983349983,1001.6677785190127,0.3869238389371234,-0.45300390420138614,0.1825068469203427,1142.1245421245421,-1.0,64.20482006400627,0.9986483133412631,
2023-08-17 19:46:12.865000,-7.373493975903615,-0.10843373493975904,-6.566265060240964,0.0269773145309626,-7.1446965052115265,-6.297976701410177,3.0,0.9987789987789988,1001.2224938875306,0.6371423576714635,-0.19194685624380908,0.11596060835615662,1142.857142857143,-1.0,64.20482006400627,0.9986439716178245,
2023-08-17 19:46:12.873000,-7.373493975903615,-0.0963855421686747,-6.590361445783133,0.002452483139178418,-7.152053954629062,-6.268546903740036,3.0,0.9987789987789988,1001.2224938875306,-0.0033797564244512,-0.6323640813472405,0.16910436454751981,1142.857142857143,-1.0,64.20482006400627,0.9986397026166715,
2023-08-17 19:46:12.880000,-7.36144578313253,-0.10843373493975904,-6.578313253012048,0.014714898835070508,-7.1814837522992025,-6.270999386879215,3.0,0.9983349983349983,1001.6677785190127,-0.011188159198181129,-0.6287512382728278,0.16141250509877114,1144.3223443223442,-1.0,64.20482006400627,0.9986355064500108,
2023-08-17 19:46:12.888000,-7.373493975903615,-0.10843373493975904,-6.55421686746988,0.017167381974248927,-7.10790925812385,-6.349478847332924,3.0,0.9983349983349983,1001.6677785190127,0.040323990443445784,-0.15395373229998177,0.06351611211467824,1149.4505494505493,-1.0,64.20482006400627,0.9986313832247924,
2023-08-17 19:46:12.896000,-7.373493975903615,-0.08433734939759037,-6.578313253012048,-0.10300429184549356,-7.13979153893317,-6.273451870018393,3.0,0.9983349983349983,1001.6677785190127,0.21758638773964345,-0.2013868655672742,0.05885437911543632,1156.0439560439559,-1.0,64.20482006400627,0.9986273328737142,
2023-08-17 19:46:12.903000,-7.36144578313253,-0.08433734939759037,-6.578313253012048,0.06866952789699571,-7.161863887185775,-6.322501532801962,3.0,0.9983349983349983,1001.6677785190127,0.05559116601596487,-0.1381038401025585,0.23600023308664966,1161.904761904762,-1.0,64.20482006400627,0.9986233552943663,
2023-08-17 19:46:12.911000,-7.373493975903615,-0.0963855421686747,-6.566265060240964,-0.009809932556713672,-7.156958920907418,-6.312691600245248,3.0,0.9983349983349983,1001.6677785190127,0.21595478118990827,-0.09067070683526607,-0.2748091603053435,1167.032967032967,-1.0,64.20482006400627,0.9986194503493527,
2023-08-17 19:46:12.919000,-7.36144578313253,-0.10843373493975904,-6.566265060240964,0.014714898835070508,-7.122624156958921,-6.334763948497853,3.0,0.9983349983349983,1001.6677785190127,-0.12971272070392265,-0.1636268282734103,-0.1555853388497176,1172.161172161172,-1.0,64.20482006400627,0.9986156178661335,
2023-08-17 19:46:12.926000,-7.373493975903615,-0.10843373493975904,-6.578313253012048,-0.02207234825260576,-7.098099325567136,-6.342121397915389,3.0,0.9974469974469975,1002.5595370576452,-0.061185245615058906,-0.0397412738185416,-0.005011362974186165,1178.7545787545787,-1.0,64.20482006400627,0.9986118576366183,
2023-08-17 19:46:12.934000,-7.36144578313253,-0.0963855421686747,-6.578313253012048,-0.002452483139178418,-7.112814224402207,-6.273451870018393,3.0,0.9983349983349983,1001.6677785190127,-0.14253248645184072,-0.17656313734630918,0.09801293630907265,1186.8131868131868,-1.0,64.20482006400627,0.9986081693954136,
2023-08-17 19:46:12.942000,-7.36144578313253,-0.0963855421686747,-6.602409638554217,0.041692213366033105,-7.10790925812385,-6.27835683629675,3.0,0.9983349983349983,1001.6677785190127,-0.07167414486335154,-0.0692267350387505,-0.28564768952858166,1194.1391941391942,-1.0,64.20482006400627,0.9986045527555075,
2023-08-17 19:46:12.949000,-7.36144578313253,-0.07228915662650603,-6.566265060240964,-0.017167381974248927,-7.1446965052115265,-6.327406499080318,3.0,0.9983349983349983,1001.6677785190127,-0.3810966726880712,0.053143756191363835,-0.21210885146553243,1201.4652014652013,-1.0,64.20482006400627,0.9986010072698157,
2023-08-17 19:46:12.957000,-7.36144578313253,-0.08433734939759037,-6.590361445783133,-0.03923973022685469,-7.125076640098099,-6.297976701410177,3.0,0.9987789987789988,1001.2224938875306,-0.2904259658528051,0.037760037293863916,-0.4749140492978263,1207.3260073260074,-1.0,64.20482006400627,0.9985975324501957,
2023-08-17 19:46:12.965000,-7.373493975903615,-0.08433734939759037,-6.566265060240964,0.01226241569589209,-7.134886572654812,-6.361741263028816,3.0,0.9987789987789988,1001.2224938875306,-0.6277023483480002,0.03834275391876983,-0.30627585805023094,1211.7216117216117,-1.0,64.20482006400627,0.998594127914519,
2023-08-17 19:46:12.972000,-7.373493975903615,-0.07228915662650603,-6.602409638554217,0.009809932556713672,-7.132434089515634,-6.270999386879215,3.0,0.9987789987789988,1001.2224938875306,-0.8690635743837777,0.1906648796690164,-0.12446827107977439,1212.4542124542124,-1.0,64.20482006400627,0.9985907932674475,
2023-08-17 19:46:12.980000,-7.373493975903615,-0.07228915662650603,-6.614457831325302,0.041692213366033105,-7.156958920907418,-6.320049049662783,3.0,0.9983349983349983,1001.6677785190127,-0.8351494668142883,0.09871219625895941,-0.37037468678981444,1214.6520146520145,-1.0,64.20482006400627,0.9985875281200579,
2023-08-17 19:46:12.988000,-7.385542168674699,-0.04819277108433735,-6.602409638554217,-0.02452483139178418,-7.193746167995094,-6.351931330472103,3.0,0.9987789987789988,1001.2224938875306,-0.9870054192646115,-0.2807528698793783,-0.06747858516403492,1215.3846153846152,-1.0,64.20482006400627,0.998584332067537,
2023-08-17 19:46:12.995000,-7.385542168674699,-0.08433734939759037,-6.626506024096386,0.03188228080931944,-7.1741263028816675,-6.320049049662783,3.0,0.9987789987789988,1001.2224938875306,-0.8188334013169399,-0.16945399452246426,-0.3472991084435644,1215.3846153846152,-1.0,64.20482006400627,0.9985812045282795,
2023-08-17 19:46:13.003000,-7.349397590361447,-0.08433734939759037,-6.590361445783133,0.041692213366033105,-7.1446965052115265,-6.334763948497853,3.0,0.9987789987789988,1001.2224938875306,-1.016723967134782,-0.21374045801526717,-0.6405221140959145,1215.3846153846152,-1.0,64.20482006400627,0.9985781450618567,
2023-08-17 19:46:13.011000,-7.349397590361447,-0.08433734939759037,-6.614457831325302,0.0269773145309626,-7.129981606376456,-6.300429184549356,3.0,0.9987789987789988,1001.2224938875306,-0.8316531670648545,-0.08810675368568247,-0.5320202785385462,1214.6520146520145,-1.0,64.20482006400627,0.9985751533578024,
2023-08-17 19:46:13.018000,-7.373493975903615,-0.060240963855421686,-6.590361445783133,0.04904966278356836,-7.13979153893317,-6.302881667688534,3.0,0.9983349983349983,1001.6677785190127,-1.274867431967833,-0.10220849600839145,-0.5006701241186404,1215.3846153846152,-1.0,64.20482006400627,0.9985722290866558,
2023-08-17 19:46:13.026000,-7.36144578313253,-0.08433734939759037,-6.590361445783133,0.0539546290619252,-7.06131207847946,-6.305334150827712,3.0,0.9983349983349983,1001.6677785190127,-1.3770759279762261,0.23157158673736986,-0.529572868713944,1218.3150183150183,-1.0,64.20482006400627,0.9985693717512513,
2023-08-17 19:46:13.034000,-7.385542168674699,-0.0963855421686747,-6.578313253012048,0.02207234825260576,-7.179031269160024,-6.302881667688534,3.0,0.9983349983349983,1001.6677785190127,-1.0385175689062403,0.21397354466522883,-0.5426257211118236,1220.5128205128203,-1.0,64.20482006400627,0.9985665806656904,
2023-08-17 19:46:13.041000,-7.373493975903615,-0.07228915662650603,-6.578313253012048,0.08828939301042305,-7.068669527896995,-6.273451870018393,3.0,0.9983349983349983,1001.6677785190127,-1.175689062408952,0.029835091195151413,-0.7405162869296664,1223.4432234432234,-1.0,64.20482006400627,0.9985638550935109,
2023-08-17 19:46:13.049000,-7.373493975903615,-0.060240963855421686,-6.578313253012048,0.03923973022685469,-7.20110361741263,-6.27835683629675,3.0,0.9983349983349983,1001.6677785190127,-1.296777577064272,-0.17108560107219944,-0.6163976458248349,1224.1758241758241,-1.0,64.20482006400627,0.9985611942472087,
2023-08-17 19:46:13.057000,-7.373493975903615,-0.060240963855421686,-6.614457831325302,0.0,-7.122624156958921,-6.32495401594114,3.0,0.9987789987789988,1001.2224938875306,-0.9282675834741554,-0.22073305751413125,-0.8745411106578868,1225.6410256410256,-1.0,64.20482006400627,0.9985585972878624,
2023-08-17 19:46:13.064000,-7.36144578313253,-0.04819277108433735,-6.590361445783133,0.07357449417535254,-7.125076640098099,-6.312691600245248,3.0,0.9983349983349983,1001.6677785190127,-1.15797447701183,-0.34636676184371595,-0.6879552473632078,1226.3736263736264,-1.0,64.20482006400627,0.9985560634741782,
2023-08-17 19:46:13.072000,-7.373493975903615,-0.04819277108433735,-6.578313253012048,0.029429797670141016,-7.085836909871245,-6.300429184549356,3.0,0.9983349983349983,1001.6677785190127,-1.1872268515820756,-0.21001107161587346,-0.6871394440883394,1224.9084249084249,-1.0,64.20482006400627,0.9985535920349544,
2023-08-17 19:46:13.080000,-7.349397590361447,-0.04819277108433735,-6.590361445783133,0.0539546290619252,-7.110361741263028,-6.221949724095647,3.0,0.9978909978909979,1002.1134593993327,-0.9405046325971692,-0.1358895169279174,-0.8722102441582656,1221.245421245421,-1.0,64.20482006400627,0.9985511820101828,
2023-08-17 19:46:13.087000,-7.36144578313253,-0.04819277108433735,-6.578313253012048,0.08583690987124463,-7.147148988350705,-6.256284488044145,3.0,0.9978909978909979,1002.1134593993327,-1.3055183264378538,0.001631606549735182,-0.9490122953207851,1214.6520146520145,-1.0,64.20482006400627,0.9985488325183786,
2023-08-17 19:46:13.095000,-7.349397590361447,-0.03614457831325302,-6.55421686746988,0.06866952789699571,-7.164316370324953,-6.253832004904966,3.0,0.9983349983349983,1001.6677785190127,-1.3034205465881934,0.18250684692034225,-0.8713944408833982,1207.3260073260074,-1.0,64.20482006400627,0.9985465425557379,
2023-08-17 19:46:13.103000,-7.349397590361447,-0.03614457831325302,-6.530120481927711,0.12017167381974249,-7.117719190680564,-6.268546903740036,3.0,0.9983349983349983,1001.6677785190127,-0.7370199871802348,0.47060194627352714,-0.9013460754035307,1198.5347985347985,-1.0,64.20482006400627,0.9985443108688533,
2023-08-17 19:46:13.110000,-7.373493975903615,-0.03614457831325302,-6.578313253012048,0.05150214592274678,-7.071122011036174,-6.285714285714286,3.0,0.9983349983349983,1001.6677785190127,-0.6945982168871287,0.16094633179884585,-0.6419206339956878,1186.080586080586,-1.0,64.20482006400627,0.9985421361461805,
2023-08-17 19:46:13.118000,-7.36144578313253,-0.024096385542168676,-6.566265060240964,0.08828939301042305,-7.176578786020846,-6.256284488044145,3.0,0.9987789987789988,1001.2224938875306,-0.7880659635219401,-0.25115086533418857,-0.7350387506555556,1176.5567765567764,-1.0,64.20482006400627,0.9985400170287022,
2023-08-17 19:46:13.126000,-7.373493975903615,-0.03614457831325302,-6.55421686746988,0.05885959534028203,-7.142244022072348,-6.226854690374004,3.0,0.9987789987789988,1001.2224938875306,-0.9582192179942893,-0.23227084668725662,-0.6124351727754795,1172.161172161172,-1.0,64.20482006400627,0.9985379522595449,
2023-08-17 19:46:13.133000,-7.397590361445784,-0.024096385542168676,-6.578313253012048,0.041692213366033105,-7.186388718577559,-6.261189454322501,3.0,0.9983349983349983,1001.6677785190127,-0.5624380863586033,-0.12353592447992617,-0.7497232096031698,1172.161172161172,-1.0,64.20482006400627,0.9985359407064096,
2023-08-17 19:46:13.141000,-7.397590361445784,-0.03614457831325302,-6.566265060240964,0.0809319435928878,-7.13979153893317,-6.3372164316370325,3.0,0.9987789987789988,1001.2224938875306,-0.29275683235242705,0.09428354990967895,-0.7806071907231515,1180.2197802197802,942.169189453125,63.68282965698183,0.9985339810759969,
2023-08-17 19:46:13.149000,-7.421686746987953,0.0,-6.566265060240964,0.07847946045370938,-7.15450643776824,-6.268546903740036,3.0,0.9983349983349983,1001.6677785190127,-0.5415768311869936,0.08146378416176263,-0.5827166249053085,1195.6043956043954,-1.0,63.68282965698183,0.9985320720443321,
2023-08-17 19:46:13.156000,-7.409638554216868,0.0,-6.530120481927711,0.056407112201103615,-7.169221336603311,-6.244022072348252,3.0,0.9983349983349983,1001.6677785190127,-0.5429753510867672,0.08227958743663023,-0.5843482314550433,1221.9780219780218,-1.0,63.68282965698183,0.9985302122697377,
2023-08-17 19:46:13.164000,-7.385542168674699,-0.012048192771084338,-6.566265060240964,0.0809319435928878,-7.1741263028816675,-6.239117106069895,3.0,0.9983349983349983,1001.6677785190127,-0.5460054775362742,0.17271720762193288,-1.0599615407027565,1259.3406593406592,-1.0,63.68282965698183,0.9985284003745349,
2023-08-17 19:46:13.172000,-7.36144578313253,0.0,-6.55421686746988,0.14469650521152666,-7.1446965052115265,-6.290619251992642,3.0,0.9983349983349983,1001.6677785190127,-0.7606782821513898,0.4441466115028269,-1.0263970631082102,1308.4249084249084,-1.0,63.68282965698183,0.9985266349269709,
2023-08-17 19:46:13.179000,-7.373493975903615,-0.012048192771084338,-6.55421686746988,0.07112201103617412,-7.1446965052115265,-6.302881667688534,3.0,0.9983349983349983,1001.6677785190127,-0.6083561564011432,0.5746751354816154,-1.0521531379290248,1368.4981684981683,-1.0,63.68282965698183,0.9985249143161478,
2023-08-17 19:46:13.187000,-7.36144578313253,-0.024096385542168676,-6.566265060240964,0.10055180870631514,-7.103004291845493,-6.27835683629675,3.0,0.9983349983349983,1001.6677785190127,-0.6716391818658571,0.43086067245498555,-0.4831886253714818,1441.0256410256409,-1.0,63.68282965698183,0.9985232369038813,
2023-08-17 19:46:13.194000,-7.36144578313253,-0.03614457831325302,-6.55421686746988,0.02452483139178418,-7.080931943592887,-6.285714285714286,3.0,0.9983349983349983,1001.6677785190127,-0.5645358662082636,0.7154594720587384,-0.498805430918944,1526.7399267399267,-1.0,63.68282965698183,0.9985216011662328,
2023-08-17 19:46:13.202000,-7.36144578313253,-0.060240963855421686,-6.578313253012048,-0.007357449417535254,-7.132434089515634,-6.320049049662783,3.0,0.9983349983349983,1001.6677785190127,-0.6559058329934147,0.5869121846046276,-0.132393217178486,1621.9780219780218,-1.0,63.68282965698183,0.9985200056761226,
2023-08-17 19:46:13.210000,-7.337349397590362,-0.07228915662650603,-6.590361445783133,0.07602697731453095,-7.137339055793991,-6.297976701410177,3.0,0.9983349983349983,1001.6677785190127,-0.5481032573859344,0.6888875939630557,-0.1362391469028612,1723.0769230769229,-1.0,63.68282965698183,0.9985184488197769,
2023-08-17 19:46:13.217000,-7.36144578313253,-0.060240963855421686,-6.590361445783133,0.0,-7.110361741263028,-6.295524218270999,3.0,0.9983349983349983,1001.6677785190127,-0.973136763591866,0.5003204941436977,-0.07610279121263287,1823.4432234432234,-1.0,63.68282965698183,0.9985169289603426,
2023-08-17 19:46:13.225000,-7.36144578313253,-0.08433734939759037,-6.578313253012048,-0.019619865113427344,-7.132434089515634,-6.322501532801962,3.0,0.9983349983349983,1001.6677785190127,-0.2821513897791501,0.5110424800419555,-0.12644950760445164,1915.018315018315,-1.0,63.68282965698183,0.998515444569963,
2023-08-17 19:46:13.233000,-7.36144578313253,-0.07228915662650603,-6.614457831325302,0.004904966278356836,-7.07602697731453,-6.351931330472103,3.0,0.9978909978909979,1002.1134593993327,-0.6490297768195331,0.981411339665521,-0.15908163859914942,1994.8717948717947,-1.0,63.68282965698183,0.9985139939463651,
2023-08-17 19:46:13.240000,-7.373493975903615,-0.03614457831325302,-6.578313253012048,-0.03923973022685469,-7.090741876149601,-6.322501532801962,3.0,0.9983349983349983,1001.6677785190127,-0.3713070333896618,0.422935726356273,-0.16397645824835344,2062.271062271062,-1.0,63.68282965698183,0.9985125753660294,
2023-08-17 19:46:13.248000,-7.337349397590362,-0.060240963855421686,-6.602409638554217,0.014714898835070508,-7.024524831391783,-6.332311465358675,3.0,0.9987789987789988,1001.2224938875306,-0.35440825126740927,0.25173358195909273,-0.39368335178602665,2112.8205128205127,-1.0,63.68282965698183,0.9985111871846221,
2023-08-17 19:46:13.256000,-7.337349397590362,-0.03614457831325302,-6.578313253012048,0.09809932556713671,-7.132434089515634,-6.275904353157571,3.0,0.9987789987789988,1001.2224938875306,-0.3692092535400033,0.24765456558475654,-0.7307266476312566,2143.5897435897436,-1.0,63.68282965698183,0.998509827734231,
2023-08-17 19:46:13.263000,-7.337349397590362,0.0,-6.578313253012048,0.10300429184549356,-7.169221336603311,-6.270999386879215,3.0,0.9987789987789988,1001.2224938875306,-0.6922673503875051,0.1086183788823496,-0.5897092244041724,2155.3113553113553,-1.0,63.68282965698183,0.9985084955191175,
2023-08-17 19:46:13.271000,-7.349397590361447,0.0,-6.590361445783133,0.11771919068056406,-7.110361741263028,-6.258736971183323,3.0,0.9987789987789988,1001.2224938875306,-0.30860672454985205,0.35242701474272986,-0.25126740865916875,2148.7179487179487,-1.0,63.68282965698183,0.9985071890716328,
2023-08-17 19:46:13.279000,-7.325301204819278,0.0,-6.566265060240964,0.08338442673206621,-7.098099325567136,-6.317596566523605,3.0,0.9987789987789988,1001.2224938875306,-0.43284190897966324,0.3337800827457613,-0.37457024648913195,2123.809523809524,-1.0,63.68282965698183,0.9985059068294093,
2023-08-17 19:46:13.286000,-7.325301204819278,0.0,-6.578313253012048,0.0539546290619252,-7.090741876149601,-6.290619251992642,3.0,0.9987789987789988,1001.2224938875306,-0.4629100868247763,0.32958452304644253,-0.4344735155293978,2082.0512820512818,-1.0,63.68282965698183,0.9985046474282792,
2023-08-17 19:46:13.294000,-7.349397590361447,0.012048192771084338,-6.602409638554217,0.1226241569589209,-7.152053954629062,-6.290619251992642,3.0,0.9987789987789988,1001.2224938875306,-0.4780607190723163,0.5256103956645878,-0.7050871161354229,2026.3736263736262,-1.0,63.68282965698183,0.9985034095482888,
2023-08-17 19:46:13.302000,-7.337349397590362,-0.024096385542168676,-6.602409638554217,0.09074187614960147,-7.15450643776824,-6.275904353157571,3.0,0.9987789987789988,1001.2224938875306,-0.6159314725249097,0.6105704795757825,-0.7027562496358025,1962.6373626373625,-1.0,63.68282965698183,0.9985021919302133,
2023-08-17 19:46:13.309000,-7.373493975903615,-0.024096385542168676,-6.614457831325302,0.05885959534028203,-7.156958920907418,-6.297976701410177,3.0,0.9987789987789988,1001.2224938875306,-0.46442515004953067,0.7575316123769019,-0.7152263854087754,1893.040293040293,-1.0,63.68282965698183,0.9985009935098703,
2023-08-17 19:46:13.317000,-7.373493975903615,-0.024096385542168676,-6.63855421686747,0.09809932556713671,-7.1446965052115265,-6.364193746167995,3.0,0.9983349983349983,1001.6677785190127,-0.3911193986364439,0.9029776819532653,-0.7427306101043062,1820.5128205128203,-1.0,63.68282965698183,0.9984998132757116,
2023-08-17 19:46:13.325000,-7.36144578313253,-0.012048192771084338,-6.626506024096386,0.134886572654813,-7.09319435928878,-6.329858982219497,3.0,0.9987789987789988,1001.2224938875306,-0.319212167123129,0.6679097954664651,-0.49600839111939893,1747.2527472527472,-1.0,63.68282965698183,0.9984986501263797,
2023-08-17 19:46:13.332000,-7.349397590361447,-0.012048192771084338,-6.566265060240964,0.08828939301042305,-7.125076640098099,-6.342121397915389,3.0,0.9983349983349983,1001.6677785190127,-0.44542858807761787,0.4506730377017659,-0.7542683992774312,1674.7252747252746,-1.0,63.68282965698183,0.9984975030049135,
2023-08-17 19:46:13.340000,-7.337349397590362,-0.03614457831325302,-6.590361445783133,0.08338442673206621,-7.125076640098099,-6.347026364193746,3.0,0.9987789987789988,1001.2224938875306,-0.5859798380047774,0.3572052910669546,-0.9800128197657481,1601.4652014652013,-1.0,63.68282965698183,0.9984963709150664,
2023-08-17 19:46:13.348000,-7.36144578313253,-0.024096385542168676,-6.602409638554217,0.04904966278356836,-7.100551808706315,-6.322501532801962,3.0,0.9983349983349983,1001.6677785190127,-0.5268923722393805,0.1131635685566109,-0.8077617854437392,1531.135531135531,-1.0,63.68282965698183,0.9984952529163496,
2023-08-17 19:46:13.355000,-7.36144578313253,-0.024096385542168676,-6.590361445783133,0.056407112201103615,-7.100551808706315,-6.322501532801962,3.0,0.9983349983349983,1001.6677785190127,-0.5453062175863891,0.09696404638424339,-0.971971330342055,1465.9340659340658,-1.0,63.68282965698183,0.9984941481398821,
2023-08-17 19:46:13.363000,-7.337349397590362,-0.03614457831325302,-6.590361445783133,0.09319435928877988,-7.031882280809319,-6.305334150827712,3.0,0.9983349983349983,1001.6677785190127,-0.7914457199463896,-0.010372355923315273,-0.7076510692850068,1408.7912087912086,-1.0,63.68282965698183,0.9984930556336042,
2023-08-17 19:46:13.371000,-7.337349397590362,-0.024096385542168676,-6.578313253012048,0.03188228080931944,-7.149601471489883,-6.285714285714286,3.0,0.9983349983349983,1001.6677785190127,-0.3675776469902681,0.2320377600372932,-0.6724549851407264,1358.974358974359,-1.0,63.68282965698183,0.9984919745049746,
2023-08-17 19:46:13.378000,-7.349397590361447,-0.03614457831325302,-6.63855421686747,0.041692213366033105,-7.112814224402207,-6.280809319435929,3.0,0.9983349983349983,1001.6677785190127,-0.4025406444845867,0.3835440825126739,-0.5305052153137934,1319.4139194139193,-1.0,63.68282965698183,0.9984909039244926,
2023-08-17 19:46:13.386000,-7.337349397590362,-0.04819277108433735,-6.63855421686747,0.03188228080931944,-7.098099325567136,-6.329858982219497,3.0,0.9978909978909979,1002.1134593993327,-0.5581259833343036,0.25849309480799515,-0.5274750888642848,1285.7142857142856,-1.0,63.68282965698183,0.9984898431287806,
2023-08-17 19:46:13.394000,-7.337349397590362,-0.060240963855421686,-6.614457831325302,0.0269773145309626,-7.103004291845493,-6.3077866339668915,3.0,0.9983349983349983,1001.6677785190127,-0.3920517452362924,0.16385991492337196,-0.6609171959676015,1258.6080586080586,-1.0,63.68282965698183,0.9984887915514195,
2023-08-17 19:46:13.401000,-7.349397590361447,-0.04819277108433735,-6.626506024096386,0.1079092581238504,-7.183936235438381,-6.312691600245248,3.0,0.9978909978909979,1002.1134593993327,-0.28716275275333647,0.06957636501369302,-0.15570188217469844,1232.967032967033,-1.0,63.68282965698183,0.998487748773013,
2023-08-17 19:46:13.409000,-7.36144578313253,-0.04819277108433735,-6.602409638554217,0.09074187614960147,-7.080931943592887,-6.339668914776211,3.0,0.9983349983349983,1001.6677785190127,-0.3223588368976168,-0.37620185303886733,-0.721403181632772,1210.2564102564102,-1.0,63.68282965698183,0.9984867141181528,
2023-08-17 19:46:13.417000,-7.36144578313253,-0.04819277108433735,-6.602409638554217,0.06621704475781728,-7.10790925812385,-6.351931330472103,3.0,0.9983349983349983,1001.6677785190127,-0.4637258900996439,-0.37736728628867744,-0.7337567740807653,1190.4761904761904,-1.0,63.68282965698183,0.9984856868156704,
2023-08-17 19:46:13.424000,-7.337349397590362,-0.012048192771084338,-6.590361445783133,0.09074187614960147,-7.110361741263028,-6.3372164316370325,3.0,0.9983349983349983,1001.6677785190127,-0.35906998426665143,-0.13344210710331636,-0.7005419264611612,1174.3589743589744,-1.0,63.68282965698183,0.9984846663067907,
2023-08-17 19:46:13.432000,-7.313253012048193,-0.024096385542168676,-6.590361445783133,0.02452483139178418,-7.142244022072348,-6.273451870018393,3.0,0.9983349983349983,1001.6677785190127,-0.3612843074412908,-0.1339082804032397,-0.6993764932113511,1161.904761904762,-1.0,63.68282965698183,0.9984836521056455,
2023-08-17 19:46:13.440000,-7.289156626506024,-0.024096385542168676,-6.602409638554217,0.0269773145309626,-7.110361741263028,-6.32495401594114,3.0,0.9983349983349983,1001.6677785190127,-0.44111648505331824,0.12365246780490702,-0.5750247654565581,1151.6483516483515,-1.0,63.68282965698183,0.9984826436593186,
2023-08-17 19:46:13.447000,-7.313253012048193,-0.03614457831325302,-6.578313253012048,0.06131207847946045,-7.068669527896995,-6.312691600245248,3.0,0.9983349983349983,1001.6677785190127,-0.39729619486043866,0.18413845347007743,-0.8001864693199705,1146.5201465201465,-1.0,63.68282965698183,0.9984816405053283,
2023-08-17 19:46:13.455000,-7.313253012048193,0.0,-6.590361445783133,0.0956468424279583,-7.029429797670141,-6.320049049662783,3.0,0.9983349983349983,1001.6677785190127,-0.550317580560572,0.3195617970980715,-0.903094225278247,1146.5201465201465,-1.0,63.68282965698183,0.9984806423971588,
2023-08-17 19:46:13.463000,-7.301204819277109,-0.024096385542168676,-6.614457831325302,0.14469650521152666,-7.078479460453709,-6.332311465358675,3.0,0.9983349983349983,1001.6677785190127,-0.8846803799312393,0.5929724375036415,-0.608123069751179,1154.5787545787546,-1.0,63.68282965698183,0.9984796491526763,
2023-08-17 19:46:13.470000,-7.349397590361447,-0.04819277108433735,-6.626506024096386,0.04659717964438994,-7.051502145922746,-6.315144083384427,3.0,0.9983349983349983,1001.6677785190127,-0.8005360992949122,0.5421595478118996,-0.9682419439426599,1167.032967032967,-1.0,63.68282965698183,0.9984786606514415,
2023-08-17 19:46:13.478000,-7.337349397590362,-0.04819277108433735,-6.650602409638554,0.05150214592274678,-7.15450643776824,-6.3445738810545675,3.0,0.9983349983349983,1001.6677785190127,-0.8863119864809744,0.276906940155002,-0.7775770642736444,1180.952380952381,-1.0,63.68282965698183,0.998477676831667,
2023-08-17 19:46:13.486000,-7.349397590361447,-0.060240963855421686,-6.63855421686747,0.02452483139178418,-7.1446965052115265,-6.364193746167995,3.0,0.9983349983349983,1001.6677785190127,-0.9237223937998941,-0.03135015441990576,-1.0765106928500667,1198.5347985347985,-1.0,63.68282965698183,0.9984766976868209,
2023-08-17 19:46:13.493000,-7.36144578313253,-0.024096385542168676,-6.614457831325302,0.04414469650521152,-7.125076640098099,-6.275904353157571,3.0,0.9983349983349983,1001.6677785190127,-0.5449565876114432,0.16549152147310714,-0.6702406619660862,1219.7802197802198,-1.0,63.68282965698183,0.9984757232619172,
2023-08-17 19:46:13.501000,-7.373493975903615,-0.04819277108433735,-6.614457831325302,0.07112201103617412,-7.156958920907418,-6.347026364193746,3.0,0.9983349983349983,1001.6677785190127,-0.8886428529805946,0.26839927743138536,-1.0754618029252379,1241.0256410256409,-1.0,63.68282965698183,0.9984747536495188,
2023-08-17 19:46:13.509000,-7.36144578313253,-0.03614457831325302,-6.63855421686747,0.034334763948497854,-7.129981606376456,-6.295524218270999,3.0,0.9983349983349983,1001.6677785190127,-1.05937882407785,-0.01165433249810621,-0.7757123710739463,1263.7362637362637,-1.0,63.68282965698183,0.9984737889854751,
2023-08-17 19:46:13.516000,-7.349397590361447,-0.03614457831325302,-6.590361445783133,0.02207234825260576,-7.080931943592887,-6.300429184549356,3.0,0.9983349983349983,1001.6677785190127,-0.7244333080822785,-0.36396480391585523,-1.0726647631256914,1287.9120879120878,-1.0,63.68282965698183,0.9984728294444345,
2023-08-17 19:46:13.524000,-7.325301204819278,-0.024096385542168676,-6.602409638554217,0.07357449417535254,-7.083384426732066,-6.334763948497853,3.0,0.9983349983349983,1001.6677785190127,-0.8520482489365425,-0.7581143290018061,-0.9702231804673391,1309.89010989011,-1.0,63.68282965698183,0.9984718752351563,
2023-08-17 19:46:13.532000,-7.325301204819278,-0.04819277108433735,-6.614457831325302,0.009809932556713672,-7.083384426732066,-6.312691600245248,3.0,0.9983349983349983,1001.6677785190127,-0.902394965328361,-0.21793601771458596,-1.1598391702115254,1331.8681318681317,-1.0,63.68282965698183,0.9984709265956596,
2023-08-17 19:46:13.539000,-7.325301204819278,-0.024096385542168676,-6.590361445783133,0.06131207847946045,-7.066217044757817,-6.329858982219497,3.0,0.9974469974469975,1002.5595370576452,-0.8616048015849885,-0.48854961832061067,-0.8706951809335126,1348.7179487179487,-1.0,63.68282965698183,0.9984699837882394,
2023-08-17 19:46:13.547000,-7.325301204819278,-0.060240963855421686,-6.590361445783133,0.06621704475781728,-7.103004291845493,-6.24647455548743,3.0,0.9978909978909979,1002.1134593993327,-1.1556436105122065,-0.6674436221665401,-1.100984791096091,1363.3699633699632,-1.0,63.68282965698183,0.9984690470733025,
2023-08-17 19:46:13.554000,-7.313253012048193,-0.03614457831325302,-6.590361445783133,0.03188228080931944,-7.098099325567136,-6.273451870018393,3.0,0.9978909978909979,1002.1134593993327,-0.7447118466289839,-0.23495134316182106,-0.950760445195502,1375.8241758241757,-1.0,63.68282965698183,0.9984681166302543,
2023-08-17 19:46:13.562000,-7.337349397590362,-0.03614457831325302,-6.566265060240964,0.03678724708767627,-7.171673819742489,-6.297976701410177,3.0,0.9983349983349983,1001.6677785190127,-0.8421420663131524,-0.18600314666977427,-1.0582133908280398,1385.3479853479853,-1.0,63.68282965698183,0.9984671924339829,
2023-08-17 19:46:13.570000,-7.337349397590362,-0.04819277108433735,-6.578313253012048,0.009809932556713672,-7.085836909871245,-6.288166768853464,3.0,0.9983349983349983,1001.6677785190127,-0.7858516403472973,0.22784220033797614,-1.1549443505623214,1389.7435897435896,-1.0,63.68282965698183,0.9984662744287633,
2023-08-17 19:46:13.577000,-7.337349397590362,-0.060240963855421686,-6.578313253012048,-0.02452483139178418,-7.09319435928878,-6.273451870018393,3.0,0.9983349983349983,1001.6677785190127,-0.7738476778742486,-0.0025639531495836093,-1.1564594137870752,1388.278388278388,-1.0,63.68282965698183,0.9984653626915001,
2023-08-17 19:46:13.585000,-7.36144578313253,-0.04819277108433735,-6.602409638554217,0.0269773145309626,-7.129981606376456,-6.27835683629675,3.0,0.9983349983349983,1001.6677785190127,-0.7792086708233792,0.47036885962356545,-1.0661383369267514,1384.6153846153845,-1.0,63.68282965698183,0.9984644572866652,
2023-08-17 19:46:13.593000,-7.373493975903615,-0.08433734939759037,-6.590361445783133,0.09809932556713671,-7.161863887185775,-6.270999386879215,3.0,0.9983349983349983,1001.6677785190127,-0.659052502767906,0.5577763533593612,-0.991550608938873,1375.8241758241757,-1.0,63.68282965698183,0.9984635582601554,
2023-08-17 19:46:13.600000,-7.385542168674699,-0.060240963855421686,-6.614457831325302,0.06131207847946045,-7.149601471489883,-6.280809319435929,3.0,0.9983349983349983,1001.6677785190127,-0.38704038226210596,0.6596352193928101,-0.8558941786609184,1362.6373626373625,-1.0,63.68282965698183,0.9984626656333723,
2023-08-17 19:46:13.608000,-7.373493975903615,-0.060240963855421686,-6.590361445783133,0.08338442673206621,-7.156958920907418,-6.3077866339668915,3.0,0.9983349983349983,1001.6677785190127,-0.6500786667443607,0.6099877629508765,-0.8881766796806702,1346.5201465201465,-1.0,63.68282965698183,0.998461779397563,
2023-08-17 19:46:13.616000,-7.373493975903615,-0.04819277108433735,-6.602409638554217,0.02207234825260576,-7.129981606376456,-6.31023911710607,3.0,0.9983349983349983,1001.6677785190127,-0.45300390420138614,0.14847619602587203,-0.7369034438552524,1329.6703296703297,-1.0,63.68282965698183,0.9984608995084732,
2023-08-17 19:46:13.623000,-7.349397590361447,-0.04819277108433735,-6.566265060240964,-0.019619865113427344,-7.122624156958921,-6.26364193746168,3.0,0.9983349983349983,1001.6677785190127,-0.013635569022783902,0.3934502651360641,-0.31280228424916995,1312.087912087912,-1.0,63.68282965698183,0.9984600258813505,
2023-08-17 19:46:13.631000,-7.36144578313253,-0.060240963855421686,-6.590361445783133,0.041692213366033105,-7.147148988350705,-6.32495401594114,3.0,0.9983349983349983,1001.6677785190127,-0.5554454868597393,0.4506730377017659,-0.6520599032690402,1294.5054945054944,-1.0,63.68282965698183,0.9984591583863446,
2023-08-17 19:46:13.639000,-7.325301204819278,-0.060240963855421686,-6.590361445783133,0.01226241569589209,-7.134886572654812,-6.297976701410177,3.0,0.9983349983349983,1001.6677785190127,-0.2800536099294898,0.6449507604451952,-0.3462502185187351,1276.923076923077,-1.0,63.68282965698183,0.9984582968443297,
2023-08-17 19:46:13.646000,-7.349397590361447,-0.04819277108433735,-6.590361445783133,0.07847946045370938,-7.071122011036174,-6.305334150827712,3.0,0.9983349983349983,1001.6677785190127,-0.5120913699667847,0.3037119049006465,0.13961890332731197,1260.07326007326,-1.0,63.68282965698183,0.9984574410231973,
2023-08-17 19:46:13.654000,-7.36144578313253,-0.0963855421686747,-6.566265060240964,0.014714898835070508,-7.078479460453709,-6.339668914776211,3.0,0.9983349983349983,1001.6677785190127,-0.3616339374162333,0.0067595128489024,-0.08064798088689504,1245.4212454212454,-1.0,63.68282965698183,0.9984565906346397,
2023-08-17 19:46:13.662000,-7.349397590361447,-0.08433734939759037,-6.578313253012048,0.004904966278356836,-7.095646842427958,-6.317596566523605,3.0,0.9983349983349983,1001.6677785190127,-0.13344210710331636,0.0170153254472351,-0.1777285705961195,1232.967032967033,-1.0,63.68282965698183,0.9984557453314559,
2023-08-17 19:46:13.669000,-7.349397590361447,-0.08433734939759037,-6.626506024096386,-0.02452483139178418,-7.088289393010423,-6.315144083384427,3.0,0.9983349983349983,1001.6677785190127,-0.15150632247538073,0.3060427714002684,-0.04440300681778483,1220.5128205128203,-1.0,63.68282965698183,0.9984549047054062,
2023-08-17 19:46:13.677000,-7.337349397590362,-0.08433734939759037,-6.626506024096386,0.029429797670141016,-7.171673819742489,-6.339668914776211,3.0,0.9983349983349983,1001.6677785190127,-0.22842491696288034,0.36454752054076117,-0.27783928675485065,1210.2564102564102,-1.0,63.68282965698183,0.9984540684243813,
2023-08-17 19:46:13.685000,-7.325301204819278,-0.08433734939759037,-6.626506024096386,-0.02207234825260576,-7.103004291845493,-6.334763948497853,3.0,0.9983349983349983,1001.6677785190127,-0.2588427247829394,0.27096323058096894,-0.4665229298991907,1200.7326007326008,-1.0,63.68282965698183,0.9984532360722754,
2023-08-17 19:46:13.692000,-7.325301204819278,-0.08433734939759037,-6.614457831325302,0.017167381974248927,-7.078479460453709,-6.359288779889638,3.0,0.9983349983349983,1001.6677785190127,0.0791329176621407,0.4237515296311406,-0.5151214964162921,1190.4761904761904,-1.0,63.68282965698183,0.9984524071597215,
2023-08-17 19:46:13.700000,-7.325301204819278,-0.060240963855421686,-6.602409638554217,0.007357449417535254,-7.110361741263028,-6.347026364193746,3.0,0.9983349983349983,1001.6677785190127,-0.5169861896159903,0.7599790222015029,-0.6391235941961418,1178.7545787545787,-1.0,63.68282965698183,0.9984515813917588,
2023-08-17 19:46:13.708000,-7.349397590361447,-0.04819277108433735,-6.626506024096386,-0.02207234825260576,-7.115266707541386,-6.288166768853464,3.0,0.9983349983349983,1001.6677785190127,-0.49962123419381094,0.7575316123769019,-0.6260707417982624,1166.3003663003662,-1.0,63.68282965698183,0.9984507585000688,
2023-08-17 19:46:13.715000,-7.337349397590362,-0.04819277108433735,-6.626506024096386,0.04904966278356836,-7.095646842427958,-6.320049049662783,3.0,0.9983349983349983,1001.6677785190127,-0.35802109434182045,0.5856302080298349,-0.5485694306858573,1156.0439560439559,-1.0,63.68282965698183,0.998449937958559,
2023-08-17 19:46:13.723000,-7.313253012048193,-0.03614457831325302,-6.614457831325302,0.034334763948497854,-7.13979153893317,-6.3445738810545675,3.0,0.9983349983349983,1001.6677785190127,-0.5841151448050805,0.885962356506032,-0.6102208496008384,1149.4505494505493,-1.0,63.68282965698183,0.9984491190075723,
2023-08-17 19:46:13.731000,-7.349397590361447,-0.03614457831325302,-6.602409638554217,0.03923973022685469,-7.085836909871245,-6.393623543838136,3.0,0.9983349983349983,1001.6677785190127,-0.36629567041547717,0.6226909853738121,-0.5946040440533771,1146.5201465201465,-1.0,63.68282965698183,0.9984483006671794,
2023-08-17 19:46:13.738000,-7.313253012048193,-0.060240963855421686,-6.63855421686747,0.03188228080931944,-7.034334763948498,-6.376456161863887,3.0,0.9983349983349983,1001.6677785190127,-0.6714060952158971,0.6503117533943241,-0.8384126799137573,1144.3223443223442,-1.0,63.68282965698183,0.9984474818994468,
2023-08-17 19:46:13.746000,-7.325301204819278,-0.03614457831325302,-6.614457831325302,0.034334763948497854,-7.120171673819742,-6.393623543838136,3.0,0.9983349983349983,1001.6677785190127,-0.6661616455917491,0.023075578346250746,-0.5011362974185654,1142.1245421245421,-1.0,63.68282965698183,0.9984466616008416,
2023-08-17 19:46:13.754000,-7.337349397590362,-0.04819277108433735,-6.63855421686747,0.014714898835070508,-7.105456774984671,-6.347026364193746,3.0,0.9983349983349983,1001.6677785190127,-1.119282093118116,0.16094633179884585,-0.6867898141133962,1140.6593406593406,-1.0,63.68282965698183,0.9984458384774464,
2023-08-17 19:46:13.761000,-7.337349397590362,-0.03614457831325302,-6.614457831325302,0.03188228080931944,-7.049049662783568,-6.315144083384427,3.0,0.9983349983349983,1001.6677785190127,-0.868364314433891,0.266884214206631,-0.5032340772682249,1142.1245421245421,-1.0,63.68282965698183,0.9984450111974623,
2023-08-17 19:46:13.769000,-7.349397590361447,-0.04819277108433735,-6.63855421686747,0.07847946045370938,-7.188841201716738,-6.356836296750459,3.0,0.9983349983349983,1001.6677785190127,-0.8762892605326034,-0.268632364081347,-0.4427480916030534,1145.054945054945,-1.0,63.68282965698183,0.9984441783949883,
2023-08-17 19:46:13.777000,-7.337349397590362,-0.03614457831325302,-6.590361445783133,0.034334763948497854,-7.09319435928878,-6.322501532801962,3.0,0.9983349983349983,1001.6677785190127,-0.9479634053959567,0.23693257968649875,-0.4892488782704976,1150.18315018315,-1.0,63.68282965698183,0.9984433388131003,
2023-08-17 19:46:13.784000,-7.36144578313253,-0.04819277108433735,-6.626506024096386,0.04414469650521152,-7.100551808706315,-6.322501532801962,3.0,0.9983349983349983,1001.6677785190127,-0.6508944700192301,-0.14824310937591037,-0.7788590408484358,1158.974358974359,-1.0,63.68282965698183,0.9984424911495857,
2023-08-17 19:46:13.792000,-7.337349397590362,-0.04819277108433735,-6.602409638554217,0.0539546290619252,-7.129981606376456,-6.334763948497853,3.0,0.9983349983349983,1001.6677785190127,-0.9687081172425855,-0.3185129071732422,-0.5632538896334713,1166.3003663003662,-1.0,63.68282965698183,0.9984416340734537,
2023-08-17 19:46:13.800000,-7.337349397590362,-0.04819277108433735,-6.614457831325302,-0.029429797670141016,-7.07602697731453,-6.295524218270999,3.0,0.9983349983349983,1001.6677785190127,-0.8588077617854433,-0.12050579803041749,-0.5637200629333959,1175.0915750915751,-1.0,63.68282965698183,0.9984407663595055,
2023-08-17 19:46:13.807000,-7.325301204819278,-0.04819277108433735,-6.590361445783133,0.03188228080931944,-7.080931943592887,-6.388718577559779,3.0,0.9983349983349983,1001.6677785190127,-0.3209603169978433,-0.3100052444496238,-0.9603169978439481,1183.8827838827838,-1.0,63.68282965698183,0.9984398866076997,
2023-08-17 19:46:13.815000,-7.325301204819278,-0.060240963855421686,-6.614457831325302,0.12507664009809932,-7.105456774984671,-6.334763948497853,3.0,0.9983349983349983,1001.6677785190127,-0.7331740574558585,0.02587261814579603,-0.3167647572985262,1191.2087912087911,-1.0,63.68282965698183,0.9984389934099122,
2023-08-17 19:46:13.823000,-7.325301204819278,-0.012048192771084338,-6.590361445783133,0.07847946045370938,-7.129981606376456,-6.305334150827712,3.0,0.9983349983349983,1001.6677785190127,-0.6857409241885678,-0.008624206048599255,-0.8081114154186813,1198.5347985347985,-1.0,63.68282965698183,0.9984380854853528,
2023-08-17 19:46:13.830000,-7.325301204819278,-0.060240963855421686,-6.614457831325302,0.041692213366033105,-7.1446965052115265,-6.297976701410177,3.0,0.9983349983349983,1001.6677785190127,-0.6429695239205175,-0.07237340481324003,-0.5330691684633757,1204.3956043956043,-1.0,63.68282965698183,0.9984371614006856,
2023-08-17 19:46:13.838000,-7.349397590361447,-0.04819277108433735,-6.602409638554217,0.041692213366033105,-7.06131207847946,-6.364193746167995,3.0,0.9983349983349983,1001.6677785190127,-0.5812015616805545,-0.014218285647689819,-0.5059145737427891,1210.2564102564102,-1.0,63.68282965698183,0.9984362197374069,
2023-08-17 19:46:13.846000,-7.337349397590362,-0.04819277108433735,-6.614457831325302,0.029429797670141016,-7.117719190680564,-6.312691600245248,3.0,0.9974469974469975,1002.5595370576452,-0.552648447060194,0.12097197133034257,-0.5561447468096264,1212.4542124542124,-1.0,63.68282965698183,0.9984352592277882,
2023-08-17 19:46:13.853000,-7.325301204819278,-0.03614457831325302,-6.602409638554217,-0.019619865113427344,-7.098099325567136,-6.332311465358675,3.0,0.9978909978909979,1002.1134593993327,-0.6300332148476204,0.009323465998484274,-0.3773672862886783,1212.4542124542124,-1.0,63.68282965698183,0.9984342784542845,
2023-08-17 19:46:13.861000,-7.337349397590362,-0.024096385542168676,-6.590361445783133,-0.014714898835070508,-7.078479460453709,-6.339668914776211,3.0,0.9983349983349983,1001.6677785190127,-0.404638424334247,0.12854728745411081,-0.42887943593030653,1216.117216117216,-1.0,63.68282965698183,0.9984332758044702,
2023-08-17 19:46:13.869000,-7.349397590361447,-0.03614457831325302,-6.626506024096386,0.017167381974248927,-7.085836909871245,-6.329858982219497,3.0,0.9983349983349983,1001.6677785190127,-0.13449099702814563,0.1988229124176906,-0.26653458423168763,1219.7802197802198,-1.0,63.68282965698183,0.9984322497971726,
2023-08-17 19:46:13.876000,-7.349397590361447,-0.060240963855421686,-6.614457831325302,0.05150214592274678,-7.041692213366033,-6.356836296750459,3.0,0.9983349983349983,1001.6677785190127,-0.2612901346075404,-0.08064798088689504,-0.09055416351028436,1224.1758241758241,-1.0,63.68282965698183,0.9984311991209908,
2023-08-17 19:46:13.884000,-7.301204819277109,-0.024096385542168676,-6.626506024096386,0.056407112201103615,-7.066217044757817,-6.413243408951563,3.0,0.9983349983349983,1001.6677785190127,-0.05594079599090911,-0.11712604160596629,0.02354175164617496,1227.106227106227,-1.0,63.68282965698183,0.9984301223642529,
2023-08-17 19:46:13.892000,-7.313253012048193,-0.03614457831325302,-6.626506024096386,0.03678724708767627,-7.088289393010423,-6.327406499080318,3.0,0.9983349983349983,1001.6677785190127,-0.1574500320494138,0.09090379348522774,-0.07691859448750046,1229.3040293040292,-1.0,63.68282965698183,0.9984290180426945,
2023-08-17 19:46:13.899000,-7.325301204819278,-0.024096385542168676,-6.614457831325302,0.06131207847946045,-7.06131207847946,-6.334763948497853,3.0,0.9983349983349983,1001.6677785190127,-0.33401316939572295,0.026105704795757703,0.08227958743662893,1232.967032967033,-1.0,63.68282965698183,0.9984278847545536,
2023-08-17 19:46:13.907000,-7.313253012048193,-0.04819277108433735,-6.626506024096386,0.07602697731453095,-7.13979153893317,-6.356836296750459,3.0,0.9983349983349983,1001.6677785190127,0.2097779849659118,-0.2370491230114796,0.1029077559582769,1237.3626373626373,-1.0,63.68282965698183,0.9984267211863407,
2023-08-17 19:46:13.915000,-7.313253012048193,-0.04819277108433735,-6.626506024096386,0.10055180870631514,-7.056407112201104,-6.354383813611281,3.0,0.9983349983349983,1001.6677785190127,0.244507895810267,-0.46722218984907593,0.07901637433715986,1241.7582417582416,-1.0,63.68282965698183,0.9984255261185507,
2023-08-17 19:46:13.922000,-7.301204819277109,-0.024096385542168676,-6.614457831325302,0.02207234825260576,-7.041692213366033,-6.364193746167995,3.0,0.9983349983349983,1001.6677785190127,0.09708058970922423,-0.2678165608064794,-0.11642678165608039,1241.7582417582416,-1.0,63.68282965698183,0.9984242984312757,
2023-08-17 19:46:13.930000,-7.313253012048193,-0.03614457831325302,-6.626506024096386,0.034334763948497854,-7.066217044757817,-6.285714285714286,3.0,0.9978909978909979,1002.1134593993327,-0.08227958743663023,-0.11631023833110044,-0.29415535225219924,1241.7582417582416,-1.0,63.68282965698183,0.9984230371096974,
2023-08-17 19:46:13.937000,-7.325301204819278,-0.03614457831325302,-6.614457831325302,0.019619865113427344,-7.01471489883507,-6.305334150827712,3.0,0.9983349983349983,1001.6677785190127,0.16782238797272908,-0.1177087582308722,-0.08764058038575781,1241.7582417582416,-1.0,63.68282965698183,0.9984217411001213,
2023-08-17 19:46:13.945000,-7.313253012048193,-0.04819277108433735,-6.63855421686747,0.03923973022685469,-7.036787247087676,-6.315144083384427,3.0,0.9983349983349983,1001.6677785190127,0.09486626653458487,0.04778276324223494,0.19451080939339183,1238.8278388278388,-1.0,63.68282965698183,0.9984204094425383,
2023-08-17 19:46:13.953000,-7.313253012048193,-0.04819277108433735,-6.63855421686747,0.10300429184549356,-7.085836909871245,-6.339668914776211,3.0,0.9983349983349983,1001.6677785190127,-0.32806945982168817,-0.4436804382029019,0.21210885146553285,1235.8974358974358,-1.0,63.68282965698183,0.9984190414344708,
2023-08-17 19:46:13.960000,-7.349397590361447,-0.024096385542168676,-6.662650602409639,0.05150214592274678,-7.120171673819742,-6.3666462293071735,3.0,0.9983349983349983,1001.6677785190127,-0.21572169453994486,-0.9457490822213156,0.10803566225744456,1232.967032967033,-1.0,63.68282965698183,0.9984176364966959,
2023-08-17 19:46:13.968000,-7.36144578313253,-0.07228915662650603,-6.650602409638554,0.04904966278356836,-7.171673819742489,-6.351931330472103,3.0,0.9978909978909979,1002.1134593993327,-0.22562787716333504,-1.3982868131227784,0.2776062001048888,1230.03663003663,-1.0,63.68282965698183,0.9984161943161796,
2023-08-17 19:46:13.976000,-7.36144578313253,-0.060240963855421686,-6.650602409638554,0.06866952789699571,-7.129981606376456,-6.3372164316370325,3.0,0.9983349983349983,1001.6677785190127,0.12843074412913,-1.083969465648855,0.2639706310821049,1226.3736263736264,-1.0,63.68282965698183,0.9984147146802774,
2023-08-17 19:46:13.983000,-7.373493975903615,-0.060240963855421686,-6.626506024096386,0.04659717964438994,-7.147148988350705,-6.378908645003065,3.0,0.9983349983349983,1001.6677785190127,-0.08694132043587237,-1.198298467455276,0.20604859856651678,1222.7106227106226,-1.0,63.68282965698183,0.9984131974596934,
2023-08-17 19:46:13.991000,-7.349397590361447,-0.07228915662650603,-6.626506024096386,0.04414469650521152,-7.095646842427958,-6.356836296750459,3.0,0.9978909978909979,1002.1134593993327,-0.0867082337859107,-1.1902569780315826,0.20779674844123322,1219.047619047619,-1.0,63.68282965698183,0.998411642771681,
2023-08-17 19:46:13.999000,-7.313253012048193,-0.04819277108433735,-6.590361445783133,-0.019619865113427344,-7.063764561618639,-6.312691600245248,3.0,0.9974469974469975,1002.5595370576452,-0.49985432084377435,-1.0629916671522643,0.34928034496824206,1216.8498168498168,-1.0,63.68282965698183,0.998410050556738,
2023-08-17 19:46:14.006000,-7.313253012048193,-0.07228915662650603,-6.614457831325302,-0.02452483139178418,-7.090741876149601,-6.378908645003065,3.0,0.9978909978909979,1002.1134593993327,-0.03834275391876983,-0.8442398461628109,0.18227376027038059,1216.8498168498168,-1.0,63.68282965698183,0.9984084207081912,
2023-08-17 19:46:14.014000,-7.313253012048193,-0.07228915662650603,-6.602409638554217,0.004904966278356836,-7.029429797670141,-6.322501532801962,3.0,0.9978909978909979,1002.1134593993327,-0.1772623972961942,-0.9938814754384948,0.39601421828564776,1219.7802197802198,-1.0,63.68282965698183,0.9984067533074156,
2023-08-17 19:46:14.022000,-7.337349397590362,-0.07228915662650603,-6.614457831325302,0.07112201103617412,-7.083384426732066,-6.378908645003065,3.0,0.9978909978909979,1002.1134593993327,0.09847910960899774,-1.27882990501719,0.5173358195909328,1223.4432234432234,-1.0,63.68282965698183,0.9984050485058017,
2023-08-17 19:46:14.029000,-7.36144578313253,-0.060240963855421686,-6.614457831325302,0.03923973022685469,-7.112814224402207,-6.3077866339668915,3.0,0.9978909978909979,1002.1134593993327,0.032865217644660105,-1.3479400967309598,0.622690985373813,1231.5018315018315,-1.0,63.68282965698183,0.9984033065340383,
2023-08-17 19:46:14.037000,-7.373493975903615,-0.07228915662650603,-6.602409638554217,0.08583690987124463,-7.098099325567136,-6.273451870018393,3.0,0.9983349983349983,1001.6677785190127,0.22644368043820265,-1.0016898782122248,0.3453178719188858,1241.0256410256409,-1.0,63.68282965698183,0.998401527700029,
2023-08-17 19:46:14.045000,-7.349397590361447,-0.04819277108433735,-6.590361445783133,0.056407112201103615,-7.125076640098099,-6.322501532801962,3.0,0.9983349983349983,1001.6677785190127,-0.08274576073655357,-1.1314025989161474,0.03939164384359866,1254.212454212454,934.50927734375,64.20482006400627,0.99839971253532,
2023-08-17 19:46:14.052000,-7.36144578313253,-0.07228915662650603,-6.614457831325302,0.01226241569589209,-7.1446965052115265,-6.290619251992642,3.0,0.9978909978909979,1002.1134593993327,0.23530097313676357,-0.8797855602820355,-0.15884855194918732,1276.1904761904761,-1.0,64.20482006400627,0.9983978618133229,
2023-08-17 19:46:14.060000,-7.337349397590362,-0.08433734939759037,-6.566265060240964,0.06621704475781728,-7.152053954629062,-6.317596566523605,3.0,0.9983349983349983,1001.6677785190127,0.12248703455509517,-0.631548278072373,-0.11036652875706562,1308.4249084249084,-1.0,64.20482006400627,0.9983959762585635,
2023-08-17 19:46:14.068000,-7.313253012048193,-0.07228915662650603,-6.578313253012048,0.007357449417535254,-7.09319435928878,-6.270999386879215,3.0,0.9983349983349983,1001.6677785190127,0.028553114620360476,-0.46186119689994704,-0.21688712778975583,1350.9157509157508,-1.0,64.20482006400627,0.9983940565321081,
2023-08-17 19:46:14.075000,-7.325301204819278,-0.08433734939759037,-6.566265060240964,0.017167381974248927,-7.083384426732066,-6.280809319435929,3.0,0.9983349983349983,1001.6677785190127,-0.14276557310180063,-0.8134724083678111,-0.2448575257852104,1408.7912087912086,-1.0,64.20482006400627,0.9983921034071378,
2023-08-17 19:46:14.083000,-7.325301204819278,-0.07228915662650603,-6.566265060240964,-0.007357449417535254,-7.115266707541386,-6.288166768853464,3.0,0.9983349983349983,1001.6677785190127,-0.3283025464716516,-0.3674611036652873,0.07855020103723565,1479.8534798534797,-1.0,64.20482006400627,0.9983901177737876,
2023-08-17 19:46:14.091000,-7.349397590361447,-0.060240963855421686,-6.578313253012048,0.03188228080931944,-7.1741263028816675,-6.293071735131821,3.0,0.9978909978909979,1002.1134593993327,-0.5105763067420321,-0.4585979838004784,-0.2736437270555325,1563.3699633699632,-1.0,64.20482006400627,0.9983881007719667,
2023-08-17 19:46:14.098000,-7.36144578313253,-0.060240963855421686,-6.602409638554217,0.03678724708767627,-7.137339055793991,-6.359288779889638,3.0,0.9983349983349983,1001.6677785190127,-0.6637142357671463,-0.5479867140609518,0.04801584989219748,1654.9450549450548,-1.0,64.20482006400627,0.9983860536155635,
2023-08-17 19:46:14.106000,-7.385542168674699,-0.060240963855421686,-6.590361445783133,0.002452483139178418,-7.09319435928878,-6.383813611281422,3.0,0.9983349983349983,1001.6677785190127,-0.6324806246722214,-0.22306392401375144,0.19987180234252072,1749.4505494505493,-1.0,64.20482006400627,0.9983839775655985,
2023-08-17 19:46:14.114000,-7.409638554216868,-0.07228915662650603,-6.614457831325302,0.007357449417535254,-7.169221336603311,-6.3372164316370325,3.0,0.9983349983349983,1001.6677785190127,-0.23075578346250228,-0.11211467863178164,0.06025289901520874,1845.4212454212452,-1.0,64.20482006400627,0.9983818740838772,
2023-08-17 19:46:14.121000,-7.36144578313253,-0.07228915662650603,-6.626506024096386,-0.01226241569589209,-7.156958920907418,-6.280809319435929,3.0,0.9983349983349983,1001.6677785190127,-0.2897267059029201,-0.12644950760445228,0.24427480916030533,1934.7985347985348,-1.0,64.20482006400627,0.9983797446885072,
2023-08-17 19:46:14.129000,-7.36144578313253,-0.04819277108433735,-6.614457831325302,0.007357449417535254,-7.112814224402207,-6.347026364193746,3.0,0.9978909978909979,1002.1134593993327,-0.5168696462910095,0.08519317056115634,0.10558825243284178,2012.4542124542122,-1.0,64.20482006400627,0.9983775909479374,
2023-08-17 19:46:14.137000,-7.349397590361447,-0.04819277108433735,-6.566265060240964,0.014714898835070508,-7.129981606376456,-6.383813611281422,3.0,0.9983349983349983,1001.6677785190127,-0.30079832177612037,-0.14742730610104277,0.3200279703979957,2077.6556776556777,-1.0,64.20482006400627,0.9983754143255295,
2023-08-17 19:46:14.144000,-7.385542168674699,-0.03614457831325302,-6.626506024096386,0.07357449417535254,-7.112814224402207,-6.356836296750459,3.0,0.9983349983349983,1001.6677785190127,-0.20546588194161217,0.15686731542450963,0.6081230697511801,2124.5421245421244,-1.0,64.20482006400627,0.9983732161619587,
2023-08-17 19:46:14.152000,-7.337349397590362,-0.03614457831325302,-6.602409638554217,0.04904966278356836,-7.09319435928878,-6.3445738810545675,3.0,0.9974469974469975,1002.5595370576452,-0.03239904434473502,-0.516636559641046,0.22201503408892262,2151.6483516483513,-1.0,64.20482006400627,0.9983709978481686,
2023-08-17 19:46:14.160000,-7.36144578313253,-0.024096385542168676,-6.602409638554217,0.017167381974248927,-7.112814224402207,-6.32495401594114,3.0,0.9978909978909979,1002.1134593993327,-0.5495017772857061,-0.3759687663889057,0.37468678981411346,2158.974358974359,-1.0,64.20482006400627,0.9983687608069503,
2023-08-17 19:46:14.167000,-7.36144578313253,-0.024096385542168676,-6.578313253012048,0.09809932556713671,-7.01471489883507,-6.334763948497853,3.0,0.9983349983349983,1001.6677785190127,-0.43668783870403777,-0.3279529164967073,0.4193228832818602,2150.1831501831502,-1.0,64.20482006400627,0.9983665064112945,
2023-08-17 19:46:14.175000,-7.349397590361447,-0.012048192771084338,-6.590361445783133,0.07847946045370938,-7.066217044757817,-6.280809319435929,3.0,0.9983349983349983,1001.6677785190127,-0.35522405454227685,-0.6918011770875817,0.4752636792727697,2126.007326007326,-1.0,64.20482006400627,0.9983642361466635,
2023-08-17 19:46:14.183000,-7.349397590361447,0.0,-6.566265060240964,0.03188228080931944,-7.105456774984671,-6.31023911710607,3.0,0.9983349983349983,1001.6677785190127,-0.15383718897500093,-0.48586912184604625,0.07295612143814464,2085.714285714286,-1.0,64.20482006400627,0.9983619514963898,
2023-08-17 19:46:14.190000,-7.373493975903615,0.0,-6.602409638554217,0.07112201103617412,-7.149601471489883,-6.275904353157571,3.0,0.9983349983349983,1001.6677785190127,-0.5634869762834326,-0.17353301089680048,-0.021210885146553025,2032.234432234432,-1.0,64.20482006400627,0.9983596538167053,
2023-08-17 19:46:14.198000,-7.349397590361447,-0.012048192771084338,-6.578313253012048,0.07357449417535254,-7.110361741263028,-6.329858982219497,3.0,0.9983349983349983,1001.6677785190127,-0.5887768778043244,-0.5210652059903266,-0.07983217761202745,1967.7655677655675,-1.0,64.20482006400627,0.9983573444783475,
2023-08-17 19:46:14.206000,-7.349397590361447,0.0,-6.590361445783133,0.05885959534028203,-7.161863887185775,-6.24647455548743,3.0,0.9983349983349983,1001.6677785190127,-0.6588194161179425,-0.43622166540411444,0.1672396713478236,1897.4358974358972,-1.0,64.20482006400627,0.9983550248593327,
2023-08-17 19:46:14.213000,-7.373493975903615,0.0,-6.590361445783133,0.05885959534028203,-7.132434089515634,-6.27835683629675,3.0,0.9978909978909979,1002.1134593993327,-0.4083678107336407,-0.3070916613250977,-0.05803857584056851,1822.7106227106226,-1.0,64.20482006400627,0.9983526963382369,
2023-08-17 19:46:14.221000,-7.373493975903615,-0.012048192771084338,-6.578313253012048,0.10545677498467197,-7.176578786020846,-6.280809319435929,3.0,0.9983349983349983,1001.6677785190127,-0.6627818891672979,0.14253248645183897,-0.3121030242992832,1745.054945054945,-1.0,64.20482006400627,0.9983503601387302,
2023-08-17 19:46:14.229000,-7.36144578313253,-0.024096385542168676,-6.566265060240964,0.03678724708767627,-7.149601471489883,-6.288166768853464,3.0,0.9983349983349983,1001.6677785190127,-0.597867257152847,0.2209661441640929,-0.24310937591049436,1667.3992673992673,-1.0,64.20482006400627,0.9983480174514052,
2023-08-17 19:46:14.236000,-7.36144578313253,-0.024096385542168676,-6.590361445783133,0.04414469650521152,-7.161863887185775,-6.226854690374004,3.0,0.9978909978909979,1002.1134593993327,-0.4671056465240951,0.207330575141309,0.2372822096614417,1596.3369963369962,-1.0,64.20482006400627,0.9983456697264802,
2023-08-17 19:46:14.244000,-7.36144578313253,-0.024096385542168676,-6.602409638554217,0.0,-7.103004291845493,-6.342121397915389,3.0,0.9978909978909979,1002.1134593993327,-0.6301497581726012,0.3348289726705906,0.39321717848610205,1534.065934065934,-1.0,64.20482006400627,0.9983433183608549,
2023-08-17 19:46:14.252000,-7.337349397590362,-0.024096385542168676,-6.614457831325302,0.06131207847946045,-7.088289393010423,-6.300429184549356,3.0,0.9983349983349983,1001.6677785190127,-0.545539304236349,0.30452770817551406,-0.01689878212225383,1476.923076923077,-1.0,64.20482006400627,0.9983409643856228,
2023-08-17 19:46:14.259000,-7.373493975903615,-0.03614457831325302,-6.590361445783133,0.04659717964438994,-7.127529123237277,-6.285714285714286,3.0,0.9983349983349983,1001.6677785190127,-0.5835324281801764,-0.001631606549735182,0.30720820465007853,1424.1758241758241,-1.0,64.20482006400627,0.9983386087707304,
2023-08-17 19:46:14.267000,-7.36144578313253,-0.03614457831325302,-6.614457831325302,0.04904966278356836,-7.115266707541386,-6.302881667688534,3.0,0.9978909978909979,1002.1134593993327,-0.575490938756483,-1.1654332498083647E-4,0.30569314142532505,1375.8241758241757,-1.0,64.20482006400627,0.9983362527301359,
2023-08-17 19:46:14.275000,-7.373493975903615,-0.03614457831325302,-6.566265060240964,0.029429797670141016,-7.176578786020846,-6.266094420600858,3.0,0.9978909978909979,1002.1134593993327,0.1018588660334472,-0.19812365246780558,0.5189674261406676,1330.4029304029302,-1.0,64.20482006400627,0.9983338974108368,
2023-08-17 19:46:14.282000,-7.36144578313253,-0.04819277108433735,-6.566265060240964,0.07847946045370938,-7.112814224402207,-6.297976701410177,3.0,0.9978909978909979,1002.1134593993327,0.12050579803041749,-0.6064914632014445,0.5652351261581491,1287.179487179487,-1.0,64.20482006400627,0.9983315435824239,
2023-08-17 19:46:14.290000,-7.337349397590362,-0.04819277108433735,-6.590361445783133,-0.004904966278356836,-7.095646842427958,-6.339668914776211,3.0,0.9978909978909979,1002.1134593993327,0.03123361109492492,-0.7522871627527539,0.3506788648680147,1250.5494505494505,-1.0,64.20482006400627,0.9983291917945258,
2023-08-17 19:46:14.298000,-7.349397590361447,-0.04819277108433735,-6.602409638554217,-0.009809932556713672,-7.083384426732066,-6.32495401594114,3.0,0.9978909978909979,1002.1134593993327,0.26303828448225647,-0.11829147485577639,0.18308956354524772,1220.5128205128203,-1.0,64.20482006400627,0.998326842662198,
2023-08-17 19:46:14.305000,-7.337349397590362,-0.04819277108433735,-6.590361445783133,0.06621704475781728,-7.127529123237277,-6.342121397915389,3.0,0.997002997002997,1003.0060120240481,-0.01083852922323862,-0.34252083211933965,0.30476079482547663,1196.3369963369962,-1.0,64.20482006400627,0.9983244968434328,
2023-08-17 19:46:14.313000,-7.337349397590362,-0.04819277108433735,-6.566265060240964,0.05150214592274678,-7.137339055793991,-6.280809319435929,3.0,0.9978909978909979,1002.1134593993327,0.02167705844647724,-0.24369209253539942,0.05908746576539821,1182.4175824175823,-1.0,64.20482006400627,0.998322154729759,
2023-08-17 19:46:14.320000,-7.349397590361447,-0.03614457831325302,-6.602409638554217,0.04904966278356836,-7.132434089515634,-6.312691600245248,3.0,0.9978909978909979,1002.1134593993327,-0.09754676300914931,0.11514480508128859,0.21210885146553243,1177.2893772893772,-1.0,64.20482006400627,0.9983198165420091,
2023-08-17 19:46:14.328000,-7.349397590361447,-0.060240963855421686,-6.590361445783133,0.017167381974248927,-7.134886572654812,-6.315144083384427,3.0,0.9978909978909979,1002.1134593993327,0.07482081463784107,-8.15803274867591E-4,0.2263271371132218,1176.5567765567764,-1.0,64.20482006400627,0.9983174825209842,
2023-08-17 19:46:14.336000,-7.349397590361447,-0.060240963855421686,-6.602409638554217,0.04659717964438994,-7.13979153893317,-6.305334150827712,3.0,0.9978909978909979,1002.1134593993327,-0.31839636384826137,-0.025989161470776866,0.30336227492570356,1180.2197802197802,-1.0,64.20482006400627,0.9983151527994056,
2023-08-17 19:46:14.343000,-7.349397590361447,-0.08433734939759037,-6.602409638554217,0.08828939301042305,-7.1446965052115265,-6.266094420600858,3.0,0.9978909978909979,1002.1134593993327,-0.5721111823320318,0.3596527008915556,-0.06491463201445175,1190.4761904761904,-1.0,64.20482006400627,0.9983128274024066,
2023-08-17 19:46:14.351000,-7.373493975903615,-0.060240963855421686,-6.614457831325302,0.06376456161863887,-7.159411404046597,-6.3445738810545675,3.0,0.9978909978909979,1002.1134593993327,-0.5806188450556502,0.06992599498863726,0.010605442573276513,1204.3956043956043,-1.0,64.20482006400627,0.9983105061096101,
2023-08-17 19:46:14.359000,-7.373493975903615,-0.07228915662650603,-6.614457831325302,0.004904966278356836,-7.161863887185775,-6.302881667688534,3.0,0.9978909978909979,1002.1134593993327,-0.6343453178719183,0.13169395722860036,0.025756074820814327,1220.5128205128203,-1.0,64.20482006400627,0.9983081886154138,
2023-08-17 19:46:14.366000,-7.349397590361447,-0.07228915662650603,-6.63855421686747,0.002452483139178418,-7.132434089515634,-6.339668914776211,3.0,0.9978909978909979,1002.1134593993327,-0.5045160538430165,0.20814637841617661,-0.021560515121496402,1242.4908424908424,-1.0,64.20482006400627,0.9983058745193346,
2023-08-17 19:46:14.374000,-7.36144578313253,-0.060240963855421686,-6.602409638554217,0.029429797670141016,-7.137339055793991,-6.369098712446352,3.0,0.9978909978909979,1002.1134593993327,-0.4843540586212919,0.1610628751238267,0.3304003263213101,1266.6666666666665,-1.0,64.20482006400627,0.9983035633378474,
2023-08-17 19:46:14.382000,-7.349397590361447,-0.04819277108433735,-6.626506024096386,0.06376456161863887,-7.115266707541386,-6.3077866339668915,3.0,0.9978909978909979,1002.1134593993327,-0.6442515004953084,-0.2044169920167829,0.053959559466231426,1294.5054945054944,-1.0,64.20482006400627,0.9983012546343095,
2023-08-17 19:46:14.389000,-7.337349397590362,-0.03614457831325302,-6.590361445783133,0.041692213366033105,-7.103004291845493,-6.342121397915389,3.0,0.9978909978909979,1002.1134593993327,-0.43668783870403777,0.24322591923547607,0.16234485169861892,1321.6117216117216,-1.0,64.20482006400627,0.9982989478724871,
2023-08-17 19:46:14.397000,-7.36144578313253,-0.04819277108433735,-6.590361445783133,0.07602697731453095,-7.152053954629062,-6.32495401594114,3.0,0.9978909978909979,1002.1134593993327,-0.4455451314025987,0.09113688013518942,0.025639531495833923,1347.985347985348,-1.0,64.20482006400627,0.9982966424196666,
2023-08-17 19:46:14.405000,-7.349397590361447,-0.060240963855421686,-6.590361445783133,0.03923973022685469,-7.105456774984671,-6.320049049662783,3.0,0.9978909978909979,1002.1134593993327,-0.40720237748382887,0.1074529456325395,-0.29427189557718053,1372.8937728937728,-1.0,64.20482006400627,0.9982943374113009,
2023-08-17 19:46:14.412000,-7.337349397590362,-0.04819277108433735,-6.578313253012048,0.03678724708767627,-7.120171673819742,-6.302881667688534,3.0,0.9978909978909979,1002.1134593993327,-0.5362158382378648,0.29089213915273016,-0.22621059378824096,1393.4065934065934,-1.0,64.20482006400627,0.9982920317750502,
2023-08-17 19:46:14.420000,-7.36144578313253,-0.04819277108433735,-6.578313253012048,0.03678724708767627,-7.07602697731453,-6.295524218270999,3.0,0.9978909978909979,1002.1134593993327,-0.3438028086941323,0.4542858807761788,0.09661441640930045,1412.4542124542124,-1.0,64.20482006400627,0.9982897245214446,
2023-08-17 19:46:14.428000,-7.313253012048193,-0.03614457831325302,-6.566265060240964,0.02452483139178418,-7.176578786020846,-6.315144083384427,3.0,0.9978909978909979,1002.1134593993327,-0.5660509294330162,0.677466348114911,0.0657304352893189,1427.106227106227,-1.0,64.20482006400627,0.9982874147265572,
2023-08-17 19:46:14.435000,-7.337349397590362,-0.04819277108433735,-6.55421686746988,0.009809932556713672,-7.07602697731453,-6.349478847332924,3.0,0.9983349983349983,1001.6677785190127,-0.5719946390070509,0.48854961832061067,0.2948546122020864,1436.6300366300366,-1.0,64.20482006400627,0.9982851013874867,
2023-08-17 19:46:14.443000,-7.349397590361447,-0.04819277108433735,-6.578313253012048,0.017167381974248927,-7.120171673819742,-6.297976701410177,3.0,0.9983349983349983,1001.6677785190127,-0.4251500495309124,0.5758405687314255,0.47642911252258024,1443.956043956044,-1.0,64.20482006400627,0.9982827835766335,
2023-08-17 19:46:14.451000,-7.349397590361447,-0.04819277108433735,-6.602409638554217,0.04659717964438994,-7.129981606376456,-6.27835683629675,3.0,0.9978909978909979,1002.1134593993327,-0.34100576889458706,0.35906998426665143,0.6728046151156694,1449.084249084249,-1.0,64.20482006400627,0.9982804604687446,
