Shimmer_F5D4_Timestamp_FormattedUnix_CAL,Shimmer_F5D4_Accel_LN_X_CAL,Shimmer_F5D4_Accel_LN_Y_CAL,Shimmer_F5D4_Accel_LN_Z_CAL,Shimmer_F5D4_Accel_WR_X_CAL,Shimmer_F5D4_Accel_WR_Y_CAL,Shimmer_F5D4_Accel_WR_Z_CAL,Shimmer_F5D4_GSR_Range_CAL,Shimmer_F5D4_GSR_Skin_Conductance_CAL,Shimmer_F5D4_GSR_Skin_Resistance_CAL,Shimmer_F5D4_Gyro_X_CAL,Shimmer_F5D4_Gyro_Y_CAL,Shimmer_F5D4_Gyro_Z_CAL,Shimmer_F5D4_PPG_A13_CAL,Shimmer_F5D4_PPG_IBI_CAL,Shimmer_F5D4_PPGtoHR_CAL,Shimmer_F5D4_GSR_Skin_Conductance_LPF_CAL,
yyyy/mm/dd hh:mm:ss.000,m/(s^2),m/(s^2),m/(s^2),m/(s^2),m/(s^2),m/(s^2),no_units,uS,kOhms,deg/s,deg/s,deg/s,mV,ms,BPM,uS,
2023-08-17 17:21:38.677000,-6.1325301204819285,-0.42168674698795183,-7.807228915662651,-0.3605150214592274,-5.793378295524218,-7.568362967504598,2.0,2.0725274725274727,482.5026511134676,0.37445370316415133,1.1968999475555042,0.051861779616572894,1393.4065934065934,-1.0,78.32988047808765,2.073289334469343,
2023-08-17 17:21:38.685000,-6.120481927710844,-0.4096385542168675,-7.795180722891566,-0.3727774371551195,-5.783568362967504,-7.568362967504598,2.0,2.0725274725274727,482.5026511134676,0.022725948371306502,1.3931589068236112,0.0564069692908342,1395.6043956043954,-1.0,78.32988047808765,2.073277477472221,
2023-08-17 17:21:38.692000,-6.1084337349397595,-0.4096385542168675,-7.783132530120482,-0.3850398528510116,-5.808093194359288,-7.494788473329246,2.0,2.0725274725274727,482.5026511134676,0.0417225103432193,1.2975933803391413,0.026921508070625728,1398.5347985347985,-1.0,78.32988047808765,2.0732655323538247,
2023-08-17 17:21:38.700000,-6.120481927710844,-0.43373493975903615,-7.746987951807229,-0.38749233599019006,-5.812998160637646,-7.541385652973635,2.0,2.0725274725274727,482.5026511134676,0.10337392925820155,1.4770701008099765,-0.032165957694772915,1400.0,-1.0,78.32988047808765,2.0732535040888806,
2023-08-17 17:21:38.708000,-6.1084337349397595,-0.3493975903614458,-7.759036144578314,-0.3163703249540159,-5.7075413856529735,-7.494788473329246,2.0,2.0725274725274727,482.5026511134676,1.1125225802692154,1.4887244333080827,-1.0854845288736092,1399.2673992673992,-1.0,78.32988047808765,2.0732413978106004,
2023-08-17 17:21:38.715000,-6.048192771084338,-0.3734939759036145,-7.771084337349398,-0.3261802575107296,-5.756591048436542,-7.556100551808706,2.0,2.0725274725274727,482.5026511134676,0.8606724549851401,2.108385292232388,-2.0210943418215725,1399.2673992673992,-1.0,78.32988047808765,2.0732292188075894,
2023-08-17 17:21:38.723000,-6.048192771084338,-0.4096385542168675,-7.819277108433735,-0.3359901900674433,-5.830165542611894,-7.561005518087063,2.0,2.0725274725274727,482.5026511134676,0.857176155235708,2.098712196258959,-2.003146669774489,1400.0,-1.0,78.32988047808765,2.0732169725205094,
2023-08-17 17:21:38.731000,-6.1084337349397595,-0.43373493975903615,-7.807228915662651,-0.39239730226854685,-5.812998160637646,-7.516860821581851,2.0,2.0710622710622713,482.8440042447824,-0.33704329584522996,2.1173591282559294,-0.35161121146786356,1397.8021978021977,-1.0,78.32988047808765,2.0732046645384687,
2023-08-17 17:21:38.738000,-6.1325301204819285,-0.44578313253012053,-7.783132530120482,-0.3973022685469037,-5.869405272838749,-7.4776210913549965,2.0,2.0725274725274727,482.5026511134676,-0.27177903385583657,2.609055416351028,0.23227084668725576,1399.2673992673992,-1.0,78.32988047808765,2.073192300560317,
2023-08-17 17:21:38.746000,-6.1325301204819285,-0.42168674698795183,-7.759036144578314,-0.41446965052115264,-5.854690374003678,-7.521765787860208,2.0,2.0725274725274727,482.5026511134676,0.005477536274109728,2.0917195967600954,-0.20896218169104333,1400.7326007326005,-1.0,78.32988047808765,2.073179886743668,
2023-08-17 17:21:38.754000,-6.1084337349397595,-0.4096385542168675,-7.783132530120482,-0.35561005518087063,-5.8399754751686075,-7.516860821581851,2.0,2.0725274725274727,482.5026511134676,0.2063982285414606,2.0488316531670643,-0.6166307324747968,1402.9304029304028,-1.0,78.32988047808765,2.0731674292786013,
2023-08-17 17:21:38.761000,-6.0843373493975905,-0.4096385542168675,-7.783132530120482,-0.3825873697118332,-5.793378295524218,-7.5438381361128135,2.0,2.0725274725274727,482.5026511134676,0.2713128605559115,2.190315249694074,-0.31862945049822305,1401.4652014652013,-1.0,78.32988047808765,2.0731549339952062,
2023-08-17 17:21:38.769000,-6.0843373493975905,-0.3614457831325301,-7.807228915662651,-0.328632740649908,-5.7958307786633965,-7.551195585530349,2.0,2.0725274725274727,482.5026511134676,0.2569780315832408,2.3600023308664997,-0.05326029951634554,1398.5347985347985,-1.0,78.32988047808765,2.0731424068491124,
2023-08-17 17:21:38.777000,-6.0843373493975905,-0.3734939759036145,-7.795180722891566,-0.328632740649908,-5.815450643776824,-7.502145922746781,2.0,2.0725274725274727,482.5026511134676,0.33424625604568464,2.3448516986189616,-0.47666219917254277,1394.8717948717947,-1.0,78.32988047808765,2.0731298539140504,
2023-08-17 17:21:38.784000,-6.060240963855422,-0.39759036144578314,-7.83132530120482,-0.3041079092581238,-5.800735744941753,-7.622317596566523,2.0,2.0725274725274727,482.5026511134676,0.18157450032049383,2.5737427888817668,-0.8219800710914286,1391.9413919413919,-1.0,78.32988047808765,2.0731172813740706,
2023-08-17 17:21:38.792000,-6.060240963855422,-0.3855421686746988,-7.819277108433735,-0.34825260576333533,-5.793378295524218,-7.4849785407725316,2.0,2.0725274725274727,482.5026511134676,-0.1545364489248877,2.525493852339607,-0.9953965386632474,1389.0109890109889,-1.0,78.32988047808765,2.073104695515464,
2023-08-17 17:21:38.800000,-6.072289156626506,-0.3855421686746988,-7.783132530120482,-0.3703249540159411,-5.776210913549969,-7.546290619251992,2.0,2.0725274725274727,482.5026511134676,0.06316648213973486,2.613717149350272,-0.6811957345143053,1383.150183150183,-1.0,78.32988047808765,2.0730921027183675,
2023-08-17 17:21:38.807000,-6.096385542168675,-0.3734939759036145,-7.771084337349398,-0.3727774371551195,-5.827713059472716,-7.48743102391171,2.0,2.0725274725274727,482.5026511134676,-0.21140959151564523,2.4253831361808755,-0.5817842783054599,1379.4871794871794,-1.0,78.32988047808765,2.073079509448089,
2023-08-17 17:21:38.815000,-6.060240963855422,-0.3734939759036145,-7.807228915662651,-0.2722256284488044,-5.739423666462293,-7.575720416922133,2.0,2.0725274725274727,482.5026511134676,0.2783054600547755,2.6204766621991724,-0.7283957811316364,1377.2893772893772,-1.0,78.32988047808765,2.0730669222461517,
2023-08-17 17:21:38.823000,-6.060240963855422,-0.3734939759036145,-7.867469879518072,-0.3237277743715512,-5.822808093194359,-7.619865113427345,2.0,2.0725274725274727,482.5026511134676,0.22900763358778625,2.418273993357029,-0.8156867315424504,1374.3589743589744,-1.0,78.32988047808765,2.073054347721067,
2023-08-17 17:21:38.830000,-6.048192771084338,-0.3493975903614458,-7.843373493975904,-0.20110361741263028,-5.754138565297363,-7.5732679337829545,2.0,2.0725274725274727,482.5026511134676,0.3601188741914807,2.171551774372123,-0.7015908163859911,1373.6263736263736,-1.0,78.32988047808765,2.073041792538862,
2023-08-17 17:21:38.838000,-6.0361445783132535,-0.3373493975903615,-7.807228915662651,-0.2673206621704476,-5.7075413856529735,-7.47271612507664,2.0,2.0725274725274727,482.5026511134676,-0.12178777460521016,2.1368218635277656,-0.6346949478468625,1376.5567765567764,-1.0,78.32988047808765,2.0730292634133725,
2023-08-17 17:21:38.846000,-6.048192771084338,-0.3614457831325301,-7.759036144578314,-0.35806253832004903,-5.739423666462293,-7.511955855303494,2.0,2.0725274725274727,482.5026511134676,-0.26478643435697247,1.9028028669657948,-0.570246489132335,1380.2197802197802,-1.0,78.32988047808765,2.073016767096305,
2023-08-17 17:21:38.853000,-6.048192771084338,-0.4096385542168675,-7.819277108433735,-0.3801348865726548,-5.7516860821581846,-7.62722256284488,2.0,2.0725274725274727,482.5026511134676,0.04941436979197012,2.1002272594837135,-1.0708000699259952,1384.6153846153845,-1.0,78.32988047808765,2.073004310367121,
2023-08-17 17:21:38.861000,-6.0361445783132535,-0.43373493975903615,-7.855421686746988,-0.3384426732066217,-5.7075413856529735,-7.6026977314530955,2.0,2.0725274725274727,482.5026511134676,0.0417225103432193,1.9758755317289216,-1.2771982984674546,1387.5457875457876,-1.0,78.32988047808765,2.072991900022704,
2023-08-17 17:21:38.868000,-6.072289156626506,-0.44578313253012053,-7.855421686746988,-0.3678724708767627,-5.778663396689147,-7.583077866339669,2.0,2.0725274725274727,482.5026511134676,0.10873492220733044,1.851523803974128,-1.5285822504516051,1391.2087912087911,-1.0,78.32988047808765,2.0729795428669004,
2023-08-17 17:21:38.876000,-6.1084337349397595,-0.45783132530120485,-7.855421686746988,-0.43408951563458,-5.817903126916002,-7.619865113427345,2.0,2.0725274725274727,482.5026511134676,0.16013052852397824,2.154886078899832,-1.71784861022085,1393.4065934065934,-1.0,78.32988047808765,2.0729672456998873,
2023-08-17 17:21:38.884000,-6.1807228915662655,-0.49397590361445787,-7.855421686746988,-0.5052115266707541,-5.798283261802575,-7.59534028203556,2.0,2.0725274725274727,482.5026511134676,0.22854146028786118,2.001748149874716,-2.4866849251209135,1397.069597069597,-1.0,78.32988047808765,2.0729550153074396,
2023-08-17 17:21:38.891000,-6.1807228915662655,-0.5301204819277109,-7.891566265060241,-0.45861434702636417,-5.896382587369711,-7.629675045984058,2.0,2.0710622710622713,482.8440042447824,-0.27166249053085395,2.2633879144572004,-2.7276965211817497,1399.2673992673992,-1.0,78.32988047808765,2.0729428589079566,
2023-08-17 17:21:38.899000,-6.1807228915662655,-0.5301204819277109,-7.903614457831326,-0.4904966278356836,-5.923359901900674,-7.67381974248927,2.0,2.0710622710622713,482.8440042447824,0.11735912825592969,1.6527008915564372,-2.966726880717906,1405.128205128205,-1.0,78.32988047808765,2.072930783581632,
2023-08-17 17:21:38.907000,-6.156626506024097,-0.5060240963855422,-7.855421686746988,-0.38994481912936846,-5.8399754751686075,-7.58062538320049,2.0,2.0725274725274727,482.5026511134676,-0.22842491696288034,0.9974943185129076,-2.074820814637841,1408.7912087912086,-1.0,78.32988047808765,2.072918795698909,
2023-08-17 17:21:38.914000,-6.096385542168675,-0.45783132530120485,-7.843373493975904,-0.45616186388718577,-5.844880441446965,-7.531575720416922,2.0,2.0725274725274727,482.5026511134676,-0.32562204999708716,0.5316706485636052,-2.1050055358079356,1410.989010989011,-1.0,78.32988047808765,2.072906901400242,
2023-08-17 17:21:38.922000,-6.024096385542169,-0.46987951807228917,-7.819277108433735,-0.38749233599019006,-5.754138565297363,-7.521765787860208,2.0,2.0725274725274727,482.5026511134676,-0.20336810209195189,0.22108268748907375,-1.38313618087524,1408.7912087912086,-1.0,78.32988047808765,2.0728951067213464,
2023-08-17 17:21:38.930000,-5.951807228915663,-0.45783132530120485,-7.795180722891566,-0.43408951563458,-5.609442060085836,-7.531575720416922,2.0,2.0725274725274727,482.5026511134676,-0.26548569430685925,0.31012178777460636,-0.9885204824893654,1402.9304029304028,-1.0,78.32988047808765,2.0728834176138937,
2023-08-17 17:21:38.937000,-5.951807228915663,-0.4819277108433735,-7.795180722891566,-0.4757817290006131,-5.663396689147762,-7.521765787860208,2.0,2.0710622710622713,482.8440042447824,0.06969290833867559,1.0103140842608223,-0.9168463376260126,1398.5347985347985,-1.0,78.32988047808765,2.0728718399315555,
2023-08-17 17:21:38.945000,-6.0120481927710845,-0.5542168674698795,-7.807228915662651,-0.5150214592274678,-5.7271612507664,-7.583077866339669,2.0,2.0710622710622713,482.8440042447824,-0.34590058854379085,1.1988811840801836,-0.3538255346425025,1394.8717948717947,-1.0,78.32988047808765,2.0728603789235693,
2023-08-17 17:21:38.953000,-6.072289156626506,-0.6265060240963856,-7.83132530120482,-0.5444512568976088,-5.761496014714899,-7.5438381361128135,2.0,2.0725274725274727,482.5026511134676,-0.6818949944641916,1.3999184196725118,-0.32725365654682187,1392.6739926739926,934.50927734375,64.20482006400627,2.0728490396069503,
2023-08-17 17:21:38.960000,-6.120481927710844,-0.6024096385542169,-7.807228915662651,-0.5297363580625383,-5.7958307786633965,-7.519313304721029,2.0,2.0725274725274727,482.5026511134676,-0.34135539886952954,2.225394790513375,-0.2560456849833919,1389.7435897435896,-1.0,64.20482006400627,2.072837827173173,
2023-08-17 17:21:38.968000,-6.156626506024097,-0.6867469879518072,-7.674698795180723,-0.6695278969957081,-5.871857755977928,-7.399141630901287,2.0,2.0725274725274727,482.5026511134676,-0.1827399335703039,2.5098770467921434,-1.8944117475671585,1389.0109890109889,-1.0,64.20482006400627,2.0728267466203056,
2023-08-17 17:21:38.976000,-6.096385542168675,-0.7590361445783133,-7.783132530120482,-0.7259350091968118,-5.847332924586143,-7.556100551808706,2.0,2.0710622710622713,482.8440042447824,-0.9871219625895924,4.425616222830835,0.7088165025348164,1393.4065934065934,-1.0,64.20482006400627,2.0728158027736563,
2023-08-17 17:21:38.983000,-6.024096385542169,-0.819277108433735,-7.807228915662651,-0.7578172900061312,-5.705088902513795,-7.5291232372777435,2.0,2.0725274725274727,482.5026511134676,0.5701299458073541,5.69279179534992,2.5866790979546637,1399.2673992673992,-1.0,64.20482006400627,2.0728049997795277,
2023-08-17 17:21:38.991000,-6.0120481927710845,-0.8674698795180723,-7.626506024096386,-0.7921520539546291,-5.7271612507664,-7.323114653586757,2.0,2.0725274725274727,482.5026511134676,0.46325971679972056,5.448516986189614,1.8080531437561904,1404.3956043956043,-1.0,64.20482006400627,2.072794341512776,
2023-08-17 17:21:38.999000,-6.0843373493975905,-0.9397590361445783,-7.506024096385542,-0.9000613120784794,-5.847332924586143,-7.269160024524831,2.0,2.0725274725274727,482.5026511134676,0.46325971679972056,5.448516986189614,1.8080531437561904,1413.1868131868132,-1.0,64.20482006400627,2.0727838320890957,
2023-08-17 17:21:39.006000,-6.120481927710844,-1.108433734939759,-7.46987951807229,-1.125689760882894,-5.911097486204782,-7.269160024524831,2.0,2.0725274725274727,482.5026511134676,-0.8191830312918824,4.868364314433889,1.9759920750539004,1421.245421245421,-1.0,64.20482006400627,2.0727734753951608,
2023-08-17 17:21:39.014000,-6.144578313253012,-1.349397590361446,-7.457831325301205,-1.3709380748007356,-5.93071735131821,-7.220110361741263,2.0,2.0725274725274727,482.5026511134676,-2.2695647106811956,8.425616222830836,3.9454577239088624,1430.7692307692307,-1.0,64.20482006400627,2.072763275077472,
2023-08-17 17:21:39.022000,-6.168674698795181,-1.5783132530120483,-7.457831325301205,-1.6676885346413242,-5.962599632127529,-7.217657878602084,2.0,2.0725274725274727,482.5026511134676,-3.5214731076277603,15.051570421304117,7.579045510168404,1440.2930402930401,-1.0,64.20482006400627,2.0727532345322186,
2023-08-17 17:21:39.029000,-6.19277108433735,-1.7831325301204821,-7.457831325301205,-1.7878602084610666,-5.938074800735745,-7.178418148375229,2.0,2.0710622710622713,482.8440042447824,-4.635976924421653,22.62408950527358,10.81568673154245,1450.5494505494505,-1.0,64.20482006400627,2.072743356896117,
2023-08-17 17:21:39.037000,-6.228915662650603,-1.8433734939759037,-7.518072289156627,-1.8712446351931329,-6.148988350705088,-7.25444512568976,2.0,2.06959706959707,483.18584070796453,-3.658877687780432,28.59355515412854,14.556144746809625,1456.4102564102564,-1.0,64.20482006400627,2.0727336445456865,
2023-08-17 17:21:39.045000,-6.373493975903615,-1.7710843373493976,-7.614457831325302,-1.7044757817290006,-6.215205395462906,-7.310852237890864,2.0,2.0710622710622713,482.8440042447824,-1.643610512207913,32.47141774954839,19.27370199871802,1462.2710622710622,-1.0,64.20482006400627,2.0727240989833273,
2023-08-17 17:21:39.052000,-6.614457831325302,-1.746987951807229,-7.421686746987953,-1.731453096259963,-6.489883507050888,-7.1661557326793375,2.0,2.0710622710622713,482.8440042447824,1.1502826175630794,36.227142940388084,24.266068410931762,1468.8644688644688,-1.0,64.20482006400627,2.072714721179214,
2023-08-17 17:21:39.060000,-6.843373493975904,-1.8313253012048194,-6.36144578313253,-1.7731453096259961,-6.8111587982832615,-6.111587982832618,2.0,2.0710622710622713,482.8440042447824,-0.727579977856768,34.547753627410984,28.327137113221838,1473.260073260073,-1.0,64.20482006400627,2.0727055116639534,
2023-08-17 17:21:39.068000,-7.048192771084338,-1.8554216867469882,-6.0361445783132535,-1.8687921520539545,-7.198651134273452,-5.618638871857756,2.0,2.0725274725274727,482.5026511134676,-11.384068527475089,25.31111240603694,32.0523279529165,1473.9926739926739,-1.0,64.20482006400627,2.0726964705520636,
2023-08-17 17:21:39.075000,-7.2048192771084345,-1.8554216867469882,-6.759036144578314,-1.7682403433476395,-7.142244022072348,-6.258736971183323,2.0,2.0725274725274727,482.5026511134676,-10.773381504574324,17.097371948021674,40.66301497581726,1473.9926739926739,-1.0,64.20482006400627,2.0726875980240975,
2023-08-17 17:21:39.083000,-7.228915662650603,-1.6867469879518073,-7.253012048192772,-1.5401594114040464,-6.86020846106683,-6.876762722256284,2.0,2.0725274725274727,482.5026511134676,5.745702464891323,19.356913932754498,47.762251617038636,1473.9926739926739,-1.0,64.20482006400627,2.0726788948469888,
2023-08-17 17:21:39.091000,-6.867469879518072,-1.3975903614457832,-7.1325301204819285,-1.226241569589209,-6.249540159411404,-6.820355610055181,2.0,2.0725274725274727,482.5026511134676,15.394557426723384,29.540120039624725,46.6935493269623,1474.7252747252746,-1.0,64.20482006400627,2.072670361387828,
2023-08-17 17:21:39.098000,-6.240963855421687,-0.9397590361445783,-7.096385542168675,-0.640098099325567,-5.925812385039853,-6.621704475781729,2.0,2.0725274725274727,482.5026511134676,16.417458190082165,37.20424217702931,40.06759512848902,1473.260073260073,-1.0,64.20482006400627,2.0726619971910933,
2023-08-17 17:21:39.106000,-5.0120481927710845,1.385542168674699,-7.493975903614459,1.4322501532801961,-5.778663396689147,-6.717351318209687,2.0,2.0725274725274727,482.5026511134676,25.852572693898956,40.57828797855602,52.11339665520657,1472.5274725274724,-1.0,64.20482006400627,2.072653801470695,
2023-08-17 17:21:39.114000,-5.530120481927711,0.5662650602409639,-6.903614457831326,0.4463519313304721,-4.915389331698345,-7.445738810545677,2.0,2.0725274725274727,482.5026511134676,47.74570246489132,71.72332614649495,99.10576306742031,1471.062271062271,-1.0,64.20482006400627,2.0726457731109993,
2023-08-17 17:21:39.121000,-5.879518072289157,-0.03614457831325302,-7.313253012048193,-0.1103617412630288,-5.369098712446352,-7.301042305334151,2.0,2.0725274725274727,482.5026511134676,13.62356506031117,60.166074238098005,86.03706077734398,1468.8644688644688,-1.0,64.20482006400627,2.0726379106695654,
2023-08-17 17:21:39.129000,-6.301204819277109,-0.7590361445783133,-7.55421686746988,-1.2286940527283874,-5.756591048436542,-7.117106069895769,2.0,2.0710622710622713,482.8440042447824,3.3945574267233845,55.05157042130411,72.02179360177146,1468.8644688644688,-1.0,64.20482006400627,2.0726302123816276,
2023-08-17 17:21:39.137000,-6.903614457831326,-1.3614457831325302,-7.120481927710844,-1.4641324340895157,-6.396689147762109,-6.717351318209687,2.0,2.0725274725274727,482.5026511134676,13.165549793135598,68.77676126099878,60.15919818192413,1467.3992673992673,-1.0,64.20482006400627,2.0726226756736317,
2023-08-17 17:21:39.144000,-7.313253012048193,-1.313253012048193,-7.024096385542169,-1.1870018393623543,-6.671367259350092,-6.903740036787247,2.0,2.0725274725274727,482.5026511134676,10.402191014509643,60.65462385641862,41.716450090321075,1465.9340659340658,-1.0,64.20482006400627,2.07261529759166,
2023-08-17 17:21:39.152000,-7.1325301204819285,-1.1204819277108435,-7.397590361445784,-1.0668301655426118,-6.816063764561618,-7.0999386879215205,2.0,2.0710622710622713,482.8440042447824,7.364023075578347,51.79966202435755,26.495076044519546,1465.9340659340658,-1.0,64.20482006400627,2.072608075335605,
2023-08-17 17:21:39.160000,-6.759036144578314,-0.710843373493976,-7.734939759036145,-0.41201716738197425,-6.771919068056406,-7.163703249540159,2.0,2.0725274725274727,482.5026511134676,12.29532078550201,46.089738360235415,26.11339665520657,1464.4688644688645,-1.0,64.20482006400627,2.0726010053194104,
2023-08-17 17:21:39.167000,-6.46987951807229,0.3493975903614458,-7.650602409638554,0.8068669527896996,-6.1367259350091965,-7.340282035561005,2.0,2.0725274725274727,482.5026511134676,21.1655497931356,39.12790629916671,36.220266884214205,1457.142857142857,-1.0,64.20482006400627,2.0725940836040198,
2023-08-17 17:21:39.175000,-6.228915662650603,1.0963855421686748,-7.710843373493976,1.2826486817903127,-5.820355610055181,-7.791538933169834,2.0,2.0725274725274727,482.5026511134676,22.218984907639417,39.097371948021674,39.227900472000464,1449.084249084249,-1.0,64.20482006400627,2.072587306436029,
2023-08-17 17:21:39.183000,-6.048192771084338,1.2891566265060241,-8.096385542168676,1.4028203556100551,-5.631514408338442,-8.15695892090742,2.0,2.0725274725274727,482.5026511134676,12.14264902977682,42.227142940388084,37.090495891847794,1441.7582417582416,-1.0,64.20482006400627,2.072580669804972,
2023-08-17 17:21:39.190000,-5.746987951807229,1.1686746987951808,-8.349397590361447,1.2188841201716738,-5.494175352544451,-8.105456774984672,2.0,2.0710622710622713,482.8440042447824,7.1655497931355985,43.69279179534992,37.48744245673329,1435.164835164835,-1.0,64.20482006400627,2.0725741694600703,
2023-08-17 17:21:39.198000,-5.337349397590362,0.7710843373493976,-8.44578313253012,0.7381974248927038,-5.275904353157571,-8.161863887185776,2.0,2.0710622710622713,482.8440042447824,8.570129945807354,43.96760095565526,45.3347707010081,1432.2344322344322,-1.0,64.20482006400627,2.072567800893734,
2023-08-17 17:21:39.206000,-5.216867469879518,0.6144578313253012,-8.602409638554217,0.615573267933783,-4.854077253218884,-8.252605763335376,2.0,2.0710622710622713,482.8440042447824,11.089213915273003,38.79202843657129,56.266068410931766,1432.2344322344322,-1.0,64.20482006400627,2.0725615592218554,
2023-08-17 17:21:39.213000,-5.0843373493975905,0.5783132530120483,-8.783132530120483,0.6376456161863887,-4.62844880441447,-8.421827099938687,2.0,2.0710622710622713,482.8440042447824,16.783870403822622,32.898898665578926,57.395839403298176,1432.9670329670328,-1.0,64.20482006400627,2.0725554387110066,
2023-08-17 17:21:39.221000,-4.9156626506024095,0.6024096385542169,-8.93975903614458,0.6842427958307786,-4.375843041079093,-8.721030042918455,2.0,2.0710622710622713,482.8440042447824,19.715168113746287,26.47141774954839,55.029427189557715,1431.5018315018315,-1.0,64.20482006400627,2.0725494328655665,
2023-08-17 17:21:39.229000,-4.72289156626506,0.6265060240963856,-9.10843373493976,0.7210300429184548,-4.2335990190067445,-9.044757817290005,2.0,2.0710622710622713,482.8440042447824,19.36402307557835,15.265310879319385,52.83095390711497,1429.3040293040292,-1.0,64.20482006400627,2.0725435349359516,
2023-08-17 17:21:39.236000,-4.421686746987952,0.7228915662650602,-9.457831325301205,0.745554874310239,-4.000613120784794,-9.19435928877989,2.0,2.0710622710622713,482.8440042447824,19.684633762601248,3.417982635044576,53.36530505215314,1424.1758241758241,-1.0,64.20482006400627,2.0725377379347187,
2023-08-17 17:21:39.244000,-4.132530120481928,0.7590361445783133,-9.710843373493976,0.8755364806866952,-3.8166768853464133,-9.326793378295523,2.0,2.06959706959707,483.18584070796453,25.79150399160888,-7.391177670298935,56.35767146436688,1420.5128205128203,-1.0,64.20482006400627,2.0725320351110423,
2023-08-17 17:21:39.251000,-3.9036144578313254,0.8433734939759037,-9.963855421686748,0.9098712446351931,-3.3678724708767627,-9.62844880441447,2.0,2.0710622710622713,482.8440042447824,33.11974826641804,-15.498047899306568,58.73935085367985,1416.117216117216,-1.0,64.20482006400627,2.072526418949947,
2023-08-17 17:21:39.259000,-3.7831325301204823,0.8433734939759037,-10.120481927710843,0.9515634580012262,-3.2869405272838748,-9.959534028203555,2.0,2.0710622710622713,482.8440042447824,34.95180933512033,-19.864460113047027,57.64011421245848,1410.2564102564102,-1.0,64.20482006400627,2.072520881646961,
2023-08-17 17:21:39.267000,-3.7228915662650603,0.8072289156626506,-10.301204819277109,0.9098712446351931,-3.166768853464132,-10.03065603923973,2.0,2.0710622710622713,482.8440042447824,35.1655497931356,-19.83392576190199,55.99125925062642,1405.128205128205,-1.0,64.20482006400627,2.072515415617233,
2023-08-17 17:21:39.274000,-3.6144578313253013,0.7951807228915663,-10.144578313253012,0.8436541998773758,-3.1446965052115265,-9.90803188228081,2.0,2.0710622710622713,482.8440042447824,35.1655497931356,-19.83392576190199,55.99125925062642,1398.5347985347985,-1.0,64.20482006400627,2.0725100130911485,
2023-08-17 17:21:39.282000,-3.5060240963855422,0.819277108433735,-9.759036144578314,0.9589209074187615,-3.0613120784794603,-9.508277130594726,2.0,2.0710622710622713,482.8440042447824,34.98234368626537,-15.727055532894356,55.594312685740924,1393.4065934065934,-1.0,64.20482006400627,2.0725046660982085,
2023-08-17 17:21:39.290000,-3.4698795180722892,0.8433734939759037,-9.313253012048193,0.8338442673206621,-2.977927651747394,-9.010423053341508,2.0,2.0710622710622713,482.8440042447824,32.79913757939514,-10.185070800069926,57.13629741856535,1391.2087912087911,-1.0,64.20482006400627,2.072499366062431,
2023-08-17 17:21:39.297000,-3.5060240963855422,0.746987951807229,-9.024096385542169,0.8093194359288779,-2.9337829552421826,-8.777437155119559,2.0,2.0710622710622713,482.8440042447824,26.70753452596003,-5.620185303886721,55.74698444146611,1389.0109890109889,-1.0,64.20482006400627,2.0724941043110725,
2023-08-17 17:21:39.305000,-3.493975903614458,0.674698795180723,-8.963855421686748,0.7602697731453096,-2.977927651747394,-8.83874923359902,2.0,2.0710622710622713,482.8440042447824,22.570129945807356,-2.7194219451080954,51.54851115902336,1390.4761904761904,-1.0,64.20482006400627,2.072488872090803,
2023-08-17 17:21:39.313000,-3.4096385542168677,0.7228915662650602,-9.072289156626507,0.8583690987124463,-2.8209687308399753,-8.81912936848559,2.0,2.0710622710622713,482.8440042447824,20.615931472524913,-0.3835440825126757,46.98362566284016,1393.4065934065934,-1.0,64.20482006400627,2.072483660584002,
2023-08-17 17:21:39.320000,-3.216867469879518,0.7710843373493976,-9.036144578313253,0.8117719190680563,-2.465358675659105,-8.615573267933783,2.0,2.0710622710622713,482.8440042447824,20.66173299924247,-2.108734922207332,42.35767146436688,1397.069597069597,-1.0,64.20482006400627,2.0724784609251166,
2023-08-17 17:21:39.328000,-2.8313253012048194,0.8433734939759037,-8.710843373493976,0.9785407725321887,-2.0606989576946657,-8.215818516247701,2.0,2.0710622710622713,482.8440042447824,22.570129945807356,-4.765223471825653,34.23553405978672,1401.4652014652013,-1.0,64.20482006400627,2.072473264674979,
2023-08-17 17:21:39.336000,-2.3855421686746987,1.036144578313253,-8.421686746987952,1.2164316370324952,-1.6781115879828326,-7.916615573267934,2.0,2.0725274725274727,482.5026511134676,26.218984907639417,-5.436979197016492,25.304236349863057,1405.128205128205,-1.0,64.20482006400627,2.072468063312134,
2023-08-17 17:21:39.343000,-1.8795180722891567,1.3373493975903614,-8.409638554216867,1.567136725935009,-1.2244022072348253,-7.784181483752299,2.0,2.0710622710622713,482.8440042447824,30.60066429695239,-3.6049181283142024,18.678282151389777,1404.3956043956043,-1.0,64.20482006400627,2.0724628483208534,
2023-08-17 17:21:39.351000,-1.4698795180722892,1.7228915662650603,-8.566265060240964,2.060085836909871,-0.7633353770692826,-7.987737584304107,2.0,2.0710622710622713,482.8440042447824,40.28005360992949,-2.0782005710622937,13.991259250626419,1400.7326007326005,-1.0,64.20482006400627,2.072457611737011,
2023-08-17 17:21:39.359000,-1.0963855421686748,2.1204819277108435,-8.855421686746988,2.31023911710607,-0.5107296137339056,-8.35561005518087,2.0,2.0710622710622713,482.8440042447824,53.13501544199056,-0.032399044344736755,11.288969174290541,1394.8717948717947,-1.0,64.20482006400627,2.0724523455720973,
2023-08-17 17:21:39.366000,-0.8795180722891567,2.4698795180722892,-9.228915662650603,2.7148988350705086,-0.272838749233599,-8.851011649294911,2.0,2.0710622710622713,482.8440042447824,65.11974826641804,2.0134024823728205,10.174465357496649,1387.5457875457876,-1.0,64.20482006400627,2.072447041799039,
2023-08-17 17:21:39.374000,-0.783132530120482,2.855421686746988,-9.626506024096386,3.0901287553648067,-0.30226854690374,-9.39301042305334,2.0,2.0710622710622713,482.8440042447824,72.78387040382262,4.043936833517859,10.189732533069167,1384.6153846153845,-1.0,64.20482006400627,2.0724416919141904,
2023-08-17 17:21:39.382000,-0.9518072289156627,3.289156626506024,-10.132530120481928,3.6296750459840585,-0.3832004904966278,-10.199877375843041,2.0,2.0710622710622713,482.8440042447824,76.29532078550201,-2.5514830138103854,9.411106578870694,1383.150183150183,-1.0,64.20482006400627,2.0724362870236925,
2023-08-17 17:21:39.389000,-1.313253012048193,3.6506024096385543,-10.855421686746988,3.8332311465358675,-0.7731453096259963,-11.03862660944206,2.0,2.0725274725274727,482.5026511134676,73.24188567099819,-8.826292174115729,5.182098945282908,1380.2197802197802,-1.0,64.20482006400627,2.0724308183501434,
2023-08-17 17:21:39.397000,-2.0120481927710845,3.8313253012048194,-11.373493975903616,3.936235438381361,-1.4598405885959533,-11.948497854077253,2.0,2.0725274725274727,482.5026511134676,64.67700017481499,-5.894994464192065,0.006526426198938558,1379.4871794871794,-1.0,64.20482006400627,2.072425277739167,
2023-08-17 17:21:39.405000,-2.9759036144578315,3.734939759036145,-11.759036144578314,3.776824034334764,-2.3500919681177193,-12.429184549356222,2.0,2.0725274725274727,482.5026511134676,44.98234368626537,8.639356680846102,-8.909504108152206,1379.4871794871794,-1.0,64.20482006400627,2.0724196577453182,
2023-08-17 17:21:39.412000,-3.8192771084337354,3.313253012048193,-11.674698795180724,3.2372777437155116,-3.1275291232372777,-12.284488044144696,2.0,2.0725274725274727,482.5026511134676,16.64646582366995,25.96760095565526,-21.52019113105297,1380.2197802197802,-1.0,64.20482006400627,2.0724139511934028,
2023-08-17 17:21:39.420000,-4.385542168674699,2.5421686746987953,-11.168674698795181,2.430410790925812,-3.7676272225628447,-11.629675045984058,2.0,2.0725274725274727,482.5026511134676,-13.53674028320028,41.64699026863236,-36.51255754326671,1378.021978021978,-1.0,64.20482006400627,2.0724081516559623,
2023-08-17 17:21:39.428000,-4.710843373493976,1.5421686746987953,-10.566265060240964,1.3047210300429184,-4.211526670754139,-10.565297363580624,2.0,2.0710622710622713,482.8440042447824,-39.64361051220791,44.6393566808461,-47.56599265777052,1376.5567765567764,-1.0,64.20482006400627,2.0724022529482276,
2023-08-17 17:21:39.435000,-4.903614457831326,0.4819277108433735,-9.891566265060241,0.17167381974248927,-4.657878602084611,-9.67259350091968,2.0,2.0710622710622713,482.8440042447824,-56.68177845113921,31.00576889458656,-52.55835906998426,1375.091575091575,-1.0,64.20482006400627,2.072396248692658,
2023-08-17 17:21:39.443000,-5.0120481927710845,-0.5662650602409639,-9.240963855421688,-0.9368485591661557,-4.876149601471489,-8.83874923359902,2.0,2.0710622710622713,482.8440042447824,-64.22376318396364,6.914165841151446,-49.03164151273236,1371.4285714285713,-1.0,64.20482006400627,2.0723901322344536,
2023-08-17 17:21:39.451000,-5.19277108433735,-1.3975903614457832,-8.72289156626506,-1.5229920294297976,-5.133660331085223,-8.264868179031268,2.0,2.0710622710622713,482.8440042447824,-66.20849600839111,-17.772857059611912,-43.672862886778155,1367.032967032967,-1.0,64.20482006400627,2.072383897151045,
2023-08-17 17:21:39.458000,-5.457831325301205,-1.963855421686747,-8.349397590361447,-2.128755364806867,-5.219497240956468,-7.76701410177805,2.0,2.0725274725274727,482.5026511134676,-62.895518909154475,-39.42171202144397,-38.039275100518616,1364.8351648351647,-1.0,64.20482006400627,2.0723775376913607,
2023-08-17 17:21:39.466000,-5.63855421686747,-2.36144578313253,-7.903614457831326,-2.499080318822808,-5.244022072348252,-7.205395462906192,2.0,2.0710622710622713,482.8440042447824,-56.91078608472699,-55.74232270846687,-37.06217586387739,1364.8351648351647,-1.0,64.20482006400627,2.0723710487935425,
2023-08-17 17:21:39.474000,-5.602409638554217,-2.5903614457831328,-7.746987951807229,-2.71244635193133,-4.991416309012875,-7.0778663396689145,2.0,2.0710622710622713,482.8440042447824,-44.10162577938348,-62.398811258085196,-41.352252199755256,1367.7655677655678,-1.0,64.20482006400627,2.0723644252232076,
2023-08-17 17:21:39.481000,-5.385542168674699,-2.807228915662651,-7.927710843373494,-2.9258123850398525,-4.606376456161864,-7.281422440220723,2.0,2.0710622710622713,482.8440042447824,-26.605442573276612,-58.33774255579512,-50.46675601654915,1367.032967032967,-1.0,64.20482006400627,2.0723576615895807,
2023-08-17 17:21:39.489000,-5.373493975903615,-2.6867469879518073,-8.674698795180724,-2.6462293071735132,-4.721643163703249,-8.267320662170446,2.0,2.0710622710622713,482.8440042447824,-10.651244099994171,-61.19270438785619,-63.61179418448808,1364.8351648351647,-1.0,64.20482006400627,2.072350752781554,
2023-08-17 17:21:39.497000,-5.746987951807229,-2.253012048192771,-9.132530120481928,-2.040465971796444,-5.506437768240343,-8.598405885959533,2.0,2.0710622710622713,482.8440042447824,1.3334887244333082,-64.33774255579512,-71.67286288677816,1360.4395604395604,-1.0,64.20482006400627,2.0723436930988064,
2023-08-17 17:21:39.504000,-6.72289156626506,-1.3734939759036144,-8.325301204819278,-1.0766400980993256,-6.926425505824647,-7.764561618638871,2.0,2.0710622710622713,482.8440042447824,9.913641396189034,-41.711788357321836,-71.81026746693082,1354.5787545787546,-1.0,64.20482006400627,2.072336477736354,
2023-08-17 17:21:39.512000,-8.265060240963855,-1.1325301204819278,-7.662650602409639,-1.1771919068056407,-8.366033108522378,-7.632127529123236,2.0,2.0710622710622713,482.8440042447824,11.287687197715751,-2.3682769069401566,-72.00874074937357,1347.2527472527472,-1.0,64.20482006400627,2.072329103604608,
2023-08-17 17:21:39.520000,-9.204819277108435,-1.8192771084337351,-6.963855421686747,-2.0502759043531573,-9.374003678724709,-7.215205395462906,2.0,2.0710622710622713,482.8440042447824,-6.116892954956004,2.1050055358079347,-71.47438960433541,1344.3223443223442,-1.0,64.20482006400627,2.0723215678315583,
2023-08-17 17:21:39.527000,-9.44578313253012,-2.8313253012048194,-6.674698795180723,-3.173513182096873,-9.641324340895157,-6.670754138565297,2.0,2.0710622710622713,482.8440042447824,-30.162694481673558,-25.375910494726416,-62.863702581434644,1344.3223443223442,-1.0,64.20482006400627,2.072313867353045,
2023-08-17 17:21:39.535000,-9.084337349397591,-3.626506024096386,-7.2048192771084345,-3.8994481912936845,-9.141017780502759,-6.695278969957081,2.0,2.0710622710622713,482.8440042447824,-28.758114329001803,-48.24613950236,-48.25301555853388,1345.7875457875457,-1.0,64.20482006400627,2.0723059989570114,
2023-08-17 17:21:39.543000,-8.313253012048193,-4.301204819277109,-7.421686746987953,-4.524831391784181,-8.03740036787247,-6.629061925199264,2.0,2.0710622710622713,482.8440042447824,-7.475671580910203,-56.33774255579512,-38.61942777227434,1348.7179487179487,-1.0,64.20482006400627,2.072297959358918,
2023-08-17 17:21:39.550000,-7.397590361445784,-4.63855421686747,-7.1325301204819285,-4.767627222562845,-6.806253832004905,-6.398528510116493,2.0,2.0710622710622713,482.8440042447824,-7.475671580910203,-56.33774255579512,-38.61942777227434,1353.113553113553,-1.0,64.20482006400627,2.07228974569699,
2023-08-17 17:21:39.558000,-6.397590361445784,-4.481927710843374,-6.975903614457832,-4.41937461679951,-5.788473329245861,-6.553034947884733,2.0,2.0710622710622713,482.8440042447824,11.211351319853156,-59.97133034205466,-38.52782471883923,1358.2417582417581,-1.0,64.20482006400627,2.072281355534146,
2023-08-17 17:21:39.566000,-5.518072289156627,-3.891566265060241,-7.216867469879518,-3.6983445738810543,-5.148375229920294,-7.080318822808093,2.0,2.0710622710622713,482.8440042447824,20.79913757939514,-58.42934560923023,-41.230114795175105,1361.904761904762,-1.0,64.20482006400627,2.072272787317195,
2023-08-17 17:21:39.573000,-5.048192771084338,-3.2650602409638556,-7.493975903614459,-3.0950337216431634,-5.0478234212139785,-7.445738810545677,2.0,2.0710622710622713,482.8440042447824,22.49379406794476,-47.83392576190199,-39.77973311578579,1366.3003663003662,-1.0,64.20482006400627,2.072264040310275,
2023-08-17 17:21:39.581000,-5.072289156626506,-2.819277108433735,-7.83132530120482,-2.7271612507664007,-5.364193746167995,-7.8749233599019,2.0,2.0725274725274727,482.5026511134676,18.524328419089798,-31.956063166482142,-28.329351436396482,1373.6263736263736,-1.0,64.20482006400627,2.0722551141065693,
2023-08-17 17:21:39.589000,-5.879518072289157,-2.5542168674698797,-8.024096385542169,-2.540772532188841,-6.175965665236051,-8.073574494175352,2.0,2.0710622710622713,482.8440042447824,11.257152846570712,-15.29957461686382,-11.932404871510984,1382.4175824175823,-1.0,64.20482006400627,2.0722460086662537,
2023-08-17 17:21:39.596000,-7.072289156626506,-2.4939759036144578,-7.891566265060241,-2.5015328019619862,-7.470876762722256,-7.747394236664623,2.0,2.0725274725274727,482.5026511134676,4.524328419089796,3.1584406503117517,1.4569081055882516,1389.0109890109889,-1.0,64.20482006400627,2.0722367239651556,
2023-08-17 17:21:39.604000,-8.060240963855422,-2.5542168674698797,-7.626506024096386,-2.6143470263641935,-8.182096873083998,-7.330472103004292,2.0,2.0710622710622713,482.8440042447824,-2.3153662373987527,18.792028436571293,11.182098945282908,1393.4065934065934,-1.0,64.20482006400627,2.072227260451992,
2023-08-17 17:21:39.612000,-8.325301204819278,-2.5301204819277108,-7.506024096385542,-2.5456774984671977,-8.233599019006745,-7.009196811771918,2.0,2.0710622710622713,482.8440042447824,-4.0558242526659285,23.891265077792664,18.052327952916492,1398.5347985347985,-1.0,64.20482006400627,2.0722176195400595,
2023-08-17 17:21:39.619000,-7.91566265060241,-2.27710843373494,-7.590361445783133,-2.212139791538933,-7.728387492335989,-7.1661557326793375,2.0,2.0725274725274727,482.5026511134676,1.3182215488607891,17.875997902220146,25.10576306742031,1400.0,-1.0,64.20482006400627,2.0722078025534896,
2023-08-17 17:21:39.627000,-7.024096385542169,-1.963855421686747,-7.686746987951808,-1.9031269160024524,-6.610055180870631,-7.315757204169221,2.0,2.0725274725274727,482.5026511134676,9.45562612901346,4.669891031991141,31.945457723908863,1400.0,-1.0,64.20482006400627,2.0721978117104696,
2023-08-17 17:21:39.634000,-6.024096385542169,-1.602409638554217,-7.867469879518072,-1.5009196811771919,-5.597179644389945,-7.489883507050888,2.0,2.0725274725274727,482.5026511134676,16.524328419089798,-6.001864693199698,37.85385467047375,1397.8021978021977,-1.0,64.20482006400627,2.0721876506155645,
2023-08-17 17:21:39.642000,-5.1807228915662655,-1.1204819277108435,-8.096385542168676,-0.9711833231146535,-4.650521152667075,-7.81361128142244,2.0,2.0725274725274727,482.5026511134676,22.112114678631784,-13.81865858632947,41.50270963230581,1399.2673992673992,-1.0,64.20482006400627,2.072177322855316,
2023-08-17 17:21:39.650000,-4.63855421686747,-0.6024096385542169,-8.44578313253012,-0.43408951563458,-4.304721030042918,-8.313917841814837,2.0,2.0710622710622713,482.8440042447824,25.409824602295906,-16.246139502360005,43.411106578870694,1399.2673992673992,-1.0,64.20482006400627,2.0721668320689037,
2023-08-17 17:21:39.657000,-4.493975903614458,-0.07228915662650603,-8.987951807228916,0.09074187614960147,-4.189454322501533,-8.988350705088902,2.0,2.0710622710622713,482.8440042447824,26.112114678631784,-8.734689120680613,46.708816502534816,1401.4652014652013,-1.0,64.20482006400627,2.0721561828624067,
2023-08-17 17:21:39.665000,-4.674698795180723,0.39759036144578314,-9.457831325301205,0.5370938074800735,-4.429797670141017,-9.412630288166769,2.0,2.0725274725274727,482.5026511134676,26.29532078550201,3.02103607015908,50.037060777343974,1400.0,-1.0,64.20482006400627,2.0721453801427328,
2023-08-17 17:21:39.673000,-5.0120481927710845,0.7590361445783133,-9.481927710843374,0.9417535254445125,-4.753525444512569,-9.366033108522378,2.0,2.0725274725274727,482.5026511134676,25.241885670998194,10.242410115960606,54.20499970864169,1397.8021978021977,-1.0,64.20482006400627,2.0721344291515993,
2023-08-17 17:21:39.680000,-5.325301204819278,1.0843373493975905,-8.927710843373495,1.2434089515634579,-4.952176578786021,-8.74310239117106,2.0,2.0710622710622713,482.8440042447824,20.35638948779209,12.82256278771633,54.09812947963405,1397.069597069597,-1.0,64.20482006400627,2.072123336025625,
2023-08-17 17:21:39.688000,-5.590361445783133,1.2289156626506024,-8.397590361445783,1.2949110974862048,-5.0919681177191904,-8.07602697731453,2.0,2.0725274725274727,482.5026511134676,14.417458190082163,12.654623856418622,49.86912184604627,1398.5347985347985,-1.0,64.20482006400627,2.0721121068452892,
2023-08-17 17:21:39.696000,-5.602409638554217,1.1686746987951808,-8.180722891566266,1.2017167381974247,-5.141017780502759,-7.865113427345187,2.0,2.0710622710622713,482.8440042447824,11.4861604801585,9.143173474739232,43.48744245673329,1399.2673992673992,-1.0,64.20482006400627,2.0721007480541735,
2023-08-17 17:21:39.703000,-5.421686746987952,0.963855421686747,-8.265060240963855,0.9711833231146535,-5.096873083997547,-7.958307786633966,2.0,2.0710622710622713,482.8440042447824,10.432725365654681,0.7462269098537365,40.953091311695125,1399.2673992673992,-1.0,64.20482006400627,2.0720892664888155,
2023-08-17 17:21:39.711000,-5.1084337349397595,0.7228915662650602,-8.373493975903616,0.7553648068669527,-4.675045984058859,-8.164316370324954,2.0,2.0710622710622713,482.8440042447824,10.921274983975293,-11.055299807703515,42.540877571237104,1400.0,-1.0,64.20482006400627,2.0720776683874096,
2023-08-17 17:21:39.719000,-4.855421686746988,0.46987951807228917,-8.493975903614459,0.46106683016554256,-4.346413243408952,-8.282035561005518,2.0,2.0710622710622713,482.8440042447824,11.501427655731018,-19.87972728861955,43.31950352543558,1400.7326007326005,-1.0,64.20482006400627,2.0720659603631453,
2023-08-17 17:21:39.726000,-4.72289156626506,0.18072289156626506,-8.530120481927712,0.16922133660331085,-4.128142244022072,-8.434089515634579,2.0,2.0710622710622713,482.8440042447824,9.776236816036361,-22.948429578695883,39.68591573917604,1403.6630036630036,-1.0,64.20482006400627,2.0720541498142477,
2023-08-17 17:21:39.734000,-4.807228915662651,-0.12048192771084337,-8.566265060240964,-0.21336603310852237,-4.206621704475782,-8.49540159411404,2.0,2.0725274725274727,482.5026511134676,4.234252083211934,-20.200337975642448,32.17446535749665,1401.4652014652013,-1.0,64.20482006400627,2.0720422444195274,
2023-08-17 17:21:39.742000,-4.9879518072289155,-0.42168674698795183,-8.578313253012048,-0.5174739423666462,-4.542611894543224,-8.434089515634579,2.0,2.0710622710622713,482.8440042447824,-1.3688013519025695,-12.017131868772218,23.44164093001573,1402.197802197802,-1.0,64.20482006400627,2.0720302526178993,
2023-08-17 17:21:39.749000,-5.253012048192772,-0.6626506024096386,-8.44578313253012,-0.6204782342121398,-4.93746167995095,-8.132434089515634,2.0,2.0710622710622713,482.8440042447824,-4.391702115261348,-1.6507196550317595,17.579045510168402,1401.4652014652013,-1.0,64.20482006400627,2.0720181827155484,
2023-08-17 17:21:39.757000,-5.530120481927711,-0.7710843373493976,-8.156626506024097,-0.7161250766400981,-5.197424892703863,-7.843041079092581,2.0,2.0710622710622713,482.8440042447824,-4.956587611444554,8.715692558708698,15.15156459413787,1397.069597069597,-1.0,64.20482006400627,2.0720060428707736,
2023-08-17 17:21:39.765000,-5.795180722891566,-0.8072289156626506,-7.867469879518072,-0.7725321888412017,-5.523605150214592,-7.494788473329246,2.0,2.0710622710622713,482.8440042447824,-3.9489540236582945,15.83019637550259,14.052327952916496,1393.4065934065934,-1.0,64.20482006400627,2.0719938414986507,
2023-08-17 17:21:39.772000,-6.024096385542169,-0.7228915662650602,-7.710843373493976,-0.627835683629675,-5.7516860821581846,-7.362354383813611,2.0,2.0710622710622713,482.8440042447824,-1.2924654740399741,18.944700192296484,11.334770701008098,1391.2087912087911,-1.0,64.20482006400627,2.071981587286426,
2023-08-17 17:21:39.780000,-6.1084337349397595,-0.5783132530120483,-7.614457831325302,-0.43899448191293683,-5.717351318209687,-7.310852237890864,2.0,2.0710622710622713,482.8440042447824,1.425091777868423,19.204242177029307,7.31950352543558,1396.3369963369962,-1.0,64.20482006400627,2.0719692895963533,
2023-08-17 17:21:39.788000,-6.024096385542169,-0.44578313253012053,-7.55421686746988,-0.39239730226854685,-5.611894543225015,-7.293684855916615,2.0,2.0725274725274727,482.5026511134676,2.005244449624148,17.143173474739232,2.3424042887943584,1403.6630036630036,-1.0,64.20482006400627,2.07195695795421,
2023-08-17 17:21:39.795000,-5.783132530120482,-0.28915662650602414,-7.578313253012048,-0.23789086450030655,-5.3862660944206,-7.372164316370324,2.0,2.0710622710622713,482.8440042447824,1.837305518326438,13.952333780082744,-0.19194685624380953,1414.6520146520145,-1.0,64.20482006400627,2.071944602522029,
2023-08-17 17:21:39.803000,-5.506024096385542,-0.13253012048192772,-7.807228915662651,-0.04904966278356836,-5.148375229920294,-7.568362967504598,2.0,2.06959706959707,483.18584070796453,1.8831070450439953,11.769127673212514,-0.19194685624380953,1425.6410256410256,-1.0,64.20482006400627,2.071932233656585,
2023-08-17 17:21:39.811000,-5.349397590361446,-0.024096385542168676,-8.036144578313253,0.09319435928877988,-4.9668914776210915,-7.823421213979153,2.0,2.0710622710622713,482.8440042447824,3.119748266418041,12.059204009090378,0.28133558650428203,1434.4322344322343,-1.0,64.20482006400627,2.0719198613280643,
2023-08-17 17:21:39.818000,-5.265060240963856,0.04819277108433735,-8.132530120481928,0.09074187614960147,-4.912936848559166,-7.843041079092581,2.0,2.0710622710622713,482.8440042447824,3.7762368160363615,15.463784161762133,0.49507604451954923,1443.2234432234432,-1.0,64.20482006400627,2.0719074954508816,
2023-08-17 17:21:39.826000,-5.265060240963856,0.0963855421686747,-8.120481927710843,0.25015328019619865,-4.881054567749846,-7.887185775597793,2.0,2.0710622710622713,482.8440042447824,3.822038342753919,19.188975001456786,-0.5125575432667103,1452.014652014652,-1.0,64.20482006400627,2.0718951459637327,
2023-08-17 17:21:39.834000,-5.301204819277109,0.1566265060240964,-8.096385542168676,0.23789086450030655,-4.935009196811771,-7.9362354383813605,2.0,2.0710622710622713,482.8440042447824,3.822038342753919,19.188975001456786,-0.5125575432667103,1459.3406593406592,-1.0,64.20482006400627,2.071882822838954,
2023-08-17 17:21:39.841000,-5.409638554216868,0.18072289156626506,-8.084337349397591,0.2844880441446965,-5.0919681177191904,-7.8749233599019,2.0,2.0710622710622713,482.8440042447824,3.318221548860789,21.64699026863236,-1.5965270089155652,1465.201465201465,-1.0,64.20482006400627,2.07187053605635,
2023-08-17 17:21:39.849000,-5.590361445783133,0.20481927710843376,-8.108433734939759,0.3237277743715512,-5.251379521765788,-7.867565910484365,2.0,2.0710622710622713,482.8440042447824,3.486160480158499,22.028669657945336,-2.085076627236176,1468.8644688644688,-1.0,64.20482006400627,2.0718582955763627,
2023-08-17 17:21:39.857000,-5.759036144578314,0.22891566265060243,-8.036144578313253,0.30901287553648066,-5.528510116492948,-7.75229920294298,2.0,2.0710622710622713,482.8440042447824,4.218984907639415,21.021036070159077,-0.9553056348697637,1471.7948717948716,-1.0,64.20482006400627,2.071846111312709,
2023-08-17 17:21:39.864000,-5.963855421686747,0.14457831325301207,-7.963855421686747,0.18638871857755976,-5.7148988350705086,-7.75229920294298,2.0,2.0710622710622713,482.8440042447824,3.867839869471476,20.66989103199114,-0.10034380280869502,1474.7252747252746,-1.0,64.20482006400627,2.071833993104571,
2023-08-17 17:21:39.872000,-6.0843373493975905,0.0,-8.048192771084338,0.002452483139178418,-5.7737584304107905,-7.8479460453709375,2.0,2.0725274725274727,482.5026511134676,2.7075345259600256,18.80729561214381,1.0752287162752745,1476.923076923077,-1.0,64.20482006400627,2.071821950688478,
2023-08-17 17:21:39.880000,-6.0361445783132535,-0.21686746987951808,-8.19277108433735,-0.15941140404659718,-5.705088902513795,-7.9288779889638255,2.0,2.0710622710622713,482.8440042447824,1.1655497931355985,13.34164675718198,2.0370607773439766,1480.5860805860805,911.529541015625,65.8234289731829,2.071809994162641,
2023-08-17 17:21:39.887000,-5.783132530120482,-0.43373493975903615,-8.289156626506024,-0.463519313304721,-5.435315757204169,-7.960760269773145,2.0,2.0710622710622713,482.8440042447824,0.9212749839752931,5.662257444204881,2.2966027620768013,1484.2490842490843,-1.0,65.8234289731829,2.071798133538065,
2023-08-17 17:21:39.895000,-5.445783132530121,-0.674698795180723,-8.361445783132531,-0.6744328632740649,-5.050275904353157,-8.068669527896995,2.0,2.0725274725274727,482.5026511134676,2.2342520832119344,-2.5820173649554237,2.5408775712371066,1490.10989010989,-1.0,65.8234289731829,2.0717863781856702,
2023-08-17 17:21:39.903000,-5.120481927710844,-0.8674698795180723,-8.421686746987952,-0.8191293684855916,-4.6922133660331085,-8.142244022072347,2.0,2.0725274725274727,482.5026511134676,3.9136413961890333,-8.47514713594779,4.052327952916496,1495.2380952380952,-1.0,65.8234289731829,2.0717747377592417,
2023-08-17 17:21:39.910000,-4.819277108433735,-0.9759036144578314,-8.506024096385543,-0.9515634580012262,-4.419987737584304,-8.193746167995094,2.0,2.0710622710622713,482.8440042447824,5.15028261756308,-11.498047899306568,5.472175281160771,1498.9010989010987,-1.0,65.8234289731829,2.0717632222402735,
2023-08-17 17:21:39.918000,-4.63855421686747,-0.9879518072289157,-8.55421686746988,-0.9466584917228693,-4.253218884120171,-8.365419987737583,2.0,2.0710622710622713,482.8440042447824,5.62356506031117,-11.040032632130997,6.14393100635161,1501.8315018315018,-1.0,65.8234289731829,2.071751840966038,
2023-08-17 17:21:39.926000,-4.590361445783133,-0.8795180722891567,-8.72289156626506,-0.8362967504598405,-4.184549356223176,-8.399754751686082,2.0,2.0710622710622713,482.8440042447824,6.997610861837888,-8.047666219917256,4.892022609405045,1502.5641025641025,-1.0,65.8234289731829,2.0717406025371217,
2023-08-17 17:21:39.933000,-4.710843373493976,-0.6987951807228916,-8.698795180722891,-0.6351931330472103,-4.2998160637645615,-8.473329245861434,2.0,2.0710622710622713,482.8440042447824,8.524328419089796,-3.1163685099935914,3.7927859681836713,1501.098901098901,-1.0,65.8234289731829,2.0717295147927817,
2023-08-17 17:21:39.941000,-4.903614457831326,-0.49397590361445787,-8.566265060240964,-0.3948497854077253,-4.510729613733905,-8.338442673206622,2.0,2.0710622710622713,482.8440042447824,8.96707651069285,2.547753627410988,2.3882058155119155,1497.4358974358972,-1.0,65.8234289731829,2.0717185853121083,
2023-08-17 17:21:39.949000,-5.096385542168675,-0.3493975903614458,-8.397590361445783,-0.34334763948497854,-4.802575107296137,-8.103004291845494,2.0,2.0710622710622713,482.8440042447824,7.684633762601247,7.463784161762133,0.8462210826874882,1492.3076923076922,-1.0,65.8234289731829,2.0717078218119753,
2023-08-17 17:21:39.956000,-5.301204819277109,-0.30120481927710846,-8.132530120481928,-0.17903126916002451,-5.023298589822195,-7.8920907418761495,2.0,2.06959706959707,483.18584070796453,5.516694831303537,10.120272711380453,-0.23774838296136677,1486.4468864468863,-1.0,65.8234289731829,2.071697231632722,
2023-08-17 17:21:39.964000,-5.433734939759036,-0.2530120481927711,-7.987951807228916,-0.17412630288166767,-5.136112814224402,-7.73513182096873,2.0,2.0710622710622713,482.8440042447824,3.852572693898957,10.730959734281218,-1.4743896043354126,1477.6556776556777,-1.0,65.8234289731829,2.0716868216826962,
2023-08-17 17:21:39.972000,-5.46987951807229,-0.28915662650602414,-7.91566265060241,-0.24034334763948498,-5.150827713059472,-7.730226854690374,2.0,2.0710622710622713,482.8440042447824,1.425091777868423,11.143173474739232,-2.543091894411748,1471.062271062271,-1.0,65.8234289731829,2.0716765987718966,
2023-08-17 17:21:39.979000,-5.433734939759036,-0.3855421686746988,-8.084337349397591,-0.3163703249540159,-5.158185162477007,-7.855303494788473,2.0,2.0710622710622713,482.8440042447824,-1.109259367169745,11.417982635044575,-0.9247712837247255,1465.201465201465,-1.0,65.8234289731829,2.0716665691717884,
2023-08-17 17:21:39.987000,-5.385542168674699,-0.5662650602409639,-8.204819277108435,-0.5567136725935009,-5.0551808706315144,-8.06131207847946,2.0,2.0710622710622713,482.8440042447824,-0.8039158557193634,11.295845230464423,-0.43622166540411483,1461.5384615384614,-1.0,65.8234289731829,2.0716567382105224,
2023-08-17 17:21:39.995000,-5.253012048192772,-0.6987951807228916,-8.301204819277109,-0.7381974248927038,-4.935009196811771,-8.166768853464133,2.0,2.0710622710622713,482.8440042447824,-1.7504807412155465,9.87599790222015,0.38820581551191563,1457.8754578754579,-1.0,65.8234289731829,2.071647110747864,
2023-08-17 17:21:40.002000,-5.156626506024097,-0.7951807228915663,-8.3855421686747,-0.7529123237277743,-4.792765174739423,-8.196198651134273,2.0,2.0710622710622713,482.8440042447824,-2.8497173824369204,8.211875764815568,1.2889691742905416,1453.4798534798533,-1.0,65.8234289731829,2.0716376911588728,
2023-08-17 17:21:40.010000,-5.0602409638554215,-0.855421686746988,-8.518072289156628,-0.8828939301042305,-4.726548129981606,-8.213366033108523,2.0,2.0710622710622713,482.8440042447824,-2.6512440999941727,7.005768894586561,1.3195035254355798,1448.3516483516482,-1.0,65.8234289731829,2.0716284833191243,
2023-08-17 17:21:40.017000,-4.975903614457832,-0.8674698795180723,-8.566265060240964,-0.8019619865113427,-4.655426118945432,-8.35561005518087,2.0,2.0710622710622713,482.8440042447824,-0.9413204358720351,7.127906299166713,2.2202668842142055,1441.7582417582416,-1.0,65.8234289731829,2.0716194905915346,
2023-08-17 17:21:40.025000,-4.963855421686747,-0.8072289156626506,-8.614457831325302,-0.7946045370938074,-4.601471489883507,-8.389944819129369,2.0,2.0710622710622713,482.8440042447824,-0.28483188625371453,7.448516986189614,2.5103432200920683,1433.6996336996335,-1.0,65.8234289731829,2.0716107158148893,
2023-08-17 17:21:40.033000,-5.0120481927710845,-0.7349397590361446,-8.686746987951807,-0.640098099325567,-4.672593500919681,-8.424279583077865,2.0,2.0710622710622713,482.8440042447824,0.7075345259600259,7.921799428937706,2.464541693374511,1426.3736263736262,-1.0,65.8234289731829,2.0716021612941162,
2023-08-17 17:21:40.040000,-5.0361445783132535,-0.6867469879518072,-8.674698795180724,-0.6106683016554261,-4.75107296137339,-8.426732066217044,2.0,2.0710622710622713,482.8440042447824,0.21898490763941522,8.364547520540759,1.8385874949012286,1424.9084249084249,-1.0,65.8234289731829,2.071593828792403,
2023-08-17 17:21:40.048000,-5.096385542168675,-0.6626506024096386,-8.566265060240964,-0.640098099325567,-4.755977927651747,-8.291845493562231,2.0,2.0725274725274727,482.5026511134676,-1.2008624206048595,7.158440650311752,1.2431676475729843,1427.8388278388277,-1.0,65.8234289731829,2.0715857195251752,
2023-08-17 17:21:40.056000,-5.132530120481928,-0.674698795180723,-8.409638554216867,-0.6327406499080318,-4.871244635193133,-8.110361741263029,2.0,2.0710622710622713,482.8440042447824,-1.5214731076277603,5.891265077792667,1.4721752811607705,1434.4322344322343,-1.0,65.8234289731829,2.071577834190811,
2023-08-17 17:21:40.063000,-5.1807228915662655,-0.674698795180723,-8.240963855421688,-0.6376456161863887,-4.988963825873697,-7.92152053954629,2.0,2.0710622710622713,482.8440042447824,-1.475671580910203,4.9599673678690035,2.6324806246722208,1441.0256410256409,-1.0,65.8234289731829,2.0715701730731686,
2023-08-17 17:21:40.071000,-5.349397590361446,-0.746987951807229,-8.156626506024097,-0.7210300429184548,-5.131207847946045,-7.911710606989576,2.0,2.0710622710622713,482.8440042447824,-1.1397937183147833,5.341646757181981,4.388205815511916,1447.6190476190475,-1.0,65.8234289731829,2.0715627359380906,
2023-08-17 17:21:40.079000,-5.530120481927711,-0.8072289156626506,-8.216867469879519,-0.8019619865113427,-5.3077866339668915,-8.026977314530962,2.0,2.0710622710622713,482.8440042447824,-0.6512440999941725,8.440883398403354,5.563778334595885,1452.014652014652,-1.0,65.8234289731829,2.071555522001759,
2023-08-17 17:21:40.086000,-5.686746987951808,-0.8313253012048193,-8.409638554216867,-0.8068669527896996,-5.46474555487431,-8.206008583690986,2.0,2.0710622710622713,482.8440042447824,-0.30009906182623364,11.234776528174347,5.563778334595885,1457.142857142857,-1.0,65.8234289731829,2.0715485299358405,
2023-08-17 17:21:40.094000,-5.72289156626506,-0.8072289156626506,-8.55421686746988,-0.8166768853464133,-5.45003065603924,-8.372777437155118,2.0,2.0710622710622713,482.8440042447824,0.40219101450964423,12.730959734281218,5.166831769710389,1460.07326007326,-1.0,65.8234289731829,2.0715417578746207,
2023-08-17 17:21:40.102000,-5.686746987951808,-0.7710843373493976,-8.578313253012048,-0.7823421213979154,-5.32495401594114,-8.299202942979766,2.0,2.0710622710622713,482.8440042447824,0.6617329992424686,11.738593322067477,3.8385874949012284,1465.201465201465,-1.0,65.8234289731829,2.071535203424093,
2023-08-17 17:21:40.109000,-5.542168674698796,-0.6987951807228916,-8.55421686746988,-0.6646229307173512,-5.141017780502759,-8.35561005518087,2.0,2.06959706959707,483.18584070796453,0.6617329992424686,11.738593322067477,3.8385874949012284,1465.9340659340658,-1.0,65.8234289731829,2.071528863672976,
2023-08-17 17:21:40.117000,-5.337349397590362,-0.6144578313253012,-8.566265060240964,-0.510116492949111,-4.971796443899448,-8.316370324954015,2.0,2.0710622710622713,482.8440042447824,0.9212749839752931,7.982868131227782,2.5561447468096254,1465.9340659340658,-1.0,65.8234289731829,2.0715227351708316,
2023-08-17 17:21:40.125000,-5.120481927710844,-0.5301204819277109,-8.506024096385543,-0.4537093807480073,-4.731453096259963,-8.24770079705702,2.0,2.0710622710622713,482.8440042447824,1.486160480158499,3.5553872151972477,1.5790455101684042,1468.131868131868,-1.0,65.8234289731829,2.0715168138381523,
2023-08-17 17:21:40.132000,-4.9397590361445785,-0.44578313253012053,-8.46987951807229,-0.4438994481912937,-4.576946658491723,-8.164316370324954,2.0,2.0710622710622713,482.8440042447824,1.5930307091661327,0.7920284365712937,1.8233203193287095,1468.131868131868,-1.0,65.8234289731829,2.071511095086262,
2023-08-17 17:21:40.140000,-4.807228915662651,-0.3493975903614458,-8.46987951807229,-0.2795830778663397,-4.400367872470876,-8.15695892090742,2.0,2.0710622710622713,482.8440042447824,1.7151681137462853,-1.6049181283142024,1.4416409300157325,1466.6666666666665,-1.0,65.8234289731829,2.071505573869093,
2023-08-17 17:21:40.148000,-4.710843373493976,-0.28915662650602414,-8.506024096385543,-0.24279583077866337,-4.324340895156346,-8.296750459840588,2.0,2.0710622710622713,482.8440042447824,2.3258551366470486,-3.925528815337103,1.6401142124584804,1460.8058608058607,-1.0,65.8234289731829,2.07150024470182,
2023-08-17 17:21:40.155000,-4.674698795180723,-0.22891566265060243,-8.542168674698795,-0.2035561005518087,-4.3292458614347025,-8.37032495401594,2.0,2.0725274725274727,482.5026511134676,2.509061243517278,-3.4827807237340496,1.9759920750539004,1455.6776556776556,-1.0,65.8234289731829,2.0714951016811183,
2023-08-17 17:21:40.163000,-4.72289156626506,-0.16867469879518074,-8.614457831325302,-0.0809319435928878,-4.407725321888412,-8.414469650521152,2.0,2.0710622710622713,482.8440042447824,1.822038342753919,-1.5133150748790878,1.7927859681836713,1452.014652014652,-1.0,65.8234289731829,2.071490138999593,
2023-08-17 17:21:40.171000,-4.795180722891566,-0.0963855421686747,-8.602409638554217,0.02452483139178418,-4.505824647455548,-8.414469650521152,2.0,2.0710622710622713,482.8440042447824,0.5548627702348351,0.6240895052735839,1.334770701008099,1449.084249084249,-1.0,65.8234289731829,2.0714853505485182,
2023-08-17 17:21:40.178000,-4.903614457831326,-0.04819277108433735,-8.602409638554217,0.02452483139178418,-4.625996321275291,-8.35561005518087,2.0,2.0710622710622713,482.8440042447824,-0.23903035953615728,1.7080589709224387,1.014160013985198,1446.153846153846,-1.0,65.8234289731829,2.0714807294179054,
2023-08-17 17:21:40.186000,-5.024096385542169,-0.024096385542168676,-8.542168674698795,0.007357449417535254,-4.755977927651747,-8.225628448804414,2.0,2.0710622710622713,482.8440042447824,-0.9718547870170733,2.1508070625254923,0.9530913116951217,1442.4908424908424,-1.0,65.8234289731829,2.0714762683808043,
2023-08-17 17:21:40.194000,-5.19277108433735,-0.024096385542168676,-8.481927710843374,0.03188228080931944,-4.858982219497241,-8.333537706928265,2.0,2.0710622710622713,482.8440042447824,-1.0787250160247068,3.2958452304644235,0.8004195559699309,1439.5604395604394,-1.0,65.8234289731829,2.07147195992086,
2023-08-17 17:21:40.201000,-5.337349397590362,-0.060240963855421686,-8.55421686746988,0.03678724708767627,-5.050275904353157,-8.299202942979766,2.0,2.0710622710622713,482.8440042447824,-1.3688013519025695,3.738593322067477,1.5637783345958851,1438.095238095238,-1.0,65.8234289731829,2.0714677962608787,
2023-08-17 17:21:40.209000,-5.421686746987952,-0.0963855421686747,-8.55421686746988,0.002452483139178418,-5.204782342121398,-8.299202942979766,2.0,2.0710622710622713,482.8440042447824,-2.3306334129712716,3.998135306800301,2.5256103956645872,1438.8278388278388,-1.0,65.8234289731829,2.0714637693922695,
2023-08-17 17:21:40.217000,-5.506024096385542,-0.16867469879518074,-8.530120481927712,-0.07112201103617412,-5.182709993868792,-8.328632740649908,2.0,2.0710622710622713,482.8440042447824,-3.1703280694598215,3.784394848785034,3.380572227725656,1441.7582417582416,-1.0,65.8234289731829,2.071459871105272,
2023-08-17 17:21:40.224000,-5.578313253012048,-0.21686746987951808,-8.530120481927712,-0.18393623543838136,-5.302881667688534,-8.272225628448805,2.0,2.0710622710622713,482.8440042447824,-3.6894120389254703,2.68515820756366,4.266068410931763,1446.8864468864467,-1.0,65.8234289731829,2.071456093019799,
2023-08-17 17:21:40.232000,-5.566265060240964,-0.27710843373493976,-8.433734939759036,-0.269773145309626,-5.253832004904966,-8.147148988350704,2.0,2.0710622710622713,482.8440042447824,-4.758114329001806,2.5935551541285458,4.14393100635161,1453.4798534798533,-1.0,65.8234289731829,2.0714524266167924,
2023-08-17 17:21:40.240000,-5.542168674698796,-0.3493975903614458,-8.397590361445783,-0.3261802575107296,-5.202329858982219,-8.164316370324954,2.0,2.0710622710622713,482.8440042447824,-5.124526542742264,1.6164559174873243,4.021793601771458,1457.8754578754579,-1.0,65.8234289731829,2.0714488632699597,
2023-08-17 17:21:40.247000,-5.46987951807229,-0.39759036144578314,-8.457831325301205,-0.35561005518087063,-5.074800735744941,-8.129981606376456,2.0,2.0710622710622713,482.8440042447824,-4.941320435872035,0.1966085892430495,4.0981294796340535,1460.8058608058607,-1.0,65.8234289731829,2.0714453942777236,
2023-08-17 17:21:40.255000,-5.445783132530121,-0.39759036144578314,-8.506024096385543,-0.3654199877375843,-5.153280196198651,-8.245248313917841,2.0,2.0710622710622713,482.8440042447824,-3.5825418099178363,-1.2995746168638207,4.739350853679855,1459.3406593406592,-1.0,65.8234289731829,2.071442010895295,
2023-08-17 17:21:40.263000,-5.409638554216868,-0.3734939759036145,-8.530120481927712,-0.31882280809319435,-5.126302881667688,-8.228080931943593,2.0,2.06959706959707,483.18584070796453,-2.1016257793834856,-2.4598799603752712,5.640114212458481,1454.9450549450548,-1.0,65.8234289731829,2.071438704366692,
2023-08-17 17:21:40.270000,-5.421686746987952,-0.3373493975903615,-8.433734939759036,-0.30656039239730226,-5.060085836909871,-8.134886572654812,2.0,2.0710622710622713,482.8440042447824,-0.49857234426898167,-3.3148417924363396,6.14393100635161,1448.3516483516482,-1.0,65.8234289731829,2.0714354659217977,
2023-08-17 17:21:40.278000,-5.445783132530121,-0.2530120481927711,-8.373493975903616,-0.1496014714898835,-5.028203556100552,-8.15695892090742,2.0,2.0710622710622713,482.8440042447824,1.2113513198531556,-3.375910494726416,6.128663830779091,1441.0256410256409,-1.0,65.8234289731829,2.071432286703255,
2023-08-17 17:21:40.286000,-5.481927710843374,-0.14457831325301207,-8.409638554216867,-0.07847946045370938,-5.197424892703863,-8.174126302881668,2.0,2.0710622710622713,482.8440042447824,1.425091777868423,-2.688887593963057,5.517976807878328,1431.5018315018315,-1.0,65.8234289731829,2.07142915790094,
2023-08-17 17:21:40.293000,-5.506024096385542,-0.08433734939759037,-8.457831325301205,0.0,-5.192519926425506,-8.24770079705702,2.0,2.0710622710622713,482.8440042447824,1.0128780374104076,-3.192704387856187,5.273701998718023,1424.1758241758241,-1.0,65.8234289731829,2.071426070816021,
2023-08-17 17:21:40.301000,-5.530120481927711,0.0,-8.457831325301205,0.1226241569589209,-5.150827713059472,-8.220723482526058,2.0,2.0710622710622713,482.8440042447824,0.8754734572577358,-4.3835440825126755,5.304236349863061,1418.3150183150183,-1.0,65.8234289731829,2.0714230168895615,
2023-08-17 17:21:40.309000,-5.445783132530121,0.012048192771084338,-8.421686746987952,0.08583690987124463,-5.136112814224402,-8.183936235438381,2.0,2.0710622710622713,482.8440042447824,0.722801701532545,-4.9331624031233625,4.8767554338325265,1415.3846153846152,-1.0,65.8234289731829,2.0714199877303323,
2023-08-17 17:21:40.316000,-5.373493975903615,0.03614457831325302,-8.361445783132531,0.11771919068056406,-4.96934396076027,-8.110361741263029,2.0,2.0710622710622713,482.8440042447824,0.0510459763417053,-4.948429578695881,5.197366120855428,1415.3846153846152,-1.0,65.8234289731829,2.071416975141741,
2023-08-17 17:21:40.324000,-5.301204819277109,0.060240963855421686,-8.289156626506024,0.17412630288166767,-4.898221949724095,-8.017167381974248,2.0,2.0710622710622713,482.8440042447824,-0.6054425732766153,-4.582017364955424,4.937824136122603,1415.3846153846152,-1.0,65.8234289731829,2.071413971147783,
2023-08-17 17:21:40.332000,-5.216867469879518,0.08433734939759037,-8.216867469879519,0.11526670754138564,-4.790312691600245,-7.926425505824647,2.0,2.0710622710622713,482.8440042447824,-0.9871219625895924,-3.543849426024126,4.678282151389778,1417.5824175824175,-1.0,65.8234289731829,2.071410968017898,
2023-08-17 17:21:40.339000,-5.1807228915662655,0.060240963855421686,-8.156626506024097,0.1079092581238504,-4.812385039852851,-7.8405885959534025,2.0,2.0710622710622713,482.8440042447824,-1.2008624206048595,-3.742322708466874,4.037060777343977,1419.7802197802198,-1.0,65.8234289731829,2.0714079582906724,
2023-08-17 17:21:40.347000,-5.132530120481928,0.060240963855421686,-8.096385542168676,0.1103617412630288,-4.746167995095034,-7.781729000613121,2.0,2.0710622710622713,482.8440042447824,0.18845055649437706,-2.8873608764058054,3.1210302429928314,1420.5128205128203,-1.0,65.8234289731829,2.071404934796262,
2023-08-17 17:21:40.355000,-5.0843373493975905,0.10843373493975904,-8.168674698795181,0.20110361741263028,-4.748620478234212,-7.865113427345187,2.0,2.0710622710622713,482.8440042447824,0.7380688771050641,-1.375910494726416,3.6248470368859613,1419.047619047619,-1.0,65.8234289731829,2.0714018906775062,
2023-08-17 17:21:40.362000,-5.072289156626506,0.16867469879518074,-8.216867469879519,0.2844880441446965,-4.7363580625383195,-7.931330472103004,2.0,2.0710622710622713,482.8440042447824,2.2953207855020104,0.34928034496824034,3.762251617038633,1417.5824175824175,-1.0,65.8234289731829,2.071398819409616,
2023-08-17 17:21:40.370000,-5.072289156626506,0.2530120481927711,-8.313253012048193,0.35561005518087063,-4.724095646842428,-7.990190067443286,2.0,2.0710622710622713,482.8440042447824,3.440358953440942,2.089738360235416,4.464541693374511,1415.3846153846152,-1.0,65.8234289731829,2.071395714818406,
2023-08-17 17:21:40.377000,-5.096385542168675,0.27710843373493976,-8.349397590361447,0.3261802575107296,-4.7657878602084605,-8.063764561618639,2.0,2.0710622710622713,482.8440042447824,4.677000174814988,2.456150573975874,3.914923372763824,1410.989010989011,-1.0,65.8234289731829,2.0713925710969843,
2023-08-17 17:21:40.385000,-5.144578313253012,0.30120481927710846,-8.349397590361447,0.328632740649908,-4.827099938687922,-8.120171673819742,2.0,2.0710622710622713,482.8440042447824,4.677000174814988,2.456150573975874,3.914923372763824,1406.5934065934066,-1.0,65.8234289731829,2.071389382820879,
2023-08-17 17:21:40.393000,-5.240963855421687,0.3132530120481928,-8.349397590361447,0.39239730226854685,-4.819742489270386,-8.117719190680564,2.0,2.0710622710622713,482.8440042447824,4.707534525960026,2.8225627877163317,3.350037876580618,1405.128205128205,-1.0,65.8234289731829,2.0713861449615343,
2023-08-17 17:21:40.400000,-5.325301204819278,0.27710843373493976,-8.313253012048193,0.29675045984058857,-4.991416309012875,-8.10790925812385,2.0,2.0710622710622713,482.8440042447824,4.890740632830255,3.280578054891904,2.495076044519549,1402.9304029304028,-1.0,65.8234289731829,2.071382852898153,
2023-08-17 17:21:40.408000,-5.433734939759036,0.18072289156626506,-8.301204819277109,0.2575107296137339,-5.096873083997547,-8.017167381974248,2.0,2.0710622710622713,482.8440042447824,4.29532078550201,3.1126391235941946,2.1286638307790913,1403.6630036630036,-1.0,65.8234289731829,2.0713795024278605,
2023-08-17 17:21:40.416000,-5.493975903614458,0.03614457831325302,-8.265060240963855,0.09074187614960147,-5.165542611894543,-7.8994481912936845,2.0,2.06959706959707,483.18584070796453,3.0892139152730027,2.68515820756366,1.4569081055882516,1406.5934065934066,-1.0,65.8234289731829,2.0713760897741653,
2023-08-17 17:21:40.423000,-5.506024096385542,-0.0963855421686747,-8.204819277108435,-0.14714898835070508,-5.1704475781729,-7.86020846106683,2.0,2.06959706959707,483.18584070796453,4.79913757939514,1.4332498106170952,0.5256103956645873,1412.4542124542124,-1.0,65.8234289731829,2.07137261110103,
2023-08-17 17:21:40.431000,-5.481927710843374,-0.20481927710843376,-8.132530120481928,-0.1618638871857756,-5.202329858982219,-7.76701410177805,2.0,2.0710622710622713,482.8440042447824,8.707534525960025,-0.032399044344736755,0.037060777343976725,1417.5824175824175,-1.0,65.8234289731829,2.071369062903596,
2023-08-17 17:21:40.439000,-5.457831325301205,-0.20481927710843376,-8.096385542168676,-0.17167381974248927,-5.175352544451257,-7.8038013488657265,2.0,2.0710622710622713,482.8440042447824,10.875473457257735,-1.2843074412913016,0.4798088689470301,1421.9780219780218,-1.0,65.8234289731829,2.0713654428892134,
2023-08-17 17:21:40.446000,-5.445783132530121,-0.18072289156626506,-8.120481927710843,-0.1079092581238504,-5.111587982832618,-7.801348865726547,2.0,2.0710622710622713,482.8440042447824,12.936542159547813,-2.1240020977798513,0.9378241361226026,1424.9084249084249,-1.0,65.8234289731829,2.071361749098829,
2023-08-17 17:21:40.454000,-5.445783132530121,-0.13253012048192772,-8.144578313253012,-0.14714898835070508,-5.18516247700797,-7.889638258736971,2.0,2.0710622710622713,482.8440042447824,14.28005360992949,-2.81102499854321,1.365305052153137,1427.106227106227,-1.0,65.8234289731829,2.0713579795187624,
2023-08-17 17:21:40.462000,-5.409638554216868,-0.12048192771084337,-8.240963855421688,-0.04414469650521152,-5.145922746781116,-7.982832618025751,2.0,2.0710622710622713,482.8440042447824,15.364023075578347,-2.9026280519783243,2.3424042887943584,1426.3736263736262,-1.0,65.8234289731829,2.071354132569227,
2023-08-17 17:21:40.469000,-5.36144578313253,-0.12048192771084337,-8.289156626506024,-0.06131207847946045,-5.094420600858369,-8.058859595340282,2.0,2.0710622710622713,482.8440042447824,16.17318338092186,-1.4827807237340498,3.9301905483363435,1424.1758241758241,-1.0,65.8234289731829,2.0713502070986736,
2023-08-17 17:21:40.477000,-5.36144578313253,-0.10843373493975904,-8.325301204819278,-0.05150214592274678,-5.096873083997547,-8.100551808706316,2.0,2.0710622710622713,482.8440042447824,16.15791620534934,-0.032399044344736755,5.182098945282908,1419.047619047619,-1.0,65.8234289731829,2.071346202834529,
2023-08-17 17:21:40.485000,-5.385542168674699,-0.10843373493975904,-8.373493975903616,-0.13243408951563457,-5.018393623543838,-8.154506437768239,2.0,2.0710622710622713,482.8440042447824,16.1273818542043,1.1431734747392326,5.853854670473748,1416.8498168498168,-1.0,65.8234289731829,2.0713421203074343,
2023-08-17 17:21:40.492000,-5.373493975903615,-0.13253012048192772,-8.373493975903616,-0.12017167381974249,-5.0404659717964435,-8.174126302881668,2.0,2.0710622710622713,482.8440042447824,15.867839869471478,2.7614940854262553,6.3271371132218395,1419.7802197802198,-1.0,65.8234289731829,2.071337959895182,
2023-08-17 17:21:40.500000,-5.385542168674699,-0.16867469879518074,-8.361445783132531,-0.12507664009809932,-5.10913549969344,-8.17167381974249,2.0,2.0710622710622713,482.8440042447824,14.753336052677582,4.395081871685798,7.456908105588251,1424.1758241758241,-1.0,65.8234289731829,2.071333721882568,
2023-08-17 17:21:40.508000,-5.397590361445784,-0.1927710843373494,-8.349397590361447,-0.14224402207234824,-5.118945432250153,-8.142244022072347,2.0,2.0710622710622713,482.8440042447824,13.62356506031117,6.440883398403354,8.159198181924129,1427.8388278388277,-1.0,65.8234289731829,2.071329406940596,
2023-08-17 17:21:40.515000,-5.385542168674699,-0.22891566265060243,-8.361445783132531,-0.18393623543838136,-5.064990803188228,-8.144696505211526,2.0,2.0710622710622713,482.8440042447824,12.738068877105064,8.563020802983507,8.663014975817259,1431.5018315018315,-1.0,65.8234289731829,2.0713250165698494,
2023-08-17 17:21:40.523000,-5.385542168674699,-0.3253012048192771,-8.301204819277109,-0.3016554261189454,-5.089515634580012,-8.063764561618639,2.0,2.0710622710622713,482.8440042447824,11.837305518326438,9.326379581609462,9.548511159023366,1433.6996336996335,-1.0,65.8234289731829,2.071320552559948,
2023-08-17 17:21:40.531000,-5.337349397590362,-0.3493975903614458,-8.27710843373494,-0.34825260576333533,-5.0331085223789085,-8.002452483139178,2.0,2.0710622710622713,482.8440042447824,12.29532078550201,9.280578054891905,10.861488258260007,1435.8974358974358,-1.0,65.8234289731829,2.0713160165521938,
2023-08-17 17:21:40.538000,-5.313253012048193,-0.3734939759036145,-8.301204819277109,-0.31882280809319435,-4.954629061925199,-8.036787247087675,2.0,2.0710622710622713,482.8440042447824,13.241885670998194,8.608822329701065,11.13629741856535,1443.2234432234432,-1.0,65.8234289731829,2.0713114105146624,
2023-08-17 17:21:40.546000,-5.204819277108434,-0.3734939759036145,-8.349397590361447,-0.2795830778663397,-4.817290006131207,-8.105456774984672,2.0,2.0710622710622713,482.8440042447824,14.524328419089796,7.082104772449156,11.64011421245848,1452.7472527472526,-1.0,65.8234289731829,2.071306736724041,
2023-08-17 17:21:40.554000,-5.1084337349397595,-0.3132530120481928,-8.433734939759036,-0.2550582464745555,-4.748620478234212,-8.23298589822195,2.0,2.0710622710622713,482.8440042447824,15.043412388555446,5.8454635510751105,12.31186993764932,1461.5384615384614,-1.0,65.8234289731829,2.0713019977470117,
2023-08-17 17:21:40.561000,-5.0361445783132535,-0.28915662650602414,-8.518072289156628,-0.23053341508277128,-4.6995708154506435,-8.32372777437155,2.0,2.0710622710622713,482.8440042447824,15.745702464891325,4.883631490006408,12.250801235359244,1465.201465201465,-1.0,65.8234289731829,2.0712971964212725,
2023-08-17 17:21:40.569000,-4.927710843373494,-0.2530120481927711,-8.63855421686747,-0.14224402207234824,-4.6039239730226855,-8.441446965052116,2.0,2.06959706959707,483.18584070796453,15.898374220616516,3.8759979022201487,12.663014975817259,1466.6666666666665,-1.0,65.8234289731829,2.071292336294219,
2023-08-17 17:21:40.577000,-4.879518072289157,-0.21686746987951808,-8.710843373493976,-0.18148375229920294,-4.594114040465971,-8.458614347026364,2.0,2.06959706959707,483.18584070796453,15.760969640463843,3.6927917953499194,13.502709632305809,1468.8644688644688,-1.0,65.8234289731829,2.071287421501581,
2023-08-17 17:21:40.584000,-4.891566265060241,-0.24096385542168675,-8.734939759036145,-0.1765787860208461,-4.655426118945432,-8.54199877375843,2.0,2.0710622710622713,482.8440042447824,15.516694831303537,4.639356680846102,14.724083678107336,1472.5274725274724,-1.0,65.8234289731829,2.0712824556624057,
2023-08-17 17:21:40.592000,-5.0,-0.27710843373493976,-8.72289156626506,-0.21827099938687922,-4.719190680564071,-8.534641324340894,2.0,2.0710622710622713,482.8440042447824,15.135015441990559,6.272944467105645,16.235534059786723,1475.4578754578754,-1.0,65.8234289731829,2.0712774423873332,
2023-08-17 17:21:40.600000,-5.168674698795181,-0.3253012048192771,-8.698795180722891,-0.3237277743715512,-4.817290006131207,-8.475781729000612,2.0,2.0710622710622713,482.8440042447824,14.14264902977682,7.479051337334652,16.75461802925237,1476.923076923077,-1.0,65.8234289731829,2.071272385820593,
2023-08-17 17:21:40.607000,-5.313253012048193,-0.3855421686746988,-8.650602409638555,-0.40465971796443895,-5.0257510729613735,-8.434089515634579,2.0,2.0710622710622713,482.8440042447824,13.913641396189034,8.02866965794534,16.6172134490997,1476.923076923077,-1.0,65.8234289731829,2.0712672897060402,
2023-08-17 17:21:40.615000,-5.421686746987952,-0.45783132530120485,-8.566265060240964,-0.5027590435315757,-5.136112814224402,-8.299202942979766,2.0,2.0710622710622713,482.8440042447824,13.669366587028728,6.9599673678690035,15.884389021618784,1479.120879120879,-1.0,65.8234289731829,2.071262157436028,
2023-08-17 17:21:40.623000,-5.457831325301205,-0.49397590361445787,-8.518072289156628,-0.41446965052115264,-5.163090128755364,-8.255058246474555,2.0,2.0710622710622713,482.8440042447824,13.593030709166133,4.669891031991141,15.838587494901226,1480.5860805860805,-1.0,65.8234289731829,2.0712569925213677,
2023-08-17 17:21:40.630000,-5.481927710843374,-0.49397590361445787,-8.530120481927712,-0.4512568976088289,-5.172900061312078,-8.225628448804414,2.0,2.0710622710622713,482.8440042447824,14.005244449624147,1.6775246197774005,16.327137113221838,1479.8534798534797,-1.0,65.8234289731829,2.0712517985693375,
2023-08-17 17:21:40.638000,-5.445783132530121,-0.5060240963855422,-8.493975903614459,-0.47087676272225626,-5.0772532188841195,-8.210913549969343,2.0,2.0710622710622713,482.8440042447824,14.46325971679972,-2.276673853505042,17.24316764757298,1479.120879120879,-1.0,65.8234289731829,2.071246579262594,
2023-08-17 17:21:40.646000,-5.36144578313253,-0.4819277108433735,-8.493975903614459,-0.48313917841814835,-4.986511342734518,-8.306560392397301,2.0,2.0710622710622713,482.8440042447824,14.96707651069285,-5.559116601596645,17.334770701008097,1479.120879120879,-1.0,65.8234289731829,2.0712413383390356,
2023-08-17 17:21:40.653000,-5.265060240963856,-0.44578313253012053,-8.530120481927712,-0.3654199877375843,-4.876149601471489,-8.29429797670141,2.0,2.0710622710622713,482.8440042447824,14.722801701532545,-7.543849426024126,17.029427189557715,1476.1904761904761,-1.0,65.8234289731829,2.071236079572771,
2023-08-17 17:21:40.661000,-5.168674698795181,-0.46987951807228917,-8.578313253012048,-0.4782342121397915,-4.841814837522992,-8.353157572041692,2.0,2.0710622710622713,482.8440042447824,14.722801701532545,-7.543849426024126,17.029427189557715,1471.7948717948716,-1.0,65.8234289731829,2.0712308067562617,
2023-08-17 17:21:40.669000,-5.096385542168675,-0.49397590361445787,-8.590361445783133,-0.48068669527896996,-4.716738197424893,-8.367872470876762,2.0,2.0710622710622713,482.8440042447824,13.928908571761552,-7.681254006176798,16.907289784977564,1464.4688644688645,-1.0,65.8234289731829,2.0712255241416093,
2023-08-17 17:21:40.676000,-5.048192771084338,-0.5421686746987953,-8.578313253012048,-0.49785407725321884,-4.714285714285714,-8.362967504598405,2.0,2.0710622710622713,482.8440042447824,13.852572693898956,-5.8186585863294695,17.365305052153136,1456.4102564102564,-1.0,65.8234289731829,2.0712202359001837,
2023-08-17 17:21:40.684000,-5.072289156626506,-0.5662650602409639,-8.55421686746988,-0.5370938074800735,-4.7363580625383195,-8.318822808093193,2.0,2.0710622710622713,482.8440042447824,13.425091777868422,-3.4827807237340496,18.58667909795466,1452.7472527472526,926.849365234375,64.73543841164269,2.0712149456876436,
2023-08-17 17:21:40.692000,-5.156626506024097,-0.5903614457831325,-8.506024096385543,-0.5076640098099325,-4.795217657878601,-8.269773145309626,2.0,2.0710622710622713,482.8440042447824,13.012878037410408,-1.162170036711149,19.227900472000464,1451.2820512820513,-1.0,64.73543841164269,2.071209657581425,
2023-08-17 17:21:40.699000,-5.19277108433735,-0.5662650602409639,-8.409638554216867,-0.4904966278356836,-4.89086450030656,-8.15695892090742,2.0,2.0710622710622713,482.8440042447824,12.692267350387507,0.8988986655789273,19.685915739176036,1450.5494505494505,-1.0,64.73543841164269,2.071204375544037,
2023-08-17 17:21:40.707000,-5.216867469879518,-0.5060240963855422,-8.373493975903616,-0.45616186388718577,-4.819742489270386,-8.07602697731453,2.0,2.0710622710622713,482.8440042447824,12.875473457257735,1.8759979022201487,19.212633296427946,1449.8168498168498,-1.0,64.73543841164269,2.071199102991874,
2023-08-17 17:21:40.715000,-5.228915662650603,-0.5180722891566265,-8.373493975903616,-0.5003065603923973,-4.917841814837523,-8.105456774984672,2.0,2.0710622710622713,482.8440042447824,13.379290251150865,2.3645475205407593,16.6172134490997,1449.8168498168498,-1.0,64.73543841164269,2.0711938432786963,
2023-08-17 17:21:40.722000,-5.216867469879518,-0.4819277108433735,-8.373493975903616,-0.44880441446965047,-4.912936848559166,-8.139791538933169,2.0,2.06959706959707,483.18584070796453,11.944175747334072,1.6622574442048814,17.914923372763823,1449.8168498168498,-1.0,64.73543841164269,2.071188599687962,
2023-08-17 17:21:40.730000,-5.216867469879518,-0.4819277108433735,-8.409638554216867,-0.42427958307786634,-4.885959534028204,-8.164316370324954,2.0,2.06959706959707,483.18584070796453,11.63883223588369,1.1279062991667135,19.533243983450845,1452.014652014652,-1.0,64.73543841164269,2.071183375391918,
2023-08-17 17:21:40.738000,-5.168674698795181,-0.49397590361445787,-8.44578313253012,-0.4782342121397915,-4.834457388105457,-8.220723482526058,2.0,2.0710622710622713,482.8440042447824,11.806771167181399,0.4866849251209121,19.716450090321075,1454.212454212454,-1.0,64.73543841164269,2.071178173307543,
2023-08-17 17:21:40.745000,-5.132530120481928,-0.4819277108433735,-8.481927710843374,-0.41201716738197425,-4.778050275904353,-8.277130594727161,2.0,2.0710622710622713,482.8440042447824,11.989977274051629,-0.2766738535050421,19.869121846046266,1457.8754578754579,-1.0,64.73543841164269,2.071172996550038,
2023-08-17 17:21:40.753000,-5.1084337349397595,-0.44578313253012053,-8.493975903614459,-0.4193746167995095,-4.758430410790925,-8.134886572654812,2.0,2.06959706959707,483.18584070796453,12.447992541227201,-0.3377425557951184,20.189732533069165,1462.2710622710622,-1.0,64.73543841164269,2.0711678485008145,
2023-08-17 17:21:40.760000,-5.120481927710844,-0.3855421686746988,-8.506024096385543,-0.3727774371551195,-4.714285714285714,-8.267320662170446,2.0,2.0710622710622713,482.8440042447824,12.78387040382262,0.3798146961132785,19.655381388030996,1462.2710622710622,-1.0,64.73543841164269,2.071162731858519,
2023-08-17 17:21:40.768000,-5.132530120481928,-0.4096385542168675,-8.506024096385543,-0.37522992029429797,-4.834457388105457,-8.272225628448805,2.0,2.0710622710622713,482.8440042447824,12.844939106112697,2.166074238098011,18.830953907114967,1460.8058608058607,-1.0,64.73543841164269,2.0711576490618246,
2023-08-17 17:21:40.776000,-5.216867469879518,-0.44578313253012053,-8.530120481927712,-0.3825873697118332,-4.883507050889025,-8.321275291232372,2.0,2.0710622710622713,482.8440042447824,11.577763533593613,3.6622574442048816,19.502709632305805,1454.9450549450548,-1.0,64.73543841164269,2.07115260281699,
2023-08-17 17:21:40.783000,-5.301204819277109,-0.45783132530120485,-8.493975903614459,-0.4218270999386879,-4.959534028203556,-8.208461066830164,2.0,2.06959706959707,483.18584070796453,11.63883223588369,4.440883398403355,20.31186993764932,1447.6190476190475,-1.0,64.73543841164269,2.0711475961009893,
2023-08-17 17:21:40.791000,-5.349397590361446,-0.5060240963855422,-8.44578313253012,-0.44880441446965047,-5.084610668301655,-8.176578786020846,2.0,2.0710622710622713,482.8440042447824,11.745702464891323,4.34928034496824,20.189732533069165,1441.0256410256409,-1.0,64.73543841164269,2.0711426311475316,
2023-08-17 17:21:40.799000,-5.397590361445784,-0.5180722891566265,-8.409638554216867,-0.46106683016554256,-5.074800735744941,-8.112814224402207,2.0,2.0710622710622713,482.8440042447824,12.096847503059262,3.585921566342286,19.914923372763823,1436.6300366300366,-1.0,64.73543841164269,2.071137709450842,
2023-08-17 17:21:40.806000,-5.409638554216868,-0.49397590361445787,-8.361445783132531,-0.5174739423666462,-5.082158185162477,-8.166768853464133,2.0,2.06959706959707,483.18584070796453,12.14264902977682,2.837829963288851,20.09812947963405,1433.6996336996335,-1.0,64.73543841164269,2.0711328327872054,
2023-08-17 17:21:40.814000,-5.373493975903615,-0.4819277108433735,-8.349397590361447,-0.3973022685469037,-5.023298589822195,-8.056407112201104,2.0,2.0710622710622713,482.8440042447824,12.14264902977682,1.387448283899538,20.266068410931762,1427.106227106227,-1.0,64.73543841164269,2.0711280022687224,
2023-08-17 17:21:40.822000,-5.313253012048193,-0.43373493975903615,-8.349397590361447,-0.37522992029429797,-4.9963212752912325,-8.105456774984672,2.0,2.0710622710622713,482.8440042447824,13.058679564127964,0.39508187168579756,19.548511159023363,1419.047619047619,-1.0,64.73543841164269,2.0711232187686233,
2023-08-17 17:21:40.829000,-5.240963855421687,-0.39759036144578314,-8.373493975903616,-0.38749233599019006,-4.903126916002452,-8.149601471489882,2.0,2.0710622710622713,482.8440042447824,13.028145212982926,-0.3377425557951184,19.182098945282906,1410.2564102564102,-1.0,64.73543841164269,2.071118483451097,
2023-08-17 17:21:40.837000,-5.19277108433735,-0.3734939759036145,-8.421686746987952,-0.35561005518087063,-4.888412017167382,-8.15205395462906,2.0,2.0710622710622713,482.8440042447824,13.60829788473865,-0.7346891206806145,19.502709632305805,1405.8608058608058,-1.0,64.73543841164269,2.071113797318597,
2023-08-17 17:21:40.845000,-5.168674698795181,-0.3614457831325301,-8.397590361445783,-0.269773145309626,-4.854077253218884,-8.181483752299203,2.0,2.0710622710622713,482.8440042447824,13.95944292290659,-0.3682769069401566,20.204999708641683,1401.4652014652013,-1.0,64.73543841164269,2.0711091612174766,
2023-08-17 17:21:40.852000,-5.19277108433735,-0.3734939759036145,-8.421686746987952,-0.2795830778663397,-4.883507050889025,-8.179031269160024,2.0,2.06959706959707,483.18584070796453,14.1273818542043,0.837829963288851,21.166831769710388,1395.6043956043954,-1.0,64.73543841164269,2.071104575844054,
2023-08-17 17:21:40.860000,-5.228915662650603,-0.3734939759036145,-8.433734939759036,-0.3507050889025138,-4.90557939914163,-8.166768853464133,2.0,2.0710622710622713,482.8440042447824,13.776236816036361,2.2729444671056447,21.96072489948138,1389.7435897435896,-1.0,64.73543841164269,2.0711000412583878,
2023-08-17 17:21:40.868000,-5.301204819277109,-0.39759036144578314,-8.421686746987952,-0.3237277743715512,-5.001226241569589,-8.16922133660331,2.0,2.0710622710622713,482.8440042447824,13.883107045043994,3.1584406503117517,22.78515238039741,1391.9413919413919,-1.0,64.73543841164269,2.0710955573115744,
2023-08-17 17:21:40.875000,-5.397590361445784,-0.43373493975903615,-8.421686746987952,-0.37768240343347637,-5.087063151440834,-8.203556100551808,2.0,2.06959706959707,483.18584070796453,14.020511625196667,3.1126391235941946,22.81568673154245,1396.3369963369962,-1.0,64.73543841164269,2.0710911237194938,
2023-08-17 17:21:40.883000,-5.481927710843374,-0.44578313253012053,-8.409638554216867,-0.37522992029429797,-5.145922746781116,-8.161863887185776,2.0,2.06959706959707,483.18584070796453,14.386923838937125,2.639356680846103,22.678282151389777,1400.0,-1.0,64.73543841164269,2.0710867396442234,
2023-08-17 17:21:40.891000,-5.506024096385542,-0.45783132530120485,-8.373493975903616,-0.4316370324954016,-5.244022072348252,-8.154506437768239,2.0,2.06959706959707,483.18584070796453,14.906007808402773,0.44088339840335483,22.266068410931762,1400.0,-1.0,64.73543841164269,2.0710824040500664,
2023-08-17 17:21:40.898000,-5.506024096385542,-0.46987951807228917,-8.409638554216867,-0.4512568976088289,-5.165542611894543,-8.191293684855916,2.0,2.0710622710622713,482.8440042447824,15.119748266418041,-0.444612784802752,22.25080123535924,1399.2673992673992,-1.0,64.73543841164269,2.071078115671216,
2023-08-17 17:21:40.906000,-5.457831325301205,-0.45783132530120485,-8.3855421686747,-0.4218270999386879,-5.114040465971796,-8.164316370324954,2.0,2.0710622710622713,482.8440042447824,15.425091777868422,-1.8797272886195457,21.823320319328708,1400.7326007326005,-1.0,64.73543841164269,2.071073873506489,
2023-08-17 17:21:40.914000,-5.397590361445784,-0.45783132530120485,-8.373493975903616,-0.4463519313304721,-5.0110361741263025,-8.127529123237277,2.0,2.06959706959707,483.18584070796453,15.638832235883692,-2.97896392984092,22.067595128489014,1402.9304029304028,-1.0,64.73543841164269,2.071069676893215,
2023-08-17 17:21:40.921000,-5.325301204819278,-0.46987951807228917,-8.373493975903616,-0.4193746167995095,-5.0036787247087675,-8.100551808706316,2.0,2.06959706959707,483.18584070796453,15.516694831303537,-3.6812540061767978,21.838587494901226,1408.7912087912086,-1.0,64.73543841164269,2.0710655245635667,
2023-08-17 17:21:40.929000,-5.301204819277109,-0.4819277108433735,-8.373493975903616,-0.42918454935622313,-4.98405885959534,-8.161863887185776,2.0,2.0710622710622713,482.8440042447824,15.913641396189036,-3.8186585863294695,22.25080123535924,1414.6520146520145,-1.0,64.73543841164269,2.0710614141216226,
2023-08-17 17:21:40.937000,-5.240963855421687,-0.5060240963855422,-8.373493975903616,-0.5003065603923973,-4.893316983445739,-8.056407112201104,2.0,2.06959706959707,483.18584070796453,15.913641396189036,-3.8186585863294695,22.25080123535924,1419.7802197802198,-1.0,64.73543841164269,2.0710573430629298,
2023-08-17 17:21:40.944000,-5.19277108433735,-0.5421686746987953,-8.361445783132531,-0.4537093807480073,-4.873697118332311,-8.100551808706316,2.0,2.06959706959707,483.18584070796453,15.82203834275392,-3.5285822504516067,22.25080123535924,1422.7106227106226,-1.0,64.73543841164269,2.071053308843791,
2023-08-17 17:21:40.952000,-5.204819277108434,-0.5542168674698795,-8.337349397590362,-0.5370938074800735,-4.868792152053954,-8.073574494175352,2.0,2.06959706959707,483.18584070796453,15.82203834275392,-2.780490647398172,22.40347299108443,1424.1758241758241,-1.0,64.73543841164269,2.0710493083541324,
2023-08-17 17:21:40.960000,-5.204819277108434,-0.5662650602409639,-8.325301204819278,-0.539546290619252,-4.888412017167382,-8.085836909871244,2.0,2.06959706959707,483.18584070796453,16.066313151914226,-2.261406677932523,22.90728978497756,1423.4432234432234,-1.0,64.73543841164269,2.071045338373643,
2023-08-17 17:21:40.967000,-5.216867469879518,-0.6024096385542169,-8.325301204819278,-0.5738810545677498,-4.910484365419988,-8.06131207847946,2.0,2.06959706959707,483.18584070796453,16.463259716799723,-1.5743837771691642,22.892022609405043,1423.4432234432234,-1.0,64.73543841164269,2.071041396028214,
2023-08-17 17:21:40.975000,-5.265060240963856,-0.6024096385542169,-8.301204819277109,-0.5885959534028203,-4.957081545064377,-8.105456774984672,2.0,2.06959706959707,483.18584070796453,16.32585513664705,-1.360643319153897,23.197366120855424,1421.245421245421,-1.0,64.73543841164269,2.0710374787215575,
2023-08-17 17:21:40.983000,-5.27710843373494,-0.6385542168674699,-8.325301204819278,-0.551808706315144,-4.952176578786021,-8.009809932556713,2.0,2.06959706959707,483.18584070796453,16.051045976341708,-0.8873608764058054,23.151564594137866,1417.5824175824175,-1.0,64.73543841164269,2.071033583646011,
2023-08-17 17:21:40.990000,-5.289156626506024,-0.6626506024096386,-8.289156626506024,-0.6523605150214592,-4.964438994481912,-8.034334763948497,2.0,2.06959706959707,483.18584070796453,16.096847503059262,-0.7652234718256528,23.044694365130233,1416.8498168498168,-1.0,64.73543841164269,2.0710297077857147,
2023-08-17 17:21:40.998000,-5.27710843373494,-0.6867469879518072,-8.27710843373494,-0.7063151440833844,-4.976701410177805,-8.041692213366032,2.0,2.06959706959707,483.18584070796453,15.944175747334073,-1.2079715634287063,22.922556960550082,1414.6520146520145,-1.0,64.73543841164269,2.0710258474615997,
2023-08-17 17:21:41.006000,-5.27710843373494,-0.710843373493976,-8.289156626506024,-0.7063151440833844,-4.912936848559166,-8.007357449417535,2.0,2.06959706959707,483.18584070796453,16.066313151914226,-1.2079715634287063,22.876755433832525,1411.7216117216117,-1.0,64.73543841164269,2.071021998859096,
2023-08-17 17:21:41.013000,-5.253012048192772,-0.746987951807229,-8.27710843373494,-0.7112201103617413,-4.925199264255058,-8.036787247087675,2.0,2.06959706959707,483.18584070796453,16.692267350387507,-1.009498280985958,22.81568673154245,1408.058608058608,-1.0,64.73543841164269,2.0710181584515928,
2023-08-17 17:21:41.021000,-5.265060240963856,-0.783132530120482,-8.301204819277109,-0.6719803801348866,-4.957081545064377,-8.066217044757817,2.0,2.06959706959707,483.18584070796453,16.112114678631784,-1.2079715634287063,22.693549326962295,1403.6630036630036,-1.0,64.73543841164269,2.071014322510538,
2023-08-17 17:21:41.029000,-5.253012048192772,-0.7228915662650602,-8.325301204819278,-0.6866952789699571,-4.858982219497241,-8.105456774984672,2.0,2.0681318681318683,483.52816153028687,15.364023075578347,-1.8186585863294695,24.067595128489014,1397.8021978021977,-1.0,64.73543841164269,2.0710104871080155,
2023-08-17 17:21:41.036000,-5.253012048192772,-0.746987951807229,-8.349397590361447,-0.7185775597792765,-4.898221949724095,-8.10790925812385,2.0,2.06959706959707,483.18584070796453,16.17318338092186,-2.2003379756424466,23.456908105588248,1391.9413919413919,-1.0,64.73543841164269,2.0710066476265303,
2023-08-17 17:21:41.044000,-5.240963855421687,-0.746987951807229,-8.373493975903616,-0.7504598405885959,-4.925199264255058,-8.127529123237277,2.0,2.06959706959707,483.18584070796453,16.722801701532546,-1.8339257619019886,22.75461802925237,1389.0109890109889,-1.0,64.73543841164269,2.071002799181828,
2023-08-17 17:21:41.052000,-5.313253012048193,-0.746987951807229,-8.361445783132531,-0.7529123237277743,-4.912936848559166,-8.159411404046597,2.0,2.0710622710622713,482.8440042447824,16.539595594662316,-1.4369791970164925,23.12103024299283,1389.7435897435896,-1.0,64.73543841164269,2.070998937149695,
2023-08-17 17:21:41.059000,-5.36144578313253,-0.746987951807229,-8.373493975903616,-0.703862660944206,-4.979153893316983,-8.134886572654812,2.0,2.06959706959707,483.18584070796453,16.112114678631784,-0.8415593496882482,23.487442456733287,1391.9413919413919,-1.0,64.73543841164269,2.0709950572024463,
2023-08-17 17:21:41.067000,-5.409638554216868,-0.7590361445783133,-8.361445783132531,-0.7431023911710607,-5.126302881667688,-8.164316370324954,2.0,2.06959706959707,483.18584070796453,15.913641396189036,-0.12400209777985126,23.227900472000464,1394.8717948717947,-1.0,64.73543841164269,2.070991154890232,
2023-08-17 17:21:41.075000,-5.457831325301205,-0.819277108433735,-8.349397590361447,-0.8117719190680563,-5.160637645616186,-8.142244022072347,2.0,2.06959706959707,483.18584070796453,15.760969640463843,0.2729444671056449,23.227900472000464,1397.069597069597,-1.0,64.73543841164269,2.0709872251184858,
2023-08-17 17:21:41.082000,-5.493975903614458,-0.8072289156626506,-8.397590361445783,-0.7749846719803801,-5.12385039852851,-8.078479460453709,2.0,2.06959706959707,483.18584070796453,15.45562612901346,0.2729444671056449,23.304236349863057,1397.069597069597,-1.0,64.73543841164269,2.070983262608579,
2023-08-17 17:21:41.090000,-5.518072289156627,-0.819277108433735,-8.421686746987952,-0.7602697731453096,-5.217044757817289,-8.154506437768239,2.0,2.0710622710622713,482.8440042447824,15.089213915273003,-0.06293339548977492,23.304236349863057,1394.8717948717947,-1.0,64.73543841164269,2.070979261900874,
2023-08-17 17:21:41.098000,-5.55421686746988,-0.8072289156626506,-8.397590361445783,-0.745554874310239,-5.217044757817289,-8.154506437768239,2.0,2.06959706959707,483.18584070796453,14.997610861837888,-0.6125517161004619,23.197366120855424,1390.4761904761904,-1.0,64.73543841164269,2.0709752178507768,
2023-08-17 17:21:41.105000,-5.578313253012048,-0.783132530120482,-8.361445783132531,-0.7872470876762722,-5.244022072348252,-8.125076640098099,2.0,2.06959706959707,483.18584070796453,14.921274983975293,-1.1927043878561872,22.81568673154245,1382.4175824175823,-1.0,64.73543841164269,2.0709711252120657,
2023-08-17 17:21:41.113000,-5.590361445783133,-0.746987951807229,-8.397590361445783,-0.7504598405885959,-5.219497240956468,-8.174126302881668,2.0,2.06959706959707,483.18584070796453,14.96707651069285,-1.925528815337103,22.861488258260007,1375.8241758241757,-1.0,64.73543841164269,2.0709669781166444,
2023-08-17 17:21:41.121000,-5.614457831325302,-0.746987951807229,-8.3855421686747,-0.6866952789699571,-5.312691600245248,-8.100551808706316,2.0,2.06959706959707,483.18584070796453,14.64646582366995,-2.2919410290775613,22.800419555969928,1370.6959706959706,-1.0,64.73543841164269,2.070962770079965,
2023-08-17 17:21:41.128000,-5.602409638554217,-0.710843373493976,-8.325301204819278,-0.7161250766400981,-5.26364193746168,-8.051502145922747,2.0,2.06959706959707,483.18584070796453,14.524328419089796,-3.4675135481615307,22.647747800244737,1367.7655677655678,-1.0,64.73543841164269,2.0709584945321327,
2023-08-17 17:21:41.136000,-5.602409638554217,-0.7349397590361446,-8.325301204819278,-0.7136725935009196,-5.234212139791539,-8.034334763948497,2.0,2.06959706959707,483.18584070796453,14.524328419089796,-4.124002097779851,22.58667909795466,1368.4981684981683,-1.0,64.73543841164269,2.0709541447877746,
2023-08-17 17:21:41.143000,-5.578313253012048,-0.7228915662650602,-8.27710843373494,-0.6842427958307786,-5.167995095033722,-7.990190067443286,2.0,2.06959706959707,483.18584070796453,14.173183380921857,-4.749956296253133,22.525610395664586,1375.091575091575,-1.0,64.73543841164269,2.070949714086446,
2023-08-17 17:21:41.151000,-5.542168674698796,-0.7349397590361446,-8.25301204819277,-0.733292458614347,-5.197424892703863,-7.987737584304107,2.0,2.06959706959707,483.18584070796453,14.264786434356973,-5.101101334421072,22.40347299108443,1384.6153846153845,-1.0,64.73543841164269,2.0709451960224383,
2023-08-17 17:21:41.159000,-5.481927710843374,-0.7349397590361446,-8.240963855421688,-0.733292458614347,-5.190067443286327,-7.973022685469037,2.0,2.06959706959707,483.18584070796453,13.776236816036361,-4.917895227550844,23.075228716275273,1397.8021978021977,-1.0,64.73543841164269,2.0709405836043424,
2023-08-17 17:21:41.166000,-5.506024096385542,-0.7349397590361446,-8.25301204819277,-0.7504598405885959,-5.1066830165542605,-7.933782955242182,2.0,2.06959706959707,483.18584070796453,13.883107045043994,-4.795757822970691,22.846221082687485,1407.3260073260071,-1.0,64.73543841164269,2.0709358693332223,
2023-08-17 17:21:41.174000,-5.481927710843374,-0.710843373493976,-8.25301204819277,-0.7112201103617413,-5.143470263641937,-7.977927651747394,2.0,2.06959706959707,483.18584070796453,13.730435289318804,-3.6965211817493167,23.151564594137866,1413.9194139194137,-1.0,64.73543841164269,2.0709310457027423,
2023-08-17 17:21:41.182000,-5.481927710843374,-0.710843373493976,-8.216867469879519,-0.645003065603924,-5.126302881667688,-7.987737584304107,2.0,2.0681318681318683,483.52816153028687,13.97471009847911,-2.5362158382378666,23.517976807878327,1413.9194139194137,-1.0,64.73543841164269,2.0709261052081303,
2023-08-17 17:21:41.189000,-5.46987951807229,-0.6867469879518072,-8.19277108433735,-0.6131207847946045,-5.160637645616186,-7.9656652360515015,2.0,2.06959706959707,483.18584070796453,13.867839869471476,-1.0247654565584772,23.487442456733287,1410.989010989011,-1.0,64.73543841164269,2.070921040321862,
2023-08-17 17:21:41.197000,-5.481927710843374,-0.674698795180723,-8.216867469879519,-0.6376456161863887,-5.207234825260576,-7.970570202329858,2.0,2.06959706959707,483.18584070796453,13.837305518326438,0.028669657945339575,23.548511159023363,1408.058608058608,-1.0,64.73543841164269,2.0709158438588884,
2023-08-17 17:21:41.205000,-5.506024096385542,-0.6987951807228916,-8.19277108433735,-0.6916002452483139,-5.219497240956468,-7.9656652360515015,2.0,2.06959706959707,483.18584070796453,13.45562612901346,1.0973719480216755,24.372938639939395,1403.6630036630036,-1.0,64.73543841164269,2.070910508568391,
2023-08-17 17:21:41.212000,-5.55421686746988,-0.674698795180723,-8.19277108433735,-0.6548129981606376,-5.229307173513182,-7.931330472103004,2.0,2.06959706959707,483.18584070796453,13.364023075578347,1.387448283899538,24.495076044519546,1397.069597069597,-1.0,64.73543841164269,2.070905026761179,
2023-08-17 17:21:41.220000,-5.55421686746988,-0.674698795180723,-8.204819277108435,-0.7014101778050276,-5.244022072348252,-7.879828326180257,2.0,2.06959706959707,483.18584070796453,13.364023075578347,1.387448283899538,24.495076044519546,1391.9413919413919,-1.0,64.73543841164269,2.0708993912747857,
2023-08-17 17:21:41.228000,-5.55421686746988,-0.6987951807228916,-8.180722891566266,-0.5959534028203556,-5.209687308399754,-7.948497854077253,2.0,2.0710622710622713,482.8440042447824,13.63883223588369,1.387448283899538,24.76988520482489,1385.3479853479853,-1.0,64.73543841164269,2.070893594964332,
2023-08-17 17:21:41.235000,-5.578313253012048,-0.674698795180723,-8.19277108433735,-0.5812385039852851,-5.212139791538933,-7.975475168608216,2.0,2.06959706959707,483.18584070796453,14.005244449624147,1.5095856884796908,24.63248062467222,1378.7545787545787,-1.0,64.73543841164269,2.0708876312493327,
2023-08-17 17:21:41.243000,-5.590361445783133,-0.6626506024096386,-8.204819277108435,-0.5787860208461066,-5.244022072348252,-7.95340282035561,2.0,2.06959706959707,483.18584070796453,14.203717732066895,1.402715459472057,24.6172134490997,1372.161172161172,-1.0,64.73543841164269,2.0708814941367026,
2023-08-17 17:21:41.251000,-5.578313253012048,-0.6385542168674699,-8.240963855421688,-0.5836909871244634,-5.18516247700797,-7.946045370938075,2.0,2.06959706959707,483.18584070796453,14.753336052677582,0.7462269098537365,24.525610395664586,1366.3003663003662,-1.0,64.73543841164269,2.070875177227242,
2023-08-17 17:21:41.258000,-5.566265060240964,-0.5903614457831325,-8.25301204819277,-0.5763335377069282,-5.165542611894543,-7.975475168608216,2.0,2.06959706959707,483.18584070796453,15.089213915273003,0.5630208029835075,23.9759920750539,1362.6373626373625,-1.0,64.73543841164269,2.070868674198302,
2023-08-17 17:21:41.266000,-5.530120481927711,-0.5903614457831325,-8.228915662650603,-0.5370938074800735,-5.194972409564684,-7.916615573267934,2.0,2.06959706959707,483.18584070796453,15.257152846570712,0.2729444671056449,24.25080123535924,1363.3699633699632,-1.0,64.73543841164269,2.070861978829021,
2023-08-17 17:21:41.274000,-5.530120481927711,-0.5783132530120483,-8.168674698795181,-0.5885959534028203,-5.153280196198651,-7.933782955242182,2.0,2.06959706959707,483.18584070796453,15.165549793135598,0.3187459938232022,24.6172134490997,1368.4981684981683,-1.0,64.73543841164269,2.0708550845680285,
2023-08-17 17:21:41.281000,-5.493975903614458,-0.5783132530120483,-8.168674698795181,-0.5542611894543225,-5.172900061312078,-8.019619865113427,2.0,2.06959706959707,483.18584070796453,15.30295437328827,0.34928034496824034,24.372938639939395,1376.5567765567764,-1.0,64.73543841164269,2.070847985084375,
2023-08-17 17:21:41.289000,-5.530120481927711,-0.5783132530120483,-8.19277108433735,-0.5150214592274678,-5.143470263641937,-7.970570202329858,2.0,2.06959706959707,483.18584070796453,15.638832235883692,0.9599673678690036,24.495076044519546,1389.0109890109889,-1.0,64.73543841164269,2.0708406747146157,
2023-08-17 17:21:41.297000,-5.493975903614458,-0.5301204819277109,-8.168674698795181,-0.4904966278356836,-5.163090128755364,-7.896995708154506,2.0,2.06959706959707,483.18584070796453,15.791503991608883,1.02103607015908,24.46454169337451,1402.9304029304028,-1.0,64.73543841164269,2.07083314799676,
2023-08-17 17:21:41.304000,-5.481927710843374,-0.5421686746987953,-8.180722891566266,-0.522378908645003,-5.141017780502759,-7.887185775597793,2.0,2.0710622710622713,482.8440042447824,16.17318338092186,1.4637841617621334,24.510343220092064,1416.8498168498168,-1.0,64.73543841164269,2.0708253996968415,
2023-08-17 17:21:41.312000,-5.46987951807229,-0.5180722891566265,-8.168674698795181,-0.49540159411404044,-5.187614960147148,-7.933782955242182,2.0,2.06959706959707,483.18584070796453,16.1273818542043,1.7080589709224387,24.525610395664586,1432.2344322344322,-1.0,64.73543841164269,2.070817425327925,
2023-08-17 17:21:41.320000,-5.457831325301205,-0.5301204819277109,-8.168674698795181,-0.46842427958307786,-5.060085836909871,-7.904353157572041,2.0,2.06959706959707,483.18584070796453,16.051045976341708,2.501952100693431,24.235534059786723,1447.6190476190475,-1.0,64.73543841164269,2.0708092207556885,
2023-08-17 17:21:41.327000,-5.433734939759036,-0.5301204819277109,-8.180722891566266,-0.4904966278356836,-5.126302881667688,-7.9362354383813605,2.0,2.06959706959707,483.18584070796453,16.096847503059262,3.005768894586561,24.082862304061532,1457.142857142857,-1.0,64.73543841164269,2.0708007812416565,
2023-08-17 17:21:41.335000,-5.409638554216868,-0.5301204819277109,-8.168674698795181,-0.49785407725321884,-5.087063151440834,-7.8920907418761495,2.0,2.0681318681318683,483.52816153028687,16.463259716799723,3.2958452304644235,24.189732533069165,1460.8058608058607,-1.0,64.73543841164269,2.0707921024518723,
2023-08-17 17:21:41.343000,-5.409638554216868,-0.5421686746987953,-8.19277108433735,-0.5616186388718577,-5.082158185162477,-7.909258123850398,2.0,2.0681318681318683,483.52816153028687,16.615931472524913,3.2653108793193852,24.052327952916492,1463.7362637362637,-1.0,64.73543841164269,2.0707831808681925,
2023-08-17 17:21:41.350000,-5.421686746987952,-0.5421686746987953,-8.228915662650603,-0.4414469650521152,-5.10913549969344,-7.970570202329858,2.0,2.06959706959707,483.18584070796453,16.371656663364607,3.7080589709224387,24.174465357496647,1467.3992673992673,-1.0,64.73543841164269,2.0707740127231067,
2023-08-17 17:21:41.358000,-5.421686746987952,-0.5783132530120483,-8.216867469879519,-0.48559166155732675,-5.072348252605763,-7.975475168608216,2.0,2.06959706959707,483.18584070796453,16.64646582366995,4.135539886952973,24.067595128489014,1471.062271062271,-1.0,64.73543841164269,2.0707645945474353,
2023-08-17 17:21:41.366000,-5.433734939759036,-0.6024096385542169,-8.204819277108435,-0.551808706315144,-5.067443286327406,-7.980380134886572,2.0,2.06959706959707,483.18584070796453,16.570129945807356,4.395081871685798,23.79278596818367,1474.7252747252746,-1.0,64.73543841164269,2.070754923751148,
2023-08-17 17:21:41.373000,-5.421686746987952,-0.5783132530120483,-8.25301204819277,-0.5885959534028203,-5.079705702023299,-8.009809932556713,2.0,2.06959706959707,483.18584070796453,16.753336052677586,4.379814696113279,24.021793601771456,1476.923076923077,-1.0,64.73543841164269,2.0707449981852393,
2023-08-17 17:21:41.381000,-5.433734939759036,-0.5903614457831325,-8.240963855421688,-0.5640711220110362,-5.094420600858369,-8.002452483139178,2.0,2.06959706959707,483.18584070796453,17.241885670998194,4.288211642678164,23.74698444146611,1476.923076923077,-1.0,64.73543841164269,2.0707348161602392,
2023-08-17 17:21:41.389000,-5.457831325301205,-0.6265060240963856,-8.228915662650603,-0.615573267933783,-5.148375229920294,-8.002452483139178,2.0,2.06959706959707,483.18584070796453,16.875473457257737,4.715692558708698,24.021793601771456,1477.6556776556777,-1.0,64.73543841164269,2.0707243764634002,
2023-08-17 17:21:41.396000,-5.46987951807229,-0.6385542168674699,-8.265060240963855,-0.645003065603924,-5.145922746781116,-8.019619865113427,2.0,2.06959706959707,483.18584070796453,16.844939106112697,4.440883398403355,24.11339665520657,1477.6556776556777,804.290771484375,74.59988616960729,2.0707136783744593,
2023-08-17 17:21:41.404000,-5.46987951807229,-0.6987951807228916,-8.228915662650603,-0.6621704475781729,-5.121397915389331,-8.002452483139178,2.0,2.06959706959707,483.18584070796453,16.692267350387507,4.02866965794534,24.037060777343974,1476.1904761904761,-1.0,74.59988616960729,2.070702721679917,
2023-08-17 17:21:41.412000,-5.445783132530121,-0.7228915662650602,-8.27710843373494,-0.6842427958307786,-5.133660331085223,-8.022072348252605,2.0,2.06959706959707,483.18584070796453,16.60066429695239,4.654623856418622,23.74698444146611,1471.062271062271,-1.0,74.59988616960729,2.0706915062278615,
2023-08-17 17:21:41.419000,-5.433734939759036,-0.7349397590361446,-8.313253012048193,-0.7529123237277743,-5.121397915389331,-8.004904966278357,2.0,2.06959706959707,483.18584070796453,16.234252083211935,4.364547520540759,23.869121846046266,1462.2710622710622,-1.0,74.59988616960729,2.0706800324641534,
2023-08-17 17:21:41.427000,-5.445783132530121,-0.7590361445783133,-8.325301204819278,-0.7283874923359902,-5.143470263641937,-8.088289393010422,2.0,2.06959706959707,483.18584070796453,16.35638948779209,4.563020802983507,24.342404288794356,1452.014652014652,-1.0,74.59988616960729,2.0706683018629164,
2023-08-17 17:21:41.435000,-5.457831325301205,-0.7590361445783133,-8.361445783132531,-0.6670754138565297,-5.082158185162477,-8.110361741263029,2.0,2.06959706959707,483.18584070796453,16.386923838937125,4.547753627410988,24.28133558650428,1444.6886446886447,-1.0,74.59988616960729,2.070656315984249,
2023-08-17 17:21:41.442000,-5.457831325301205,-0.746987951807229,-8.361445783132531,-0.7431023911710607,-5.167995095033722,-8.083384426732065,2.0,2.06959706959707,483.18584070796453,15.974710098479111,4.272944467105645,24.81568673154245,1439.5604395604394,-1.0,74.59988616960729,2.070644076547936,
2023-08-17 17:21:41.450000,-5.46987951807229,-0.7710843373493976,-8.373493975903616,-0.8044144696505211,-5.150827713059472,-8.088289393010422,2.0,2.06959706959707,483.18584070796453,16.29532078550201,3.5401200396247288,24.75461802925237,1438.095238095238,-1.0,74.59988616960729,2.070631586384302,
2023-08-17 17:21:41.458000,-5.481927710843374,-0.7710843373493976,-8.337349397590362,-0.7553648068669527,-5.153280196198651,-8.117719190680564,2.0,2.06959706959707,483.18584070796453,16.218984907639417,3.372181108327019,24.892022609405043,1438.8278388278388,-1.0,74.59988616960729,2.0706188493660425,
2023-08-17 17:21:41.465000,-5.457831325301205,-0.7710843373493976,-8.337349397590362,-0.7259350091968118,-5.158185162477007,-8.088289393010422,2.0,2.06959706959707,483.18584070796453,16.417458190082165,2.6240895052735835,24.708816502534813,1441.0256410256409,-1.0,74.59988616960729,2.070605869917658,
2023-08-17 17:21:41.473000,-5.481927710843374,-0.783132530120482,-8.301204819277109,-0.7578172900061312,-5.177805027590435,-8.019619865113427,2.0,2.06959706959707,483.18584070796453,16.234252083211935,1.8607307266476296,24.876755433832525,1441.0256410256409,-1.0,74.59988616960729,2.0705926530156153,
2023-08-17 17:21:41.481000,-5.46987951807229,-0.7710843373493976,-8.301204819277109,-0.7014101778050276,-5.116492949110975,-8.07602697731453,2.0,2.06959706959707,483.18584070796453,16.371656663364607,1.7233261464949579,25.029427189557715,1438.095238095238,-1.0,74.59988616960729,2.0705792041865316,
2023-08-17 17:21:41.488000,-5.46987951807229,-0.7590361445783133,-8.289156626506024,-0.6744328632740649,-5.131207847946045,-8.053954629061925,2.0,2.0681318681318683,483.52816153028687,16.585397121379874,1.4637841617621334,25.166831769710388,1434.4322344322343,-1.0,74.59988616960729,2.0705655295033703,
2023-08-17 17:21:41.496000,-5.445783132530121,-0.746987951807229,-8.265060240963855,-0.7112201103617413,-5.121397915389331,-8.019619865113427,2.0,2.0681318681318683,483.52816153028687,16.585397121379874,1.4637841617621334,25.166831769710388,1428.5714285714284,-1.0,74.59988616960729,2.07055163554483,
2023-08-17 17:21:41.504000,-5.457831325301205,-0.746987951807229,-8.25301204819277,-0.7381974248927038,-5.087063151440834,-7.997547516860821,2.0,2.06959706959707,483.18584070796453,16.554862770234838,1.7080589709224387,25.24316764757298,1424.1758241758241,-1.0,74.59988616960729,2.0705375287902292,
2023-08-17 17:21:41.511000,-5.457831325301205,-0.7349397590361446,-8.240963855421688,-0.7161250766400981,-5.101778050275904,-8.02942979767014,2.0,2.06959706959707,483.18584070796453,16.524328419089798,1.8149291999300723,25.31950352543558,1417.5824175824175,-1.0,74.59988616960729,2.0705232161335485,
2023-08-17 17:21:41.519000,-5.46987951807229,-0.710843373493976,-8.228915662650603,-0.6719803801348866,-5.0698957694665845,-7.926425505824647,2.0,2.06959706959707,483.18584070796453,16.692267350387507,2.288211642678164,24.998892838412676,1410.2564102564102,-1.0,74.59988616960729,2.0705087054296962,
2023-08-17 17:21:41.526000,-5.457831325301205,-0.6385542168674699,-8.204819277108435,-0.5493562231759657,-4.949724095646842,-7.9068056407112195,2.0,2.06959706959707,483.18584070796453,16.63119864809743,2.898898665578927,25.13629741856535,1404.3956043956043,-1.0,74.59988616960729,2.0704940050210876,
2023-08-17 17:21:41.534000,-5.36144578313253,-0.6626506024096386,-8.228915662650603,-0.6008583690987124,-5.060085836909871,-7.987737584304107,2.0,2.06959706959707,483.18584070796453,17.531962006876057,3.433249810617095,23.74698444146611,1400.7326007326005,-1.0,74.59988616960729,2.070479123720269,
2023-08-17 17:21:41.542000,-5.36144578313253,-0.6626506024096386,-8.25301204819277,-0.5910484365419988,-5.050275904353157,-8.066217044757817,2.0,2.06959706959707,483.18584070796453,18.234252083211935,3.6927917953499194,22.11339665520657,1398.5347985347985,-1.0,74.59988616960729,2.0704640707907815,
2023-08-17 17:21:41.549000,-5.385542168674699,-0.6626506024096386,-8.265060240963855,-0.6499080318822807,-5.087063151440834,-8.017167381974248,2.0,2.06959706959707,483.18584070796453,16.310587961074532,3.9828681312277823,24.037060777343974,1402.197802197802,-1.0,74.59988616960729,2.0704488559263576,
2023-08-17 17:21:41.557000,-5.409638554216868,-0.6626506024096386,-8.25301204819277,-0.6180257510729613,-5.094420600858369,-8.002452483139178,2.0,2.06959706959707,483.18584070796453,15.928908571761554,3.8454635510751105,25.426373754443212,1404.3956043956043,-1.0,74.59988616960729,2.070433489228513,
2023-08-17 17:21:41.565000,-5.433734939759036,-0.6626506024096386,-8.265060240963855,-0.6131207847946045,-5.084610668301655,-8.0,2.0,2.06959706959707,483.18584070796453,16.341122312219568,3.6927917953499194,25.09049589184779,1405.128205128205,-1.0,74.59988616960729,2.0704179811826524,
2023-08-17 17:21:41.572000,-5.433734939759036,-0.6144578313253012,-8.240963855421688,-0.6033108522378908,-5.020846106683016,-7.987737584304107,2.0,2.06959706959707,483.18584070796453,16.753336052677586,3.7080589709224387,24.372938639939395,1405.8608058608058,-1.0,74.59988616960729,2.07040234263277,
2023-08-17 17:21:41.580000,-5.421686746987952,-0.6265060240963856,-8.301204819277109,-0.5959534028203556,-5.172900061312078,-8.0907418761496,2.0,2.06959706959707,483.18584070796453,17.98997727405163,4.135539886952973,22.235534059786723,1409.5238095238094,-1.0,74.59988616960729,2.0703865847548713,
2023-08-17 17:21:41.588000,-5.457831325301205,-0.6385542168674699,-8.313253012048193,-0.6033108522378908,-5.234212139791539,-8.095646842427957,2.0,2.06959706959707,483.18584070796453,16.02051162519667,4.929433016723966,23.579045510168402,1412.4542124542124,-1.0,74.59988616960729,2.070370718571338,
2023-08-17 17:21:41.595000,-5.506024096385542,-0.6867469879518072,-8.313253012048193,-0.6670754138565297,-5.165542611894543,-8.066217044757817,2.0,2.06959706959707,483.18584070796453,15.593030709166133,5.051570421304118,24.9378241361226,1413.1868131868132,-1.0,74.59988616960729,2.070354755447242,
2023-08-17 17:21:41.603000,-5.518072289156627,-0.6867469879518072,-8.25301204819277,-0.6891477621091354,-5.165542611894543,-8.009809932556713,2.0,2.0681318681318683,483.52816153028687,15.699900938173768,5.036303245731599,25.014160013985197,1415.3846153846152,-1.0,74.59988616960729,2.070338707481729,
2023-08-17 17:21:41.611000,-5.530120481927711,-0.6626506024096386,-8.25301204819277,-0.6253832004904966,-5.180257510729613,-8.02942979767014,2.0,2.0681318681318683,483.52816153028687,16.386923838937125,4.639356680846102,24.556144746809622,1418.3150183150183,-1.0,74.59988616960729,2.070322586492783,
2023-08-17 17:21:41.618000,-5.518072289156627,-0.6144578313253012,-8.27710843373494,-0.5861434702636419,-5.204782342121398,-8.022072348252605,2.0,2.06959706959707,483.18584070796453,16.386923838937125,3.417982635044576,24.220266884214205,1419.047619047619,-1.0,74.59988616960729,2.0703064039144645,
2023-08-17 17:21:41.626000,-5.46987951807229,-0.5783132530120483,-8.313253012048193,-0.5199264255058246,-5.163090128755364,-8.034334763948497,2.0,2.06959706959707,483.18584070796453,16.386923838937125,3.280578054891904,24.388205815511913,1418.3150183150183,-1.0,74.59988616960729,2.07029017171078,
2023-08-17 17:21:41.634000,-5.433734939759036,-0.5662650602409639,-8.313253012048193,-0.568976088289393,-5.1066830165542605,-8.041692213366032,2.0,2.06959706959707,483.18584070796453,16.402191014509647,3.051570421304118,24.296602762076798,1414.6520146520145,-1.0,74.59988616960729,2.0702739024101633,
2023-08-17 17:21:41.641000,-5.421686746987952,-0.5783132530120483,-8.325301204819278,-0.5493562231759657,-5.0772532188841195,-8.068669527896995,2.0,2.06959706959707,483.18584070796453,16.29532078550201,2.639356680846103,24.40347299108443,1408.7912087912086,-1.0,74.59988616960729,2.070257608614599,
2023-08-17 17:21:41.649000,-5.409638554216868,-0.5903614457831325,-8.325301204819278,-0.5444512568976088,-5.064990803188228,-8.10790925812385,2.0,2.0681318681318683,483.52816153028687,16.50906124351728,2.120272711380454,24.846221082687485,1403.6630036630036,-1.0,74.59988616960729,2.0702413034244005,
2023-08-17 17:21:41.657000,-5.397590361445784,-0.6144578313253012,-8.325301204819278,-0.510116492949111,-5.020846106683016,-8.071122011036174,2.0,2.06959706959707,483.18584070796453,16.32585513664705,3.1279062991667135,25.487442456733287,1398.5347985347985,-1.0,74.59988616960729,2.0702249993873814,
2023-08-17 17:21:41.664000,-5.409638554216868,-0.6144578313253012,-8.313253012048193,-0.6302881667688535,-5.050275904353157,-8.068669527896995,2.0,2.06959706959707,483.18584070796453,16.554862770234838,3.2653108793193852,25.548511159023363,1397.8021978021977,-1.0,74.59988616960729,2.0702087084653713,
2023-08-17 17:21:41.672000,-5.421686746987952,-0.6265060240963856,-8.301204819277109,-0.5787860208461066,-5.153280196198651,-8.112814224402207,2.0,2.06959706959707,483.18584070796453,16.432725365654683,3.3263795816094617,25.502709632305805,1397.8021978021977,-1.0,74.59988616960729,2.0701924430182372,
2023-08-17 17:21:41.680000,-5.457831325301205,-0.6506024096385542,-8.27710843373494,-0.6719803801348866,-5.089515634580012,-8.017167381974248,2.0,2.06959706959707,483.18584070796453,16.524328419089798,3.204242177029309,25.28896917429054,1397.8021978021977,-1.0,74.59988616960729,2.070176215312733,
2023-08-17 17:21:41.687000,-5.457831325301205,-0.6385542168674699,-8.25301204819277,-0.5836909871244634,-5.089515634580012,-8.012262415695892,2.0,2.06959706959707,483.18584070796453,16.936542159547813,2.9141658411514464,25.12103024299283,1395.6043956043954,-1.0,74.59988616960729,2.0701600374898934,
2023-08-17 17:21:41.695000,-5.481927710843374,-0.6506024096385542,-8.265060240963855,-0.6180257510729613,-5.118945432250153,-8.024524831391783,2.0,2.06959706959707,483.18584070796453,17.196084144280636,2.68515820756366,24.846221082687485,1394.8717948717947,-1.0,74.59988616960729,2.070143921075347,
2023-08-17 17:21:41.703000,-5.445783132530121,-0.6265060240963856,-8.289156626506024,-0.6106683016554261,-5.079705702023299,-8.056407112201104,2.0,2.06959706959707,483.18584070796453,16.81440475496766,3.005768894586561,24.647747800244737,1395.6043956043954,-1.0,74.59988616960729,2.070127877473573,
