Shimmer_F5D4_Timestamp_FormattedUnix_CAL,Shimmer_F5D4_Accel_LN_X_CAL,Shimmer_F5D4_Accel_LN_Y_CAL,Shimmer_F5D4_Accel_LN_Z_CAL,Shimmer_F5D4_Accel_WR_X_CAL,Shimmer_F5D4_Accel_WR_Y_CAL,Shimmer_F5D4_Accel_WR_Z_CAL,Shimmer_F5D4_GSR_Range_CAL,Shimmer_F5D4_GSR_Skin_Conductance_CAL,Shimmer_F5D4_GSR_Skin_Resistance_CAL,Shimmer_F5D4_Gyro_X_CAL,Shimmer_F5D4_Gyro_Y_CAL,Shimmer_F5D4_Gyro_Z_CAL,Shimmer_F5D4_PPG_A13_CAL,Shimmer_F5D4_PPG_IBI_CAL,Shimmer_F5D4_PPGtoHR_CAL,Shimmer_F5D4_GSR_Skin_Conductance_LPF_CAL,
yyyy/mm/dd hh:mm:ss.000,m/(s^2),m/(s^2),m/(s^2),m/(s^2),m/(s^2),m/(s^2),no_units,uS,kOhms,deg/s,deg/s,deg/s,mV,ms,BPM,uS,
2023-08-12 12:00:29.448000,-8.807228915662652,0.4819277108433735,-4.313253012048193,0.6008583690987124,-8.684855916615573,-3.9460453709380747,3.0,0.4166944166944167,2399.840170484816,-0.326437853271953,-0.41186411048307275,-0.03950818716857993,1235.8974358974358,-1.0,80.75245410112129,0.4174419769824372,
2023-08-12 12:00:29.456000,-8.783132530120483,0.49397590361445787,-4.27710843373494,0.6327406499080318,-8.635806253832005,-3.9166155732679337,3.0,0.4171384171384171,2397.285790313997,-0.3250393333721812,-0.40557077093409544,-0.041372880368276785,1247.6190476190475,-1.0,80.75245410112129,0.4174380128112781,
2023-08-12 12:00:29.464000,-8.795180722891567,0.5180722891566265,-4.289156626506024,0.6302881667688535,-8.670141017780502,-3.9411404046597176,3.0,0.4171384171384171,2397.285790313997,0.014451372297651493,0.19486043936833522,-0.3319153895460636,1260.8058608058607,-1.0,80.75245410112129,0.4174340201649079,
2023-08-12 12:00:29.471000,-8.795180722891567,0.5180722891566265,-4.313253012048193,0.598405885959534,-8.682403433476395,-3.90680564071122,3.0,0.4171384171384171,2397.285790313997,-0.06351611211467911,-0.30790746459996526,-0.10104306275858048,1274.7252747252746,-1.0,80.75245410112129,0.41743000055263413,
2023-08-12 12:00:29.479000,-8.783132530120483,0.5060240963855422,-4.289156626506024,0.657265481299816,-8.650521152667075,-3.955855303494788,3.0,0.4171384171384171,2397.285790313997,-0.24660567565992728,-0.22959035021269217,-0.2538313618087526,1288.6446886446886,-1.0,80.75245410112129,0.417425955616877,
2023-08-12 12:00:29.487000,-8.783132530120483,0.5060240963855422,-4.289156626506024,0.6082158185162476,-8.652973635806253,-3.936235438381361,3.0,0.4171384171384171,2397.285790313997,-0.21537206456500235,-0.04615115669249976,-0.06852747508886418,1302.5641025641025,-1.0,80.75245410112129,0.4174218871146018,
2023-08-12 12:00:29.494000,-8.771084337349398,0.5060240963855422,-4.289156626506024,0.6646229307173512,-8.65787860208461,-3.9092581238503983,3.0,0.4171384171384171,2397.285790313997,0.18192413029543805,-0.13775421012761427,-0.21933453761435817,1317.216117216117,-1.0,80.75245410112129,0.4174177967805804,
2023-08-12 12:00:29.502000,-8.783132530120483,0.5060240963855422,-4.253012048192772,0.6229307173513182,-8.650521152667075,-3.926425505824647,3.0,0.4171384171384171,2397.285790313997,-0.0640988287395833,-4.661732999250815E-4,-0.04859856651710253,1330.4029304029302,-1.0,80.75245410112129,0.41741368646702165,
2023-08-12 12:00:29.510000,-8.783132530120483,0.5060240963855422,-4.289156626506024,0.6204782342121398,-8.660331085223788,-3.919068056407112,3.0,0.4171384171384171,2397.285790313997,-0.005943709574034809,-0.2130411980653804,-0.13891964337742566,1341.3919413919414,-1.0,80.75245410112129,0.4174095581336296,
2023-08-12 12:00:29.517000,-8.795180722891567,0.5180722891566265,-4.27710843373494,0.6180257510729613,-8.662783568362967,-3.955855303494788,3.0,0.4171384171384171,2397.285790313997,-0.16094633179884585,-0.13460754035312647,-0.047433133267291996,1347.985347985348,-1.0,80.75245410112129,0.4174054138374381,
2023-08-12 12:00:29.525000,-8.795180722891567,0.5301204819277109,-4.27710843373494,0.5812385039852851,-8.660331085223788,-3.9386879215205393,3.0,0.4171384171384171,2397.285790313997,-0.13344210710331636,0.03309830429462177,0.16409300157333492,1353.113553113553,-1.0,80.75245410112129,0.41740125572249015,
2023-08-12 12:00:29.533000,-8.783132530120483,0.5301204819277109,-4.289156626506024,0.657265481299816,-8.633353770692827,-3.990190067443286,3.0,0.4171384171384171,2397.285790313997,0.2612901346075404,0.10990035545714054,0.07225686148825833,1356.0439560439559,-1.0,80.75245410112129,0.4173970860094117,
2023-08-12 12:00:29.540000,-8.783132530120483,0.49397590361445787,-4.289156626506024,0.615573267933783,-8.67259350091968,-3.9313304721030042,3.0,0.4171384171384171,2397.285790313997,-0.10943418215721719,-0.1196899947555499,0.056640055940795866,1357.5091575091574,-1.0,80.75245410112129,0.41739290712369653,
2023-08-12 12:00:29.548000,-8.807228915662652,0.5301204819277109,-4.27710843373494,0.6425505824647455,-8.694665849172287,-3.9509503372164314,3.0,0.4171384171384171,2397.285790313997,0.25557951168346904,-0.25266592855894116,0.01025581259833357,1358.2417582417581,-1.0,80.75245410112129,0.417388721526131,
2023-08-12 12:00:29.556000,-8.771084337349398,0.5180722891566265,-4.301204819277109,0.568976088289393,-8.655426118945432,-3.990190067443286,3.0,0.4171384171384171,2397.285790313997,-0.37422061651418964,-0.4455451314025987,-0.020395081871685868,1359.7069597069597,-1.0,80.75245410112129,0.4173845315748055,
2023-08-12 12:00:29.563000,-8.795180722891567,0.5421686746987953,-4.289156626506024,0.568976088289393,-8.716738197424892,-3.9386879215205393,3.0,0.4171384171384171,2397.285790313997,0.11794184488083388,-0.2537148184837722,-0.29520424217702934,1359.7069597069597,-1.0,80.75245410112129,0.41738033966396854,
2023-08-12 12:00:29.571000,-8.795180722891567,0.5180722891566265,-4.325301204819278,0.6253832004904966,-8.652973635806253,-3.9632127529123236,3.0,0.4171384171384171,2397.285790313997,-0.03496299749431863,-0.5211817493153074,-0.2596585280578057,1356.0439560439559,-1.0,80.75245410112129,0.41737614835251746,
2023-08-12 12:00:29.579000,-8.795180722891567,0.49397590361445787,-4.289156626506024,0.615573267933783,-8.699570815450643,-3.977927651747394,3.0,0.4171384171384171,2397.285790313997,-0.1877512965444903,-0.11362974185653599,0.03228250101975418,1350.9157509157508,-1.0,80.75245410112129,0.417371960194847,
2023-08-12 12:00:29.586000,-8.819277108433736,0.49397590361445787,-4.301204819277109,0.645003065603924,-8.635806253832005,-3.9435928877988964,3.0,0.4171384171384171,2397.285790313997,-0.08204650078666682,-0.44286463492803424,-0.304294621525552,1344.3223443223442,-1.0,80.75245410112129,0.41736777774225126,
2023-08-12 12:00:29.594000,-8.807228915662652,0.5180722891566265,-4.27710843373494,0.703862660944206,-8.75107296137339,-3.9460453709380747,3.0,0.4166944166944167,2399.840170484816,0.13041198065380769,-0.02191014509643891,0.005127906299166785,1334.065934065934,-1.0,80.75245410112129,0.4173636035234892,
2023-08-12 12:00:29.602000,-8.783132530120483,0.5060240963855422,-4.265060240963856,0.5959534028203556,-8.65787860208461,-3.955855303494788,3.0,0.4166944166944167,2399.840170484816,-0.08344502068644033,-0.18297302022026732,0.005594079599090998,1322.3443223443223,-1.0,80.75245410112129,0.4173594398974087,
2023-08-12 12:00:29.609000,-8.783132530120483,0.49397590361445787,-4.27710843373494,0.615573267933783,-8.675045984058858,-3.965665236051502,3.0,0.4171384171384171,2397.285790313997,-0.020628168521647974,-0.20744711846628985,-0.1443971796515354,1311.3553113553112,-1.0,80.75245410112129,0.41735528915099174,
2023-08-12 12:00:29.617000,-8.819277108433736,0.49397590361445787,-4.27710843373494,0.5714285714285714,-8.606376456161863,-3.9632127529123236,3.0,0.4171384171384171,2397.285790313997,0.025522988170851784,-0.4148942369325797,0.011887419148068318,1299.6336996336995,-1.0,80.75245410112129,0.417351153629185,
2023-08-12 12:00:29.625000,-8.783132530120483,0.5060240963855422,-4.289156626506024,0.5836909871244634,-8.670141017780502,-3.9313304721030042,3.0,0.4171384171384171,2397.285790313997,0.07214031816327662,0.02214323174640232,-0.17050288444729308,1290.8424908424909,-1.0,80.75245410112129,0.4173470357479787,
2023-08-12 12:00:29.632000,-8.783132530120483,0.5180722891566265,-4.253012048192772,0.6033108522378908,-8.633353770692827,-3.9386879215205393,3.0,0.4171384171384171,2397.285790313997,-0.0658469786142993,-0.35708874774197374,0.13740458015267176,1284.2490842490843,-1.0,80.75245410112129,0.4173429377099571,
2023-08-12 12:00:29.640000,-8.783132530120483,0.49397590361445787,-4.240963855421687,0.640098099325567,-8.721643163703249,-3.9803801348865724,3.0,0.4171384171384171,2397.285790313997,-0.23331973661208588,0.06048598566517042,-0.12190431793019056,1279.120879120879,-1.0,80.75245410112129,0.41733886151812,
2023-08-12 12:00:29.648000,-8.771084337349398,0.5060240963855422,-4.27710843373494,0.6106683016554261,-8.687308399754752,-3.9705702023298586,3.0,0.4171384171384171,2397.285790313997,0.07283957811316338,0.10815220558242453,0.031699784394848704,1275.4578754578754,-1.0,80.75245410112129,0.41733480911774123,
2023-08-12 12:00:29.655000,-8.771084337349398,0.5180722891566265,-4.253012048192772,0.5861434702636419,-8.670141017780502,-3.948497854077253,3.0,0.4171384171384171,2397.285790313997,-0.3693257968649841,0.04871510984208337,-0.15325447235009632,1273.260073260073,-1.0,80.75245410112129,0.4173307825283374,
2023-08-12 12:00:29.663000,-8.783132530120483,0.5180722891566265,-4.301204819277109,0.6351931330472103,-8.670141017780502,-3.9092581238503983,3.0,0.4171384171384171,2397.285790313997,-0.21245848144047624,-1.1654332498083647E-4,-0.12225394790513394,1271.7948717948716,-1.0,80.75245410112129,0.4173267838171925,
2023-08-12 12:00:29.671000,-8.795180722891567,0.5060240963855422,-4.289156626506024,0.6131207847946045,-8.645616186388718,-4.022072348252606,3.0,0.4171384171384171,2397.285790313997,0.03251558766971586,-0.0927684866849246,-0.06281685216479235,1270.3296703296703,-1.0,80.75245410112129,0.4173228149459745,
2023-08-12 12:00:29.678000,-8.795180722891567,0.5060240963855422,-4.289156626506024,0.645003065603924,-8.640711220110362,-3.9509503372164314,3.0,0.4171384171384171,2397.285790313997,-0.0734222947380693,-0.09335120330983052,0.05722277256570135,1267.3992673992673,-1.0,80.75245410112129,0.4173188777671768,
2023-08-12 12:00:29.686000,-8.783132530120483,0.5060240963855422,-4.265060240963856,0.6327406499080318,-8.67259350091968,-3.948497854077253,3.0,0.4171384171384171,2397.285790313997,-0.028086941320435394,-0.0953324398345082,-0.01969582192179955,1265.9340659340658,-1.0,80.75245410112129,0.4173149740211024,
2023-08-12 12:00:29.694000,-8.795180722891567,0.5301204819277109,-4.27710843373494,0.6327406499080318,-8.729000613120784,-3.919068056407112,3.0,0.4171384171384171,2397.285790313997,-0.12003962473049413,0.026804964745644456,-0.03647806071907211,1265.9340659340658,-1.0,80.75245410112129,0.4173111053334009,
2023-08-12 12:00:29.701000,-8.807228915662652,0.5060240963855422,-4.289156626506024,0.657265481299816,-8.618638871857755,-3.955855303494788,3.0,0.4171384171384171,2397.285790313997,0.32550550667210454,0.13087815395373276,0.00769185944874996,1265.9340659340658,-1.0,80.75245410112129,0.41730727321316824,
2023-08-12 12:00:29.709000,-8.795180722891567,0.5180722891566265,-4.27710843373494,0.6327406499080318,-8.655426118945432,-3.9754751686082157,3.0,0.4171384171384171,2397.285790313997,-0.07190723151331495,-0.0067595128489024,0.02225977507138272,1266.6666666666665,-1.0,80.75245410112129,0.4173034790516105,
2023-08-12 12:00:29.716000,-8.795180722891567,0.5060240963855422,-4.289156626506024,0.6302881667688535,-8.687308399754752,-3.9435928877988964,3.0,0.4171384171384171,2397.285790313997,-0.040440533768428356,0.3448516986189616,0.008391119398636281,1268.131868131868,-1.0,80.75245410112129,0.41729972412127636,
2023-08-12 12:00:29.724000,-8.795180722891567,0.49397590361445787,-4.265060240963856,0.6523605150214592,-8.648068669527897,-3.9460453709380747,3.0,0.4171384171384171,2397.285790313997,-0.1770293106462325,-0.06771167181399616,0.17644659402132748,1273.260073260073,-1.0,80.75245410112129,0.41729600957585505,
2023-08-12 12:00:29.732000,-8.783132530120483,0.5180722891566265,-4.27710843373494,0.627835683629675,-8.670141017780502,-3.9754751686082157,3.0,0.4166944166944167,2399.840170484816,-0.17388264087174474,-0.06631315191422439,0.1743488141716685,1278.3882783882782,-1.0,80.75245410112129,0.41729233645053204,
2023-08-12 12:00:29.739000,-8.783132530120483,0.49397590361445787,-4.301204819277109,0.6499080318822807,-8.684855916615573,-3.926425505824647,3.0,0.4171384171384171,2397.285790313997,0.057572402540644295,-0.01666569547229259,0.24881999883456662,1285.7142857142856,-1.0,80.75245410112129,0.41728870551360736,
2023-08-12 12:00:29.747000,-8.783132530120483,0.49397590361445787,-4.301204819277109,0.5812385039852851,-8.625996321275291,-3.9632127529123236,3.0,0.4166944166944167,2399.840170484816,0.1665404113979364,0.4746809626478651,-0.1517394091253424,1293.040293040293,-1.0,80.75245410112129,0.4172851173953634,
2023-08-12 12:00:29.755000,-8.771084337349398,0.49397590361445787,-4.27710843373494,0.6253832004904966,-8.54996934396076,-3.9803801348865724,3.0,0.4166944166944167,2399.840170484816,0.08857292698560755,0.1214381446302659,0.032515587669716295,1301.098901098901,-1.0,80.75245410112129,0.4172815727384364,
2023-08-12 12:00:29.762000,-8.783132530120483,0.4819277108433735,-4.301204819277109,0.6253832004904966,-8.630901287553648,-3.9386879215205393,3.0,0.4166944166944167,2399.840170484816,0.05815511916555022,0.10593788240778515,-0.013752112347765171,1308.4249084249084,-1.0,80.75245410112129,0.4172780718803675,
2023-08-12 12:00:29.770000,-8.795180722891567,0.4819277108433735,-4.27710843373494,0.6376456161863887,-8.599019006744328,-3.9313304721030042,3.0,0.4171384171384171,2397.285790313997,-0.06573043528931848,0.18075869704562622,-0.19695821921799417,1315.018315018315,-1.0,80.75245410112129,0.417274614865853,
2023-08-12 12:00:29.778000,-8.795180722891567,0.49397590361445787,-4.253012048192772,0.6253832004904966,-8.697118332311465,-3.960760269773145,3.0,0.4171384171384171,2397.285790313997,0.027737311345492885,0.17772857059611927,0.03507954081929947,1318.6813186813185,-1.0,80.75245410112129,0.41727120174654775,
2023-08-12 12:00:29.785000,-8.783132530120483,0.5180722891566265,-4.289156626506024,0.5885959534028203,-8.660331085223788,-3.9288779889638255,3.0,0.4171384171384171,2397.285790313997,-0.09405046325971728,0.22283083736378978,0.24660567565992642,1321.6117216117216,-1.0,80.75245410112129,0.4172678326044352,
2023-08-12 12:00:29.793000,-8.759036144578314,0.49397590361445787,-4.27710843373494,0.6523605150214592,-8.621091354996935,-3.960760269773145,3.0,0.4166944166944167,2399.840170484816,0.04556844006759558,0.08216304411164765,0.21455626129013475,1322.3443223443223,-1.0,80.75245410112129,0.41726450741653015,
2023-08-12 12:00:29.801000,-8.795180722891567,0.5180722891566265,-4.289156626506024,0.5787860208461066,-8.675045984058858,-3.9411404046597176,3.0,0.4171384171384171,2397.285790313997,-0.06258376551483068,0.07983217761202745,-0.0029135831245265527,1323.076923076923,-1.0,80.75245410112129,0.41726122590948317,
2023-08-12 12:00:29.808000,-8.783132530120483,0.5180722891566265,-4.27710843373494,0.6327406499080318,-8.665236051502145,-3.9117106069895766,3.0,0.4166944166944167,2399.840170484816,-0.048248936542160024,-0.12283666453003943,0.4532369908513491,1324.5421245421244,-1.0,80.75245410112129,0.4172579876913135,
2023-08-12 12:00:29.816000,-8.771084337349398,0.5301204819277109,-4.313253012048193,0.6474555487431024,-8.623543838136113,-3.9705702023298586,3.0,0.4166944166944167,2399.840170484816,0.10430627585804997,1.1654332498083647E-4,0.23518442981178272,1325.2747252747251,-1.0,80.75245410112129,0.41725479226577394,
2023-08-12 12:00:29.824000,-8.771084337349398,0.5301204819277109,-4.289156626506024,0.6719803801348866,-8.660331085223788,-4.004904966278357,3.0,0.4166944166944167,2399.840170484816,-0.0813472408367818,-0.15430336227492603,0.20115377891731254,1323.8095238095236,-1.0,80.75245410112129,0.4172516388766312,
2023-08-12 12:00:29.831000,-8.795180722891567,0.5060240963855422,-4.27710843373494,0.6474555487431024,-8.655426118945432,-3.9239730226854688,3.0,0.4171384171384171,2397.285790313997,-0.11293048190664923,-0.15407027562496434,-0.4422819183031292,1322.3443223443223,-1.0,80.75245410112129,0.4172485266499944,
2023-08-12 12:00:29.839000,-8.819277108433736,0.5180722891566265,-4.253012048192772,0.5640711220110362,-8.684855916615573,-3.987737584304108,3.0,0.4166944166944167,2399.840170484816,0.0397412738185416,-0.1883340131693962,-0.14789347940096742,1320.14652014652,-1.0,80.75245410112129,0.41724545474733243,
2023-08-12 12:00:29.847000,-8.819277108433736,0.5060240963855422,-4.265060240963856,0.6768853464132434,-8.660331085223788,-3.9288779889638255,3.0,0.4171384171384171,2397.285790313997,-0.37363789988928375,0.056756599265776704,-0.0980129363090731,1317.216117216117,-1.0,80.75245410112129,0.41724242224190605,
2023-08-12 12:00:29.854000,-8.819277108433736,0.5060240963855422,-4.27710843373494,0.615573267933783,-8.71919068056407,-3.9239730226854688,3.0,0.4171384171384171,2397.285790313997,0.11817493153079728,0.0867082337859107,-0.1278480275042245,1314.2857142857142,-1.0,80.75245410112129,0.4172394281130858,
2023-08-12 12:00:29.862000,-8.795180722891567,0.5301204819277109,-4.27710843373494,0.6253832004904966,-8.662783568362967,-3.9337829552421826,3.0,0.4166944166944167,2399.840170484816,0.1792436338208736,-0.036244974069109565,-0.20161995221723675,1312.8205128205127,-1.0,80.75245410112129,0.41723647141121234,
2023-08-12 12:00:29.870000,-8.807228915662652,0.5060240963855422,-4.289156626506024,0.6204782342121398,-8.623543838136113,-3.936235438381361,3.0,0.4171384171384171,2397.285790313997,0.1764465940213266,-0.0874074937357957,-0.4430977215779968,1309.89010989011,-1.0,80.75245410112129,0.41723355097554227,
2023-08-12 12:00:29.877000,-8.807228915662652,0.4819277108433735,-4.27710843373494,0.5935009196811771,-8.67259350091968,-3.958307786633967,3.0,0.4171384171384171,2397.285790313997,0.11456208845638441,-0.09032107686032356,-0.27154594720587355,1309.89010989011,-1.0,80.75245410112129,0.4172306655678913,
2023-08-12 12:00:29.885000,-8.807228915662652,0.5060240963855422,-4.27710843373494,0.5665236051502146,-8.682403433476395,-3.9166155732679337,3.0,0.4171384171384171,2397.285790313997,0.3420546588194163,0.1968416758930129,-0.1631606549734865,1312.087912087912,-1.0,80.75245410112129,0.41722781403800036,
2023-08-12 12:00:29.893000,-8.771084337349398,0.4819277108433735,-4.27710843373494,0.5567136725935009,-8.608828939301041,-3.9534028203556097,3.0,0.4171384171384171,2397.285790313997,0.2330866499621242,0.08624206048598561,-0.00850766272361755,1319.4139194139193,-1.0,80.75245410112129,0.41722499519121536,
2023-08-12 12:00:29.900000,-8.807228915662652,0.4819277108433735,-4.27710843373494,0.5959534028203556,-8.640711220110362,-3.9166155732679337,3.0,0.41625041625041626,2402.4,0.5349338616630739,0.2989336285764235,0.15978089854903574,1331.135531135531,-1.0,80.75245410112129,0.41722220779507496,
2023-08-12 12:00:29.908000,-8.783132530120483,0.4819277108433735,-4.301204819277109,0.598405885959534,-8.635806253832005,-3.914163090128755,3.0,0.4166944166944167,2399.840170484816,0.22539479051337338,0.20231921216712262,0.12947963405395968,1350.9157509157508,-1.0,80.75245410112129,0.41721945042619935,
2023-08-12 12:00:29.916000,-8.783132530120483,0.49397590361445787,-4.265060240963856,0.5885959534028203,-8.62844880441447,-3.9337829552421826,3.0,0.4166944166944167,2399.840170484816,0.4678049064739819,0.381213216013052,0.09941145620884573,1378.7545787545787,-1.0,80.75245410112129,0.41721672156228984,
2023-08-12 12:00:29.923000,-8.759036144578314,0.49397590361445787,-4.265060240963856,0.5861434702636419,-8.606376456161863,-3.9092581238503983,3.0,0.4166944166944167,2399.840170484816,0.3573218343919354,0.21071033156576022,0.22224812073888472,1416.8498168498168,-1.0,80.75245410112129,0.4172140195983031,
2023-08-12 12:00:29.931000,-8.771084337349398,0.49397590361445787,-4.301204819277109,0.6057633353770693,-8.633353770692827,-3.995095033721643,3.0,0.4166944166944167,2399.840170484816,0.1557018821746978,0.5758405687314255,-0.05500844939106112,1465.201465201465,-1.0,80.75245410112129,0.41721134273410565,
2023-08-12 12:00:29.939000,-8.783132530120483,0.5060240963855422,-4.289156626506024,0.6376456161863887,-8.64316370324954,-3.9386879215205393,3.0,0.4166944166944167,2399.840170484816,0.1250509877046788,0.5090612435172778,0.3293514363964804,1520.8791208791208,-1.0,80.75245410112129,0.4172086891281498,
2023-08-12 12:00:29.946000,-8.783132530120483,0.5060240963855422,-4.301204819277109,0.6057633353770693,-8.667688534641323,-3.995095033721643,3.0,0.4171384171384171,2397.285790313997,0.46127848027504287,0.8067128955189087,0.36023541751646154,1584.6153846153845,-1.0,80.75245410112129,0.417206056762959,
2023-08-12 12:00:29.954000,-8.819277108433736,0.5180722891566265,-4.337349397590362,0.5959534028203556,-8.645616186388718,-3.9828326180257507,3.0,0.4166944166944167,2399.840170484816,0.15430336227492603,0.29030942252782427,0.26548569430685837,1649.084249084249,-1.0,80.75245410112129,0.4172034437576261,
2023-08-12 12:00:29.962000,-8.807228915662652,0.5060240963855422,-4.301204819277109,0.6719803801348866,-8.64316370324954,-3.9926425505824645,3.0,0.4166944166944167,2399.840170484816,-0.014101742322708983,0.14649495950119434,0.6578870695180933,1714.2857142857142,-1.0,80.75245410112129,0.41720084837192,
2023-08-12 12:00:29.969000,-8.819277108433736,0.5180722891566265,-4.313253012048193,0.6082158185162476,-8.711833231146535,-3.9828326180257507,3.0,0.4171384171384171,2397.285790313997,0.2022026688421418,-0.18040906707068372,0.20791329176621406,1772.161172161172,-1.0,80.75245410112129,0.4171982687019935,
2023-08-12 12:00:29.977000,-8.819277108433736,0.5180722891566265,-4.289156626506024,0.6180257510729613,-8.71919068056407,-3.9754751686082157,3.0,0.4171384171384171,2397.285790313997,-0.09102033681020859,-0.3189790804731656,0.17504807412155482,1822.7106227106226,-1.0,80.75245410112129,0.4171957029723818,
2023-08-12 12:00:29.985000,-8.795180722891567,0.5180722891566265,-4.301204819277109,0.627835683629675,-8.665236051502145,-3.9509503372164314,3.0,0.4166944166944167,2399.840170484816,0.12318629450498193,-0.5033506205932047,-0.20861255171610038,1863.003663003663,-1.0,80.75245410112129,0.4171931495616499,
2023-08-12 12:00:29.992000,-8.795180722891567,0.5180722891566265,-4.301204819277109,0.6082158185162476,-8.648068669527897,-3.9926425505824645,3.0,0.4171384171384171,2397.285790313997,-0.0759862478876529,-0.6423868072956116,-0.13332556377833465,1888.6446886446886,-1.0,80.75245410112129,0.4171906067196272,
2023-08-12 12:00:30,-8.783132530120483,0.5421686746987953,-4.301204819277109,0.6131207847946045,-8.650521152667075,-4.019619865113427,3.0,0.4171384171384171,2397.285790313997,0.12458481440475544,-0.4725831827982048,-0.026571878095681917,1900.3663003663003,-1.0,80.75245410112129,0.41718807270009917,
2023-08-12 12:00:30.008000,-8.783132530120483,0.5301204819277109,-4.301204819277109,0.645003065603924,-8.665236051502145,-3.965665236051502,3.0,0.4171384171384171,2397.285790313997,0.12388555445486868,-0.47153429287337556,-0.02633879144571981,1896.7032967032965,788.970947265625,76.04842764862879,0.41718554592501367,
2023-08-12 12:00:30.015000,-8.783132530120483,0.5180722891566265,-4.265060240963856,0.6425505824647455,-8.623543838136113,-3.9460453709380747,3.0,0.4166944166944167,2399.840170484816,0.03135015441990576,-0.4093001573334891,0.14241594312685726,1884.249084249084,-1.0,76.04842764862879,0.417183024850798,
2023-08-12 12:00:30.023000,-8.783132530120483,0.5301204819277109,-4.301204819277109,0.6351931330472103,-8.62844880441447,-3.995095033721643,3.0,0.4171384171384171,2397.285790313997,0.016316065497348348,-0.46885379639881114,-0.05559116601596661,1860.07326007326,-1.0,76.04842764862879,0.4171805078241145,
2023-08-12 12:00:30.031000,-8.783132530120483,0.49397590361445787,-4.289156626506024,0.6008583690987124,-8.625996321275291,-3.9803801348865724,3.0,0.4171384171384171,2397.285790313997,0.12388555445486868,-0.46768836314900103,-0.11537789173125114,1827.8388278388277,-1.0,76.04842764862879,0.41717799321430715,
2023-08-12 12:00:30.038000,-8.759036144578314,0.5060240963855422,-4.253012048192772,0.5885959534028203,-8.677498467198038,-3.9705702023298586,3.0,0.4171384171384171,2397.285790313997,0.06223413553988644,-0.5246780490647394,0.100460346133675,1787.5457875457873,-1.0,76.04842764862879,0.4171754795773351,
2023-08-12 12:00:30.046000,-8.807228915662652,0.49397590361445787,-4.289156626506024,0.5616186388718577,-8.667688534641323,-3.889638258736971,3.0,0.4171384171384171,2397.285790313997,-0.07423809801293689,-0.49029776819532667,-0.06677932521414817,1742.8571428571427,-1.0,76.04842764862879,0.4171729655217978,
2023-08-12 12:00:30.054000,-8.819277108433736,0.4819277108433735,-4.265060240963856,0.6033108522378908,-8.724095646842427,-3.9386879215205393,3.0,0.41625041625041626,2402.4,-0.19521006934327773,-0.31466697744886596,0.026571878095681917,1691.5750915750914,-1.0,76.04842764862879,0.41717044971367073,
2023-08-12 12:00:30.061000,-8.819277108433736,0.49397590361445787,-4.289156626506024,0.6033108522378908,-8.729000613120784,-3.9632127529123236,3.0,0.4166944166944167,2399.840170484816,-0.2552298817085248,-0.39974360468504144,0.19427772274342972,1638.8278388278386,-1.0,76.04842764862879,0.41716793072115715,
2023-08-12 12:00:30.069000,-8.795180722891567,0.49397590361445787,-4.289156626506024,0.6131207847946045,-8.660331085223788,-3.8822808093194356,3.0,0.4166944166944167,2399.840170484816,-0.05454227609113734,-0.1018588660334472,-0.20266884214206643,1586.8131868131868,-1.0,76.04842764862879,0.4171654069657393,
2023-08-12 12:00:30.077000,-8.807228915662652,0.46987951807228917,-4.27710843373494,0.5959534028203556,-8.655426118945432,-3.9215205395462904,3.0,0.4171384171384171,2397.285790313997,-0.37445370316415133,-0.478993065672163,-0.13891964337742566,1536.263736263736,-1.0,76.04842764862879,0.4171628768951428,
2023-08-12 12:00:30.084000,-8.795180722891567,0.4819277108433735,-4.27710843373494,0.539546290619252,-8.665236051502145,-3.9313304721030042,3.0,0.4166944166944167,2399.840170484816,-0.033564477594545124,-0.18052561039566456,-0.12248703455509605,1489.3772893772893,-1.0,76.04842764862879,0.4171603391454268,
2023-08-12 12:00:30.092000,-8.783132530120483,0.49397590361445787,-4.289156626506024,0.539546290619252,-8.648068669527897,-3.977927651747394,3.0,0.4166944166944167,2399.840170484816,0.014684458947613166,-0.08787366703572079,-0.22644368043820307,1448.3516483516482,-1.0,76.04842764862879,0.4171577924155742,
2023-08-12 12:00:30.099000,-8.759036144578314,0.49397590361445787,-4.253012048192772,0.5836909871244634,-8.633353770692827,-3.877375843041079,3.0,0.4171384171384171,2397.285790313997,-0.31886253714818474,-0.3755025930889806,0.09428354990967895,1413.9194139194137,-1.0,76.04842764862879,0.4171552353103198,
2023-08-12 12:00:30.107000,-8.734939759036145,0.4819277108433735,-4.253012048192772,0.6229307173513182,-8.603923973022685,-3.9166155732679337,3.0,0.4166944166944167,2399.840170484816,-0.20546588194161217,-0.19217994289377077,-0.21350737136530507,1385.3479853479853,-1.0,76.04842764862879,0.417152666629912,
2023-08-12 12:00:30.115000,-8.771084337349398,0.49397590361445787,-4.253012048192772,0.6253832004904966,-8.557326793378294,-3.9288779889638255,3.0,0.4166944166944167,2399.840170484816,-0.2018530388671993,-0.191480682943884,-0.014218285647689385,1362.6373626373625,-1.0,76.04842764862879,0.41715008524417657,
2023-08-12 12:00:30.122000,-8.771084337349398,0.49397590361445787,-4.253012048192772,0.7014101778050276,-8.640711220110362,-3.9386879215205393,3.0,0.4166944166944167,2399.840170484816,-0.07691859448750134,0.12913000407901673,-0.22807528698793783,1343.5897435897434,-1.0,76.04842764862879,0.41714748993483375,
2023-08-12 12:00:30.130000,-8.783132530120483,0.5060240963855422,-4.27710843373494,0.627835683629675,-8.61128142244022,-3.9681177191906802,3.0,0.4166944166944167,2399.840170484816,-0.27014742730610136,0.1885670998193579,-0.01095507254821989,1328.937728937729,-1.0,76.04842764862879,0.4171448795354694,
2023-08-12 12:00:30.138000,-8.783132530120483,0.49397590361445787,-4.313253012048193,0.6327406499080318,-8.67259350091968,-3.955855303494788,3.0,0.4166944166944167,2399.840170484816,-0.2368160363615179,0.08088106753685671,-0.1497581726006643,1318.6813186813185,-1.0,76.04842764862879,0.41714225293253293,
2023-08-12 12:00:30.145000,-8.795180722891567,0.4819277108433735,-4.301204819277109,0.6523605150214592,-8.650521152667075,-3.9411404046597176,3.0,0.4166944166944167,2399.840170484816,-0.03577880076918622,0.033797564244508534,0.26152322125750255,1311.3553113553112,-1.0,76.04842764862879,0.4171396090661293,
2023-08-12 12:00:30.153000,-8.807228915662652,0.49397590361445787,-4.301204819277109,0.6229307173513182,-8.684855916615573,-4.0,3.0,0.4166944166944167,2399.840170484816,-0.4012586679097958,0.1438144630266299,0.30359536157566563,1302.5641025641025,-1.0,76.04842764862879,0.4171369469306061,
2023-08-12 12:00:30.161000,-8.807228915662652,0.5060240963855422,-4.313253012048193,0.6695278969957081,-8.697118332311465,-3.9754751686082157,3.0,0.4166944166944167,2399.840170484816,-0.1214381446302659,0.21875182098945356,0.10162577938348596,1291.5750915750914,-1.0,76.04842764862879,0.4171342657136971,
2023-08-12 12:00:30.168000,-8.807228915662652,0.5180722891566265,-4.289156626506024,0.598405885959534,-8.64316370324954,-3.894543225015328,3.0,0.4166944166944167,2399.840170484816,-0.17959326379581614,-0.22224812073888384,-0.18705203659460398,1279.8534798534797,-1.0,76.04842764862879,0.4171315646376069,
2023-08-12 12:00:30.176000,-8.807228915662652,0.5060240963855422,-4.301204819277109,0.6302881667688535,-8.741263028816677,-3.9754751686082157,3.0,0.4166944166944167,2399.840170484816,-0.17772857059611927,-0.12994580735388434,-0.13915273002738776,1267.3992673992673,-1.0,76.04842764862879,0.4171288428314401,
2023-08-12 12:00:30.184000,-8.807228915662652,0.49397590361445787,-4.27710843373494,0.6302881667688535,-8.660331085223788,-3.9534028203556097,3.0,0.4166944166944167,2399.840170484816,-0.008041489423693338,-0.035196084144280305,-0.06036944234019001,1254.9450549450548,-1.0,76.04842764862879,0.41712609948018115,
2023-08-12 12:00:30.191000,-8.795180722891567,0.49397590361445787,-4.27710843373494,0.657265481299816,-8.687308399754752,-3.9730226854690374,3.0,0.4166944166944167,2399.840170484816,-0.14497989627644,-0.07855020103723478,-0.27224520715576034,1246.153846153846,-1.0,76.04842764862879,0.4171233338242348,
2023-08-12 12:00:30.199000,-8.819277108433736,0.49397590361445787,-4.289156626506024,0.5910484365419988,-8.665236051502145,-3.9435928877988964,3.0,0.4166944166944167,2399.840170484816,-0.006876056173883237,0.21478934794009644,-0.05594079599090955,1240.2930402930401,-1.0,76.04842764862879,0.4171205451588347,
2023-08-12 12:00:30.207000,-8.807228915662652,0.5060240963855422,-4.289156626506024,0.5885959534028203,-8.682403433476395,-3.9166155732679337,3.0,0.41625041625041626,2402.4,-0.25045160538430183,0.03414719421945104,-0.17528116077151693,1234.4322344322343,-1.0,76.04842764862879,0.4171177328333376,
2023-08-12 12:00:30.214000,-8.783132530120483,0.49397590361445787,-4.301204819277109,0.598405885959534,-8.613733905579398,-3.889638258736971,3.0,0.4166944166944167,2399.840170484816,0.010139269273351865,-0.1279645708292049,0.18064215372064582,1234.4322344322343,-1.0,76.04842764862879,0.4171148962398697,
2023-08-12 12:00:30.222000,-8.783132530120483,0.49397590361445787,-4.265060240963856,0.5714285714285714,-8.655426118945432,-3.9092581238503983,3.0,0.4166944166944167,2399.840170484816,-0.29403880892721795,0.12097197133034257,0.16712312802284232,1239.5604395604396,-1.0,76.04842764862879,0.4171120349194744,
2023-08-12 12:00:30.230000,-8.795180722891567,0.5060240963855422,-4.253012048192772,0.5935009196811771,-8.706928264868179,-3.965665236051502,3.0,0.4166944166944167,2399.840170484816,-0.488316531670649,0.6877221607132455,0.02948546122020847,1248.3516483516482,-1.0,76.04842764862879,0.41710914843334423,
2023-08-12 12:00:30.237000,-8.795180722891567,0.4819277108433735,-4.253012048192772,0.6351931330472103,-8.711833231146535,-3.8626609442060085,3.0,0.4166944166944167,2399.840170484816,-0.16455917487325872,0.10477244915797505,0.16992016782238803,1261.5384615384614,-1.0,76.04842764862879,0.41710623624435206,
2023-08-12 12:00:30.245000,-8.819277108433736,0.5060240963855422,-4.253012048192772,0.6131207847946045,-8.648068669527897,-3.9043531575720416,3.0,0.4166944166944167,2399.840170484816,0.07971563428704662,-0.09136996678515283,0.04801584989219748,1276.1904761904761,-1.0,76.04842764862879,0.41710329786471795,
2023-08-12 12:00:30.253000,-8.819277108433736,0.5060240963855422,-4.253012048192772,0.615573267933783,-8.692213366033108,-3.9411404046597176,3.0,0.4166944166944167,2399.840170484816,0.08006526426198912,0.2473049356098123,-0.196142415943127,1290.8424908424909,-1.0,76.04842764862879,0.4171003328543695,
2023-08-12 12:00:30.260000,-8.819277108433736,0.5180722891566265,-4.265060240963856,0.5591661557326794,-8.633353770692827,-3.9239730226854688,3.0,0.4166944166944167,2399.840170484816,-0.10407318920808831,0.18425499679505827,-0.05698968591573925,1305.4945054945053,-1.0,76.04842764862879,0.41709734081931066,
2023-08-12 12:00:30.268000,-8.771084337349398,0.5180722891566265,-4.289156626506024,0.6548129981606376,-8.67259350091968,-3.958307786633967,3.0,0.4166944166944167,2399.840170484816,0.10885146553231127,0.258609638132976,0.20278538546704727,1318.6813186813185,-1.0,76.04842764862879,0.41709432141002045,
2023-08-12 12:00:30.276000,-8.759036144578314,0.5180722891566265,-4.253012048192772,0.615573267933783,-8.660331085223788,-3.919068056407112,3.0,0.4166944166944167,2399.840170484816,-0.029951634520132248,0.40720237748382887,0.17108560107219858,1330.4029304029302,-1.0,76.04842764862879,0.41709127445864685,
2023-08-12 12:00:30.283000,-8.795180722891567,0.5301204819277109,-4.27710843373494,0.6474555487431024,-8.67259350091968,-3.9386879215205393,3.0,0.4166944166944167,2399.840170484816,-0.030068177845113085,0.4023075578346251,0.16770584464774782,1342.1245421245421,-1.0,76.04842764862879,0.4170881998183881,
2023-08-12 12:00:30.291000,-8.771084337349398,0.5421686746987953,-4.313253012048193,0.6131207847946045,-8.62844880441447,-4.002452483139178,3.0,0.4166944166944167,2399.840170484816,-0.2287745469378246,0.034729910844356955,-0.08029835091195167,1350.18315018315,-1.0,76.04842764862879,0.41708509737322036,
2023-08-12 12:00:30.299000,-8.759036144578314,0.5180722891566265,-4.27710843373494,0.6229307173513182,-8.65787860208461,-3.9926425505824645,3.0,0.4166944166944167,2399.840170484816,-0.107802575607482,-0.16549152147310714,0.2090787250160246,1356.7765567765566,-1.0,76.04842764862879,0.4170819670265528,
2023-08-12 12:00:30.306000,-8.783132530120483,0.5421686746987953,-4.289156626506024,0.5665236051502146,-8.731453096259962,-4.039239730226854,3.0,0.4166944166944167,2399.840170484816,-0.0027970397995452823,0.23297010663714163,0.08391119398636454,1361.1721611721612,-1.0,76.04842764862879,0.4170788085722165,
2023-08-12 12:00:30.314000,-8.783132530120483,0.5180722891566265,-4.27710843373494,0.657265481299816,-8.64316370324954,-3.9705702023298586,3.0,0.4166944166944167,2399.840170484816,-0.09603169978439496,0.39892780141017387,-0.010022725948371463,1362.6373626373625,-1.0,76.04842764862879,0.417075621981037,
2023-08-12 12:00:30.322000,-8.783132530120483,0.5060240963855422,-4.253012048192772,0.640098099325567,-8.67259350091968,-3.955855303494788,3.0,0.4166944166944167,2399.840170484816,0.11735912825592969,-0.2914748557776361,-0.10162577938348596,1361.1721611721612,-1.0,76.04842764862879,0.41707240724037337,
2023-08-12 12:00:30.329000,-8.783132530120483,0.5180722891566265,-4.265060240963856,0.6744328632740649,-8.645616186388718,-3.9411404046597176,3.0,0.4166944166944167,2399.840170484816,-0.0374104073189214,-0.04347066021793532,-0.010721985898257782,1357.5091575091574,-1.0,76.04842764862879,0.41706916422532503,
2023-08-12 12:00:30.337000,-8.783132530120483,0.5180722891566265,-4.289156626506024,0.627835683629675,-8.652973635806253,-3.960760269773145,3.0,0.4166944166944167,2399.840170484816,-0.024823728220966765,-0.17901054717091022,-0.1636268282734107,1352.3809523809523,-1.0,76.04842764862879,0.41706589284681317,
2023-08-12 12:00:30.345000,-8.807228915662652,0.5060240963855422,-4.313253012048193,0.5910484365419988,-8.684855916615573,-3.9239730226854688,3.0,0.4166944166944167,2399.840170484816,-0.4197890565817835,-0.2971854787017075,0.09777984965911098,1346.5201465201465,-1.0,76.04842764862879,0.41706259305054205,
2023-08-12 12:00:30.352000,-8.783132530120483,0.5301204819277109,-4.289156626506024,0.6131207847946045,-8.623543838136113,-3.919068056407112,3.0,0.4166944166944167,2399.840170484816,-0.27795583007983304,-0.04696695996736735,-0.2666511275566693,1340.6593406593406,-1.0,76.04842764862879,0.41705926495489337,
2023-08-12 12:00:30.360000,-8.783132530120483,0.49397590361445787,-4.27710843373494,0.5542611894543225,-8.667688534641323,-3.9166155732679337,3.0,0.41625041625041626,2402.4,-0.07726822446244384,-0.08775712371073996,-0.2329701066371425,1334.7985347985348,-1.0,76.04842764862879,0.41705590882988625,
2023-08-12 12:00:30.368000,-8.795180722891567,0.4819277108433735,-4.289156626506024,0.5370938074800735,-8.630901287553648,-3.9313304721030042,3.0,0.41625041625041626,2402.4,-0.01713186877221594,0.13041198065380769,0.10500553580793673,1328.2051282051282,-1.0,76.04842764862879,0.4170525247994255,
2023-08-12 12:00:30.375000,-8.819277108433736,0.49397590361445787,-4.289156626506024,0.5885959534028203,-8.694665849172287,-3.9386879215205393,3.0,0.4166944166944167,2399.840170484816,-0.16910436454752,-0.17085251442223603,-0.27492570363032476,1322.3443223443223,-1.0,76.04842764862879,0.417049112820269,
2023-08-12 12:00:30.383000,-8.795180722891567,0.49397590361445787,-4.27710843373494,0.5616186388718577,-8.635806253832005,-3.958307786633967,3.0,0.4166944166944167,2399.840170484816,-0.19928908571761567,-0.18145795699551298,-0.07353883806305013,1316.4835164835165,-1.0,76.04842764862879,0.4170456729692328,
2023-08-12 12:00:30.391000,-8.795180722891567,0.49397590361445787,-4.27710843373494,0.5567136725935009,-8.677498467198038,-3.9509503372164314,3.0,0.4166944166944167,2399.840170484816,0.18542043004486836,0.02109434182157132,-0.07202377483829622,1309.1575091575091,-1.0,76.04842764862879,0.4170422054640519,
2023-08-12 12:00:30.398000,-8.795180722891567,0.49397590361445787,-4.27710843373494,0.6425505824647455,-8.670141017780502,-3.9117106069895766,3.0,0.4166944166944167,2399.840170484816,-0.1988229124176906,-0.14474680962647835,-0.05594079599090955,1304.0293040293038,-1.0,76.04842764862879,0.4170387103863898,
2023-08-12 12:00:30.406000,-8.807228915662652,0.49397590361445787,-4.301204819277109,0.5812385039852851,-8.62844880441447,-4.012262415695892,3.0,0.4166944166944167,2399.840170484816,-0.10500553580793673,-0.050113629741856874,0.2329701066371425,1297.4358974358975,-1.0,76.04842764862879,0.4170351878415095,
2023-08-12 12:00:30.414000,-8.783132530120483,0.46987951807228917,-4.313253012048193,0.568976088289393,-8.755977927651747,-3.960760269773145,3.0,0.4166944166944167,2399.840170484816,-0.11817493153079728,-0.30942252782471963,-0.015849892197424567,1294.5054945054944,-1.0,76.04842764862879,0.417031637947717,
2023-08-12 12:00:30.421000,-8.783132530120483,0.4819277108433735,-4.27710843373494,0.6180257510729613,-8.648068669527897,-3.9534028203556097,3.0,0.4166944166944167,2399.840170484816,-0.23926344618611894,-0.597867257152847,0.1828564768952856,1290.8424908424909,-1.0,76.04842764862879,0.417028060708271,
2023-08-12 12:00:30.429000,-8.807228915662652,0.4819277108433735,-4.27710843373494,0.6351931330472103,-8.623543838136113,-3.9019006744328633,3.0,0.4166944166944167,2399.840170484816,0.41769127673212497,-0.3348289726705906,0.15057397587553187,1287.9120879120878,-1.0,76.04842764862879,0.4170244562990012,
2023-08-12 12:00:30.437000,-8.795180722891567,0.49397590361445787,-4.265060240963856,0.5935009196811771,-8.594114040465971,-3.9705702023298586,3.0,0.4166944166944167,2399.840170484816,0.3073247479750594,-0.4551016840510464,0.25604568498339236,1286.4468864468863,-1.0,76.04842764862879,0.4170208250477538,
2023-08-12 12:00:30.444000,-8.783132530120483,0.4819277108433735,-4.228915662650603,0.6057633353770693,-8.608828939301041,-3.936235438381361,3.0,0.4166944166944167,2399.840170484816,0.014567915622632328,0.0057106229240714,-0.2646698910319912,1285.7142857142856,-1.0,76.04842764862879,0.4170171671477319,
2023-08-12 12:00:30.452000,-8.74698795180723,0.49397590361445787,-4.27710843373494,0.5935009196811771,-8.621091354996935,-3.9117106069895766,3.0,0.4166944166944167,2399.840170484816,-0.3967134782355345,-0.10384010255812663,-0.35452479459238967,1284.2490842490843,-1.0,76.04842764862879,0.4170134826793146,
2023-08-12 12:00:30.459000,-8.771084337349398,0.5060240963855422,-4.265060240963856,0.6008583690987124,-8.670141017780502,-3.9509503372164314,3.0,0.4166944166944167,2399.840170484816,0.0621175922149056,0.21537206456500235,-0.19928908571761567,1283.5164835164835,-1.0,76.04842764862879,0.41700977189829563,
2023-08-12 12:00:30.467000,-8.795180722891567,0.5060240963855422,-4.289156626506024,0.6033108522378908,-8.648068669527897,-3.9313304721030042,3.0,0.4171384171384171,2397.285790313997,-0.337509469145155,0.16572460812307055,0.15325447235009632,1284.9816849816848,-1.0,76.04842764862879,0.41700603507719924,
2023-08-12 12:00:30.475000,-8.843373493975903,0.4819277108433735,-4.313253012048193,0.6106683016554261,-8.704475781729,-3.955855303494788,3.0,0.4166944166944167,2399.840170484816,0.0012819765747909368,0.0904376201853044,0.3176971038983742,1287.179487179487,-1.0,76.04842764862879,0.41700227266640316,
2023-08-12 12:00:30.482000,-8.831325301204819,0.49397590361445787,-4.289156626506024,0.5321888412017167,-8.694665849172287,-3.9092581238503983,3.0,0.4166944166944167,2399.840170484816,-0.4264320261057051,-0.7362041839053672,0.5894761377542103,1288.6446886446886,-1.0,76.04842764862879,0.41699848529637057,
2023-08-12 12:00:30.490000,-8.795180722891567,0.45783132530120485,-4.265060240963856,0.5763335377069282,-8.682403433476395,-3.9754751686082157,3.0,0.4166944166944167,2399.840170484816,0.2316881300623507,-0.04451955014276631,0.5221140959151562,1289.3772893772893,-1.0,76.04842764862879,0.41699467347168667,
2023-08-12 12:00:30.498000,-8.783132530120483,0.5060240963855422,-4.27710843373494,0.5493562231759657,-8.670141017780502,-3.9460453709380747,3.0,0.4166944166944167,2399.840170484816,-0.03100052444496325,-0.22690985373812772,-0.18460462677000164,1291.5750915750914,-1.0,76.04842764862879,0.41699083771228934,
2023-08-12 12:00:30.505000,-8.759036144578314,0.5180722891566265,-4.289156626506024,0.6106683016554261,-8.62844880441447,-3.9411404046597176,3.0,0.4166944166944167,2399.840170484816,-0.27341064040557,-0.3627993706660451,-0.5817842783054599,1293.7728937728937,-1.0,76.04842764862879,0.41698697855595335,
2023-08-12 12:00:30.513000,-8.771084337349398,0.5180722891566265,-4.240963855421687,0.6180257510729613,-8.652973635806253,-3.9239730226854688,3.0,0.41625041625041626,2402.4,-0.5158207563661785,-0.313385000874075,-0.1502243459005885,1293.7728937728937,-1.0,76.04842764862879,0.41698309656076965,
2023-08-12 12:00:30.521000,-8.783132530120483,0.4819277108433735,-4.253012048192772,0.5444512568976088,-8.716738197424892,-3.936235438381361,3.0,0.4166944166944167,2399.840170484816,-0.20628168521647974,0.008857292698560929,0.18577006001981217,1296.7032967032967,-1.0,76.04842764862879,0.4169791921583053,
2023-08-12 12:00:30.528000,-8.831325301204819,0.49397590361445787,-4.265060240963856,0.568976088289393,-8.65787860208461,-3.9460453709380747,3.0,0.4166944166944167,2399.840170484816,-0.1903152496940739,0.3292348930715,0.0924188567099821,1298.168498168498,-1.0,76.04842764862879,0.4169752657834417,
2023-08-12 12:00:30.536000,-8.795180722891567,0.5180722891566265,-4.265060240963856,0.6719803801348866,-8.711833231146535,-3.8994481912936845,3.0,0.4166944166944167,2399.840170484816,-0.47957578229706893,0.4499737777518792,0.15407027562496348,1298.9010989010987,-1.0,76.04842764862879,0.4169713180356843,
2023-08-12 12:00:30.544000,-8.795180722891567,0.5301204819277109,-4.27710843373494,0.6670754138565297,-8.687308399754752,-3.9534028203556097,3.0,0.4166944166944167,2399.840170484816,0.1982401957927864,0.46349280344968224,0.3214264902977683,1300.3663003663003,-1.0,76.04842764862879,0.4169673495425341,
2023-08-12 12:00:30.551000,-8.819277108433736,0.5180722891566265,-4.253012048192772,0.6474555487431024,-8.65787860208461,-3.889638258736971,3.0,0.41625041625041626,2402.4,-0.23110541343744478,-0.16607423809801306,0.288910902628052,1302.5641025641025,-1.0,76.04842764862879,0.4169633609615419,
2023-08-12 12:00:30.559000,-8.795180722891567,0.5180722891566265,-4.253012048192772,0.5910484365419988,-8.679950950337217,-3.9828326180257507,3.0,0.4166944166944167,2399.840170484816,-0.22690985373812772,-0.16595769477303224,0.28681312277839266,1304.7619047619046,-1.0,76.04842764862879,0.41695935269424184,
2023-08-12 12:00:30.567000,-8.783132530120483,0.5060240963855422,-4.27710843373494,0.6523605150214592,-8.616186388718576,-3.9632127529123236,3.0,0.4166944166944167,2399.840170484816,-0.07482081463784107,-0.6864401841384529,-0.0971971330342055,1306.227106227106,-1.0,76.04842764862879,0.41695532517458334,
2023-08-12 12:00:30.574000,-8.807228915662652,0.5060240963855422,-4.289156626506024,0.6817903126916002,-8.61128142244022,-3.9754751686082157,3.0,0.4166944166944167,2399.840170484816,0.09509935318454654,-0.422935726356273,0.22189849076394133,1306.9597069597069,-1.0,76.04842764862879,0.41695127915726893,
2023-08-12 12:00:30.582000,-8.795180722891567,0.5180722891566265,-4.253012048192772,0.6670754138565297,-8.679950950337217,-3.965665236051502,3.0,0.4166944166944167,2399.840170484816,-0.0427714002680503,-0.056640055940795866,0.11129887535691405,1306.9597069597069,-1.0,76.04842764862879,0.41694721543139934,
2023-08-12 12:00:30.590000,-8.807228915662652,0.5301204819277109,-4.27710843373494,0.6670754138565297,-8.667688534641323,-3.9117106069895766,3.0,0.4166944166944167,2399.840170484816,-0.05862129246547356,0.0961482431093758,-0.01153778917312494,1306.227106227106,-1.0,76.04842764862879,0.4169431348220501,
2023-08-12 12:00:30.597000,-8.831325301204819,0.5301204819277109,-4.240963855421687,0.6229307173513182,-8.61128142244022,-3.926425505824647,3.0,0.4166944166944167,2399.840170484816,-0.39414952508595086,0.01619952217236751,-0.15127323582541818,1306.9597069597069,-1.0,76.04842764862879,0.4169390381917295,
2023-08-12 12:00:30.605000,-8.795180722891567,0.5180722891566265,-4.240963855421687,0.615573267933783,-8.682403433476395,-3.9166155732679337,3.0,0.4166944166944167,2399.840170484816,-0.3743371598391705,0.0010488899248292638,0.17038634112231227,1307.6923076923076,-1.0,76.04842764862879,0.41693492644170466,
2023-08-12 12:00:30.613000,-8.783132530120483,0.49397590361445787,-4.27710843373494,0.6768853464132434,-8.64316370324954,-3.9288779889638255,3.0,0.4166944166944167,2399.840170484816,-0.2036011887419153,0.030534351145038167,0.1689878212225396,1308.4249084249084,-1.0,76.04842764862879,0.4169308005131914,
2023-08-12 12:00:30.620000,-8.795180722891567,0.5060240963855422,-4.240963855421687,0.627835683629675,-8.61128142244022,-3.9117106069895766,3.0,0.4166944166944167,2399.840170484816,-0.01841384534700861,0.4870345550958563,-0.15418681894994474,1305.4945054945053,-1.0,76.04842764862879,0.4169266613883979,
2023-08-12 12:00:30.628000,-8.807228915662652,0.5060240963855422,-4.27710843373494,0.627835683629675,-8.694665849172287,-3.9411404046597176,3.0,0.4166944166944167,2399.840170484816,-0.12435172775479203,0.40405570770934107,0.22854146028786204,1305.4945054945053,-1.0,76.04842764862879,0.4169225100914159,
2023-08-12 12:00:30.636000,-8.795180722891567,0.5180722891566265,-4.265060240963856,0.6008583690987124,-8.699570815450643,-3.9313304721030042,3.0,0.4166944166944167,2399.840170484816,0.28995979255288173,0.5386632480624676,-0.0037293863993941435,1307.6923076923076,-1.0,76.04842764862879,0.4169183475502023,
2023-08-12 12:00:30.643000,-8.783132530120483,0.5060240963855422,-4.27710843373494,0.7431023911710607,-8.670141017780502,-3.9509503372164314,3.0,0.4166944166944167,2399.840170484816,-0.048015849892196615,0.37923197948837434,0.2260940504632597,1315.018315018315,-1.0,76.04842764862879,0.4169141746175264,
2023-08-12 12:00:30.651000,-8.807228915662652,0.5421686746987953,-4.265060240963856,0.5567136725935009,-8.660331085223788,-3.9239730226854688,3.0,0.4166944166944167,2399.840170484816,-0.0640988287395833,0.5752578521065214,0.2995163452013286,1329.6703296703297,-1.0,76.04842764862879,0.41690999221935987,
2023-08-12 12:00:30.659000,-8.807228915662652,0.5301204819277109,-4.27710843373494,0.6131207847946045,-8.675045984058858,-3.9411404046597176,3.0,0.4166944166944167,2399.840170484816,0.10547170910786008,0.663248062467223,0.25138395198415026,1353.113553113553,-1.0,76.04842764862879,0.41690580149274437,
2023-08-12 12:00:30.666000,-8.795180722891567,0.5180722891566265,-4.289156626506024,0.6621704475781729,-8.694665849172287,-3.965665236051502,3.0,0.41625041625041626,2402.4,0.25511333838354394,0.9943476487384181,0.27853854670473766,1386.080586080586,-1.0,76.04842764862879,0.41690160376455226,
2023-08-12 12:00:30.674000,-8.795180722891567,0.5301204819277109,-4.27710843373494,0.6351931330472103,-8.640711220110362,-3.9215205395462904,3.0,0.41625041625041626,2402.4,0.3589534409416706,0.2843657129537912,0.21409008799021054,1429.3040293040292,-1.0,76.04842764862879,0.4168974002533527,
2023-08-12 12:00:30.682000,-8.771084337349398,0.5180722891566265,-4.27710843373494,0.5836909871244634,-8.648068669527897,-3.9239730226854688,3.0,0.4166944166944167,2399.840170484816,0.05162869296660949,0.23553405978672523,-0.032632130994697126,1484.2490842490843,-1.0,76.04842764862879,0.4168931920477988,
2023-08-12 12:00:30.689000,-8.74698795180723,0.5060240963855422,-4.27710843373494,0.6302881667688535,-8.635806253832005,-3.9435928877988964,3.0,0.4166944166944167,2399.840170484816,-0.07097488491346653,0.20231921216712262,0.2577938348581084,1546.5201465201465,-1.0,76.04842764862879,0.41688898039305056,
2023-08-12 12:00:30.697000,-8.783132530120483,0.5301204819277109,-4.27710843373494,0.627835683629675,-8.670141017780502,-3.955855303494788,3.0,0.4166944166944167,2399.840170484816,0.11304702523163007,0.21513897791504066,0.14847619602587248,1613.9194139194137,-1.0,76.04842764862879,0.4168847667106413,
2023-08-12 12:00:30.705000,-8.783132530120483,0.49397590361445787,-4.301204819277109,0.6425505824647455,-8.635806253832005,-3.965665236051502,3.0,0.4166944166944167,2399.840170484816,0.2797039799545473,0.4119806538080536,0.3757356797389431,1682.051282051282,-1.0,76.04842764862879,0.41688055245901984,
2023-08-12 12:00:30.712000,-8.795180722891567,0.5180722891566265,-4.301204819277109,0.6302881667688535,-8.662783568362967,-3.958307786633967,3.0,0.4166944166944167,2399.840170484816,-0.23856418623623393,-0.0941670065846981,0.31152030767437816,1749.4505494505493,-1.0,76.04842764862879,0.416876339132647,
2023-08-12 12:00:30.720000,-8.783132530120483,0.5180722891566265,-4.289156626506024,0.6106683016554261,-8.665236051502145,-4.017167381974248,3.0,0.4166944166944167,2399.840170484816,-0.09941145620884616,-0.01736495542217761,0.11048307208204645,1808.7912087912086,-1.0,76.04842764862879,0.416872128260899,
2023-08-12 12:00:30.728000,-8.795180722891567,0.5060240963855422,-4.313253012048193,0.598405885959534,-8.64316370324954,-3.9534028203556097,3.0,0.4171384171384171,2397.285790313997,-0.09847910960899774,-0.09113688013518942,0.2772565701299458,1857.8754578754576,-1.0,76.04842764862879,0.4168679214067797,
2023-08-12 12:00:30.735000,-8.795180722891567,0.5060240963855422,-4.325301204819278,0.6499080318822807,-8.623543838136113,-3.9411404046597176,3.0,0.4166944166944167,2399.840170484816,0.3136180875240367,-0.4117475671580902,0.12341938115494447,1893.7728937728937,-1.0,76.04842764862879,0.41686372031473495,
2023-08-12 12:00:30.743000,-8.795180722891567,0.5060240963855422,-4.313253012048193,0.598405885959534,-8.687308399754752,-3.9926425505824645,3.0,0.4166944166944167,2399.840170484816,-0.22399627061359986,-0.4093001573334891,0.062350678864868135,1916.4835164835163,-1.0,76.04842764862879,0.4168595267815725,
2023-08-12 12:00:30.751000,-8.795180722891567,0.5180722891566265,-4.289156626506024,0.6351931330472103,-8.667688534641323,-3.948497854077253,3.0,0.4166944166944167,2399.840170484816,-0.14509643960142257,-0.14696113280111944,0.10920109550725465,1925.2747252747251,-1.0,76.04842764862879,0.4168553423569305,
2023-08-12 12:00:30.758000,-8.795180722891567,0.5180722891566265,-4.27710843373494,0.657265481299816,-8.682403433476395,-3.9509503372164314,3.0,0.4166944166944167,2399.840170484816,-0.2644368043820282,-0.5393625080123543,0.12213740458015267,1920.14652014652,-1.0,76.04842764862879,0.4168511685005749,
2023-08-12 12:00:30.766000,-8.795180722891567,0.5180722891566265,-4.27710843373494,0.657265481299816,-8.692213366033108,-3.9337829552421826,3.0,0.4166944166944167,2399.840170484816,-0.184954256744945,-0.5802692150807061,0.044752636792727556,1901.098901098901,-1.0,76.04842764862879,0.41684700686712967,
2023-08-12 12:00:30.774000,-8.795180722891567,0.5060240963855422,-4.27710843373494,0.6474555487431024,-8.711833231146535,-4.004904966278357,3.0,0.4166944166944167,2399.840170484816,0.12272012120505858,-0.7278130645067297,-0.18507080006992585,1871.0622710622708,-1.0,76.04842764862879,0.41684285928241627,
2023-08-12 12:00:30.781000,-8.807228915662652,0.5060240963855422,-4.27710843373494,0.7234825260576333,-8.684855916615573,-3.9730226854690374,3.0,0.4166944166944167,2399.840170484816,-0.2904259658528051,-0.7667385350504053,-0.12446827107977373,1831.5018315018315,788.970947265625,76.04842764862879,0.4168387275922095,
2023-08-12 12:00:30.789000,-8.783132530120483,0.5060240963855422,-4.289156626506024,0.6008583690987124,-8.652973635806253,-3.867565910484365,3.0,0.4166944166944167,2399.840170484816,-0.2569780315832408,-0.652642619893946,-0.10838529223238749,1785.3479853479853,-1.0,76.04842764862879,0.41683461366012686,
2023-08-12 12:00:30.797000,-8.795180722891567,0.4819277108433735,-4.27710843373494,0.6499080318822807,-8.677498467198038,-3.9509503372164314,3.0,0.4166944166944167,2399.840170484816,-0.2552298817085248,-0.4626770001748146,-0.2739933570304759,1734.7985347985348,-1.0,76.04842764862879,0.4168305192266153,
2023-08-12 12:00:30.804000,-8.783132530120483,0.5180722891566265,-4.240963855421687,0.6057633353770693,-8.675045984058858,-3.919068056407112,3.0,0.4166944166944167,2399.840170484816,-0.35930307091661307,-0.2904259658528051,0.01946273527183744,1682.7838827838827,-1.0,76.04842764862879,0.4168264460656635,
2023-08-12 12:00:30.812000,-8.807228915662652,0.5060240963855422,-4.27710843373494,0.5640711220110362,-8.684855916615573,-3.9534028203556097,3.0,0.4166944166944167,2399.840170484816,-0.05116251966668614,-0.3179301905483363,0.15640114212458497,1632.2344322344322,-1.0,76.04842764862879,0.4168223961098539,
2023-08-12 12:00:30.820000,-8.807228915662652,0.49397590361445787,-4.265060240963856,0.6253832004904966,-8.675045984058858,-3.919068056407112,3.0,0.41625041625041626,2402.4,0.05629042596585336,-0.22457898723850578,0.06677932521414817,1583.8827838827838,-1.0,76.04842764862879,0.4168183711598176,
2023-08-12 12:00:30.827000,-8.783132530120483,0.4819277108433735,-4.265060240963856,0.598405885959534,-8.692213366033108,-3.965665236051502,3.0,0.41625041625041626,2402.4,-0.1259833343045272,-0.16152904842375176,0.1288969174290542,1539.9267399267399,-1.0,76.04842764862879,0.4168143730301844,
2023-08-12 12:00:30.835000,-8.807228915662652,0.4819277108433735,-4.253012048192772,0.5591661557326794,-8.625996321275291,-3.9166155732679337,3.0,0.4166944166944167,2399.840170484816,-0.1250509877046788,-0.1611794184488075,0.12924654740399757,1499.6336996336995,-1.0,76.04842764862879,0.41681040349343135,
2023-08-12 12:00:30.842000,-8.807228915662652,0.49397590361445787,-4.253012048192772,0.6548129981606376,-8.650521152667075,-3.9092581238503983,3.0,0.4166944166944167,2399.840170484816,-0.002214323174639364,-0.344035895344094,-0.18064215372064582,1461.5384615384614,-1.0,76.04842764862879,0.41680646428665186,
2023-08-12 12:00:30.850000,-8.795180722891567,0.49397590361445787,-4.27710843373494,0.6131207847946045,-8.65787860208461,-3.919068056407112,3.0,0.4166944166944167,2399.840170484816,-0.2760911368801344,-0.03717732066895799,-0.08903910028553133,1427.8388278388277,-1.0,76.04842764862879,0.41680255727786425,
2023-08-12 12:00:30.858000,-8.771084337349398,0.5180722891566265,-4.253012048192772,0.5935009196811771,-8.679950950337217,-3.9386879215205393,3.0,0.4166944166944167,2399.840170484816,-0.13880310005244526,0.08600897383602393,-0.028320027970397933,1399.2673992673992,-1.0,76.04842764862879,0.41679868432380873,
2023-08-12 12:00:30.865000,-8.807228915662652,0.5060240963855422,-4.240963855421687,0.6131207847946045,-8.601471489883506,-3.90680564071122,3.0,0.4166944166944167,2399.840170484816,-0.16677349804789982,0.2695647106811954,0.09276848668492503,1375.091575091575,-1.0,76.04842764862879,0.4167948471276696,
2023-08-12 12:00:30.873000,-8.771084337349398,0.5060240963855422,-4.240963855421687,0.6474555487431024,-8.724095646842427,-3.9411404046597176,3.0,0.4166944166944167,2399.840170484816,-0.17877746052094853,0.26758347415651773,-0.12353592447992531,1353.8461538461538,-1.0,76.04842764862879,0.41679104739461625,
2023-08-12 12:00:30.881000,-8.795180722891567,0.5301204819277109,-4.253012048192772,0.6106683016554261,-8.645616186388718,-3.9803801348865724,3.0,0.4166944166944167,2399.840170484816,-0.05326029951634467,0.21945108093933857,-0.034729910844356525,1337.7289377289376,-1.0,76.04842764862879,0.4167872869557837,
2023-08-12 12:00:30.888000,-8.819277108433736,0.5301204819277109,-4.289156626506024,0.615573267933783,-8.755977927651747,-3.9019006744328633,3.0,0.4166944166944167,2399.840170484816,-0.34135539886952954,0.415943126857409,-0.1743488141716685,1322.3443223443223,-1.0,76.04842764862879,0.4167835676155122,
2023-08-12 12:00:30.896000,-8.819277108433736,0.5180722891566265,-4.27710843373494,0.6082158185162476,-8.73635806253832,-3.977927651747394,3.0,0.4166944166944167,2399.840170484816,-0.2743429870054184,-0.4097663306334125,0.6497290367694191,1306.227106227106,-1.0,76.04842764862879,0.4167798911478702,
2023-08-12 12:00:30.904000,-8.819277108433736,0.5060240963855422,-4.301204819277109,0.6425505824647455,-8.670141017780502,-3.936235438381361,3.0,0.41625041625041626,2402.4,0.1272653108793199,-0.2681661907814237,0.6442515004953089,1291.5750915750914,-1.0,76.04842764862879,0.4167762592931754,
2023-08-12 12:00:30.911000,-8.795180722891567,0.5301204819277109,-4.313253012048193,0.6327406499080318,-8.613733905579398,-3.9386879215205393,3.0,0.4166944166944167,2399.840170484816,0.07015908163859894,-0.049647456441931796,0.47211700949828106,1275.4578754578754,-1.0,76.04842764862879,0.4167726736052384,
2023-08-12 12:00:30.919000,-8.783132530120483,0.5542168674698795,-4.313253012048193,0.6376456161863887,-8.635806253832005,-3.965665236051502,3.0,0.4166944166944167,2399.840170484816,-0.1414835965270097,-0.8716275275333613,-0.15698385874949003,1260.8058608058607,-1.0,76.04842764862879,0.41676913557534745,
2023-08-12 12:00:30.927000,-8.74698795180723,0.5783132530120483,-4.27710843373494,0.6695278969957081,-8.608828939301041,-3.9411404046597176,3.0,0.4166944166944167,2399.840170484816,-0.3343627993706655,-0.6477478002447405,-0.10978381213216014,1249.084249084249,-1.0,76.04842764862879,0.41676564678781947,
2023-08-12 12:00:30.934000,-8.759036144578314,0.4819277108433735,-4.289156626506024,0.5591661557326794,-8.638258736971183,-3.9019006744328633,3.0,0.4166944166944167,2399.840170484816,0.2368160363615179,-0.854262572111182,-9.323465998484274E-4,1241.0256410256409,-1.0,76.04842764862879,0.4167622087777362,
2023-08-12 12:00:30.942000,-8.795180722891567,0.49397590361445787,-4.265060240963856,0.6180257510729613,-8.662783568362967,-3.958307786633967,3.0,0.41625041625041626,2402.4,-0.3886719888118412,-1.0105471709107856,0.10500553580793673,1236.6300366300366,-1.0,76.04842764862879,0.41675882302751427,
2023-08-12 12:00:30.950000,-8.795180722891567,0.5301204819277109,-4.253012048192772,0.6817903126916002,-8.665236051502145,-3.894543225015328,3.0,0.41625041625041626,2402.4,-0.09358428995979219,-0.3873900122370485,0.10617096905774727,1235.164835164835,-1.0,76.04842764862879,0.41675549081428304,
2023-08-12 12:00:30.957000,-8.807228915662652,0.5180722891566265,-4.253012048192772,0.6621704475781729,-8.687308399754752,-3.8871857755977928,3.0,0.41625041625041626,2402.4,-0.5615057397587548,-0.23984616281102486,-0.30464425150049534,1235.8974358974358,-1.0,76.04842764862879,0.4167522131847956,
2023-08-12 12:00:30.965000,-8.831325301204819,0.49397590361445787,-4.265060240963856,0.6425505824647455,-8.702023298589822,-3.9215205395462904,3.0,0.4166944166944167,2399.840170484816,-0.3869238389371251,-0.4330749956296249,-0.2549967950585631,1239.5604395604396,-1.0,76.04842764862879,0.41674899108941327,
2023-08-12 12:00:30.973000,-8.795180722891567,0.5060240963855422,-4.228915662650603,0.6376456161863887,-8.667688534641323,-3.8994481912936845,3.0,0.41625041625041626,2402.4,-0.16910436454752,-0.7937765864460115,-0.1416001398519901,1241.0256410256409,-1.0,76.04842764862879,0.4167458255265969,
2023-08-12 12:00:30.980000,-8.807228915662652,0.5301204819277109,-4.240963855421687,0.6719803801348866,-8.606376456161863,-3.9435928877988964,3.0,0.41625041625041626,2402.4,-0.56197191305868,-0.7113804556844004,-0.3377425557951167,1246.153846153846,-1.0,76.04842764862879,0.41674271754942904,
2023-08-12 12:00:30.988000,-8.795180722891567,0.5180722891566265,-4.216867469879518,0.6229307173513182,-8.618638871857755,-3.9313304721030042,3.0,0.41625041625041626,2402.4,-0.25173358195909273,-0.9206922673503871,-0.30359536157566563,1253.4798534798533,-1.0,76.04842764862879,0.4167396680814987,
2023-08-12 12:00:30.996000,-8.783132530120483,0.5060240963855422,-4.228915662650603,0.6351931330472103,-8.665236051502145,-3.9386879215205393,3.0,0.41625041625041626,2402.4,-0.07959909096206579,-0.6717557251908397,0.04801584989219748,1263.7362637362637,-1.0,76.04842764862879,0.41673667776434026,
2023-08-12 12:00:31.003000,-8.807228915662652,0.5180722891566265,-4.240963855421687,0.6204782342121398,-8.675045984058858,-3.877375843041079,3.0,0.41625041625041626,2402.4,0.043936833517860395,-0.4562671173008565,0.19905599906765356,1276.923076923077,-1.0,76.04842764862879,0.41673374697440957,
2023-08-12 12:00:31.011000,-8.795180722891567,0.5180722891566265,-4.19277108433735,0.6351931330472103,-8.697118332311465,-3.884733292458614,3.0,0.41625041625041626,2402.4,0.21385700134024802,-0.48540294854612115,0.2581434648330518,1290.10989010989,-1.0,76.04842764862879,0.41673087596756825,
2023-08-12 12:00:31.019000,-8.795180722891567,0.5180722891566265,-4.204819277108434,0.5738810545677498,-8.721643163703249,-3.914163090128755,3.0,0.41625041625041626,2402.4,0.12295320785502026,-0.1020919526834106,-0.0801818075869704,1304.0293040293038,-1.0,76.04842764862879,0.41672806487439357,
2023-08-12 12:00:31.026000,-8.795180722891567,0.5301204819277109,-4.204819277108434,0.6793378295524218,-8.709380748007357,-3.8920907418761495,3.0,0.41625041625041626,2402.4,0.0015150632247543454,-0.3929840918361408,0.2570945749082221,1317.216117216117,-1.0,76.04842764862879,0.4167253136956462,
2023-08-12 12:00:31.034000,-8.795180722891567,0.5421686746987953,-4.240963855421687,0.6621704475781729,-8.706928264868179,-3.8798283261802573,3.0,0.41625041625041626,2402.4,-0.012237049123012128,0.17283375094691372,-0.0814637841617622,1327.4725274725274,-1.0,76.04842764862879,0.41672262229792717,
2023-08-12 12:00:31.042000,-8.783132530120483,0.5180722891566265,-4.216867469879518,0.6695278969957081,-8.645616186388718,-3.877375843041079,3.0,0.4166944166944167,2399.840170484816,-0.04032399044344752,0.047316589942311596,0.28436571295379076,1336.263736263736,-1.0,76.04842764862879,0.4167199904095597,
2023-08-12 12:00:31.049000,-8.795180722891567,0.5301204819277109,-4.253012048192772,0.5861434702636419,-8.670141017780502,-3.9828326180257507,3.0,0.41625041625041626,2402.4,-0.0533768428413255,0.029135831245264657,-0.03799312394382602,1343.5897435897434,-1.0,76.04842764862879,0.41671741776602605,
2023-08-12 12:00:31.057000,-8.807228915662652,0.5180722891566265,-4.265060240963856,0.645003065603924,-8.648068669527897,-3.9534028203556097,3.0,0.41625041625041626,2402.4,0.024241011596060846,0.2708466872559881,0.5110424800419555,1348.7179487179487,-1.0,76.04842764862879,0.4167149039789864,
2023-08-12 12:00:31.065000,-8.819277108433736,0.5180722891566265,-4.253012048192772,0.6523605150214592,-8.662783568362967,-3.884733292458614,3.0,0.4166944166944167,2399.840170484816,0.2682827341064045,0.008158032748674174,0.064215372064565,1352.3809523809523,-1.0,76.04842764862879,0.416712448374108,
2023-08-12 12:00:31.072000,-8.807228915662652,0.5301204819277109,-4.240963855421687,0.627835683629675,-8.655426118945432,-3.926425505824647,3.0,0.41625041625041626,2402.4,0.14358137637666823,0.1131635685566109,0.38540877571237125,1353.113553113553,-1.0,76.04842764862879,0.4167100502764226,
2023-08-12 12:00:31.080000,-8.819277108433736,0.5301204819277109,-4.265060240963856,0.6180257510729613,-8.665236051502145,-3.9534028203556097,3.0,0.41625041625041626,2402.4,0.17399918419672555,0.17376609754676214,0.01410174232270855,1353.8461538461538,-1.0,76.04842764862879,0.4167077088806107,
2023-08-12 12:00:31.088000,-8.795180722891567,0.5060240963855422,-4.265060240963856,0.6425505824647455,-8.660331085223788,-3.9092581238503983,3.0,0.41625041625041626,2402.4,0.01853038867198945,-0.16595769477303224,-0.018064215372064367,1351.6483516483515,-1.0,76.04842764862879,0.4167054230901822,
2023-08-12 12:00:31.095000,-8.783132530120483,0.5060240963855422,-4.27710843373494,0.6131207847946045,-8.71919068056407,-3.9803801348865724,3.0,0.41625041625041626,2402.4,0.14160013985199055,-0.04288794359303113,0.05698968591573925,1349.4505494505493,-1.0,76.04842764862879,0.4167031916549739,
2023-08-12 12:00:31.103000,-8.819277108433736,0.49397590361445787,-4.27710843373494,0.6008583690987124,-8.640711220110362,-3.8798283261802573,3.0,0.4166944166944167,2399.840170484816,0.15721694539945213,-0.13379173707825887,0.4207214031816328,1347.2527472527472,-1.0,76.04842764862879,0.41670101317036135,
2023-08-12 12:00:31.111000,-8.807228915662652,0.5060240963855422,-4.253012048192772,0.6131207847946045,-8.665236051502145,-3.955855303494788,3.0,0.41625041625041626,2402.4,0.1548860788998302,-0.13460754035312647,0.41769127673212497,1344.3223443223442,-1.0,76.04842764862879,0.4166988862262506,
2023-08-12 12:00:31.118000,-8.795180722891567,0.5060240963855422,-4.253012048192772,0.6351931330472103,-8.64316370324954,-3.9411404046597176,3.0,0.41625041625041626,2402.4,0.27550842025523026,-0.07295612143814421,-0.16782238797272864,1344.3223443223442,-1.0,76.04842764862879,0.4166968092798666,
2023-08-12 12:00:31.126000,-8.807228915662652,0.49397590361445787,-4.265060240963856,0.598405885959534,-8.733905579399142,-3.955855303494788,3.0,0.41625041625041626,2402.4,0.2425266592855893,-0.3323815628459878,-0.30464425150049534,1340.6593406593406,-1.0,76.04842764862879,0.4166947804975466,
2023-08-12 12:00:31.134000,-8.807228915662652,0.5180722891566265,-4.253012048192772,0.627835683629675,-8.662783568362967,-3.9092581238503983,3.0,0.41625041625041626,2402.4,0.08857292698560755,-0.09882873958394024,-0.21304119806538085,1336.9963369963368,-1.0,76.04842764862879,0.41669279803370013,
2023-08-12 12:00:31.141000,-8.807228915662652,0.5060240963855422,-4.265060240963856,0.5738810545677498,-8.630901287553648,-3.8822808093194356,3.0,0.41625041625041626,2402.4,-0.06573043528931848,0.24031233611094996,-0.2884447293281278,1331.135531135531,-1.0,76.04842764862879,0.41669086001243855,
2023-08-12 12:00:31.149000,-8.819277108433736,0.5060240963855422,-4.265060240963856,0.657265481299816,-8.71919068056407,-3.9337829552421826,3.0,0.41625041625041626,2402.4,0.11724258493094886,-0.41629275683235323,-0.24217702931064639,1324.5421245421244,-1.0,76.04842764862879,0.41668896424340307,
2023-08-12 12:00:31.157000,-8.807228915662652,0.49397590361445787,-4.253012048192772,0.5738810545677498,-8.665236051502145,-3.8994481912936845,3.0,0.41625041625041626,2402.4,0.025522988170851784,0.10733640230755867,0.06642969523920522,1317.216117216117,-1.0,76.04842764862879,0.41668710824638305,
2023-08-12 12:00:31.164000,-8.807228915662652,0.5060240963855422,-4.265060240963856,0.6033108522378908,-8.662783568362967,-3.8994481912936845,3.0,0.41625041625041626,2402.4,0.16071324514888416,-0.2729444671056466,-0.14602878620127013,1311.3553113553112,-1.0,76.04842764862879,0.41668528940392296,
2023-08-12 12:00:31.172000,-8.783132530120483,0.5060240963855422,-4.265060240963856,0.6376456161863887,-8.699570815450643,-3.955855303494788,3.0,0.41625041625041626,2402.4,0.1290134607540359,-0.20698094516636475,0.06911019171376967,1303.2967032967033,-1.0,76.04842764862879,0.4166835049652129,
2023-08-12 12:00:31.180000,-8.819277108433736,0.49397590361445787,-4.240963855421687,0.6180257510729613,-8.692213366033108,-3.867565910484365,3.0,0.4166944166944167,2399.840170484816,-0.17772857059611927,-0.3433366353942073,-0.0860089738360235,1295.2380952380952,-1.0,76.04842764862879,0.4166817520505584,
2023-08-12 12:00:31.187000,-8.807228915662652,0.5060240963855422,-4.27710843373494,0.627835683629675,-8.62844880441447,-3.872470876762722,3.0,0.41625041625041626,2402.4,-0.008857292698560929,-0.035196084144280305,0.18786783986947156,1287.9120879120878,-1.0,76.04842764862879,0.41668002780572655,
2023-08-12 12:00:31.195000,-8.807228915662652,0.49397590361445787,-4.228915662650603,0.6180257510729613,-8.721643163703249,-3.9239730226854688,3.0,0.4166944166944167,2399.840170484816,0.266884214206631,0.10337392925820155,-0.37946506613833686,1282.051282051282,-1.0,76.04842764862879,0.416678329280158,
2023-08-12 12:00:31.203000,-8.795180722891567,0.5180722891566265,-4.228915662650603,0.6106683016554261,-8.731453096259962,-3.8871857755977928,3.0,0.41625041625041626,2402.4,0.1272653108793199,0.11840801818075895,-0.34869762834333656,1276.923076923077,-1.0,76.04842764862879,0.41667665342352816,
2023-08-12 12:00:31.210000,-8.807228915662652,0.5301204819277109,-4.253012048192772,0.6646229307173512,-8.699570815450643,-3.9313304721030042,3.0,0.41625041625041626,2402.4,0.14241594312685812,0.3798146961132802,-0.041722510343220165,1273.9926739926739,-1.0,76.04842764862879,0.4166749971040338,
2023-08-12 12:00:31.218000,-8.795180722891567,0.5180722891566265,-4.228915662650603,0.6499080318822807,-8.697118332311465,-3.9117106069895766,3.0,0.41625041625041626,2402.4,0.17085251442223603,0.14929199930073964,-0.1502243459005885,1273.260073260073,-1.0,76.04842764862879,0.4166733569569534,
2023-08-12 12:00:31.225000,-8.819277108433736,0.5060240963855422,-4.253012048192772,0.6646229307173512,-8.721643163703249,-3.9166155732679337,3.0,0.41625041625041626,2402.4,0.12470135772973627,-0.3097721577996621,-0.0872909504108153,1273.260073260073,-1.0,76.04842764862879,0.4166717295316113,
2023-08-12 12:00:31.233000,-8.819277108433736,0.5180722891566265,-4.240963855421687,0.6768853464132434,-8.741263028816677,-3.9166155732679337,3.0,0.41625041625041626,2402.4,0.015500262222480757,0.03041780782005733,0.08192995746168641,1273.260073260073,-1.0,76.04842764862879,0.4166701113000879,
2023-08-12 12:00:31.241000,-8.807228915662652,0.5301204819277109,-4.240963855421687,0.6548129981606376,-8.694665849172287,-3.919068056407112,3.0,0.41625041625041626,2402.4,0.2720121205057982,0.005943709574034809,0.15721694539945213,1276.1904761904761,-1.0,76.04842764862879,0.41666849866640654,
2023-08-12 12:00:31.248000,-8.795180722891567,0.5301204819277109,-4.240963855421687,0.6008583690987124,-8.68976088289393,-3.9043531575720416,3.0,0.41625041625041626,2402.4,0.26944816735621463,0.19101450964396066,0.3703746867898143,1280.5860805860805,-1.0,76.04842764862879,0.41666688797616497,
2023-08-12 12:00:31.256000,-8.807228915662652,0.5301204819277109,-4.253012048192772,0.6057633353770693,-8.692213366033108,-3.914163090128755,3.0,0.41625041625041626,2402.4,0.0397412738185416,0.08309539071149782,0.18402191014509658,1286.4468864468863,-1.0,76.04842764862879,0.4166652755265834,
2023-08-12 12:00:31.264000,-8.795180722891567,0.5421686746987953,-4.240963855421687,0.5861434702636419,-8.704475781729,-3.884733292458614,3.0,0.41625041625041626,2402.4,-0.11188159198181996,-0.4794592389720881,-0.3539420779674842,1293.7728937728937,-1.0,76.04842764862879,0.4166636575769328,
2023-08-12 12:00:31.271000,-8.783132530120483,0.49397590361445787,-4.27710843373494,0.6180257510729613,-8.692213366033108,-3.894543225015328,3.0,0.41625041625041626,2402.4,0.1637433715983911,-0.32061068702290074,-0.0012819765747918046,1298.9010989010987,-1.0,76.04842764862879,0.41666203049806044,
2023-08-12 12:00:31.279000,-8.819277108433736,0.5421686746987953,-4.240963855421687,0.7112201103617413,-8.694665849172287,-3.9043531575720416,3.0,0.4158064158064158,2404.9652963160706,0.04195559699318271,-0.20814637841617661,-0.03100052444496238,1301.098901098901,-1.0,76.04842764862879,0.4166603906243429,
2023-08-12 12:00:31.287000,-8.795180722891567,0.5060240963855422,-4.228915662650603,0.6597179644389944,-8.640711220110362,-3.9215205395462904,3.0,0.41625041625041626,2402.4,0.07272303478818254,-0.4617446535749662,-0.22865800361284289,1301.8315018315018,-1.0,76.04842764862879,0.4166587341268777,
2023-08-12 12:00:31.294000,-8.783132530120483,0.5060240963855422,-4.228915662650603,0.6057633353770693,-8.650521152667075,-3.8749233599019006,3.0,0.41625041625041626,2402.4,-0.2478876522347182,-0.4385525319037346,-0.058388205815511886,1301.098901098901,-1.0,76.04842764862879,0.41665705728119223,
2023-08-12 12:00:31.302000,-8.759036144578314,0.5060240963855422,-4.253012048192772,0.6376456161863887,-8.650521152667075,-3.914163090128755,3.0,0.41625041625041626,2402.4,0.012586679097954637,-0.21980071091428283,-0.34928034496824206,1298.168498168498,-1.0,76.04842764862879,0.4166553564897455,
2023-08-12 12:00:31.310000,-8.771084337349398,0.49397590361445787,-4.240963855421687,0.598405885959534,-8.667688534641323,-3.8749233599019006,3.0,0.41625041625041626,2402.4,-0.018064215372064367,-0.1874016665695478,-0.13192704387856202,1296.7032967032967,-1.0,76.04842764862879,0.4166536280170397,
2023-08-12 12:00:31.317000,-8.795180722891567,0.49397590361445787,-4.228915662650603,0.5763335377069282,-8.64316370324954,-3.867565910484365,3.0,0.41625041625041626,2402.4,-0.0018646931996968547,0.21420663131519224,0.23553405978672567,1295.970695970696,-1.0,76.04842764862879,0.41665186802251747,
2023-08-12 12:00:31.325000,-8.807228915662652,0.49397590361445787,-4.216867469879518,0.6008583690987124,-8.709380748007357,-3.914163090128755,3.0,0.41625041625041626,2402.4,0.15092360585047482,0.4919293747450619,0.15675077209952792,1295.970695970696,-1.0,76.04842764862879,0.41665007272092824,
2023-08-12 12:00:31.333000,-8.831325301204819,0.5180722891566265,-4.253012048192772,0.6646229307173512,-8.679950950337217,-3.9730226854690374,3.0,0.41625041625041626,2402.4,0.04463609346774715,0.09055416351028524,0.13891964337742566,1297.4358974358975,-1.0,76.04842764862879,0.41664823853217375,
2023-08-12 12:00:31.340000,-8.855421686746988,0.5180722891566265,-4.228915662650603,0.6719803801348866,-8.741263028816677,-3.8920907418761495,3.0,0.41625041625041626,2402.4,0.060136355690227905,0.13682186352776582,0.1829730202202669,1298.9010989010987,-1.0,76.04842764862879,0.41664636193325244,
2023-08-12 12:00:31.348000,-8.843373493975903,0.5060240963855422,-4.240963855421687,0.5861434702636419,-8.711833231146535,-3.889638258736971,3.0,0.41625041625041626,2402.4,-0.21443971796515393,0.25802692150807005,0.37818308956354507,1301.8315018315018,-1.0,76.04842764862879,0.41664443948040836,
2023-08-12 12:00:31.356000,-8.843373493975903,0.49397590361445787,-4.216867469879518,0.627835683629675,-8.699570815450643,-3.9288779889638255,3.0,0.41625041625041626,2402.4,0.1818075869704555,0.1636268282734103,0.11584406503117535,1304.7619047619046,-1.0,76.04842764862879,0.41664246794875814,
2023-08-12 12:00:31.363000,-8.843373493975903,0.5060240963855422,-4.240963855421687,0.6131207847946045,-8.692213366033108,-3.936235438381361,3.0,0.41625041625041626,2402.4,0.10279121263329563,-0.4778276324223529,0.03589534409416706,1309.1575091575091,-1.0,76.04842764862879,0.41664044419486995,
2023-08-12 12:00:31.371000,-8.831325301204819,0.5180722891566265,-4.253012048192772,0.6082158185162476,-8.692213366033108,-3.884733292458614,3.0,0.41625041625041626,2402.4,0.5296894120389258,-0.10710331565759526,0.17050288444729308,1313.5531135531135,-1.0,76.04842764862879,0.41663836502950646,
2023-08-12 12:00:31.379000,-8.831325301204819,0.5301204819277109,-4.240963855421687,0.640098099325567,-8.709380748007357,-3.9386879215205393,3.0,0.41625041625041626,2402.4,0.3125691975992074,0.2013868655672742,0.04708350329234905,1317.216117216117,-1.0,76.04842764862879,0.4166362273878283,
2023-08-12 12:00:31.386000,-8.807228915662652,0.5180722891566265,-4.265060240963856,0.6302881667688535,-8.670141017780502,-3.987737584304108,3.0,0.41625041625041626,2402.4,0.23331973661208588,-0.44134957170327993,-0.13938581667734987,1323.076923076923,-1.0,76.04842764862879,0.4166340283288781,
2023-08-12 12:00:31.394000,-8.783132530120483,0.5301204819277109,-4.228915662650603,0.5910484365419988,-8.699570815450643,-3.896995708154506,3.0,0.41625041625041626,2402.4,0.23075578346250228,-0.4380863586038113,-0.13973544665229282,1328.937728937729,-1.0,76.04842764862879,0.41663176491699433,
2023-08-12 12:00:31.402000,-8.783132530120483,0.5301204819277109,-4.253012048192772,0.6057633353770693,-8.670141017780502,-3.9117106069895766,3.0,0.41625041625041626,2402.4,0.06316648213973486,-0.02109434182157132,-0.09428354990967895,1335.5311355311355,-1.0,76.04842764862879,0.41662943451836243,
2023-08-12 12:00:31.409000,-8.759036144578314,0.5301204819277109,-4.265060240963856,0.6253832004904966,-8.655426118945432,-3.9117106069895766,3.0,0.41625041625041626,2402.4,0.2756249635802111,-0.005477536274109728,-0.201736495542218,1343.5897435897434,-1.0,76.04842764862879,0.41662703465003664,
2023-08-12 12:00:31.417000,-8.807228915662652,0.5180722891566265,-4.253012048192772,0.6131207847946045,-8.621091354996935,-3.9803801348865724,3.0,0.41625041625041626,2402.4,0.1818075869704555,-0.0045451896742613,0.16712312802284232,1351.6483516483515,-1.0,76.04842764862879,0.41662456286009864,
2023-08-12 12:00:31.425000,-8.807228915662652,0.49397590361445787,-4.216867469879518,0.6523605150214592,-8.640711220110362,-3.8920907418761495,3.0,0.41625041625041626,2402.4,0.10384010255812663,0.3150166074238102,0.24124468271079794,1364.102564102564,-1.0,76.04842764862879,0.41662201688411404,
2023-08-12 12:00:31.432000,-8.795180722891567,0.5060240963855422,-4.253012048192772,0.6597179644389944,-8.665236051502145,-3.894543225015328,3.0,0.4158064158064158,2404.9652963160706,0.25453062175863805,0.5230464425150042,0.04148942369325806,1383.150183150183,-1.0,76.04842764862879,0.4166193946518581,
2023-08-12 12:00:31.440000,-8.795180722891567,0.5301204819277109,-4.253012048192772,0.5714285714285714,-8.67259350091968,-3.9092581238503983,3.0,0.41625041625041626,2402.4,0.012120505798029556,0.3497465182681654,0.13309247712837255,1409.5238095238094,-1.0,76.04842764862879,0.41661669442178667,
2023-08-12 12:00:31.448000,-8.807228915662652,0.5060240963855422,-4.228915662650603,0.627835683629675,-8.621091354996935,-3.8798283261802573,3.0,0.41625041625041626,2402.4,0.04556844006759558,0.25313210185886625,-0.0652642619893947,1446.153846153846,-1.0,76.04842764862879,0.4166139147347293,
2023-08-12 12:00:31.455000,-8.819277108433736,0.5180722891566265,-4.19277108433735,0.615573267933783,-8.73635806253832,-3.8577559779276513,3.0,0.41625041625041626,2402.4,-0.01503408892255741,0.4202552298817086,-0.2049997086416875,1493.7728937728937,-1.0,76.04842764862879,0.41661105430249834,
2023-08-12 12:00:31.463000,-8.807228915662652,0.5180722891566265,-4.228915662650603,0.6229307173513182,-8.711833231146535,-3.877375843041079,3.0,0.41625041625041626,2402.4,0.04382029019287956,0.050929433016724465,-0.08484354058621296,1550.18315018315,-1.0,76.04842764862879,0.4166081120239078,
2023-08-12 12:00:31.471000,-8.819277108433736,0.4819277108433735,-4.216867469879518,0.5591661557326794,-8.706928264868179,-3.9215205395462904,3.0,0.41625041625041626,2402.4,0.014101742322708983,0.37387098653924544,0.1118815919818191,1613.9194139194137,-1.0,76.04842764862879,0.4166050869895164,
2023-08-12 12:00:31.478000,-8.795180722891567,0.4819277108433735,-4.240963855421687,0.6033108522378908,-8.670141017780502,-3.855303494788473,3.0,0.41625041625041626,2402.4,0.07318920808810589,0.4955422178194747,-0.08717440708583403,1680.5860805860805,-1.0,76.04842764862879,0.4166019784856266,
2023-08-12 12:00:31.486000,-8.807228915662652,0.4819277108433735,-4.265060240963856,0.5738810545677498,-8.697118332311465,-3.958307786633967,3.0,0.41625041625041626,2402.4,-0.09463317988462146,0.06608006526426272,-0.1765631373463083,1745.7875457875457,-1.0,76.04842764862879,0.41659878585878385,
2023-08-12 12:00:31.494000,-8.807228915662652,0.46987951807228917,-4.253012048192772,0.6253832004904966,-8.68976088289393,-3.90680564071122,3.0,0.41625041625041626,2402.4,-0.12703222422935648,0.2900763358778626,0.19486043936833522,1808.058608058608,-1.0,76.04842764862879,0.4165955086774021,
2023-08-12 12:00:31.501000,-8.795180722891567,0.49397590361445787,-4.228915662650603,0.5935009196811771,-8.714285714285714,-3.914163090128755,3.0,0.41625041625041626,2402.4,-0.10838529223238792,0.2885612726531082,-0.1392692733523686,1860.8058608058607,-1.0,76.04842764862879,0.4165921468611179,
2023-08-12 12:00:31.509000,-8.819277108433736,0.4819277108433735,-4.253012048192772,0.6621704475781729,-8.702023298589822,-3.90680564071122,3.0,0.41625041625041626,2402.4,-0.244507895810267,0.25511333838354394,0.287162752753336,1901.098901098901,-1.0,76.04842764862879,0.41658870039393686,
2023-08-12 12:00:31.517000,-8.807228915662652,0.5180722891566265,-4.253012048192772,0.5861434702636419,-8.75107296137339,-3.926425505824647,3.0,0.41625041625041626,2402.4,0.18343919352019067,0.0071091428238449095,0.17295029427189543,1927.4725274725274,-1.0,76.04842764862879,0.4165851693450582,
2023-08-12 12:00:31.524000,-8.831325301204819,0.49397590361445787,-4.253012048192772,0.6008583690987124,-8.652973635806253,-3.9166155732679337,3.0,0.4166944166944167,2399.840170484816,-0.01969582192179955,-0.04020744711846669,0.33762601247013585,1939.9267399267399,-1.0,76.04842764862879,0.41658155415532755,
2023-08-12 12:00:31.532000,-8.795180722891567,0.5301204819277109,-4.240963855421687,0.645003065603924,-8.662783568362967,-3.926425505824647,3.0,0.4166944166944167,2399.840170484816,-0.44799254122720145,-0.17633005069634577,-0.07656896451255753,1938.4615384615383,773.651123046875,77.55433710701747,0.4165778556252847,
2023-08-12 12:00:31.540000,-8.795180722891567,0.5180722891566265,-4.253012048192772,0.6891477621091354,-8.623543838136113,-3.889638258736971,3.0,0.41625041625041626,2402.4,-0.36909271021502243,0.042188683643144376,0.1834391935201911,1921.6117216117216,-1.0,77.55433710701747,0.4165740748067962,
2023-08-12 12:00:31.547000,-8.783132530120483,0.5180722891566265,-4.216867469879518,0.5836909871244634,-8.64316370324954,-3.8822808093194356,3.0,0.41625041625041626,2402.4,-0.033447934269564286,-0.1827399335703039,0.014451372297651493,1892.3076923076922,-1.0,77.55433710701747,0.41657021286267,
2023-08-12 12:00:31.555000,-8.783132530120483,0.5301204819277109,-4.204819277108434,0.640098099325567,-8.652973635806253,-3.8528510116492947,3.0,0.41625041625041626,2402.4,-0.3059262280752876,0.006409882873958155,-0.3809801293630908,1854.212454212454,-1.0,77.55433710701747,0.416566271181596,
2023-08-12 12:00:31.563000,-8.783132530120483,0.5301204819277109,-4.216867469879518,0.6940527283874923,-8.699570815450643,-3.867565910484365,3.0,0.41625041625041626,2402.4,-0.09102033681020859,-0.22283083736378978,-0.30033214847619616,1810.2564102564102,-1.0,77.55433710701747,0.41656225135385994,
2023-08-12 12:00:31.570000,-8.807228915662652,0.5301204819277109,-4.216867469879518,0.640098099325567,-8.623543838136113,-3.8503985285101163,3.0,0.41625041625041626,2402.4,-0.09148651011013366,0.1298292640289035,-0.09812947963405393,1762.6373626373625,-1.0,77.55433710701747,0.4165581550393609,
2023-08-12 12:00:31.578000,-8.807228915662652,0.5301204819277109,-4.204819277108434,0.6548129981606376,-8.694665849172287,-3.8234212139791537,3.0,0.41625041625041626,2402.4,-0.3961307616106286,0.04836547986714086,0.28285064972903684,1716.4835164835163,-1.0,77.55433710701747,0.41655398411189104,
2023-08-12 12:00:31.586000,-8.831325301204819,0.5180722891566265,-4.204819277108434,0.627835683629675,-8.71919068056407,-3.9043531575720416,3.0,0.4158064158064158,2404.9652963160706,-0.1475438494260236,0.10687022900763359,0.006876056173882803,1670.3296703296703,-1.0,77.55433710701747,0.41654974065369094,
2023-08-12 12:00:31.593000,-8.831325301204819,0.5180722891566265,-4.19277108433735,0.598405885959534,-8.711833231146535,-3.8283261802575104,3.0,0.41625041625041626,2402.4,-0.20721403181632816,0.5799195851057635,-0.08461045393625086,1624.9084249084249,-1.0,77.55433710701747,0.4165454270777958,
2023-08-12 12:00:31.601000,-8.831325301204819,0.5180722891566265,-4.1807228915662655,0.6499080318822807,-8.699570815450643,-3.847946045370938,3.0,0.41625041625041626,2402.4,-0.174931530796574,0.5314375619136418,-0.28320027970397976,1581.6849816849815,-1.0,77.55433710701747,0.41654104606969444,
2023-08-12 12:00:31.608000,-8.831325301204819,0.5301204819277109,-4.216867469879518,0.6523605150214592,-8.682403433476395,-3.8994481912936845,3.0,0.41625041625041626,2402.4,-0.038575840568731506,0.589592681079192,0.007225686148825746,1542.1245421245421,-1.0,77.55433710701747,0.41653660046403346,
2023-08-12 12:00:31.616000,-8.807228915662652,0.5301204819277109,-4.228915662650603,0.6523605150214592,-8.68976088289393,-3.8405885959534025,3.0,0.41625041625041626,2402.4,0.08158032748674347,0.784569663772508,0.08414428063632665,1505.4945054945053,-1.0,77.55433710701747,0.41653209311015194,
2023-08-12 12:00:31.624000,-8.819277108433736,0.5301204819277109,-4.19277108433735,0.6376456161863887,-8.655426118945432,-3.8798283261802573,3.0,0.41625041625041626,2402.4,-0.10325738593322072,0.47444787599790167,-0.06852747508886418,1471.062271062271,-1.0,77.55433710701747,0.41652752702442575,
2023-08-12 12:00:31.631000,-8.795180722891567,0.5180722891566265,-4.228915662650603,0.5542611894543225,-8.679950950337217,-3.884733292458614,3.0,0.41625041625041626,2402.4,0.32538896334712375,0.5518326437853264,0.021793601771458507,1441.0256410256409,-1.0,77.55433710701747,0.4165229055105972,
2023-08-12 12:00:31.639000,-8.795180722891567,0.5421686746987953,-4.216867469879518,0.6916002452483139,-8.692213366033108,-3.914163090128755,3.0,0.41625041625041626,2402.4,0.12400209777984952,1.0555328943534752,0.007458772798787853,1415.3846153846152,-1.0,77.55433710701747,0.4165182318641781,
2023-08-12 12:00:31.647000,-8.795180722891567,0.5180722891566265,-4.228915662650603,0.5665236051502146,-8.682403433476395,-3.889638258736971,3.0,0.41625041625041626,2402.4,-0.27119631723093063,0.7167414486335293,0.05256103956645878,1394.139194139194,-1.0,77.55433710701747,0.41651350952358374,
2023-08-12 12:00:31.654000,-8.783132530120483,0.5301204819277109,-4.240963855421687,0.640098099325567,-8.68976088289393,-3.8994481912936845,3.0,0.41625041625041626,2402.4,0.0363615173940904,0.5930889808286223,-0.16048015849892205,1377.2893772893772,-1.0,77.55433710701747,0.4165087421893447,
2023-08-12 12:00:31.662000,-8.783132530120483,0.5180722891566265,-4.228915662650603,0.5885959534028203,-8.65787860208461,-3.9117106069895766,3.0,0.41625041625041626,2402.4,0.1582658353242814,0.7924946098712188,0.16304411164850524,1361.1721611721612,-1.0,77.55433710701747,0.4165039336662299,
2023-08-12 12:00:31.670000,-8.771084337349398,0.5180722891566265,-4.240963855421687,0.6082158185162476,-8.682403433476395,-3.9092581238503983,3.0,0.41625041625041626,2402.4,0.15838237864926225,0.7926111531962013,0.1631606549734865,1344.3223443223442,-1.0,77.55433710701747,0.41649908785431894,
2023-08-12 12:00:31.677000,-8.783132530120483,0.5180722891566265,-4.240963855421687,0.5616186388718577,-8.687308399754752,-3.9215205395462904,3.0,0.41625041625041626,2402.4,-0.023541751646174093,0.7342229473806895,0.17877746052094853,1328.2051282051282,-1.0,77.55433710701747,0.4164942087397647,
2023-08-12 12:00:31.685000,-8.807228915662652,0.4819277108433735,-4.240963855421687,0.6768853464132434,-8.702023298589822,-3.9337829552421826,3.0,0.41625041625041626,2402.4,-0.0658469786142993,0.7778101509236056,-0.1573334887244334,1310.6227106227104,-1.0,77.55433710701747,0.41648930038527693,
2023-08-12 12:00:31.693000,-8.807228915662652,0.49397590361445787,-4.301204819277109,0.6327406499080318,-8.694665849172287,-3.926425505824647,3.0,0.41625041625041626,2402.4,-0.11013344210710395,0.8970339723792322,0.011071615873200727,1294.5054945054944,-1.0,77.55433710701747,0.41648436692036256,
2023-08-12 12:00:31.700000,-8.819277108433736,0.5060240963855422,-4.265060240963856,0.6131207847946045,-8.724095646842427,-3.894543225015328,3.0,0.41625041625041626,2402.4,-0.07866674436221735,0.5112755666919172,-0.12493444437969795,1277.6556776556777,-1.0,77.55433710701747,0.41647941253136084,
2023-08-12 12:00:31.708000,-8.843373493975903,0.5180722891566265,-4.27710843373494,0.5861434702636419,-8.741263028816677,-3.9681177191906802,3.0,0.41625041625041626,2402.4,-0.07656896451255708,0.7545014859273932,-0.29124176912767313,1265.2014652014652,-1.0,77.55433710701747,0.4164744414513066,
2023-08-12 12:00:31.716000,-8.831325301204819,0.5060240963855422,-4.240963855421687,0.615573267933783,-8.68976088289393,-3.958307786633967,3.0,0.41625041625041626,2402.4,-0.07318920808810589,0.478293805722278,0.09509935318454654,1254.212454212454,-1.0,77.55433710701747,0.41646945794966156,
2023-08-12 12:00:31.723000,-8.819277108433736,0.5180722891566265,-4.240963855421687,0.6597179644389944,-8.692213366033108,-3.955855303494788,3.0,0.41625041625041626,2402.4,0.0025639531495836093,0.18507080006992585,-0.19369500611852467,1244.6886446886447,-1.0,77.55433710701747,0.4164644663219509,
2023-08-12 12:00:31.731000,-8.807228915662652,0.5180722891566265,-4.265060240963856,0.6082158185162476,-8.65787860208461,-3.8626609442060085,3.0,0.41625041625041626,2402.4,-0.13495717032806898,0.33739292582017416,-0.17644659402132748,1237.3626373626373,-1.0,77.55433710701747,0.41645947087934254,
2023-08-12 12:00:31.739000,-8.783132530120483,0.5301204819277109,-4.265060240963856,0.6033108522378908,-8.662783568362967,-3.9092581238503983,3.0,0.4158064158064158,2404.9652963160706,0.06444845871452753,0.25895926810791847,-0.24963580210943423,1232.2344322344322,-1.0,77.55433710701747,0.41645447593820883,
2023-08-12 12:00:31.746000,-8.795180722891567,0.5301204819277109,-4.265060240963856,0.6523605150214592,-8.630901287553648,-3.9117106069895766,3.0,0.4158064158064158,2404.9652963160706,-0.22306392401375144,0.23972961948604404,-0.10966726880717886,1233.6996336996335,-1.0,77.55433710701747,0.41644948579916263,
2023-08-12 12:00:31.754000,-8.783132530120483,0.5301204819277109,-4.253012048192772,0.6082158185162476,-8.667688534641323,-3.8871857755977928,3.0,0.4158064158064158,2404.9652963160706,0.05244449624147708,-0.08472699726123126,-0.2765573101800595,1238.095238095238,-1.0,77.55433710701747,0.416444504555691,
2023-08-12 12:00:31.762000,-8.771084337349398,0.49397590361445787,-4.253012048192772,0.6033108522378908,-8.667688534641323,-3.9019006744328633,3.0,0.41625041625041626,2402.4,-0.024707184895985928,0.17539770409649733,0.107802575607482,1246.153846153846,-1.0,77.55433710701747,0.4164395360933378,
2023-08-12 12:00:31.769000,-8.783132530120483,0.5060240963855422,-4.240963855421687,0.6621704475781729,-8.625996321275291,-3.9019006744328633,3.0,0.41625041625041626,2402.4,-0.0564069692908342,-0.012237049123012128,0.07715168113746301,1257.8754578754579,-1.0,77.55433710701747,0.41643458437608843,
2023-08-12 12:00:31.777000,-8.819277108433736,0.5180722891566265,-4.253012048192772,0.645003065603924,-8.677498467198038,-3.9288779889638255,3.0,0.41625041625041626,2402.4,0.004312103024299628,0.19812365246780558,0.046151156692500625,1271.062271062271,-1.0,77.55433710701747,0.41642965345603544,
2023-08-12 12:00:31.785000,-8.819277108433736,0.5301204819277109,-4.228915662650603,0.640098099325567,-8.645616186388718,-3.86020846106683,3.0,0.41625041625041626,2402.4,-0.36058504749140574,0.11561097838121367,0.12050579803041792,1284.2490842490843,-1.0,77.55433710701747,0.4164247473241492,
2023-08-12 12:00:31.792000,-8.795180722891567,0.5180722891566265,-4.228915662650603,0.6082158185162476,-8.660331085223788,-3.9043531575720416,3.0,0.41625041625041626,2402.4,-0.25254938523396037,0.06386574208962162,0.10314084260823944,1299.6336996336995,-1.0,77.55433710701747,0.41641986990007346,
2023-08-12 12:00:31.800000,-8.807228915662652,0.5180722891566265,-4.216867469879518,0.6597179644389944,-8.652973635806253,-3.9337829552421826,3.0,0.41625041625041626,2402.4,-0.11456208845638441,0.15069051920051313,0.25394790513373344,1312.087912087912,-1.0,77.55433710701747,0.4164150250222392,
2023-08-12 12:00:31.808000,-8.807228915662652,0.5421686746987953,-4.216867469879518,0.6597179644389944,-8.692213366033108,-3.8749233599019006,3.0,0.41625041625041626,2402.4,-0.4509061243517276,0.19241302954373243,-0.22364664063865736,1326.007326007326,-1.0,77.55433710701747,0.41641021643833614,
2023-08-12 12:00:31.815000,-8.807228915662652,0.5301204819277109,-4.240963855421687,0.6965052115266707,-8.670141017780502,-3.8700183936235435,3.0,0.41625041625041626,2402.4,0.03892547054367401,0.21980071091428283,0.006876056173882803,1336.263736263736,-1.0,77.55433710701747,0.4164054477961818,
2023-08-12 12:00:31.823000,-8.783132530120483,0.5301204819277109,-4.228915662650603,0.645003065603924,-8.682403433476395,-3.8822808093194356,3.0,0.41625041625041626,2402.4,0.00827457607365501,0.4451955014276562,-0.007575316123769124,1345.054945054945,-1.0,77.55433710701747,0.4164007226350205,
2023-08-12 12:00:31.831000,-8.795180722891567,0.5421686746987953,-4.228915662650603,0.640098099325567,-8.64316370324954,-3.843041079092581,3.0,0.41625041625041626,2402.4,-0.02132742847153473,0.4863352951459713,-0.31268574092418866,1350.18315018315,-1.0,77.55433710701747,0.4163960443772894,
2023-08-12 12:00:31.838000,-8.819277108433736,0.5180722891566265,-4.265060240963856,0.6670754138565297,-8.68976088289393,-3.877375843041079,3.0,0.41625041625041626,2402.4,0.23798146961132802,0.43598857875415103,0.13309247712837255,1353.113553113553,-1.0,77.55433710701747,0.41639141632088206,
2023-08-12 12:00:31.846000,-8.807228915662652,0.5421686746987953,-4.228915662650603,0.7112201103617413,-8.65787860208461,-3.8994481912936845,3.0,0.41625041625041626,2402.4,0.11362974185653599,0.35545714119223853,0.08694132043587192,1354.5787545787546,-1.0,77.55433710701747,0.4163868416319364,
2023-08-12 12:00:31.854000,-8.795180722891567,0.5421686746987953,-4.240963855421687,0.6523605150214592,-8.697118332311465,-3.9288779889638255,3.0,0.41625041625041626,2402.4,0.036944234018996325,0.33517860264553306,-0.09859565293397814,1355.3113553113553,-1.0,77.55433710701747,0.41638232333817615,
2023-08-12 12:00:31.861000,-8.783132530120483,0.5542168674698795,-4.228915662650603,0.6940527283874923,-8.721643163703249,-3.9239730226854688,3.0,0.41625041625041626,2402.4,0.17248412097197122,0.16467571819823956,-0.1446302663014975,1353.113553113553,-1.0,77.55433710701747,0.4163778643228264,
2023-08-12 12:00:31.869000,-8.783132530120483,0.5542168674698795,-4.228915662650603,0.6597179644389944,-8.692213366033108,-3.9681177191906802,3.0,0.4158064158064158,2404.9652963160706,0.21642095448983162,0.07272303478818254,0.0849600839111938,1350.18315018315,-1.0,77.55433710701747,0.416373467319126,
2023-08-12 12:00:31.877000,-8.795180722891567,0.5421686746987953,-4.253012048192772,0.6646229307173512,-8.687308399754752,-3.8920907418761495,3.0,0.41625041625041626,2402.4,0.42771400268049603,0.028669657945341313,-0.006876056173882803,1346.5201465201465,-1.0,77.55433710701747,0.41636913475615767,
2023-08-12 12:00:31.884000,-8.807228915662652,0.5301204819277109,-4.253012048192772,0.645003065603924,-8.655426118945432,-3.90680564071122,3.0,0.41625041625041626,2402.4,-0.20243575549210346,-0.09136996678515283,-0.26758347415651773,1342.8571428571427,-1.0,77.55433710701747,0.41636486888201835,
2023-08-12 12:00:31.892000,-8.807228915662652,0.5542168674698795,-4.253012048192772,0.6646229307173512,-8.625996321275291,-3.8920907418761495,3.0,0.4158064158064158,2404.9652963160706,0.08915564361051173,-0.08868947031058838,-0.4645416933745119,1336.263736263736,-1.0,77.55433710701747,0.4163606719191469,
2023-08-12 12:00:31.900000,-8.783132530120483,0.5421686746987953,-4.265060240963856,0.6204782342121398,-8.68976088289393,-3.865113427345187,3.0,0.4158064158064158,2404.9652963160706,0.2541809917836955,-0.008158032748674174,-0.5694306858574674,1329.6703296703297,-1.0,77.55433710701747,0.416356545911882,
2023-08-12 12:00:31.907000,-8.771084337349398,0.5180722891566265,-4.253012048192772,0.6229307173513182,-8.65787860208461,-3.9117106069895766,3.0,0.4158064158064158,2404.9652963160706,-0.11596060835615618,-0.07190723151331495,-0.6061418332265021,1324.5421245421244,-1.0,77.55433710701747,0.41635249268171826,
2023-08-12 12:00:31.915000,-8.783132530120483,0.5060240963855422,-4.240963855421687,0.6302881667688535,-8.68976088289393,-3.919068056407112,3.0,0.4158064158064158,2404.9652963160706,-0.19019870636909308,-0.07307266476312506,-0.24555678573509715,1320.14652014652,-1.0,77.55433710701747,0.4163485136758005,
2023-08-12 12:00:31.923000,-8.771084337349398,0.5060240963855422,-4.240963855421687,0.6302881667688535,-8.687308399754752,-3.889638258736971,3.0,0.4158064158064158,2404.9652963160706,0.3158324106986778,-0.07260649146320171,-0.08740749373579615,1316.4835164835165,-1.0,77.55433710701747,0.4163446099853739,
2023-08-12 12:00:31.930000,-8.807228915662652,0.49397590361445787,-4.204819277108434,0.5935009196811771,-8.65787860208461,-3.914163090128755,3.0,0.4158064158064158,2404.9652963160706,0.17516461744653566,0.028436571295379638,-0.11840801818075852,1314.2857142857142,-1.0,77.55433710701747,0.4163407824921363,
2023-08-12 12:00:31.938000,-8.819277108433736,0.5060240963855422,-4.240963855421687,0.6008583690987124,-8.702023298589822,-3.8822808093194356,3.0,0.41625041625041626,2402.4,0.01876347532195112,0.09976108618378868,0.00384592972437498,1309.89010989011,-1.0,77.55433710701747,0.41633703186578963,
2023-08-12 12:00:31.946000,-8.819277108433736,0.49397590361445787,-4.216867469879518,0.5836909871244634,-8.594114040465971,-3.8577559779276513,3.0,0.41625041625041626,2402.4,0.02051162519666714,0.09253540003496293,0.00384592972437498,1306.227106227106,-1.0,77.55433710701747,0.41633335871138955,
2023-08-12 12:00:31.953000,-8.843373493975903,0.49397590361445787,-4.253012048192772,0.6376456161863887,-8.724095646842427,-3.884733292458614,3.0,0.4158064158064158,2404.9652963160706,-0.028320027970398804,0.1298292640289035,-0.08694132043587192,1299.6336996336995,-1.0,77.55433710701747,0.41632976358978513,
2023-08-12 12:00:31.961000,-8.843373493975903,0.5060240963855422,-4.240963855421687,0.6744328632740649,-8.694665849172287,-3.9435928877988964,3.0,0.4158064158064158,2404.9652963160706,0.13915273002738776,0.3851756890624091,0.05197832294155373,1294.5054945054944,-1.0,77.55433710701747,0.4163262467303475,
2023-08-12 12:00:31.968000,-8.843373493975903,0.5060240963855422,-4.253012048192772,0.5935009196811771,-8.682403433476395,-3.948497854077253,3.0,0.4158064158064158,2404.9652963160706,0.13379173707825887,0.12050579803041749,-0.22551133383835423,1289.3772893772893,-1.0,77.55433710701747,0.41632280801057114,
2023-08-12 12:00:31.976000,-8.831325301204819,0.5060240963855422,-4.253012048192772,0.6180257510729613,-8.716738197424892,-3.9239730226854688,3.0,0.41625041625041626,2402.4,-0.022959035021269912,0.32958452304644253,0.018530388671989015,1285.7142857142856,-1.0,77.55433710701747,0.4163194470953153,
2023-08-12 12:00:31.984000,-8.831325301204819,0.5301204819277109,-4.253012048192772,0.6793378295524218,-8.711833231146535,-3.896995708154506,3.0,0.41625041625041626,2402.4,0.311636850999359,-0.04591807004253809,-0.1506905192005127,1284.9816849816848,-1.0,77.55433710701747,0.4163161635871031,
2023-08-12 12:00:31.991000,-8.807228915662652,0.5180722891566265,-4.27710843373494,0.5959534028203556,-8.706928264868179,-3.889638258736971,3.0,0.41625041625041626,2402.4,0.350562321543033,-0.20430044869180033,0.04626770001748146,1284.2490842490843,-1.0,77.55433710701747,0.41631295704950805,
2023-08-12 12:00:31.999000,-8.807228915662652,0.5060240963855422,-4.265060240963856,0.627835683629675,-8.645616186388718,-3.9460453709380747,3.0,0.41625041625041626,2402.4,0.08612551716100478,-0.2104772449157968,0.196142415943127,1283.5164835164835,-1.0,77.55433710701747,0.41630982687210993,
2023-08-12 12:00:32.007000,-8.771084337349398,0.5060240963855422,-4.253012048192772,0.640098099325567,-8.630901287553648,-3.977927651747394,3.0,0.4158064158064158,2404.9652963160706,-0.20558242526659298,-0.2453236990851346,-0.27842200337975637,1283.5164835164835,-1.0,77.55433710701747,0.41630677213613304,
2023-08-12 12:00:32.014000,-8.783132530120483,0.5180722891566265,-4.289156626506024,0.6327406499080318,-8.603923973022685,-3.965665236051502,3.0,0.4158064158064158,2404.9652963160706,-0.0055940795990905645,0.10337392925820155,-0.1680554746226912,1284.2490842490843,-1.0,77.55433710701747,0.4163037916293412,
2023-08-12 12:00:32.022000,-8.771084337349398,0.5060240963855422,-4.228915662650603,0.6253832004904966,-8.603923973022685,-3.896995708154506,3.0,0.41625041625041626,2402.4,0.14835965270089121,-0.23786492628634717,0.23203776003729365,1284.9816849816848,-1.0,77.55433710701747,0.41630088395748654,
2023-08-12 12:00:32.030000,-8.783132530120483,0.5060240963855422,-4.240963855421687,0.6033108522378908,-8.652973635806253,-3.90680564071122,3.0,0.4158064158064158,2404.9652963160706,0.025639531495834356,0.12866383077909166,0.12272012120505815,1285.7142857142856,-1.0,77.55433710701747,0.4162980476879122,
2023-08-12 12:00:32.037000,-8.795180722891567,0.49397590361445787,-4.265060240963856,0.6474555487431024,-8.650521152667075,-3.9337829552421826,3.0,0.4158064158064158,2404.9652963160706,-0.2039508187168578,-0.15104014917545566,0.12365246780490657,1287.9120879120878,-1.0,77.55433710701747,0.41629528122741055,
2023-08-12 12:00:32.045000,-8.795180722891567,0.5180722891566265,-4.253012048192772,0.627835683629675,-8.694665849172287,-3.9386879215205393,3.0,0.4158064158064158,2404.9652963160706,-0.17236757764699037,-0.21059378824077765,-0.12225394790513394,1287.9120879120878,-1.0,77.55433710701747,0.41629258266896335,
2023-08-12 12:00:32.053000,-8.807228915662652,0.5180722891566265,-4.240963855421687,0.6253832004904966,-8.697118332311465,-3.9681177191906802,3.0,0.4158064158064158,2404.9652963160706,-0.003845929724374546,-0.3927510051861774,-0.0428879435930307,1289.3772893772893,-1.0,77.55433710701747,0.41628995007548436,
2023-08-12 12:00:32.060000,-8.819277108433736,0.5301204819277109,-4.228915662650603,0.5493562231759657,-8.640711220110362,-3.919068056407112,3.0,0.41625041625041626,2402.4,0.010605442573276946,-0.2682827341064045,-0.3176971038983742,1290.8424908424909,-1.0,77.55433710701747,0.41628738132728416,
2023-08-12 12:00:32.068000,-8.831325301204819,0.5060240963855422,-4.216867469879518,0.6670754138565297,-8.711833231146535,-3.9043531575720416,3.0,0.4158064158064158,2404.9652963160706,-0.1576831186993772,-0.005477536274109728,0.11607715168113746,1293.040293040293,-1.0,77.55433710701747,0.4162848741506727,
2023-08-12 12:00:32.076000,-8.831325301204819,0.5180722891566265,-4.265060240963856,0.6180257510729613,-8.716738197424892,-3.9386879215205393,3.0,0.41625041625041626,2402.4,-0.10908455218227295,-0.20465007866674456,-0.2812190431793021,1295.970695970696,-1.0,77.55433710701747,0.4162824261468592,
2023-08-12 12:00:32.083000,-8.819277108433736,0.5180722891566265,-4.228915662650603,0.598405885959534,-8.716738197424892,-3.9313304721030042,3.0,0.41625041625041626,2402.4,-0.03123361109492492,0.0870578637608532,0.04451955014276544,1299.6336996336995,-1.0,77.55433710701747,0.41628003478961184,
2023-08-12 12:00:32.091000,-8.843373493975903,0.5301204819277109,-4.228915662650603,0.6474555487431024,-8.704475781729,-3.9534028203556097,3.0,0.4158064158064158,2404.9652963160706,0.03100052444496325,-0.17260066429695206,-0.2914748557776352,1304.7619047619046,-1.0,77.55433710701747,0.41627769773237255,
2023-08-12 12:00:32.099000,-8.831325301204819,0.5180722891566265,-4.240963855421687,0.640098099325567,-8.724095646842427,-3.90680564071122,3.0,0.41625041625041626,2402.4,0.16793893129770993,0.14731076277606195,-0.07552007458772783,1309.89010989011,-1.0,77.55433710701747,0.41627541237073973,
2023-08-12 12:00:32.106000,-8.819277108433736,0.5180722891566265,-4.228915662650603,0.6646229307173512,-8.743715511955855,-3.8749233599019006,3.0,0.4158064158064158,2404.9652963160706,-0.16852164792261584,0.11456208845638441,0.23098887011246438,1316.4835164835165,-1.0,77.55433710701747,0.4162731758523059,
2023-08-12 12:00:32.114000,-8.795180722891567,0.5301204819277109,-4.240963855421687,0.615573267933783,-8.706928264868179,-3.872470876762722,3.0,0.4158064158064158,2404.9652963160706,-0.2885612726531082,0.23401899656197264,0.003612843074412873,1323.8095238095236,-1.0,77.55433710701747,0.41627098524578404,
2023-08-12 12:00:32.122000,-8.795180722891567,0.5301204819277109,-4.253012048192772,0.6204782342121398,-8.652973635806253,-3.9411404046597176,3.0,0.41625041625041626,2402.4,-0.20919526834100588,-0.04440300681778374,0.28180175980420713,1329.6703296703297,-1.0,77.55433710701747,0.41626883739069914,
2023-08-12 12:00:32.129000,-8.807228915662652,0.5180722891566265,-4.265060240963856,0.6548129981606376,-8.702023298589822,-3.8920907418761495,3.0,0.4158064158064158,2404.9652963160706,0.0079249460987125,-0.0759862478876529,0.15651768544956582,1333.3333333333333,-1.0,77.55433710701747,0.41626672919434854,
2023-08-12 12:00:32.137000,-8.771084337349398,0.5180722891566265,-4.240963855421687,0.6719803801348866,-8.61128142244022,-3.9166155732679337,3.0,0.4158064158064158,2404.9652963160706,-0.21956762426431942,0.5319037352135652,0.458597983800478,1335.5311355311355,-1.0,77.55433710701747,0.4162646575133707,
2023-08-12 12:00:32.145000,-8.783132530120483,0.5180722891566265,-4.253012048192772,0.5935009196811771,-8.670141017780502,-3.9019006744328633,3.0,0.4158064158064158,2404.9652963160706,-0.0953324398345082,0.43459005885437924,-0.09591515645941369,1336.263736263736,-1.0,77.55433710701747,0.41626261900383554,
2023-08-12 12:00:32.152000,-8.783132530120483,0.5180722891566265,-4.27710843373494,0.6033108522378908,-8.660331085223788,-3.948497854077253,3.0,0.4158064158064158,2404.9652963160706,0.24054542276091162,0.29473806887710474,0.05547462269098533,1336.9963369963368,-1.0,77.55433710701747,0.41626061026922173,
2023-08-12 12:00:32.160000,-8.795180722891567,0.5180722891566265,-4.253012048192772,0.6302881667688535,-8.665236051502145,-3.9288779889638255,3.0,0.4158064158064158,2404.9652963160706,-0.23390245323699005,0.12038925470543665,0.007575316123769124,1336.263736263736,-1.0,77.55433710701747,0.41625862786962503,
2023-08-12 12:00:32.168000,-8.795180722891567,0.5180722891566265,-4.228915662650603,0.6351931330472103,-8.652973635806253,-3.8822808093194356,3.0,0.4158064158064158,2404.9652963160706,-0.06421537206456586,0.10395664588310746,-0.22084960083911206,1336.263736263736,-1.0,77.55433710701747,0.41625666833092084,
2023-08-12 12:00:32.175000,-8.807228915662652,0.5180722891566265,-4.265060240963856,0.640098099325567,-8.679950950337217,-3.9632127529123236,3.0,0.4158064158064158,2404.9652963160706,0.12050579803041749,0.08472699726123126,-0.3880892721869357,1334.7985347985348,-1.0,77.55433710701747,0.4162547281538549,
2023-08-12 12:00:32.183000,-8.819277108433736,0.5180722891566265,-4.253012048192772,0.6033108522378908,-8.618638871857755,-3.9288779889638255,3.0,0.4158064158064158,2404.9652963160706,-0.12388555445486868,-0.17819474389604262,0.012470135772973802,1332.6007326007325,-1.0,77.55433710701747,0.4162528038230363,
2023-08-12 12:00:32.191000,-8.819277108433736,0.5180722891566265,-4.265060240963856,0.6302881667688535,-8.638258736971183,-3.958307786633967,3.0,0.4158064158064158,2404.9652963160706,0.18087524037060707,-0.027970397995454557,-0.12551716100460344,1331.135531135531,-1.0,77.55433710701747,0.4162508918158095,
2023-08-12 12:00:32.198000,-8.819277108433736,0.5421686746987953,-4.265060240963856,0.7063151440833844,-8.716738197424892,-3.8749233599019006,3.0,0.41536241536241536,2407.53607696419,0.08764058038575911,0.06235067886486727,-0.07715168113746301,1329.6703296703297,-1.0,77.55433710701747,0.41624898861098486,
2023-08-12 12:00:32.206000,-8.807228915662652,0.5421686746987953,-4.253012048192772,0.7357449417535254,-8.753525444512569,-3.936235438381361,3.0,0.4158064158064158,2404.9652963160706,-0.0791329176621407,-0.2591923547578819,-0.07924946098712198,1333.3333333333333,-1.0,77.55433710701747,0.4162470906868591,
2023-08-12 12:00:32.214000,-8.831325301204819,0.5421686746987953,-4.216867469879518,0.7234825260576333,-8.711833231146535,-3.877375843041079,3.0,0.4158064158064158,2404.9652963160706,0.10547170910786008,-0.028553114620360476,-0.4627935434997959,1344.3223443223442,-1.0,77.55433710701747,0.4162451946366349,
2023-08-12 12:00:32.221000,-8.855421686746988,0.5301204819277109,-4.228915662650603,0.6940527283874923,-8.670141017780502,-3.9166155732679337,3.0,0.4158064158064158,2404.9652963160706,0.10558825243284264,-0.026688421420663622,-0.45941378707534514,1364.102564102564,-1.0,77.55433710701747,0.4162432970487961,
2023-08-12 12:00:32.229000,-8.831325301204819,0.5301204819277109,-4.216867469879518,0.6695278969957081,-8.76578786020846,-3.830778663396689,3.0,0.4158064158064158,2404.9652963160706,-0.04673387331740568,-0.36244974069110264,-0.1362391469028612,1391.9413919413919,-1.0,77.55433710701747,0.41624139439761587,
2023-08-12 12:00:32.237000,-8.807228915662652,0.5301204819277109,-4.216867469879518,0.6670754138565297,-8.699570815450643,-3.9166155732679337,3.0,0.4158064158064158,2404.9652963160706,-0.21350737136530548,-0.27166249053085395,-0.0745877279878794,1432.2344322344322,-1.0,77.55433710701747,0.4162394831996048,
2023-08-12 12:00:32.244000,-8.795180722891567,0.5180722891566265,-4.228915662650603,0.7063151440833844,-8.682403433476395,-3.865113427345187,3.0,0.4158064158064158,2404.9652963160706,-0.2118757648155703,-0.3927510051861774,-0.33273119282093117,1482.7838827838827,-1.0,77.55433710701747,0.41623756002043083,
2023-08-12 12:00:32.252000,-8.759036144578314,0.5180722891566265,-4.228915662650603,0.6327406499080318,-8.714285714285714,-3.8822808093194356,3.0,0.4158064158064158,2404.9652963160706,-0.009789639298409356,-0.29939980187634685,-0.11502826175630776,1542.8571428571427,-1.0,77.55433710701747,0.4162356214815983,
2023-08-12 12:00:32.260000,-8.807228915662652,0.5060240963855422,-4.204819277108434,0.6425505824647455,-8.65787860208461,-3.8749233599019006,3.0,0.4158064158064158,2404.9652963160706,-0.17563079074646074,-0.35802109434182217,0.28588077617854424,1608.058608058608,-1.0,77.55433710701747,0.4162336642668793,
2023-08-12 12:00:32.267000,-8.795180722891567,0.49397590361445787,-4.240963855421687,0.615573267933783,-8.618638871857755,-3.9239730226854688,3.0,0.4158064158064158,2404.9652963160706,0.1313443272536561,0.05629042596585336,-0.23366936658702883,1677.6556776556774,-1.0,77.55433710701747,0.4162316849897499,
2023-08-12 12:00:32.275000,-8.795180722891567,0.5060240963855422,-4.216867469879518,0.6204782342121398,-8.67259350091968,-3.8920907418761495,3.0,0.4158064158064158,2404.9652963160706,0.12947963405395924,0.3868072956121443,0.11689295495600505,1746.5201465201465,-1.0,77.55433710701747,0.41622968035845104,
2023-08-12 12:00:32.283000,-8.783132530120483,0.49397590361445787,-4.240963855421687,0.5763335377069282,-8.601471489883506,-3.8871857755977928,3.0,0.4158064158064158,2404.9652963160706,0.1602470718489591,0.6853912942136235,0.07050871161354232,1808.7912087912086,-1.0,77.55433710701747,0.41622764730928397,
2023-08-12 12:00:32.290000,-8.783132530120483,0.5060240963855422,-4.240963855421687,0.6204782342121398,-8.709380748007357,-3.9337829552421826,3.0,0.41625041625041626,2402.4,0.18984907639414883,0.3107045043995106,0.13111124060369442,1862.2710622710622,-1.0,77.55433710701747,0.41622558286293937,
2023-08-12 12:00:32.298000,-8.807228915662652,0.5060240963855422,-4.265060240963856,0.6302881667688535,-8.665236051502145,-3.867565910484365,3.0,0.41625041625041626,2402.4,-0.04009090379348585,0.4711846628984331,0.23553405978672567,1904.7619047619046,-1.0,77.55433710701747,0.4162234842791676,
2023-08-12 12:00:32.306000,-8.807228915662652,0.5180722891566265,-4.265060240963856,0.6351931330472103,-8.667688534641323,-3.9534028203556097,3.0,0.4158064158064158,2404.9652963160706,0.20255229881708603,0.4778276324223529,0.06561389196433763,1933.3333333333333,750.67138671875,79.92844946743638,0.41622134908377306,
2023-08-12 12:00:32.313000,-8.795180722891567,0.5301204819277109,-4.265060240963856,0.5959534028203556,-8.699570815450643,-3.960760269773145,3.0,0.4158064158064158,2404.9652963160706,0.17050288444729353,0.3791154361633935,0.09323465998484924,1945.7875457875457,-1.0,79.92844946743638,0.4162191747871265,
2023-08-12 12:00:32.321000,-8.795180722891567,0.5180722891566265,-4.265060240963856,0.7210300429184548,-8.714285714285714,-3.894543225015328,3.0,0.4158064158064158,2404.9652963160706,0.38272827923780633,0.11339665520657258,0.19858982576772935,1942.8571428571427,-1.0,79.92844946743638,0.4162169588687765,
2023-08-12 12:00:32.329000,-8.807228915662652,0.5421686746987953,-4.265060240963856,0.6327406499080318,-8.729000613120784,-3.889638258736971,3.0,0.41625041625041626,2402.4,0.21175922149058948,0.4481090845521823,-0.045218810092651766,1927.4725274725274,-1.0,79.92844946743638,0.4162146989209242,
2023-08-12 12:00:32.336000,-8.819277108433736,0.5421686746987953,-4.240963855421687,0.6597179644389944,-8.635806253832005,-3.847946045370938,3.0,0.4158064158064158,2404.9652963160706,-0.0025639531495836093,0.1105996154070273,-0.0282034846454171,1901.098901098901,-1.0,79.92844946743638,0.41621239280217154,
2023-08-12 12:00:32.344000,-8.807228915662652,0.5301204819277109,-4.204819277108434,0.598405885959534,-8.667688534641323,-3.9166155732679337,3.0,0.4158064158064158,2404.9652963160706,0.028203484645416232,-0.12050579803041749,0.30918944117475666,1865.9340659340658,-1.0,79.92844946743638,0.4162100385142867,
2023-08-12 12:00:32.351000,-8.819277108433736,0.5180722891566265,-4.228915662650603,0.6302881667688535,-8.660331085223788,-3.8798283261802573,3.0,0.4158064158064158,2404.9652963160706,0.1962589592681087,0.12376901112988785,0.03368102091952683,1822.7106227106226,-1.0,79.92844946743638,0.4162076340471793,
2023-08-12 12:00:32.359000,-8.807228915662652,0.5301204819277109,-4.253012048192772,0.640098099325567,-8.64316370324954,-3.919068056407112,3.0,0.4158064158064158,2404.9652963160706,-0.05127906299166698,-0.136705320202785,-0.1771458539712138,1772.161172161172,-1.0,79.92844946743638,0.41620517766021803,
2023-08-12 12:00:32.367000,-8.807228915662652,0.5421686746987953,-4.240963855421687,0.6548129981606376,-8.65787860208461,-3.8626609442060085,3.0,0.4158064158064158,2404.9652963160706,0.05722277256570179,-0.07528698793776616,0.16129596177378921,1717.216117216117,-1.0,79.92844946743638,0.4162026678653879,
2023-08-12 12:00:32.374000,-8.807228915662652,0.5421686746987953,-4.253012048192772,0.657265481299816,-8.76578786020846,-3.884733292458614,3.0,0.4158064158064158,2404.9652963160706,0.14905891265077795,0.026571878095682785,-0.15989744187401658,1663.7362637362637,-1.0,79.92844946743638,0.4162001031437985,
2023-08-12 12:00:32.382000,-8.831325301204819,0.5180722891566265,-4.265060240963856,0.6621704475781729,-8.73635806253832,-3.958307786633967,3.0,0.4158064158064158,2404.9652963160706,-0.04661732999242484,-0.05279412621642132,-0.21805256103956636,1613.186813186813,-1.0,79.92844946743638,0.41619748197012646,
2023-08-12 12:00:32.390000,-8.819277108433736,0.5060240963855422,-4.289156626506024,0.6327406499080318,-8.731453096259962,-3.9435928877988964,3.0,0.4158064158064158,2404.9652963160706,0.1392692733523686,-0.1139793718314785,-0.30720820465007853,1567.032967032967,-1.0,79.92844946743638,0.4161948029641838,
2023-08-12 12:00:32.397000,-8.807228915662652,0.5180722891566265,-4.253012048192772,0.6302881667688535,-8.67259350091968,-3.977927651747394,3.0,0.4158064158064158,2404.9652963160706,0.13996853330225537,-0.10325738593322072,-0.13752112347765302,1526.007326007326,-1.0,79.92844946743638,0.4161920648929012,
2023-08-12 12:00:32.405000,-8.807228915662652,0.5060240963855422,-4.253012048192772,0.6548129981606376,-8.73635806253832,-3.960760269773145,3.0,0.4158064158064158,2404.9652963160706,0.11013344210710395,-0.35219392809276817,-0.35079540819299554,1490.10989010989,-1.0,79.92844946743638,0.41618926667202705,
2023-08-12 12:00:32.413000,-8.807228915662652,0.5060240963855422,-4.240963855421687,0.6695278969957081,-8.650521152667075,-3.8749233599019006,3.0,0.4158064158064158,2404.9652963160706,0.3845929724375032,0.014567915622632328,0.03333139094458345,1458.6080586080584,-1.0,79.92844946743638,0.4161864073675367,
2023-08-12 12:00:32.420000,-8.795180722891567,0.5180722891566265,-4.240963855421687,0.5787860208461066,-8.652973635806253,-3.9435928877988964,3.0,0.4158064158064158,2404.9652963160706,-0.1658411514480514,-0.048831653167064205,0.07785094108734933,1432.9670329670328,-1.0,79.92844946743638,0.4161834861967679,
2023-08-12 12:00:32.428000,-8.783132530120483,0.5180722891566265,-4.240963855421687,0.615573267933783,-8.662783568362967,-3.9435928877988964,3.0,0.4158064158064158,2404.9652963160706,0.2490530854845283,-0.12703222422935648,0.3538255346425034,1410.989010989011,-1.0,79.92844946743638,0.4161805025292749,
2023-08-12 12:00:32.436000,-8.795180722891567,0.49397590361445787,-4.253012048192772,0.6302881667688535,-8.64316370324954,-3.8528510116492947,3.0,0.4158064158064158,2404.9652963160706,0.4617446535749662,0.011537789173125373,-0.25721111823320336,1392.6739926739926,-1.0,79.92844946743638,0.41617745588741023,
2023-08-12 12:00:32.443000,-8.771084337349398,0.5060240963855422,-4.265060240963856,0.6695278969957081,-8.687308399754752,-3.9705702023298586,3.0,0.4158064158064158,2404.9652963160706,0.10908455218227295,0.05908746576539864,0.21886836431443396,1375.091575091575,-1.0,79.92844946743638,0.4161743460853858,
2023-08-12 12:00:32.451000,-8.795180722891567,0.5180722891566265,-4.253012048192772,0.627835683629675,-8.58185162477008,-3.948497854077253,3.0,0.4158064158064158,2404.9652963160706,0.07785094108734976,0.44088339840335655,0.12714876755433818,1358.2417582417581,-1.0,79.92844946743638,0.4161711730701883,
2023-08-12 12:00:32.459000,-8.807228915662652,0.5301204819277109,-4.253012048192772,0.5910484365419988,-8.660331085223788,-3.872470876762722,3.0,0.4158064158064158,2404.9652963160706,-0.0597867257152854,-0.020628168521647974,0.14148359652700884,1339.9267399267399,-1.0,79.92844946743638,0.41616793679374925,
2023-08-12 12:00:32.466000,-8.819277108433736,0.5180722891566265,-4.228915662650603,0.6180257510729613,-8.638258736971183,-3.8749233599019006,3.0,0.4158064158064158,2404.9652963160706,0.12376901112988785,0.6524095332439827,0.13938581667734987,1321.6117216117216,-1.0,79.92844946743638,0.4161646373615605,
