Shimmer_F5D4_Timestamp_FormattedUnix_CAL,Shimmer_F5D4_Accel_LN_X_CAL,Shimmer_F5D4_Accel_LN_Y_CAL,Shimmer_F5D4_Accel_LN_Z_CAL,Shimmer_F5D4_Accel_WR_X_CAL,Shimmer_F5D4_Accel_WR_Y_CAL,Shimmer_F5D4_Accel_WR_Z_CAL,Shimmer_F5D4_GSR_Range_CAL,Shimmer_F5D4_GSR_Skin_Conductance_CAL,Shimmer_F5D4_GSR_Skin_Resistance_CAL,Shimmer_F5D4_Gyro_X_CAL,Shimmer_F5D4_Gyro_Y_CAL,Shimmer_F5D4_Gyro_Z_CAL,Shimmer_F5D4_PPG_A13_CAL,Shimmer_F5D4_PPG_IBI_CAL,Shimmer_F5D4_PPGtoHR_CAL,Shimmer_F5D4_GSR_Skin_Conductance_LPF_CAL,
yyyy/mm/dd hh:mm:ss.000,m/(s^2),m/(s^2),m/(s^2),m/(s^2),m/(s^2),m/(s^2),no_units,uS,kOhms,deg/s,deg/s,deg/s,mV,ms,BPM,uS,
2023-08-11 18:54:09.196000,-0.49397590361445787,-1.4698795180722892,-9.843373493975903,-1.4543225015328018,0.009809932556713672,-9.503372164316369,3.0,0.6435786435786436,1553.8116591928251,0.036244974069109565,-0.5296894120389258,-0.1882174698444145,1240.2930402930401,-1.0,53.65060306718332,0.6439104233339409,
2023-08-11 18:54:09.204000,-0.5060240963855422,-1.4698795180722892,-9.843373493975903,-1.4543225015328018,0.09809932556713671,-9.513182096873084,3.0,0.6435786435786436,1553.8116591928251,-0.23809801293630886,0.06747858516403449,-0.11024998543208435,1240.2930402930401,-1.0,53.65060306718332,0.6439072058473061,
2023-08-11 18:54:09.212000,-0.49397590361445787,-1.4819277108433735,-9.867469879518072,-1.466584917228694,0.04414469650521152,-9.481299816063764,3.0,0.6435786435786436,1553.8116591928251,0.0981294796340535,-0.026571878095682785,-0.2159547811899074,1238.095238095238,-1.0,53.65060306718332,0.6439039007524798,
2023-08-11 18:54:09.219000,-0.4819277108433735,-1.5060240963855422,-9.855421686746988,-1.4641324340895157,0.06131207847946045,-9.554874310239116,3.0,0.6435786435786436,1553.8116591928251,0.09626478643435664,-0.1501078025756072,-0.03228250101975418,1233.6996336996335,-1.0,53.65060306718332,0.6439005076662027,
2023-08-11 18:54:09.227000,-0.46987951807228917,-1.4819277108433735,-9.843373493975903,-1.496014714898835,0.03188228080931944,-9.540159411404046,3.0,0.6435786435786436,1553.8116591928251,-0.18134141367053214,-0.10372355923314405,-0.33704329584523035,1228.5714285714284,-1.0,53.65060306718332,0.6438970265994949,
2023-08-11 18:54:09.235000,-0.46987951807228917,-1.4698795180722892,-9.831325301204819,-1.4739423666462292,0.02452483139178418,-9.53525444512569,3.0,0.6435786435786436,1553.8116591928251,-0.05722277256570179,0.020045451896742058,0.0926519433599442,1223.4432234432234,-1.0,53.65060306718332,0.6438934579371125,
2023-08-11 18:54:09.242000,-0.4819277108433735,-1.457831325301205,-9.855421686746988,-1.4592274678111588,0.0539546290619252,-9.56468424279583,3.0,0.6435786435786436,1553.8116591928251,-0.2546471650836206,-0.11665986830604294,0.030534351145038167,1219.047619047619,-1.0,53.65060306718332,0.643889802288748,
2023-08-11 18:54:09.250000,-0.4819277108433735,-1.4457831325301205,-9.855421686746988,-1.4592274678111588,0.04414469650521152,-9.552421827099938,3.0,0.6435786435786436,1553.8116591928251,-0.32981760969640417,0.2209661441640929,0.03193287104481081,1215.3846153846152,-1.0,53.65060306718332,0.6438860604886765,
2023-08-11 18:54:09.258000,-0.4819277108433735,-1.4457831325301205,-9.891566265060241,-1.4273451870018392,0.007357449417535254,-9.58185162477008,3.0,0.6435786435786436,1553.8116591928251,-0.11153196200687572,-0.28238447642911174,0.15430336227492558,1207.3260073260074,-1.0,53.65060306718332,0.6438822334558162,
2023-08-11 18:54:09.265000,-0.49397590361445787,-1.457831325301205,-9.891566265060241,-1.4592274678111588,0.01226241569589209,-9.594114040465971,3.0,0.6435786435786436,1553.8116591928251,-0.1687547345725775,0.02703805139560613,9.323465998484274E-4,1196.3369963369962,-1.0,53.65060306718332,0.6438783223508502,
2023-08-11 18:54:09.273000,-0.46987951807228917,-1.4819277108433735,-9.903614457831326,-1.4224402207234825,0.056407112201103615,-9.591661557326793,3.0,0.6435786435786436,1553.8116591928251,-0.028436571295379638,-0.12516753102965963,0.29240720237748363,1185.3479853479853,-1.0,53.65060306718332,0.6438743285622661,
2023-08-11 18:54:09.281000,-0.5060240963855422,-1.493975903614458,-9.891566265060241,-1.4812998160637645,0.004904966278356836,-9.547516860821581,3.0,0.6435786435786436,1553.8116591928251,-0.13519025697803239,0.33168230289610107,0.0926519433599442,1177.2893772893772,-1.0,53.65060306718332,0.6438702535740313,
2023-08-11 18:54:09.288000,-0.49397590361445787,-1.4819277108433735,-9.891566265060241,-1.4690374003678723,0.02452483139178418,-9.554874310239116,3.0,0.6435786435786436,1553.8116591928251,0.2152555212400215,0.06339956878969827,0.060952158965095066,1176.5567765567764,-1.0,53.65060306718332,0.6438660991094043,
2023-08-11 18:54:09.296000,-0.5060240963855422,-1.4698795180722892,-9.879518072289157,-1.5180870631514407,0.03678724708767627,-9.56713672593501,3.0,0.6435786435786436,1553.8116591928251,0.10908455218227295,0.3017306683759688,0.1515063224753803,1180.2197802197802,-1.0,53.65060306718332,0.6438618671249061,
2023-08-11 18:54:09.304000,-0.5060240963855422,-1.4819277108433735,-9.831325301204819,-1.4543225015328018,0.007357449417535254,-9.52053954629062,3.0,0.6435786435786436,1553.8116591928251,-0.061068702290076333,-0.0734222947380693,0.04463609346774672,1186.8131868131868,-1.0,53.65060306718332,0.6438575598037736,
2023-08-11 18:54:09.311000,-0.49397590361445787,-1.457831325301205,-9.879518072289157,-1.4347026364193745,-0.00551808706315144,-9.53525444512569,3.0,0.6431346431346432,1554.8843631342768,-0.07761785443738635,-0.1826233902453231,-0.07610279121263332,1192.6739926739926,-1.0,53.65060306718332,0.643853179687664,
2023-08-11 18:54:09.319000,-0.49397590361445787,-1.457831325301205,-9.867469879518072,-1.4347026364193745,0.007357449417535254,-9.469037400367872,3.0,0.6431346431346432,1554.8843631342768,-0.014334828972670657,-0.244507895810267,0.050113629741856444,1197.069597069597,-1.0,53.65060306718332,0.6438487296382301,
2023-08-11 18:54:09.327000,-0.49397590361445787,-1.4819277108433735,-9.843373493975903,-1.471489883507051,0.05885959534028203,-9.513182096873084,3.0,0.6435786435786436,1553.8116591928251,-0.16397645824835452,0.03239904434473502,0.18914981644426293,1198.5347985347985,-1.0,53.65060306718332,0.6438442125001784,
2023-08-11 18:54:09.334000,-0.4819277108433735,-1.457831325301205,-9.879518072289157,-1.4739423666462292,0.017167381974248927,-9.589209074187615,3.0,0.6435786435786436,1553.8116591928251,-0.19357846279354426,0.26432026105704737,0.1730668375968767,1200.0,-1.0,53.65060306718332,0.6438396312527679,
2023-08-11 18:54:09.342000,-0.49397590361445787,-1.4819277108433735,-9.891566265060241,-1.4445125689760883,0.07112201103617412,-9.59656652360515,3.0,0.6435786435786436,1553.8116591928251,-0.1927626595186767,0.2657187809568209,0.17015325447235016,1202.9304029304028,-1.0,53.65060306718332,0.6438349891710915,
2023-08-11 18:54:09.350000,-0.49397590361445787,-1.4819277108433735,-9.903614457831326,-1.407725321888412,0.06866952789699571,-9.552421827099938,3.0,0.6435786435786436,1553.8116591928251,-0.1764465940213266,0.2370491230114796,0.10582133908280389,1207.3260073260074,-1.0,53.65060306718332,0.6438302895396609,
2023-08-11 18:54:09.357000,-0.4819277108433735,-1.493975903614458,-9.879518072289157,-1.513182096873084,0.07112201103617412,-9.58185162477008,3.0,0.6435786435786436,1553.8116591928251,-0.2825010197540943,0.2237631839636382,-0.25161703863411233,1210.2564102564102,-1.0,53.65060306718332,0.6438255356633851,
2023-08-11 18:54:09.365000,-0.49397590361445787,-1.493975903614458,-9.879518072289157,-1.5205395462906193,0.034334763948497854,-9.508277130594726,3.0,0.6435786435786436,1553.8116591928251,-0.06444845871452753,-0.1903152496940739,-0.16444263154827787,1211.7216117216117,-1.0,53.65060306718332,0.643820731144468,
2023-08-11 18:54:09.373000,-0.4819277108433735,-1.4819277108433735,-9.843373493975903,-1.4886572654812997,0.041692213366033105,-9.513182096873084,3.0,0.6435786435786436,1553.8116591928251,-0.46057922032515614,-0.6005477536274114,-0.04626770001748146,1210.989010989011,-1.0,53.65060306718332,0.6438158798506901,
2023-08-11 18:54:09.380000,-0.49397590361445787,-1.4698795180722892,-9.831325301204819,-1.4690374003678723,0.04659717964438994,-9.488657265481299,3.0,0.6435786435786436,1553.8116591928251,-0.09090379348522774,-0.6446011304702527,-0.2956704154769536,1210.2564102564102,-1.0,53.65060306718332,0.6438109857559214,
2023-08-11 18:54:09.388000,-0.49397590361445787,-1.4698795180722892,-9.831325301204819,-1.4739423666462292,0.007357449417535254,-9.476394849785407,3.0,0.6435786435786436,1553.8116591928251,-0.3352951459705139,-0.306858574675136,0.17831128722102432,1210.2564102564102,-1.0,53.65060306718332,0.6438060529296267,
2023-08-11 18:54:09.396000,-0.5060240963855422,-1.493975903614458,-9.843373493975903,-1.4592274678111588,0.06621704475781728,-9.532801961986511,3.0,0.6435786435786436,1553.8116591928251,-0.18052561039566456,-0.09370083328477302,0.11549443505623197,1211.7216117216117,-1.0,53.65060306718332,0.6438010855261093,
2023-08-11 18:54:09.403000,-0.49397590361445787,-1.4819277108433735,-9.843373493975903,-1.5180870631514407,0.09074187614960147,-9.53525444512569,3.0,0.6435786435786436,1553.8116591928251,-0.3484645416933745,0.227958743662957,0.1499912592506264,1209.5238095238094,-1.0,53.65060306718332,0.643796087773544,
2023-08-11 18:54:09.411000,-0.4819277108433735,-1.4819277108433735,-9.879518072289157,-1.5180870631514407,0.03923973022685469,-9.532801961986511,3.0,0.6435786435786436,1553.8116591928251,-0.21222539479051283,0.38028086941320355,0.11141541868189489,1208.058608058608,-1.0,53.65060306718332,0.6437910639628409,
2023-08-11 18:54:09.419000,-0.4819277108433735,-1.4698795180722892,-9.879518072289157,-1.4518700183936235,0.06131207847946045,-9.518087063151441,3.0,0.6435786435786436,1553.8116591928251,0.2783054600547755,0.4083678107336407,-0.14264902977681937,1208.058608058608,-1.0,53.65060306718332,0.6437860184363874,
2023-08-11 18:54:09.426000,-0.45783132530120485,-1.421686746987952,-9.891566265060241,-1.471489883507051,0.06866952789699571,-9.557326793378294,3.0,0.6435786435786436,1553.8116591928251,0.38098012936309034,0.25511333838354394,-0.04032399044344752,1207.3260073260074,-1.0,53.65060306718332,0.6437809555767166,
2023-08-11 18:54:09.434000,-0.45783132530120485,-1.4337349397590362,-9.879518072289157,-1.419987737584304,0.13243408951563457,-9.601471489883506,3.0,0.6435786435786436,1553.8116591928251,0.14835965270089121,0.14905891265077795,0.041839053668201,1205.128205128205,-1.0,53.65060306718332,0.6437758797951451,
2023-08-11 18:54:09.442000,-0.46987951807228917,-1.4337349397590362,-9.91566265060241,-1.471489883507051,0.06131207847946045,-9.56468424279583,3.0,0.6435786435786436,1553.8116591928251,0.19217994289377077,-0.35487442456733265,-0.09405046325971683,1203.6630036630036,-1.0,53.65060306718332,0.6437707955204318,
2023-08-11 18:54:09.449000,-0.44578313253012053,-1.457831325301205,-9.927710843373495,-1.4297976701410178,0.10055180870631514,-9.579399141630901,3.0,0.6435786435786436,1553.8116591928251,0.09824602295903433,-0.7337567740807645,0.05943709574034159,1202.9304029304028,-1.0,53.65060306718332,0.6437657071874958,
2023-08-11 18:54:09.457000,-0.45783132530120485,-1.4698795180722892,-9.903614457831326,-1.491109748620478,0.15879828326180256,-9.613733905579398,3.0,0.6435786435786436,1553.8116591928251,-0.20861255171609994,-0.792844239846163,-0.09812947963405393,1205.8608058608058,-1.0,53.65060306718332,0.6437606192262444,
2023-08-11 18:54:09.465000,-0.49397590361445787,-1.4819277108433735,-9.891566265060241,-1.4445125689760883,0.02452483139178418,-9.579399141630901,3.0,0.6431346431346432,1554.8843631342768,0.08554280053609885,-0.9111357147019412,0.06724549851407281,1217.5824175824175,-1.0,53.65060306718332,0.6437555360505512,
2023-08-11 18:54:09.472000,-0.49397590361445787,-1.457831325301205,-9.879518072289157,-1.4150827713059473,0.01226241569589209,-9.547516860821581,3.0,0.6431346431346432,1554.8843631342768,0.22446244391352496,-0.5228133558650425,0.2737602703805138,1237.3626373626373,-1.0,53.65060306718332,0.6437504620368837,
2023-08-11 18:54:09.480000,-0.5180722891566265,-1.457831325301205,-9.891566265060241,-1.4469650521152666,-0.03494788473329246,-9.56713672593501,3.0,0.6431346431346432,1554.8843631342768,0.07132451488840903,0.07808402773731143,0.28156867315424505,1269.5970695970695,-1.0,53.65060306718332,0.6437454014714554,
2023-08-11 18:54:09.488000,-0.5301204819277109,-1.4698795180722892,-9.855421686746988,-1.4347026364193745,-0.047210300429184546,-9.510729613733906,3.0,0.6435786435786436,1553.8116591928251,0.29905017190140437,0.20080414894237003,0.4589476137754209,1318.6813186813185,-1.0,53.65060306718332,0.6437403583902238,
2023-08-11 18:54:09.495000,-0.5421686746987953,-1.457831325301205,-9.843373493975903,-1.4248927038626609,0.014714898835070508,-9.510729613733906,3.0,0.6435786435786436,1553.8116591928251,-0.14637841617621353,0.3655964104655904,0.3461336751937534,1387.5457875457876,-1.0,53.65060306718332,0.6437353367377872,
2023-08-11 18:54:09.503000,-0.5783132530120483,-1.4698795180722892,-9.819277108433736,-1.4445125689760883,-6.131207847946045E-4,-9.451870018393622,3.0,0.6435786435786436,1553.8116591928251,0.005943709574034809,0.024590641571003356,-0.14626187285123224,1477.6556776556777,-1.0,53.65060306718332,0.6437303405264495,
2023-08-11 18:54:09.510000,-0.5542168674698795,-1.493975903614458,-9.843373493975903,-1.4543225015328018,0.014714898835070508,-9.493562231759656,3.0,0.6435786435786436,1553.8116591928251,-0.19287920284365753,0.2863469494784689,-0.3735213565643029,1586.8131868131868,-1.0,53.65060306718332,0.6437253736872718,
2023-08-11 18:54:09.518000,-0.5301204819277109,-1.4698795180722892,-9.807228915662652,-1.4518700183936235,0.017167381974248927,-9.451870018393622,3.0,0.6435786435786436,1553.8116591928251,0.0067595128489024,0.11864110483072063,-0.7211700949828098,1716.4835164835163,-1.0,53.65060306718332,0.6437204400603252,
2023-08-11 18:54:09.526000,-0.5060240963855422,-1.493975903614458,-9.819277108433736,-1.4543225015328018,0.08828939301042305,-9.503372164316369,3.0,0.6435786435786436,1553.8116591928251,0.12691568090437563,-0.06479808868947004,-1.3236990851348989,1863.003663003663,-1.0,53.65060306718332,0.6437155433854306,
2023-08-11 18:54:09.533000,-0.4819277108433735,-1.4819277108433735,-9.843373493975903,-1.4935622317596566,0.13243408951563457,-9.508277130594726,3.0,0.6435786435786436,1553.8116591928251,0.11153196200687572,-0.15418681894994518,-1.1105413437445368,2018.3150183150183,-1.0,53.65060306718332,0.6437106872934323,
2023-08-11 18:54:09.541000,-0.43373493975903615,-1.4819277108433735,-9.855421686746988,-1.4690374003678723,0.17351318209687308,-9.589209074187615,3.0,0.6435786435786436,1553.8116591928251,0.17061942777227437,-0.34578404521881,-0.8222131577413903,2176.556776556776,-1.0,53.65060306718332,0.6437058752980234,
2023-08-11 18:54:09.549000,-0.39759036144578314,-1.4819277108433735,-9.855421686746988,-1.407725321888412,0.12998160637645614,-9.542611894543224,3.0,0.6435786435786436,1553.8116591928251,0.27923780665462394,-0.21968416758930198,-0.5832993415302138,2330.4029304029305,-1.0,53.65060306718332,0.6437011107881683,
2023-08-11 18:54:09.556000,-0.39759036144578314,-1.4819277108433735,-9.891566265060241,-1.4543225015328018,0.11526670754138564,-9.562231759656651,3.0,0.6431346431346432,1554.8843631342768,-0.13507371365304982,-0.14031816327719787,0.018880018646931958,2469.5970695970695,-1.0,53.65060306718332,0.6436963970211382,
2023-08-11 18:54:09.564000,-0.39759036144578314,-1.4819277108433735,-9.903614457831326,-1.5009196811771919,0.13243408951563457,-9.601471489883506,3.0,0.6435786435786436,1553.8116591928251,-0.10115960608356218,0.015150632247538248,0.4006759512848903,2588.2783882783883,-1.0,53.65060306718332,0.6436917369668917,
2023-08-11 18:54:09.572000,-0.43373493975903615,-1.4819277108433735,-9.91566265060241,-1.4837522992029428,0.1079092581238504,-9.623543838136113,3.0,0.6435786435786436,1553.8116591928251,-0.19357846279354426,0.30324573160072316,0.8375968766388906,2678.388278388278,-1.0,53.65060306718332,0.6436871334298299,
2023-08-11 18:54:09.579000,-0.49397590361445787,-1.457831325301205,-9.91566265060241,-1.4567749846719804,0.009809932556713672,-9.569589209074188,3.0,0.6435786435786436,1553.8116591928251,0.2200337975642445,0.35953615756657475,1.012644950760445,2735.5311355311355,-1.0,53.65060306718332,0.6436825892027401,
2023-08-11 18:54:09.587000,-0.5301204819277109,-1.457831325301205,-9.891566265060241,-1.4739423666462292,-0.00551808706315144,-9.589209074187615,3.0,0.6435786435786436,1553.8116591928251,-0.35953615756657475,0.18716857991958438,1.0773264961249343,2754.5787545787543,-1.0,53.65060306718332,0.6436781069235606,
2023-08-11 18:54:09.595000,-0.5662650602409639,-1.4698795180722892,-9.891566265060241,-1.4812998160637645,-0.00551808706315144,-9.586756591048436,3.0,0.6435786435786436,1553.8116591928251,-0.2778392867548505,0.2595419847328244,0.4570829205757241,2738.461538461538,-1.0,53.65060306718332,0.643673689071594,
2023-08-11 18:54:09.602000,-0.5783132530120483,-1.4698795180722892,-9.867469879518072,-1.3586756591048437,-0.04475781729000613,-9.59656652360515,3.0,0.6435786435786436,1553.8116591928251,-0.15418681894994518,0.315133150748791,0.07144105821339074,2690.842490842491,-1.0,53.65060306718332,0.6436693379644317,
2023-08-11 18:54:09.610000,-0.5783132530120483,-1.4698795180722892,-9.867469879518072,-1.5107296137339055,-0.022685469037400367,-9.527896995708154,3.0,0.6435786435786436,1553.8116591928251,0.227958743662957,-0.13006235067886518,0.17912709049589193,2690.842490842491,-1.0,53.65060306718332,0.6436650557555926,
2023-08-11 18:54:09.618000,-0.5903614457831325,-1.4819277108433735,-9.879518072289157,-1.5107296137339055,-0.07664009809932557,-9.510729613733906,3.0,0.6431346431346432,1554.8843631342768,0.22702639706310856,-0.12633296427947147,0.1823903035953614,2516.4835164835163,-1.0,53.65060306718332,0.6436608444328694,
2023-08-11 18:54:09.625000,-0.5542168674698795,-1.4698795180722892,-9.855421686746988,-1.5229920294297976,-0.010423053341508276,-9.525444512568976,3.0,0.6435786435786436,1553.8116591928251,-0.18553697336985095,-0.3974127381854212,-0.48750072839578096,2408.7912087912086,-1.0,53.65060306718332,0.6436567058068418,
2023-08-11 18:54:09.633000,-0.5180722891566265,-1.4698795180722892,-9.855421686746988,-1.4862047823421214,-0.015328019619865112,-9.503372164316369,3.0,0.6435786435786436,1553.8116591928251,0.014218285647689819,0.08216304411164765,-0.6661616455917486,2291.5750915750914,-1.0,53.65060306718332,0.6436526416176653,
2023-08-11 18:54:09.641000,-0.4819277108433735,-1.4698795180722892,-9.807228915662652,-1.461679950950337,0.10055180870631514,-9.559779276517473,3.0,0.6435786435786436,1553.8116591928251,0.5630208029835092,-0.05291066954140216,-0.7965736262455568,2171.428571428571,-1.0,53.65060306718332,0.6436486534077073,
2023-08-11 18:54:09.648000,-0.44578313253012053,-1.457831325301205,-9.819277108433736,-1.419987737584304,0.06131207847946045,-9.50091968117719,3.0,0.6440226440226441,1552.7404343329886,0.30138103840102626,0.11456208845638441,-0.6564885496183206,2055.6776556776554,-1.0,53.65060306718332,0.6436447424051996,
2023-08-11 18:54:09.656000,-0.43373493975903615,-1.4698795180722892,-9.831325301204819,-1.407725321888412,0.07847946045370938,-9.54996934396076,3.0,0.6435786435786436,1553.8116591928251,0.282734106404056,0.053027212866383,-0.5019521006934329,1946.5201465201465,-1.0,53.65060306718332,0.6436409098240158,
2023-08-11 18:54:09.664000,-0.42168674698795183,-1.4698795180722892,-9.831325301204819,-1.5156345800122624,0.09319435928877988,-9.498467198038012,3.0,0.6435786435786436,1553.8116591928251,0.2659518676067826,0.0067595128489024,-0.1497581726006643,1846.153846153846,-1.0,53.65060306718332,0.643637156738077,
2023-08-11 18:54:09.671000,-0.42168674698795183,-1.5060240963855422,-9.843373493975903,-1.419987737584304,0.1226241569589209,-9.54996934396076,3.0,0.6435786435786436,1553.8116591928251,0.034380280869412715,-0.344035895344094,0.16933745119748256,1758.974358974359,-1.0,53.65060306718332,0.6436334839248659,
2023-08-11 18:54:09.679000,-0.44578313253012053,-1.493975903614458,-9.855421686746988,-1.5033721643163702,0.12017167381974249,-9.559779276517473,3.0,0.6435786435786436,1553.8116591928251,-0.07109142823844736,-0.0363615173940904,0.2152555212400211,1684.9816849816848,-1.0,53.65060306718332,0.6436298920074072,
2023-08-11 18:54:09.687000,-0.4819277108433735,-1.4698795180722892,-9.843373493975903,-1.4739423666462292,0.07357449417535254,-9.522992029429798,3.0,0.6435786435786436,1553.8116591928251,0.0802983509119508,0.08379465066138284,0.33436279937066593,1623.4432234432234,-1.0,53.65060306718332,0.6436263814580673,
2023-08-11 18:54:09.694000,-0.49397590361445787,-1.493975903614458,-9.867469879518072,-1.4003678724708768,0.02452483139178418,-9.537706928264868,3.0,0.6435786435786436,1553.8116591928251,-0.12015616805547498,0.09649787308431831,0.5315541052386227,1578.021978021978,-1.0,53.65060306718332,0.6436229526028866,
2023-08-11 18:54:09.702000,-0.49397590361445787,-1.4819277108433735,-9.879518072289157,-1.4175352544451256,0.06866952789699571,-9.559779276517473,3.0,0.6435786435786436,1553.8116591928251,0.08088106753685671,0.2946215255521239,0.5463551075112171,1540.6593406593406,-1.0,53.65060306718332,0.6436196056264154,
2023-08-11 18:54:09.710000,-0.5060240963855422,-1.4819277108433735,-9.891566265060241,-1.513182096873084,-0.0030656039239730223,-9.56468424279583,3.0,0.6435786435786436,1553.8116591928251,0.12540061767962304,0.5829497115552704,0.30184721170094964,1512.087912087912,-1.0,53.65060306718332,0.643616340577019,
2023-08-11 18:54:09.717000,-0.5180722891566265,-1.4819277108433735,-9.867469879518072,-1.3979153893316982,0.014714898835070508,-9.554874310239116,3.0,0.6435786435786436,1553.8116591928251,0.09521589650952737,0.472466639473224,0.5027679039683001,1490.10989010989,-1.0,53.65060306718332,0.6436131573726079,
2023-08-11 18:54:09.725000,-0.5180722891566265,-1.4457831325301205,-9.879518072289157,-1.4641324340895157,0.04659717964438994,-9.461679950950337,3.0,0.6435786435786436,1553.8116591928251,0.17061942777227437,-0.03531262746926114,0.08775712371073952,1472.5274725274724,-1.0,53.65060306718332,0.6436100558067631,
2023-08-11 18:54:09.733000,-0.5060240963855422,-1.4819277108433735,-9.879518072289157,-1.449417535254445,0.06131207847946045,-9.540159411404046,3.0,0.6435786435786436,1553.8116591928251,-0.10407318920808831,0.13262630382844878,-0.2608239613076162,1459.3406593406592,-1.0,53.65060306718332,0.6436070355552117,
2023-08-11 18:54:09.740000,-0.5180722891566265,-1.457831325301205,-9.879518072289157,-1.4322501532801961,0.02207234825260576,-9.537706928264868,3.0,0.6435786435786436,1553.8116591928251,0.18553697336985095,-0.02086125517160965,-0.4707184895985084,1450.5494505494505,-1.0,53.65060306718332,0.6436040961826054,
2023-08-11 18:54:09.748000,-0.46987951807228917,-1.457831325301205,-9.879518072289157,-1.4273451870018392,0.06376456161863887,-9.584304107909258,3.0,0.6435786435786436,1553.8116591928251,-0.011887419148067882,-0.23495134316182106,-0.421187576481557,1443.2234432234432,-1.0,53.65060306718332,0.6436012371495728,
2023-08-11 18:54:09.756000,-0.4819277108433735,-1.4819277108433735,-9.891566265060241,-1.4886572654812997,0.002452483139178418,-9.562231759656651,3.0,0.6435786435786436,1553.8116591928251,0.26210593788240805,-0.2785385467047372,-0.2795874366295669,1435.164835164835,-1.0,53.65060306718332,0.6435984578199836,
2023-08-11 18:54:09.763000,-0.46987951807228917,-1.493975903614458,-9.879518072289157,-1.5009196811771919,0.04904966278356836,-9.584304107909258,3.0,0.6435786435786436,1553.8116591928251,0.04498572344268966,-0.06223413553988644,0.10535516578287968,1425.6410256410256,-1.0,53.65060306718332,0.6435957574683938,
2023-08-11 18:54:09.771000,-0.5060240963855422,-1.4698795180722892,-9.867469879518072,-1.4641324340895157,0.07847946045370938,-9.530349478847333,3.0,0.6431346431346432,1554.8843631342768,0.04451955014276631,-0.01666569547229259,-0.018180758697045635,1417.5824175824175,-1.0,53.65060306718332,0.6435931352876214,
2023-08-11 18:54:09.779000,-0.4819277108433735,-1.4698795180722892,-9.855421686746988,-1.4567749846719804,0.07602697731453095,-9.562231759656651,3.0,0.6431346431346432,1554.8843631342768,-0.07843365771225394,0.3479983683934494,-0.035196084144280736,1407.3260073260071,-1.0,53.65060306718332,0.6435905903858623,
2023-08-11 18:54:09.786000,-0.49397590361445787,-1.4698795180722892,-9.843373493975903,-1.4396076026977314,0.04659717964438994,-9.554874310239116,3.0,0.6431346431346432,1554.8843631342768,-0.07726822446244384,0.160829788473865,0.2989336285764231,1395.6043956043954,-1.0,53.65060306718332,0.6435881217521399,
2023-08-11 18:54:09.794000,-0.49397590361445787,-1.4819277108433735,-9.843373493975903,-1.4420600858369097,-0.030042918454935622,-9.54996934396076,3.0,0.6435786435786436,1553.8116591928251,-0.30511042480042,-0.023774838296135765,0.24998543208437718,1383.8827838827838,-1.0,53.65060306718332,0.64358572811432,
2023-08-11 18:54:09.802000,-0.5060240963855422,-1.4698795180722892,-9.831325301204819,-1.4126302881667687,0.07357449417535254,-9.554874310239116,3.0,0.6435786435786436,1553.8116591928251,-0.10372355923314405,0.43424042887943676,0.2777227434298701,1376.5567765567764,-1.0,53.65060306718332,0.6435834082544238,
2023-08-11 18:54:09.809000,-0.5060240963855422,-1.4698795180722892,-9.867469879518072,-1.3881054567749846,0.09074187614960147,-9.537706928264868,3.0,0.6435786435786436,1553.8116591928251,-0.20884563836606335,0.03309830429462177,0.0748208146378415,1374.3589743589744,-1.0,53.65060306718332,0.6435811610257849,
2023-08-11 18:54:09.817000,-0.5060240963855422,-1.493975903614458,-9.903614457831326,-1.437155119558553,-0.0030656039239730223,-9.584304107909258,3.0,0.6435786435786436,1553.8116591928251,0.26653458423168847,0.24555678573509626,-0.03333139094458345,1375.091575091575,-1.0,53.65060306718332,0.6435789850932069,
2023-08-11 18:54:09.825000,-0.49397590361445787,-1.4819277108433735,-9.891566265060241,-1.4592274678111588,0.04659717964438994,-9.515634580012263,3.0,0.6435786435786436,1553.8116591928251,-0.0734222947380693,-0.20045451896742578,-0.40044286463492823,1376.5567765567764,-1.0,53.65060306718332,0.643576879088447,
2023-08-11 18:54:09.832000,-0.46987951807228917,-1.4698795180722892,-9.867469879518072,-1.4273451870018392,0.056407112201103615,-9.572041692213366,3.0,0.6431346431346432,1554.8843631342768,-0.4097663306334125,-0.2146728046151156,-0.18623623331973638,1381.6849816849815,-1.0,53.65060306718332,0.6435748416162499,
2023-08-11 18:54:09.840000,-0.46987951807228917,-1.4698795180722892,-9.879518072289157,-1.4690374003678723,-0.0030656039239730223,-9.53525444512569,3.0,0.6435786435786436,1553.8116591928251,-0.17807820057106177,-0.26140667793252126,-0.3553405978672573,1391.9413919413919,-1.0,53.65060306718332,0.6435728711109093,
2023-08-11 18:54:09.848000,-0.43373493975903615,-1.4698795180722892,-9.879518072289157,-1.4445125689760883,0.0809319435928878,-9.510729613733906,3.0,0.6435786435786436,1553.8116591928251,-0.07062525493852402,-8.15803274867591E-4,-0.44263154827807216,1404.3956043956043,-1.0,53.65060306718332,0.6435709659693367,
2023-08-11 18:54:09.855000,-0.45783132530120485,-1.4819277108433735,-9.867469879518072,-1.449417535254445,0.0956468424279583,-9.53525444512569,3.0,0.6435786435786436,1553.8116591928251,-0.1906648796690164,-0.3669949303653639,-0.13262630382844834,1417.5824175824175,-1.0,53.65060306718332,0.6435691247154356,
2023-08-11 18:54:09.863000,-0.44578313253012053,-1.4698795180722892,-9.879518072289157,-1.4396076026977314,0.11281422440220723,-9.542611894543224,3.0,0.6435786435786436,1553.8116591928251,-0.006409882873958155,-0.16595769477303224,0.2821513897791505,1432.9670329670328,-1.0,53.65060306718332,0.6435673458663594,
2023-08-11 18:54:09.871000,-0.46987951807228917,-1.457831325301205,-9.879518072289157,-1.4739423666462292,0.07112201103617412,-9.522992029429798,3.0,0.6435786435786436,1553.8116591928251,0.02249286172134483,-0.07260649146320171,-0.08554280053609929,1445.4212454212454,-1.0,53.65060306718332,0.6435656280760222,
2023-08-11 18:54:09.878000,-0.4819277108433735,-1.457831325301205,-9.855421686746988,-1.4347026364193745,0.056407112201103615,-9.532801961986511,3.0,0.6431346431346432,1554.8843631342768,0.08402773731134625,-0.2847153429287337,0.2040673620418391,1450.5494505494505,-1.0,53.65060306718332,0.6435639699804759,
2023-08-11 18:54:09.886000,-0.49397590361445787,-1.4698795180722892,-9.879518072289157,-1.4126302881667687,0.09809932556713671,-9.503372164316369,3.0,0.6431346431346432,1554.8843631342768,0.16199522172367511,-0.20325155876697107,0.18577006001981217,1452.014652014652,-1.0,53.65060306718332,0.6435623699252382,
2023-08-11 18:54:09.893000,-0.49397590361445787,-1.4819277108433735,-9.855421686746988,-1.4150827713059473,0.08828939301042305,-9.532801961986511,3.0,0.6435786435786436,1553.8116591928251,0.15873200862420647,-0.19952217236757736,0.18483771341996375,1449.084249084249,-1.0,53.65060306718332,0.6435608260964715,
2023-08-11 18:54:09.901000,-0.4819277108433735,-1.493975903614458,-9.855421686746988,-1.496014714898835,0.09809932556713671,-9.537706928264868,3.0,0.6431346431346432,1554.8843631342768,-0.17714585397121335,-0.3942660684109317,0.07633587786259542,1443.956043956044,-1.0,53.65060306718332,0.6435593368108207,
2023-08-11 18:54:09.909000,-0.5060240963855422,-1.4698795180722892,-9.879518072289157,-1.4886572654812997,0.09809932556713671,-9.557326793378294,3.0,0.6435786435786436,1553.8116591928251,0.14404754967659159,0.020161995221722892,0.22760911368801362,1432.9670329670328,-1.0,53.65060306718332,0.6435579003893175,
2023-08-11 18:54:09.916000,-0.5180722891566265,-1.4819277108433735,-9.879518072289157,-1.4297976701410178,0.04904966278356836,-9.584304107909258,3.0,0.6435786435786436,1553.8116591928251,0.06689586853912857,-0.14696113280111944,0.08880601363556921,1421.245421245421,-1.0,53.65060306718332,0.6435565151486006,
2023-08-11 18:54:09.924000,-0.5301204819277109,-1.4698795180722892,-9.867469879518072,-1.461679950950337,0.041692213366033105,-9.62844880441447,3.0,0.6431346431346432,1554.8843631342768,-0.22411281393858243,0.0981294796340535,0.04032399044344752,1404.3956043956043,-1.0,53.65060306718332,0.6435551795621437,
2023-08-11 18:54:09.932000,-0.5301204819277109,-1.4698795180722892,-9.867469879518072,-1.4543225015328018,0.01226241569589209,-9.552421827099938,3.0,0.6431346431346432,1554.8843631342768,-0.2067478585164031,0.11339665520657258,-0.06642969523920522,1383.150183150183,-1.0,53.65060306718332,0.6435538921128107,
2023-08-11 18:54:09.939000,-0.5180722891566265,-1.4698795180722892,-9.879518072289157,-1.4886572654812997,0.07112201103617412,-9.493562231759656,3.0,0.6435786435786436,1553.8116591928251,0.09743021968416674,0.08402773731134625,-0.24928617213449084,1361.1721611721612,-1.0,53.65060306718332,0.6435526511134656,
2023-08-11 18:54:09.947000,-0.5180722891566265,-1.4819277108433735,-9.879518072289157,-1.4396076026977314,0.0539546290619252,-9.513182096873084,3.0,0.6431346431346432,1554.8843631342768,-0.1770293106462325,-0.40219101450964423,-0.6730377017656315,1334.065934065934,-1.0,53.65060306718332,0.6435514548671076,
2023-08-11 18:54:09.955000,-0.49397590361445787,-1.493975903614458,-9.91566265060241,-1.4518700183936235,0.007357449417535254,-9.638258736971183,3.0,0.6435786435786436,1553.8116591928251,0.1305285239787885,0.07575316123768949,-0.5314375619136413,1306.9597069597069,-1.0,53.65060306718332,0.6435503016878604,
2023-08-11 18:54:09.962000,-0.49397590361445787,-1.4819277108433735,-9.891566265060241,-1.4248927038626609,0.0539546290619252,-9.505824647455547,3.0,0.6435786435786436,1553.8116591928251,0.03904201386865485,0.028320027970398804,-0.37422061651418925,1277.6556776556777,-1.0,53.65060306718332,0.6435491898900734,
2023-08-11 18:54:09.970000,-0.4819277108433735,-1.457831325301205,-9.843373493975903,-1.471489883507051,0.07602697731453095,-9.527896995708154,3.0,0.6435786435786436,1553.8116591928251,-0.09719713303420506,-0.14229939980187556,-0.5369150981877511,1253.4798534798533,-1.0,53.65060306718332,0.6435481179475391,
2023-08-11 18:54:09.978000,-0.45783132530120485,-1.4457831325301205,-9.879518072289157,-1.4641324340895157,0.07112201103617412,-9.54996934396076,3.0,0.6431346431346432,1554.8843631342768,-0.18751820989452864,-0.26222248120738884,-0.3627993706660451,1232.967032967033,-1.0,53.65060306718332,0.6435470843547092,
2023-08-11 18:54:09.985000,-0.45783132530120485,-1.457831325301205,-9.855421686746988,-1.4175352544451256,0.1103617412630288,-9.584304107909258,3.0,0.6435786435786436,1553.8116591928251,-0.12272012120505858,-0.2924072023774845,-0.3128022842491695,1211.7216117216117,-1.0,53.65060306718332,0.6435460874772684,
2023-08-11 18:54:09.993000,-0.44578313253012053,-1.4698795180722892,-9.879518072289157,-1.4469650521152666,0.017167381974248927,-9.574494175352545,3.0,0.6435786435786436,1553.8116591928251,-0.18192413029543805,-0.014101742322708983,-0.20220266884214222,1193.4065934065934,-1.0,53.65060306718332,0.6435451255405996,
2023-08-11 18:54:10.001000,-0.44578313253012053,-1.4698795180722892,-9.879518072289157,-1.5033721643163702,0.07357449417535254,-9.547516860821581,3.0,0.6435786435786436,1553.8116591928251,-0.1778451139211001,-0.42631548278072423,-0.048715109842083805,1176.5567765567764,-1.0,53.65060306718332,0.6435441969476067,
2023-08-11 18:54:10.008000,-0.4819277108433735,-1.4698795180722892,-9.867469879518072,-1.5009196811771919,0.056407112201103615,-9.547516860821581,3.0,0.6431346431346432,1554.8843631342768,-0.03810966726880642,-0.10022725948371375,-0.018180758697045635,1161.1721611721612,-1.0,53.65060306718332,0.6435433002671288,
2023-08-11 18:54:10.016000,-0.5060240963855422,-1.457831325301205,-9.867469879518072,-1.5475168608215817,0.04414469650521152,-9.530349478847333,3.0,0.6431346431346432,1554.8843631342768,-0.0844939106112696,-0.13111124060369442,0.28541460287862,1151.6483516483515,-1.0,53.65060306718332,0.6435424339351241,
2023-08-11 18:54:10.024000,-0.5180722891566265,-1.457831325301205,-9.867469879518072,-1.4690374003678723,0.017167381974248927,-9.525444512568976,3.0,0.6435786435786436,1553.8116591928251,0.053959559466231426,-0.1468445894761386,0.06724549851407281,1145.054945054945,-1.0,53.65060306718332,0.6435415962326038,
2023-08-11 18:54:10.031000,-0.5180722891566265,-1.457831325301205,-9.867469879518072,-1.4224402207234825,0.04659717964438994,-9.552421827099938,3.0,0.6431346431346432,1554.8843631342768,-0.03764349396888308,-0.22084960083911206,0.034729910844356525,1139.194139194139,-1.0,53.65060306718332,0.6435407855718683,
2023-08-11 18:54:10.039000,-0.5060240963855422,-1.4698795180722892,-9.855421686746988,-1.4763948497854076,0.03678724708767627,-9.545064377682403,3.0,0.6435786435786436,1553.8116591928251,0.02214323174640232,-0.43214264902977645,-0.13519025697803153,1139.9267399267399,-1.0,53.65060306718332,0.6435400003671943,
2023-08-11 18:54:10.047000,-0.5301204819277109,-1.4698795180722892,-9.867469879518072,-1.4273451870018392,0.03188228080931944,-9.547516860821581,3.0,0.6431346431346432,1554.8843631342768,-0.05535807936600493,-0.0768020511625205,-0.058737835790455266,1142.857142857143,-1.0,53.65060306718332,0.6435392390232255,
2023-08-11 18:54:10.054000,-0.5060240963855422,-1.493975903614458,-9.879518072289157,-1.4567749846719804,0.08583690987124463,-9.518087063151441,3.0,0.6431346431346432,1554.8843631342768,0.1596643552240549,-0.3355282326204773,-0.28634694947846845,1146.5201465201465,-1.0,53.65060306718332,0.6435384999445002,
2023-08-11 18:54:10.062000,-0.5060240963855422,-1.4819277108433735,-9.879518072289157,-1.4420600858369097,0.056407112201103615,-9.569589209074188,3.0,0.6431346431346432,1554.8843631342768,0.052327952916496244,-0.23891381621117644,-0.1299458073538839,1149.4505494505493,-1.0,53.65060306718332,0.6435377813746951,
2023-08-11 18:54:10.070000,-0.5060240963855422,-1.4819277108433735,-9.867469879518072,-1.4763948497854076,0.004904966278356836,-9.537706928264868,3.0,0.6435786435786436,1553.8116591928251,-0.14567915622632677,-0.1309946972787136,0.056173882640871656,1153.113553113553,-1.0,53.65060306718332,0.6435370815337653,
2023-08-11 18:54:10.077000,-0.5060240963855422,-1.493975903614458,-9.855421686746988,-1.4273451870018392,0.009809932556713672,-9.52053954629062,3.0,0.6426906426906427,1555.958549222798,-0.06736204183905366,0.08297884738651524,-0.23238739001223702,1156.7765567765566,-1.0,53.65060306718332,0.6435363987656705,
2023-08-11 18:54:10.085000,-0.5060240963855422,-1.4698795180722892,-9.867469879518072,-1.3979153893316982,0.06376456161863887,-9.554874310239116,3.0,0.6431346431346432,1554.8843631342768,0.07004253831361809,0.0067595128489024,-0.21432317464017264,1161.904761904762,-1.0,53.65060306718332,0.643535731398914,
2023-08-11 18:54:10.093000,-0.5060240963855422,-1.4698795180722892,-9.855421686746988,-1.5278969957081545,0.0956468424279583,-9.552421827099938,3.0,0.6431346431346432,1554.8843631342768,0.05244449624147708,-0.03810966726880642,-0.5013693840685274,1164.8351648351647,-1.0,53.65060306718332,0.6435350776932405,
2023-08-11 18:54:10.100000,-0.45783132530120485,-1.457831325301205,-9.891566265060241,-1.461679950950337,0.06131207847946045,-9.554874310239116,3.0,0.6431346431346432,1554.8843631342768,0.0055940795990905645,-0.06852747508886375,-0.3600023308664994,1168.4981684981685,-1.0,53.65060306718332,0.6435344359882336,
2023-08-11 18:54:10.108000,-0.49397590361445787,-1.457831325301205,-9.867469879518072,-1.4812998160637645,0.04414469650521152,-9.576946658491723,3.0,0.6431346431346432,1554.8843631342768,0.020045451896742058,-0.265136064331915,-0.12726531087931944,1169.9633699633698,-1.0,53.65060306718332,0.6435338045645319,
2023-08-11 18:54:10.116000,-0.49397590361445787,-1.4698795180722892,-9.867469879518072,-1.4739423666462292,0.07602697731453095,-9.589209074187615,3.0,0.6431346431346432,1554.8843631342768,-0.23786492628634717,0.1792436338208736,-0.035196084144280736,1169.9633699633698,-1.0,53.65060306718332,0.6435331815050108,
2023-08-11 18:54:10.123000,-0.46987951807228917,-1.457831325301205,-9.879518072289157,-1.4420600858369097,0.014714898835070508,-9.579399141630901,3.0,0.6435786435786436,1553.8116591928251,-0.007225686148825746,-0.020161995221722892,-0.17248412097197122,1171.4285714285713,-1.0,53.65060306718332,0.6435325647151016,
2023-08-11 18:54:10.131000,-0.45783132530120485,-1.4698795180722892,-9.879518072289157,-1.4543225015328018,0.0539546290619252,-9.527896995708154,3.0,0.6431346431346432,1554.8843631342768,0.10011071615873118,0.16385991492337196,0.1185245615057398,1175.0915750915751,-1.0,53.65060306718332,0.6435319522200361,
2023-08-11 18:54:10.139000,-0.4819277108433735,-1.457831325301205,-9.903614457831326,-1.419987737584304,0.029429797670141016,-9.547516860821581,3.0,0.6431346431346432,1554.8843631342768,-0.09941145620884616,-0.005360992949128891,0.05524153604102323,1180.2197802197802,-1.0,53.65060306718332,0.6435313420363453,
2023-08-11 18:54:10.146000,-0.4819277108433735,-1.457831325301205,-9.891566265060241,-1.4886572654812997,-0.01778050275904353,-9.586756591048436,3.0,0.6431346431346432,1554.8843631342768,0.16152904842375176,0.02540644484587095,-0.005360992949128891,1185.3479853479853,-1.0,53.65060306718332,0.6435307320121126,
2023-08-11 18:54:10.154000,-0.5180722891566265,-1.4698795180722892,-9.867469879518072,-1.4396076026977314,0.004904966278356836,-9.554874310239116,3.0,0.6431346431346432,1554.8843631342768,0.025056814870928437,-0.09684750305926255,0.1471942194510811,1190.4761904761904,-1.0,53.65060306718332,0.6435301199654098,
2023-08-11 18:54:10.162000,-0.5180722891566265,-1.4698795180722892,-9.879518072289157,-1.449417535254445,0.029429797670141016,-9.527896995708154,3.0,0.6431346431346432,1554.8843631342768,-0.07994872093700829,-0.050579803041780225,-0.20301847211700938,1192.6739926739926,-1.0,53.65060306718332,0.6435295036843012,
2023-08-11 18:54:10.169000,-0.5301204819277109,-1.4698795180722892,-9.843373493975903,-1.4150827713059473,0.041692213366033105,-9.621091354996933,3.0,0.6431346431346432,1554.8843631342768,-0.07994872093700829,-0.04813239321717919,-0.20103723559233125,1198.5347985347985,-1.0,53.65060306718332,0.6435288809271945,
2023-08-11 18:54:10.177000,-0.5180722891566265,-1.4698795180722892,-9.867469879518072,-1.4518700183936235,-6.131207847946045E-4,-9.56713672593501,3.0,0.6431346431346432,1554.8843631342768,0.08799021036070162,0.07388846803799265,-0.291008682477711,1205.128205128205,-1.0,53.65060306718332,0.6435282495622946,
2023-08-11 18:54:10.185000,-0.49397590361445787,-1.4698795180722892,-9.879518072289157,-1.4248927038626609,0.02452483139178418,-9.530349478847333,3.0,0.6435786435786436,1553.8116591928251,0.14882582600081629,0.07470427131286024,-0.28692966610337395,1210.2564102564102,-1.0,53.65060306718332,0.6435276074095543,
2023-08-11 18:54:10.192000,-0.4819277108433735,-1.4698795180722892,-9.891566265060241,-1.390557939914163,-0.010423053341508276,-9.562231759656651,3.0,0.6431346431346432,1554.8843631342768,-0.3097721577996621,-0.41221374045801523,-0.2844822562787716,1213.9194139194137,-1.0,53.65060306718332,0.6435269522638188,
2023-08-11 18:54:10.200000,-0.45783132530120485,-1.4819277108433735,-9.879518072289157,-1.4788473329245861,0.05885959534028203,-9.62844880441447,3.0,0.6431346431346432,1554.8843631342768,-0.01596643552240584,-0.2997494318512911,-0.2835499096789232,1216.8498168498168,-1.0,53.65060306718332,0.6435262819183594,
2023-08-11 18:54:10.208000,-0.4819277108433735,-1.4698795180722892,-9.867469879518072,-1.4935622317596566,0.0539546290619252,-9.562231759656651,3.0,0.6431346431346432,1554.8843631342768,-0.015267175572519083,-0.2552298817085248,-0.09906182623390235,1218.3150183150183,-1.0,53.65060306718332,0.6435255941467459,
2023-08-11 18:54:10.215000,-0.45783132530120485,-1.4819277108433735,-9.855421686746988,-1.4297976701410178,0.0269773145309626,-9.488657265481299,3.0,0.6431346431346432,1554.8843631342768,-0.1846046267700025,0.02249286172134483,0.11514480508128903,1221.245421245421,-1.0,53.65060306718332,0.6435248868238642,
2023-08-11 18:54:10.223000,-0.46987951807228917,-1.457831325301205,-9.879518072289157,-1.4175352544451256,0.007357449417535254,-9.586756591048436,3.0,0.6431346431346432,1554.8843631342768,-0.07528698793776616,0.2821513897791501,0.05209486626653457,1222.7106227106226,-1.0,53.65060306718332,0.6435241577809678,
2023-08-11 18:54:10.231000,-0.4819277108433735,-1.4698795180722892,-9.855421686746988,-1.4469650521152666,0.05150214592274678,-9.503372164316369,3.0,0.6426906426906427,1555.958549222798,0.0026804964745644456,0.1877512965444903,-0.039624730493560766,1218.3150183150183,-1.0,53.65060306718332,0.643523404671473,
2023-08-11 18:54:10.238000,-0.49397590361445787,-1.4819277108433735,-9.843373493975903,-1.461679950950337,-0.010423053341508276,-9.584304107909258,3.0,0.6431346431346432,1554.8843631342768,0.21537206456500235,-0.22621059378824096,0.2487034555095858,1215.3846153846152,-1.0,53.65060306718332,0.643522625124279,
2023-08-11 18:54:10.246000,-0.5060240963855422,-1.4819277108433735,-9.843373493975903,-1.4224402207234825,0.05150214592274678,-9.505824647455547,3.0,0.6431346431346432,1554.8843631342768,0.36629567041547717,-0.0712079715634282,0.0037293863993941435,1210.989010989011,-1.0,53.65060306718332,0.6435218168445866,
2023-08-11 18:54:10.254000,-0.4819277108433735,-1.493975903614458,-9.843373493975903,-1.4420600858369097,0.0269773145309626,-9.572041692213366,3.0,0.6431346431346432,1554.8843631342768,-0.03507954081929947,0.03577880076918622,0.004428646349280464,1202.9304029304028,-1.0,53.65060306718332,0.6435209775012235,
2023-08-11 18:54:10.261000,-0.5060240963855422,-1.4819277108433735,-9.831325301204819,-1.4567749846719804,0.009809932556713672,-9.53525444512569,3.0,0.6431346431346432,1554.8843631342768,-0.1744653574966489,-0.5730435289318803,0.005127906299166785,1194.1391941391942,-1.0,53.65060306718332,0.6435201047422643,
2023-08-11 18:54:10.269000,-0.49397590361445787,-1.4819277108433735,-9.855421686746988,-1.4739423666462292,0.041692213366033105,-9.50091968117719,3.0,0.6431346431346432,1554.8843631342768,0.009440009323466846,-0.11234776528174331,0.0372938639939397,1186.8131868131868,-1.0,53.65060306718332,0.6435191962002748,
2023-08-11 18:54:10.276000,-0.5180722891566265,-1.4819277108433735,-9.867469879518072,-1.4445125689760883,-0.010423053341508276,-9.540159411404046,3.0,0.6431346431346432,1554.8843631342768,-0.03752695064390224,-0.20243575549210346,-0.08461045393625086,1178.7545787545787,-1.0,53.65060306718332,0.643518249497711,
2023-08-11 18:54:10.284000,-0.5060240963855422,-1.4819277108433735,-9.879518072289157,-1.4690374003678723,0.03678724708767627,-9.50091968117719,3.0,0.6431346431346432,1554.8843631342768,-0.11362974185653599,-0.04871510984208337,-0.2644368043820291,1172.8937728937728,-1.0,53.65060306718332,0.6435172622524672,
2023-08-11 18:54:10.292000,-0.49397590361445787,-1.4819277108433735,-9.867469879518072,-1.4567749846719804,0.034334763948497854,-9.56713672593501,3.0,0.6431346431346432,1554.8843631342768,0.008507662723616683,0.10733640230755867,0.0441699201678225,1172.161172161172,-1.0,53.65060306718332,0.6435162319448144,
2023-08-11 18:54:10.299000,-0.5060240963855422,-1.4457831325301205,-9.879518072289157,-1.4150827713059473,0.004904966278356836,-9.579399141630901,3.0,0.6431346431346432,1554.8843631342768,0.17819474389604262,-0.07563661791270866,-9.323465998484274E-4,1176.5567765567764,-1.0,53.65060306718332,0.6435151560823439,
2023-08-11 18:54:10.307000,-0.5180722891566265,-1.457831325301205,-9.891566265060241,-1.4322501532801961,0.03923973022685469,-9.557326793378294,3.0,0.6431346431346432,1554.8843631342768,-0.005360992949128891,-0.011071615873200292,0.04661732999242484,1180.952380952381,-1.0,53.65060306718332,0.6435140323335141,
2023-08-11 18:54:10.315000,-0.49397590361445787,-1.4698795180722892,-9.903614457831326,-1.4543225015328018,0.0539546290619252,-9.537706928264868,3.0,0.6435786435786436,1553.8116591928251,0.1165433249810621,0.1418332265019522,0.04720004661732989,1183.150183150183,-1.0,53.65060306718332,0.6435128583845899,
2023-08-11 18:54:10.322000,-0.5180722891566265,-1.457831325301205,-9.879518072289157,-1.437155119558553,0.017167381974248927,-9.53525444512569,3.0,0.6431346431346432,1554.8843631342768,0.3442689819940557,0.06374919876464077,0.07738476778742512,1183.8827838827838,-1.0,53.65060306718332,0.6435116320952661,
2023-08-11 18:54:10.330000,-0.49397590361445787,-1.4698795180722892,-9.867469879518072,-1.471489883507051,0.05885959534028203,-9.530349478847333,3.0,0.6431346431346432,1554.8843631342768,0.09743021968416674,-0.09055416351028524,-0.4566167472757999,1186.080586080586,-1.0,53.65060306718332,0.6435103512388988,
2023-08-11 18:54:10.338000,-0.49397590361445787,-1.4698795180722892,-9.843373493975903,-1.4420600858369097,0.0539546290619252,-9.488657265481299,3.0,0.6435786435786436,1553.8116591928251,-0.16397645824835452,-0.11945690810558822,0.03741040731892097,1189.0109890109889,-1.0,53.65060306718332,0.6435090135091597,
2023-08-11 18:54:10.345000,-0.5060240963855422,-1.4698795180722892,-9.855421686746988,-1.4445125689760883,0.03678724708767627,-9.537706928264868,3.0,0.6431346431346432,1554.8843631342768,-0.11829147485577812,-0.2685158207563662,-0.2204999708641687,1194.1391941391942,-1.0,53.65060306718332,0.6435076169423785,
2023-08-11 18:54:10.353000,-0.49397590361445787,-1.4698795180722892,-9.879518072289157,-1.4297976701410178,0.029429797670141016,-9.508277130594726,3.0,0.6431346431346432,1554.8843631342768,0.04918128314200845,-0.1721344909970287,-0.43062758580502297,1198.5347985347985,-1.0,53.65060306718332,0.6435061596477286,
2023-08-11 18:54:10.361000,-0.49397590361445787,-1.457831325301205,-9.855421686746988,-1.4273451870018392,0.041692213366033105,-9.505824647455547,3.0,0.6431346431346432,1554.8843631342768,-0.08985490356039848,-0.09195268341005701,-0.2426432026105706,1202.9304029304028,-1.0,53.65060306718332,0.6435046396551802,
2023-08-11 18:54:10.368000,-0.49397590361445787,-1.457831325301205,-9.879518072289157,-1.390557939914163,0.07602697731453095,-9.503372164316369,3.0,0.6431346431346432,1554.8843631342768,-0.274459530330401,-0.08880601363556921,-0.5014859273935087,1206.5934065934066,1133.6669921875,52.92559491762679,0.6435030550612939,
2023-08-11 18:54:10.376000,-0.5060240963855422,-1.493975903614458,-9.903614457831326,-1.4322501532801961,0.041692213366033105,-9.530349478847333,3.0,0.6435786435786436,1553.8116591928251,-0.05908746576539864,-0.24147776936076004,-0.055358079366004065,1205.8608058608058,-1.0,52.92559491762679,0.6435014040361986,
2023-08-11 18:54:10.384000,-0.49397590361445787,-1.4819277108433735,-9.891566265060241,-1.4518700183936235,0.07602697731453095,-9.53525444512569,3.0,0.6426906426906427,1555.958549222798,0.10582133908280432,-0.1823903035953614,0.05244449624147795,1202.197802197802,-1.0,52.92559491762679,0.6434996848410247,
2023-08-11 18:54:10.391000,-0.49397590361445787,-1.4819277108433735,-9.855421686746988,-1.537706928264868,0.014714898835070508,-9.478847332924586,3.0,0.6431346431346432,1554.8843631342768,-0.07889983101217903,-0.06304993881475403,-0.02563953149583349,1200.0,-1.0,52.92559491762679,0.6434978958558413,
2023-08-11 18:54:10.399000,-0.4819277108433735,-1.4457831325301205,-9.879518072289157,-1.4101778050275904,0.009809932556713672,-9.537706928264868,3.0,0.6431346431346432,1554.8843631342768,0.23972961948604404,-0.01841384534700861,-0.4201386865567273,1197.069597069597,-1.0,52.92559491762679,0.6434960355232443,
2023-08-11 18:54:10.407000,-0.5180722891566265,-1.4698795180722892,-9.879518072289157,-1.4445125689760883,0.05150214592274678,-9.469037400367872,3.0,0.6431346431346432,1554.8843631342768,0.17539770409649733,0.24124468271079838,-0.018180758697045635,1194.8717948717947,-1.0,52.92559491762679,0.6434941023759739,
2023-08-11 18:54:10.414000,-0.46987951807228917,-1.4457831325301205,-9.903614457831326,-1.4837522992029428,0.056407112201103615,-9.491109748620477,3.0,0.6431346431346432,1554.8843631342768,-0.0882232970106633,-0.231455043412389,-0.15337101567507716,1194.1391941391942,-1.0,52.92559491762679,0.643492095053704,
2023-08-11 18:54:10.422000,-0.5060240963855422,-1.457831325301205,-9.855421686746988,-1.4224402207234825,0.05150214592274678,-9.574494175352545,3.0,0.6435786435786436,1553.8116591928251,0.0023308664996219363,0.07924946098712153,-0.07412155468795519,1195.6043956043954,-1.0,52.92559491762679,0.6434900123090617,
2023-08-11 18:54:10.430000,-0.49397590361445787,-1.4698795180722892,-9.867469879518072,-1.4567749846719804,0.07112201103617412,-9.586756591048436,3.0,0.6431346431346432,1554.8843631342768,-0.22469553056348662,-0.024357554921041684,-0.13484062700308858,1195.6043956043954,-1.0,52.92559491762679,0.6434878531626833,
2023-08-11 18:54:10.437000,-0.4819277108433735,-1.4698795180722892,-9.867469879518072,-1.4469650521152666,0.041692213366033105,-9.552421827099938,3.0,0.6431346431346432,1554.8843631342768,-0.31175339432433985,0.054891906066079854,-0.02645533477070108,1198.5347985347985,-1.0,52.92559491762679,0.643485616781284,
2023-08-11 18:54:10.445000,-0.46987951807228917,-1.4698795180722892,-9.879518072289157,-1.4543225015328018,0.06376456161863887,-9.542611894543224,3.0,0.6431346431346432,1554.8843631342768,-0.3082570945749078,0.0564069692908342,-0.025173358195909275,1201.4652014652013,-1.0,52.92559491762679,0.6434833023239003,
2023-08-11 18:54:10.453000,-0.49397590361445787,-1.4698795180722892,-9.879518072289157,-1.4101778050275904,0.06621704475781728,-9.586756591048436,3.0,0.6431346431346432,1554.8843631342768,0.04673387331740568,0.09987762950876951,0.11246430860672459,1205.128205128205,-1.0,52.92559491762679,0.6434809090856826,
2023-08-11 18:54:10.460000,-0.49397590361445787,-1.4457831325301205,-9.891566265060241,-1.4248927038626609,-0.030042918454935622,-9.545064377682403,3.0,0.6435786435786436,1553.8116591928251,0.10826874890740709,0.04848202319212169,0.21968416758930112,1205.8608058608058,-1.0,52.92559491762679,0.6434784365025791,
2023-08-11 18:54:10.468000,-0.49397590361445787,-1.4698795180722892,-9.867469879518072,-1.4543225015328018,0.02207234825260576,-9.537706928264868,3.0,0.6435786435786436,1553.8116591928251,0.10593788240778515,0.43971796515354644,0.08064798088689461,1207.3260073260074,-1.0,52.92559491762679,0.6434758843049327,
2023-08-11 18:54:10.476000,-0.5180722891566265,-1.4698795180722892,-9.879518072289157,-1.4175352544451256,-0.025137952176578784,-9.576946658491723,3.0,0.6435786435786436,1553.8116591928251,-0.07738476778742467,-0.08903910028553089,0.23401899656197175,1210.2564102564102,-1.0,52.92559491762679,0.6434732525432607,
2023-08-11 18:54:10.483000,-0.5301204819277109,-1.5060240963855422,-9.855421686746988,-1.4837522992029428,-0.015328019619865112,-9.56468424279583,3.0,0.6431346431346432,1554.8843631342768,-0.0597867257152854,0.21350737136530548,-0.039624730493560766,1210.989010989011,-1.0,52.92559491762679,0.6434705414546715,
2023-08-11 18:54:10.491000,-0.5180722891566265,-1.4698795180722892,-9.843373493975903,-1.4052728387492335,0.05885959534028203,-9.513182096873084,3.0,0.6431346431346432,1554.8843631342768,-0.1503408892255689,-0.2756249635802111,-0.03624497406911,1205.128205128205,-1.0,52.92559491762679,0.64346775131848,
2023-08-11 18:54:10.499000,-0.5180722891566265,-1.4819277108433735,-9.831325301204819,-1.4812998160637645,0.08828939301042305,-9.473942366646229,3.0,0.6431346431346432,1554.8843631342768,-0.13157741390361952,-0.5158207563661785,0.07540353126274699,1197.069597069597,-1.0,52.92559491762679,0.6434648824389585,
2023-08-11 18:54:10.506000,-0.5301204819277109,-1.4698795180722892,-9.831325301204819,-1.4690374003678723,0.07357449417535254,-9.53525444512569,3.0,0.6431346431346432,1554.8843631342768,-0.10104306275858134,-0.29485461220208553,-0.18099178369558877,1192.6739926739926,-1.0,52.92559491762679,0.643461935286713,
2023-08-11 18:54:10.514000,-0.49397590361445787,-1.4819277108433735,-9.855421686746988,-1.4592274678111588,0.0539546290619252,-9.518087063151441,3.0,0.6431346431346432,1554.8843631342768,0.20523279529165048,-0.16968708117242592,0.2478876522347182,1190.4761904761904,-1.0,52.92559491762679,0.643458910362042,
2023-08-11 18:54:10.522000,-0.4819277108433735,-1.4819277108433735,-9.903614457831326,-1.4984671980380133,0.07357449417535254,-9.56468424279583,3.0,0.6435786435786436,1553.8116591928251,-0.011421245848144537,0.2924072023774845,0.15267175572519084,1190.4761904761904,-1.0,52.92559491762679,0.6434558083556303,
2023-08-11 18:54:10.529000,-0.4819277108433735,-1.5060240963855422,-9.903614457831326,-1.513182096873084,0.0956468424279583,-9.554874310239116,3.0,0.6431346431346432,1554.8843631342768,0.3246897033972387,0.39857817143523133,0.25394790513373344,1194.8717948717947,-1.0,52.92559491762679,0.6434526304264648,
2023-08-11 18:54:10.537000,-0.46987951807228917,-1.4819277108433735,-9.879518072289157,-1.4592274678111588,0.07602697731453095,-9.572041692213366,3.0,0.6426906426906427,1555.958549222798,-0.2415943126857409,0.02925237457024723,0.48715109842083804,1200.7326007326008,-1.0,52.92559491762679,0.6434493779257608,
2023-08-11 18:54:10.545000,-0.4819277108433735,-1.4698795180722892,-9.867469879518072,-1.491109748620478,0.07112201103617412,-9.56468424279583,3.0,0.6431346431346432,1554.8843631342768,0.3871569255870868,-0.20057106229240662,0.13985198997727408,1204.3956043956043,-1.0,52.92559491762679,0.6434460522275319,
2023-08-11 18:54:10.552000,-0.49397590361445787,-1.493975903614458,-9.879518072289157,-1.4175352544451256,-0.00797057020232986,-9.586756591048436,3.0,0.6431346431346432,1554.8843631342768,-0.24031233611094996,-0.47596293922265603,0.13309247712837255,1205.8608058608058,-1.0,52.92559491762679,0.6434426548352746,
2023-08-11 18:54:10.560000,-0.5060240963855422,-1.4819277108433735,-9.867469879518072,-1.4567749846719804,0.02452483139178418,-9.527896995708154,3.0,0.6431346431346432,1554.8843631342768,-0.06829438843890208,-0.1529048423751525,0.387623098887011,1205.128205128205,-1.0,52.92559491762679,0.6434391874123264,
2023-08-11 18:54:10.568000,-0.5060240963855422,-1.493975903614458,-9.867469879518072,-1.5107296137339055,0.0269773145309626,-9.496014714898834,3.0,0.6431346431346432,1554.8843631342768,-0.20604859856651633,-0.04545189674261474,0.003496299749432037,1202.197802197802,-1.0,52.92559491762679,0.6434356517904448,
2023-08-11 18:54:10.575000,-0.5060240963855422,-1.493975903614458,-9.879518072289157,-1.4739423666462292,0.06376456161863887,-9.522992029429798,3.0,0.6431346431346432,1554.8843631342768,0.08496008391119467,-0.0597867257152854,-0.31373463084901837,1198.5347985347985,-1.0,52.92559491762679,0.6434320499672238,
2023-08-11 18:54:10.583000,-0.4819277108433735,-1.493975903614458,-9.867469879518072,-1.4739423666462292,0.05885959534028203,-9.498467198038012,3.0,0.6431346431346432,1554.8843631342768,-0.008624206048599255,-0.3160654973486394,0.04661732999242484,1195.6043956043954,-1.0,52.92559491762679,0.6434283841028992,
2023-08-11 18:54:10.591000,-0.46987951807228917,-1.4698795180722892,-9.879518072289157,-1.4445125689760883,0.06376456161863887,-9.50091968117719,3.0,0.6431346431346432,1554.8843631342768,-0.15943126857409323,0.16292756832352354,0.3293514363964804,1197.069597069597,-1.0,52.92559491762679,0.6434246565165471,
2023-08-11 18:54:10.598000,-0.46987951807228917,-1.4698795180722892,-9.91566265060241,-1.4273451870018392,0.11281422440220723,-9.54996934396076,3.0,0.6431346431346432,1554.8843631342768,0.3124526542742266,0.17901054717091022,0.13728803682769047,1199.2673992673992,-1.0,52.92559491762679,0.6434208696816808,
2023-08-11 18:54:10.606000,-0.4819277108433735,-1.4337349397590362,-9.891566265060241,-1.390557939914163,0.07112201103617412,-9.594114040465971,3.0,0.6431346431346432,1554.8843631342768,0.21642095448983162,0.05815511916555022,0.20161995221723675,1200.7326007326008,-1.0,52.92559491762679,0.6434170262212574,
2023-08-11 18:54:10.614000,-0.4819277108433735,-1.4457831325301205,-9.867469879518072,-1.4567749846719804,0.11526670754138564,-9.545064377682403,3.0,0.6431346431346432,1554.8843631342768,0.015150632247538248,-0.06130178894003801,0.5679156226327134,1203.6630036630036,-1.0,52.92559491762679,0.6434131289021113,
2023-08-11 18:54:10.621000,-0.46987951807228917,-1.4457831325301205,-9.867469879518072,-1.385652973635806,0.0809319435928878,-9.574494175352545,3.0,0.6431346431346432,1554.8843631342768,0.2152555212400215,-0.030534351145038167,0.107802575607482,1205.8608058608058,-1.0,52.92559491762679,0.6434091806288259,
2023-08-11 18:54:10.629000,-0.49397590361445787,-1.457831325301205,-9.891566265060241,-1.3733905579399142,0.04659717964438994,-9.557326793378294,3.0,0.6431346431346432,1554.8843631342768,0.001631606549735182,-0.5343511450381679,0.35347590466755996,1205.128205128205,-1.0,52.92559491762679,0.643405184437068,
2023-08-11 18:54:10.636000,-0.5421686746987953,-1.457831325301205,-9.891566265060241,-1.4175352544451256,0.06131207847946045,-9.630901287553648,3.0,0.6435786435786436,1553.8116591928251,0.4124468271079769,-0.6394732241710854,0.27154594720587355,1206.5934065934066,-1.0,52.92559491762679,0.6434011434863999,
2023-08-11 18:54:10.644000,-0.5180722891566265,-1.4819277108433735,-9.903614457831326,-1.4739423666462292,-0.010423053341508276,-9.540159411404046,3.0,0.6431346431346432,1554.8843631342768,0.21094341821572188,-0.61802925237457,0.051395606316648246,1209.5238095238094,-1.0,52.92559491762679,0.643397061201895,
2023-08-11 18:54:10.652000,-0.5421686746987953,-1.4819277108433735,-9.879518072289157,-1.4543225015328018,-0.022685469037400367,-9.532801961986511,3.0,0.6431346431346432,1554.8843631342768,0.28995979255288173,-0.567216362682828,-0.1987063690927102,1221.9780219780218,-1.0,52.92559491762679,0.6433929411385717,
2023-08-11 18:54:10.659000,-0.5421686746987953,-1.4819277108433735,-9.843373493975903,-1.5082771305947271,-0.04230533415082771,-9.532801961986511,3.0,0.6431346431346432,1554.8843631342768,0.15267175572519084,-0.33226501952100695,-0.4000932346599848,1251.2820512820513,-1.0,52.92559491762679,0.6433887868138707,
2023-08-11 18:54:10.667000,-0.5421686746987953,-1.4819277108433735,-9.855421686746988,-1.4812998160637645,0.002452483139178418,-9.483752299202942,3.0,0.6431346431346432,1554.8843631342768,0.21478934794009644,0.022609405046325665,-0.09498280985956527,1296.7032967032967,-1.0,52.92559491762679,0.6433846018375966,
2023-08-11 18:54:10.675000,-0.5180722891566265,-1.493975903614458,-9.855421686746988,-1.4273451870018392,0.03678724708767627,-9.540159411404046,3.0,0.6431346431346432,1554.8843631342768,-0.15115669250043648,-0.037760037293863916,0.027271138045568237,1361.1721611721612,-1.0,52.92559491762679,0.6433803899027289,
2023-08-11 18:54:10.682000,-0.5301204819277109,-1.4819277108433735,-9.843373493975903,-1.4788473329245861,-0.010423053341508276,-9.515634580012263,3.0,0.6431346431346432,1554.8843631342768,-0.012237049123012128,0.5714119223821451,-0.07796748441233016,1447.6190476190475,-1.0,52.92559491762679,0.643376154775884,
2023-08-11 18:54:10.690000,-0.5301204819277109,-1.4819277108433735,-9.843373493975903,-1.4886572654812997,-0.01778050275904353,-9.48620478234212,3.0,0.6426906426906427,1555.958549222798,0.24695530563486978,0.36909271021502243,-0.38051395606316657,1554.5787545787546,-1.0,52.92559491762679,0.6433719002874632,
2023-08-11 18:54:10.698000,-0.4819277108433735,-1.4819277108433735,-9.831325301204819,-1.5033721643163702,0.07357449417535254,-9.513182096873084,3.0,0.6431346431346432,1554.8843631342768,-0.16642386807295556,0.3676941903152489,-0.511858283316823,1680.5860805860805,-1.0,52.92559491762679,0.6433676303109788,
2023-08-11 18:54:10.705000,-0.49397590361445787,-1.493975903614458,-9.867469879518072,-1.4248927038626609,0.08583690987124463,-9.569589209074188,3.0,0.6431346431346432,1554.8843631342768,0.12411864110483035,0.4427480916030534,-0.7169745352834914,1821.245421245421,-1.0,52.92559491762679,0.6433633488597256,
2023-08-11 18:54:10.713000,-0.45783132530120485,-1.4819277108433735,-9.891566265060241,-1.491109748620478,0.07357449417535254,-9.547516860821581,3.0,0.6431346431346432,1554.8843631342768,0.13915273002738776,-0.15302138570013335,-0.9508769885204824,1970.6959706959706,-1.0,52.92559491762679,0.6433590599484081,
2023-08-11 18:54:10.721000,-0.4819277108433735,-1.4819277108433735,-9.867469879518072,-1.419987737584304,0.04904966278356836,-9.545064377682403,3.0,0.6431346431346432,1554.8843631342768,0.13915273002738776,-0.1466115028261752,-0.940504632597168,2120.14652014652,-1.0,52.92559491762679,0.6433547674649659,
2023-08-11 18:54:10.728000,-0.46987951807228917,-1.4819277108433735,-9.903614457831326,-1.4935622317596566,0.06621704475781728,-9.58185162477008,3.0,0.6431346431346432,1554.8843631342768,0.0015150632247543454,-0.21735330108968004,-0.3331973661208554,2265.201465201465,-1.0,52.92559491762679,0.6433504753084518,
2023-08-11 18:54:10.736000,-0.43373493975903615,-1.457831325301205,-9.903614457831326,-1.4420600858369097,0.08338442673206621,-9.579399141630901,3.0,0.6435786435786436,1553.8116591928251,-0.1650253481731838,-0.5814346483305161,-0.20686440184138435,2400.0,-1.0,52.92559491762679,0.6433461873775606,
2023-08-11 18:54:10.744000,-0.45783132530120485,-1.4698795180722892,-9.91566265060241,-1.4445125689760883,0.12998160637645614,-9.532801961986511,3.0,0.6435786435786436,1553.8116591928251,-0.36291591399102596,-0.31548278072373354,-0.16048015849892205,2514.285714285714,-1.0,52.92559491762679,0.643341907708435,
2023-08-11 18:54:10.751000,-0.46987951807228917,-1.4698795180722892,-9.879518072289157,-1.4543225015328018,0.06621704475781728,-9.53525444512569,3.0,0.6435786435786436,1553.8116591928251,0.0078084027737316646,-0.2664180409067077,0.4335411689295495,2604.395604395604,-1.0,52.92559491762679,0.643337640485098,
2023-08-11 18:54:10.759000,-0.4819277108433735,-1.4819277108433735,-9.891566265060241,-1.4224402207234825,0.07602697731453095,-9.616186388718576,3.0,0.6435786435786436,1553.8116591928251,-0.2822679331041309,-0.21933453761435773,0.8401608297884738,2665.9340659340655,-1.0,52.92559491762679,0.6433333898910281,
2023-08-11 18:54:10.767000,-0.5180722891566265,-1.457831325301205,-9.903614457831326,-1.4224402207234825,-0.032495401594114036,-9.552421827099938,3.0,0.6435786435786436,1553.8116591928251,-0.23215430336227577,0.08659169046092811,0.8477361459122429,2693.040293040293,-1.0,52.92559491762679,0.6433291600998113,
2023-08-11 18:54:10.774000,-0.5662650602409639,-1.457831325301205,-9.879518072289157,-1.466584917228694,-0.08890251379521766,-9.562231759656651,3.0,0.6435786435786436,1553.8116591928251,-0.6878387040382263,0.3612843074412908,0.9955130819882291,2685.7142857142853,-1.0,52.92559491762679,0.6433249552661482,
2023-08-11 18:54:10.782000,-0.6024096385542169,-1.457831325301205,-9.891566265060241,-1.4248927038626609,-0.03740036787247088,-9.505824647455547,3.0,0.6435786435786436,1553.8116591928251,-0.2850649729036762,0.3594196142415939,0.7747800244740982,2647.6190476190473,-1.0,52.92559491762679,0.6433207795172631,
2023-08-11 18:54:10.790000,-0.5903614457831325,-1.457831325301205,-9.867469879518072,-1.4641324340895157,-0.00797057020232986,-9.576946658491723,3.0,0.6435786435786436,1553.8116591928251,-0.1610628751238267,-0.006060252899015646,0.18914981644426293,2578.7545787545787,-1.0,52.92559491762679,0.643316636944737,
2023-08-11 18:54:10.797000,-0.5662650602409639,-1.457831325301205,-9.879518072289157,-1.449417535254445,-0.05702023298589822,-9.557326793378294,3.0,0.6431346431346432,1554.8843631342768,-0.05326029951634467,0.07260649146320171,-0.3894877920867083,2488.6446886446884,-1.0,52.92559491762679,0.6433125315968028,
2023-08-11 18:54:10.805000,-0.5662650602409639,-1.4819277108433735,-9.867469879518072,-1.437155119558553,-0.00551808706315144,-9.53525444512569,3.0,0.6435786435786436,1553.8116591928251,-0.11596060835615618,-0.23238739001223746,-0.13961890332731197,2383.150183150183,-1.0,52.92559491762679,0.6433084673218312,
2023-08-11 18:54:10.813000,-0.5301204819277109,-1.4698795180722892,-9.855421686746988,-1.4788473329245861,0.019619865113427344,-9.52053954629062,3.0,0.6431346431346432,1554.8843631342768,0.2813355865042825,-0.25674494493327915,-0.5936716974535282,2266.6666666666665,-1.0,52.92559491762679,0.643304447889031,
2023-08-11 18:54:10.820000,-0.49397590361445787,-1.4337349397590362,-9.843373493975903,-1.4224402207234825,0.08828939301042305,-9.557326793378294,3.0,0.6435786435786436,1553.8116591928251,0.07936600431210238,0.05197832294155373,-0.526659285589418,2145.7875457875457,-1.0,52.92559491762679,0.6433004769919035,
2023-08-11 18:54:10.828000,-0.49397590361445787,-1.457831325301205,-9.855421686746988,-1.4003678724708768,0.04659717964438994,-9.503372164316369,3.0,0.6435786435786436,1553.8116591928251,0.17260066429695206,-0.22015034088922533,-0.7968067128955189,2029.3040293040292,-1.0,52.92559491762679,0.6432965582310729,
2023-08-11 18:54:10.836000,-0.49397590361445787,-1.457831325301205,-9.855421686746988,-1.4543225015328018,-0.0030656039239730223,-9.508277130594726,3.0,0.6435786435786436,1553.8116591928251,-0.1496416292756839,0.025522988170851784,-0.6554396596934909,1917.9487179487178,-1.0,52.92559491762679,0.6432926952679422,
2023-08-11 18:54:10.843000,-0.45783132530120485,-1.4819277108433735,-9.855421686746988,-1.4420600858369097,0.014714898835070508,-9.50091968117719,3.0,0.6426906426906427,1555.958549222798,0.09288503000990543,-0.17353301089680048,-0.544024241011596,1813.9194139194137,-1.0,52.92559491762679,0.6432888916810443,
2023-08-11 18:54:10.851000,-0.4819277108433735,-1.493975903614458,-9.843373493975903,-1.4003678724708768,0.019619865113427344,-9.559779276517473,3.0,0.6431346431346432,1554.8843631342768,-0.22959035021269217,-0.46302663014975887,-0.19043179301905475,1726.007326007326,-1.0,52.92559491762679,0.6432851508018804,
2023-08-11 18:54:10.859000,-0.49397590361445787,-1.4698795180722892,-9.843373493975903,-1.4028203556100551,0.0809319435928878,-9.525444512568976,3.0,0.6431346431346432,1554.8843631342768,0.10768603228250118,-0.29030942252782427,-0.29823436862653674,1652.7472527472526,-1.0,52.92559491762679,0.6432814757963403,
2023-08-11 18:54:10.866000,-0.46987951807228917,-1.4698795180722892,-9.855421686746988,-1.4028203556100551,0.03678724708767627,-9.552421827099938,3.0,0.6435786435786436,1553.8116591928251,-0.3218926635976917,-0.1827399335703039,0.07039216828856147,1590.4761904761904,-1.0,52.92559491762679,0.6432778696707957,
2023-08-11 18:54:10.874000,-0.46987951807228917,-1.493975903614458,-9.891566265060241,-1.4322501532801961,0.03923973022685469,-9.525444512568976,3.0,0.6431346431346432,1554.8843631342768,-0.02925237457024723,0.2308723267874831,-0.07971563428704619,1540.6593406593406,-1.0,52.92559491762679,0.6432743352994796,
2023-08-11 18:54:10.882000,-0.4819277108433735,-1.4819277108433735,-9.867469879518072,-1.449417535254445,-0.010423053341508276,-9.576946658491723,3.0,0.6431346431346432,1554.8843631342768,-0.12027271138045581,0.4740982460229592,0.13495717032806942,1504.0293040293038,-1.0,52.92559491762679,0.6432708754417141,
2023-08-11 18:54:10.889000,-0.46987951807228917,-1.4819277108433735,-9.867469879518072,-1.4641324340895157,0.09074187614960147,-9.547516860821581,3.0,0.6435786435786436,1553.8116591928251,0.07994872093700829,0.3321484761960261,0.04486918011770882,1474.7252747252746,-1.0,52.92559491762679,0.6432674925787247,
2023-08-11 18:54:10.897000,-0.49397590361445787,-1.457831325301205,-9.91566265060241,-1.471489883507051,0.029429797670141016,-9.505824647455547,3.0,0.6431346431346432,1554.8843631342768,0.12656605092943313,0.4208379465066145,0.2149058912650777,1453.4798534798533,-1.0,52.92559491762679,0.6432641891980206,
2023-08-11 18:54:10.905000,-0.5180722891566265,-1.4698795180722892,-9.903614457831326,-1.461679950950337,-0.025137952176578784,-9.545064377682403,3.0,0.6431346431346432,1554.8843631342768,-0.025639531495834356,-0.1934619194685617,0.001981236524678125,1438.8278388278388,-1.0,52.92559491762679,0.6432609676627069,
2023-08-11 18:54:10.912000,-0.5180722891566265,-1.457831325301205,-9.891566265060241,-1.4763948497854076,0.004904966278356836,-9.56468424279583,3.0,0.6431346431346432,1554.8843631342768,0.14136705320202714,-0.04125633704329595,-0.026921508070625294,1425.6410256410256,-1.0,52.92559491762679,0.6432578300496689,
2023-08-11 18:54:10.920000,-0.5421686746987953,-1.457831325301205,-9.903614457831326,-1.4837522992029428,0.007357449417535254,-9.52053954629062,3.0,0.6431346431346432,1554.8843631342768,-0.0874074937357957,-0.7267641745819003,-0.3445020686440182,1413.9194139194137,-1.0,52.92559491762679,0.6432547782860137,
2023-08-11 18:54:10.928000,-0.5301204819277109,-1.4819277108433735,-9.903614457831326,-1.4690374003678723,0.009809932556713672,-9.616186388718576,3.0,0.6431346431346432,1554.8843631342768,0.11246430860672414,-0.49227900472000435,-0.3400734222947382,1401.4652014652013,-1.0,52.92559491762679,0.6432518141471343,
2023-08-11 18:54:10.935000,-0.5301204819277109,-1.493975903614458,-9.903614457831326,-1.4347026364193745,0.014714898835070508,-9.545064377682403,3.0,0.6431346431346432,1554.8843631342768,-0.17994289377075864,-0.9752345434415245,-0.2596585280578057,1387.5457875457876,-1.0,52.92559491762679,0.643248939255142,
2023-08-11 18:54:10.943000,-0.5180722891566265,-1.4819277108433735,-9.91566265060241,-1.5058246474555486,-0.032495401594114036,-9.545064377682403,3.0,0.6431346431346432,1554.8843631342768,0.12540061767962304,-0.7062525493852332,-0.27224520715576034,1374.3589743589744,-1.0,52.92559491762679,0.6432461550776456,
2023-08-11 18:54:10.951000,-0.49397590361445787,-1.4819277108433735,-9.855421686746988,-1.4101778050275904,-6.131207847946045E-4,-9.56468424279583,3.0,0.6431346431346432,1554.8843631342768,0.11013344210710395,-0.5310879319386975,-0.6219917254239262,1360.4395604395604,-1.0,52.92559491762679,0.6432434629268797,
2023-08-11 18:54:10.958000,-0.5180722891566265,-1.4819277108433735,-9.867469879518072,-1.437155119558553,-0.06437768240343347,-9.522992029429798,3.0,0.6431346431346432,1554.8843631342768,-0.12085542800536173,0.21921799428937688,-0.30056523512615824,1345.7875457875457,-1.0,52.92559491762679,0.6432408639591619,
2023-08-11 18:54:10.966000,-0.5301204819277109,-1.4819277108433735,-9.843373493975903,-1.4690374003678723,0.017167381974248927,-9.574494175352545,3.0,0.6431346431346432,1554.8843631342768,-0.07295612143814421,0.4178078200571058,-0.16374337159839156,1333.3333333333333,-1.0,52.92559491762679,0.6432383591746683,
2023-08-11 18:54:10.974000,-0.5421686746987953,-1.4819277108433735,-9.855421686746988,-1.5107296137339055,-0.0275904353157572,-9.537706928264868,3.0,0.6431346431346432,1554.8843631342768,-0.42305226968125387,0.2939222656022371,-0.3474156517685448,1326.7399267399267,-1.0,52.92559491762679,0.6432359494175153,
2023-08-11 18:54:10.981000,-0.5421686746987953,-1.4819277108433735,-9.891566265060241,-1.4739423666462292,0.017167381974248927,-9.525444512568976,3.0,0.6431346431346432,1554.8843631342768,-0.160829788473865,0.6887710506380748,-0.7447118466289843,1327.4725274725274,-1.0,52.92559491762679,0.6432336353761358,
2023-08-11 18:54:10.989000,-0.5421686746987953,-1.4698795180722892,-9.843373493975903,-1.4763948497854076,0.05150214592274678,-9.513182096873084,3.0,0.6435786435786436,1553.8116591928251,0.08344502068644033,0.4231688130062347,-0.7712837247246662,1334.065934065934,-1.0,52.92559491762679,0.6432314175839318,
2023-08-11 18:54:10.997000,-0.4819277108433735,-1.4819277108433735,-9.855421686746988,-1.4396076026977314,0.07847946045370938,-9.522992029429798,3.0,0.6426906426906427,1555.958549222798,0.08204650078666682,0.4188567099819351,-0.7667385350504049,1342.8571428571427,-1.0,52.92559491762679,0.6432292965694862,
2023-08-11 18:54:11.004000,-0.4819277108433735,-1.4819277108433735,-9.867469879518072,-1.4592274678111588,0.07602697731453095,-9.513182096873084,3.0,0.6431346431346432,1554.8843631342768,-0.33203193287104527,0.5387797913874484,-0.9598508245440242,1357.5091575091574,-1.0,52.92559491762679,0.6432272727197677,
2023-08-11 18:54:11.012000,-0.45783132530120485,-1.493975903614458,-9.819277108433736,-1.4420600858369097,0.06376456161863887,-9.498467198038012,3.0,0.6431346431346432,1554.8843631342768,-0.20861255171609994,0.08973836023541765,-1.4098246022959033,1372.8937728937728,-1.0,52.92559491762679,0.6432253462296369,
2023-08-11 18:54:11.019000,-0.45783132530120485,-1.493975903614458,-9.819277108433736,-1.4739423666462292,0.09319435928877988,-9.50091968117719,3.0,0.6435786435786436,1553.8116591928251,-0.2682827341064045,-0.26187285123244636,-1.5201911310529685,1392.6739926739926,-1.0,52.92559491762679,0.6432235172533499,
2023-08-11 18:54:11.027000,-0.46987951807228917,-1.493975903614458,-9.879518072289157,-1.39546290619252,0.09809932556713671,-9.52053954629062,3.0,0.6431346431346432,1554.8843631342768,-0.46524095332439824,-0.12248703455509517,-1.4746226909853737,1414.6520146520145,-1.0,52.92559491762679,0.6432217857792808,
2023-08-11 18:54:11.035000,-0.46987951807228917,-1.493975903614458,-9.843373493975903,-1.466584917228694,0.08828939301042305,-9.491109748620477,3.0,0.6431346431346432,1554.8843631342768,-0.17108560107219944,-0.3964803915855711,-0.7591632189266363,1434.4322344322343,-1.0,52.92559491762679,0.6432201515258065,
2023-08-11 18:54:11.042000,-0.4819277108433735,-1.4819277108433735,-9.831325301204819,-1.5352544451256898,0.06376456161863887,-9.537706928264868,3.0,0.6431346431346432,1554.8843631342768,-0.3683934502651357,-0.13460754035312647,-0.7821222539479052,1449.8168498168498,-1.0,52.92559491762679,0.6432186139332675,
2023-08-11 18:54:11.050000,-0.4819277108433735,-1.4819277108433735,-9.867469879518072,-1.4641324340895157,-6.131207847946045E-4,-9.527896995708154,3.0,0.6431346431346432,1554.8843631342768,-0.22784220033797614,0.12365246780490702,-0.5465881941611792,1461.5384615384614,-1.0,52.92559491762679,0.6432171723046823,
2023-08-11 18:54:11.058000,-0.5301204819277109,-1.493975903614458,-9.867469879518072,-1.491109748620478,-0.00797057020232986,-9.56468424279583,3.0,0.6431346431346432,1554.8843631342768,0.01794767204708353,0.107802575607482,-0.2816852164792259,1466.6666666666665,-1.0,52.92559491762679,0.6432158258078686,
2023-08-11 18:54:11.065000,-0.5542168674698795,-1.4819277108433735,-9.879518072289157,-1.4445125689760883,0.029429797670141016,-9.601471489883506,3.0,0.6431346431346432,1554.8843631342768,-0.34718256511858353,0.10535516578287923,-0.2037177320668957,1466.6666666666665,-1.0,52.92559491762679,0.6432145734777197,
2023-08-11 18:54:11.073000,-0.5180722891566265,-1.493975903614458,-9.867469879518072,-1.471489883507051,-0.04966278356836296,-9.557326793378294,3.0,0.6431346431346432,1554.8843631342768,-0.4049880543091895,0.3020802983509113,-0.4305110424800422,1463.003663003663,-1.0,52.92559491762679,0.6432134142186238,
2023-08-11 18:54:11.081000,-0.5662650602409639,-1.493975903614458,-9.927710843373495,-1.525444512568976,-0.10361741263028816,-9.574494175352545,3.0,0.6431346431346432,1554.8843631342768,-0.692850067012411,0.49810617096905835,-0.6846920342637373,1456.4102564102564,-1.0,52.92559491762679,0.6432123468070254,
2023-08-11 18:54:11.088000,-0.6024096385542169,-1.5060240963855422,-9.93975903614458,-1.4812998160637645,-0.0275904353157572,-9.606376456161863,3.0,0.6431346431346432,1554.8843631342768,-0.4282967193054019,0.7095157624847036,-0.6795641279645704,1446.8864468864467,-1.0,52.92559491762679,0.6432113698941192,
2023-08-11 18:54:11.096000,-0.6385542168674699,-1.5180722891566265,-9.891566265060241,-1.537706928264868,-0.07664009809932557,-9.584304107909258,3.0,0.6431346431346432,1554.8843631342768,-0.3173474739234304,0.3996270613600606,-1.0559990676534,1430.03663003663,-1.0,52.92559491762679,0.643210482147424,
2023-08-11 18:54:11.104000,-0.6024096385542169,-1.530120481927711,-9.843373493975903,-1.5180870631514407,-0.07664009809932557,-9.522992029429798,3.0,0.6431346431346432,1554.8843631342768,-0.4210710331565762,0.09171959676009533,-1.355398869529748,1410.2564102564102,-1.0,52.92559491762679,0.6432096820946033,
2023-08-11 18:54:11.111000,-0.5783132530120483,-1.5421686746987953,-9.843373493975903,-1.5156345800122624,-0.032495401594114036,-9.496014714898834,3.0,0.6431346431346432,1554.8843631342768,-0.1579162053493389,-0.5957694773031867,-2.002563953149583,1385.3479853479853,-1.0,52.92559491762679,0.6432089679989219,
2023-08-11 18:54:11.119000,-0.5662650602409639,-1.5060240963855422,-9.819277108433736,-1.5107296137339055,-0.00551808706315144,-9.537706928264868,3.0,0.6435786435786436,1553.8116591928251,-0.3851756890624091,-0.31769710389837463,-2.017015325447235,1359.7069597069597,-1.0,52.92559491762679,0.6432083380115338,
2023-08-11 18:54:11.127000,-0.5662650602409639,-1.4819277108433735,-9.74698795180723,-1.407725321888412,-0.010423053341508276,-9.346413243408952,3.0,0.6435786435786436,1553.8116591928251,-0.12411864110483035,-0.28261756307907515,-2.2900763358778624,1334.7985347985348,-1.0,52.92559491762679,0.643207790323883,
2023-08-11 18:54:11.134000,-0.5662650602409639,-1.3734939759036144,-9.72289156626506,-1.385652973635806,-0.04475781729000613,-9.429797670141017,3.0,0.6435786435786436,1553.8116591928251,0.3504457782180522,-0.6004312103024306,-3.0657887069518086,1312.8205128205127,-1.0,52.92559491762679,0.6432073231928079,
2023-08-11 18:54:11.142000,-0.5301204819277109,-1.5060240963855422,-9.903614457831326,-1.5573267933782955,-0.04475781729000613,-9.709380748007357,3.0,0.6435786435786436,1553.8116591928251,-1.406794475846395,-2.227376027038051,-2.566050929433016,1290.8424908424909,-1.0,52.92559491762679,0.643206934806819,
2023-08-11 18:54:11.150000,-0.5662650602409639,-1.6506024096385543,-9.987951807228916,-1.7290006131207847,0.02207234825260576,-9.589209074187615,3.0,0.6426906426906427,1555.958549222798,-1.8849717382436921,1.1797680787832883,-1.368102091952684,1271.062271062271,-1.0,52.92559491762679,0.6432066232914346,
2023-08-11 18:54:11.157000,-0.5060240963855422,-1.6987951807228916,-9.855421686746988,-1.6873083997547516,0.10545677498467197,-9.586756591048436,3.0,0.6426906426906427,1555.958549222798,-0.2047666219917254,2.7902802866965795,-3.0803566225744428,1254.212454212454,-1.0,52.92559491762679,0.6432063865549702,
2023-08-11 18:54:11.165000,-0.42168674698795183,-1.63855421686747,-9.879518072289157,-1.5818516247700796,0.07847946045370938,-9.56713672593501,3.0,0.6431346431346432,1554.8843631342768,-0.06503117533943172,0.4638424334246247,-4.198123652467806,1240.2930402930401,-1.0,52.92559491762679,0.6432062220915726,
2023-08-11 18:54:11.173000,-0.44578313253012053,-1.5060240963855422,-9.867469879518072,-1.4862047823421214,0.029429797670141016,-9.483752299202942,3.0,0.6431346431346432,1554.8843631342768,0.1339082804032397,-0.42480041955596987,-2.683876230988869,1224.1758241758241,-1.0,52.92559491762679,0.6432061272832125,
2023-08-11 18:54:11.180000,-0.5060240963855422,-1.457831325301205,-9.831325301204819,-1.4175352544451256,0.019619865113427344,-9.530349478847333,3.0,0.6435786435786436,1553.8116591928251,0.4534700775013112,0.08262921741157274,-1.5320785502010372,1209.5238095238094,-1.0,52.92559491762679,0.6432060995733645,
2023-08-11 18:54:11.188000,-0.5542168674698795,-1.4337349397590362,-9.831325301204819,-1.4445125689760883,0.007357449417535254,-9.527896995708154,3.0,0.6431346431346432,1554.8843631342768,-0.12889691742905507,-0.2678165608064794,-2.3590699842666516,1200.7326007326008,-1.0,52.92559491762679,0.6432061363428909,
2023-08-11 18:54:11.196000,-0.5301204819277109,-1.4819277108433735,-9.855421686746988,-1.5033721643163702,-0.0030656039239730223,-9.591661557326793,3.0,0.6431346431346432,1554.8843631342768,-0.5231629858399868,-0.951459705145387,-4.217819474389604,1192.6739926739926,-1.0,52.92559491762679,0.6432062349459282,
2023-08-11 18:54:11.203000,-0.49397590361445787,-1.5542168674698795,-9.879518072289157,-1.525444512568976,0.01226241569589209,-9.608828939301041,3.0,0.6431346431346432,1554.8843631342768,-0.765223471825651,-0.8244274809160305,-3.176737952333779,1186.080586080586,-1.0,52.92559491762679,0.6432063926828296,
2023-08-11 18:54:11.211000,-0.4819277108433735,-1.566265060240964,-9.855421686746988,-1.5475168608215817,0.017167381974248927,-9.518087063151441,3.0,0.6431346431346432,1554.8843631342768,-0.45358662082629203,-1.5219392809276853,-3.7464017248412103,1180.2197802197802,-1.0,52.92559491762679,0.6432066067943496,
2023-08-11 18:54:11.219000,-0.5421686746987953,-1.4819277108433735,-9.831325301204819,-1.4150827713059473,-0.010423053341508276,-9.530349478847333,3.0,0.6435786435786436,1553.8116591928251,-0.6175630790746466,-0.6717557251908397,-3.577297360293688,1178.021978021978,-1.0,52.92559491762679,0.6432068744664597,
2023-08-11 18:54:11.226000,-0.5662650602409639,-1.4337349397590362,-9.927710843373495,-1.4445125689760883,-0.00551808706315144,-9.65787860208461,3.0,0.6435786435786436,1553.8116591928251,-0.8731425907581138,-0.5434415243866905,-4.537381271487677,1173.6263736263736,-1.0,52.92559491762679,0.6432071929845274,
2023-08-11 18:54:11.234000,-0.6265060240963856,-1.5421686746987953,-9.963855421686748,-1.5818516247700796,-0.14530962599632127,-9.572041692213366,3.0,0.6431346431346432,1554.8843631342768,-0.7442456733290606,0.6088223297010665,-3.42928733756774,1169.9633699633698,-1.0,52.92559491762679,0.6432075597601512,
2023-08-11 18:54:11.242000,-0.6144578313253012,-1.5542168674698795,-9.867469879518072,-1.4935622317596566,0.041692213366033105,-9.537706928264868,3.0,0.6431346431346432,1554.8843631342768,0.39193520191130976,-0.35522405454227685,-5.383485810850183,1167.7655677655678,-1.0,52.92559491762679,0.6432079720498283,
2023-08-11 18:54:11.249000,-0.5180722891566265,-1.5903614457831325,-9.819277108433736,-1.5818516247700796,-6.131207847946045E-4,-9.545064377682403,3.0,0.6431346431346432,1554.8843631342768,-0.37200629333954854,-2.0326321309946964,-6.892838412679914,1164.8351648351647,-1.0,52.92559491762679,0.6432084269400402,
2023-08-11 18:54:11.257000,-0.45783132530120485,-1.5180722891566265,-9.819277108433736,-1.4935622317596566,0.03923973022685469,-9.48620478234212,3.0,0.6431346431346432,1554.8843631342768,-0.9674261406677929,-1.4066779325214143,-5.7936017714585395,1163.3699633699632,-1.0,52.92559491762679,0.6432089214915039,
2023-08-11 18:54:11.265000,-0.46987951807228917,-1.5060240963855422,-9.831325301204819,-1.4567749846719804,0.017167381974248927,-9.503372164316369,3.0,0.6431346431346432,1554.8843631342768,0.08600897383602393,-0.04789930656721578,-5.091311695122661,1164.102564102564,-1.0,52.92559491762679,0.6432094527447126,
2023-08-11 18:54:11.272000,-0.4819277108433735,-1.493975903614458,-9.831325301204819,-1.5009196811771919,0.03678724708767627,-9.54996934396076,3.0,0.6431346431346432,1554.8843631342768,0.08600897383602393,-0.04789930656721578,-5.091311695122661,1168.4981684981685,-1.0,52.92559491762679,0.6432100177254941,
2023-08-11 18:54:11.280000,-0.5060240963855422,-1.5060240963855422,-9.831325301204819,-1.4812998160637645,-0.015328019619865112,-9.518087063151441,3.0,0.6431346431346432,1554.8843631342768,-0.20406736204183865,-0.276906940155002,-5.488258260008157,1170.6959706959706,-1.0,52.92559491762679,0.6432106134505856,
2023-08-11 18:54:11.288000,-0.5301204819277109,-1.5060240963855422,-9.843373493975903,-1.4935622317596566,-0.039852851011649294,-9.464132434089516,3.0,0.6431346431346432,1554.8843631342768,-0.631548278072373,-0.7959909096206509,-5.488258260008157,1173.6263736263736,-1.0,52.92559491762679,0.6432112369332118,
2023-08-11 18:54:11.295000,-0.5301204819277109,-1.5180722891566265,-9.855421686746988,-1.4690374003678723,-0.02023298589822195,-9.515634580012263,3.0,0.6431346431346432,1554.8843631342768,-0.8910902628051974,-0.8723267874832463,-5.701998718023424,1176.5567765567764,-1.0,52.92559491762679,0.643211885188656,
2023-08-11 18:54:11.303000,-0.5542168674698795,-1.5060240963855422,-9.879518072289157,-1.5180870631514407,-0.04966278356836296,-9.584304107909258,3.0,0.6426906426906427,1555.958549222798,-0.7078841559349685,-0.7959909096206509,-6.037876580618844,1176.5567765567764,-1.0,52.92559491762679,0.6432125552398151,
2023-08-11 18:54:11.311000,-0.5903614457831325,-1.4819277108433735,-9.867469879518072,-1.4812998160637645,-0.00551808706315144,-9.53525444512569,3.0,0.6431346431346432,1554.8843631342768,-0.11246430860672414,-0.826525260765689,-6.373754443214264,1178.7545787545787,-1.0,52.92559491762679,0.6432132441121845,
2023-08-11 18:54:11.318000,-0.5903614457831325,-1.4819277108433735,-9.843373493975903,-1.4788473329245861,-0.09380748007357449,-9.576946658491723,3.0,0.6431346431346432,1554.8843631342768,-0.1582658353242814,-0.7043878561855363,-6.831769710389837,1180.2197802197802,-1.0,52.92559491762679,0.6432139489463848,
2023-08-11 18:54:11.326000,-0.5783132530120483,-1.4819277108433735,-9.855421686746988,-1.4543225015328018,-0.015328019619865112,-9.525444512568976,3.0,0.6431346431346432,1554.8843631342768,-0.09719713303420506,-1.2234718256511852,-6.984441466115028,1183.150183150183,-1.0,52.92559491762679,0.6432146670145503,
2023-08-11 18:54:11.334000,-0.5301204819277109,-1.493975903614458,-9.867469879518072,-1.5475168608215817,0.007357449417535254,-9.547516860821581,3.0,0.6431346431346432,1554.8843631342768,-0.3567391177670295,-1.528815337101567,-7.656197191305868,1186.8131868131868,-1.0,52.92559491762679,0.643215395449133,
2023-08-11 18:54:11.341000,-0.5301204819277109,-1.4698795180722892,-9.891566265060241,-1.4297976701410178,0.009809932556713672,-9.547516860821581,3.0,0.6431346431346432,1554.8843631342768,-0.4636093467746631,-1.360876405803857,-7.77833459588602,1189.7435897435896,-1.0,52.92559491762679,0.6432161312693241,
2023-08-11 18:54:11.349000,-0.5301204819277109,-1.493975903614458,-9.891566265060241,-1.5524218270999386,0.019619865113427344,-9.552421827099938,3.0,0.6431346431346432,1554.8843631342768,-0.4025406444845867,-0.9486626653458416,-7.94627352718373,1193.4065934065934,-1.0,52.92559491762679,0.6432168715348283,
2023-08-11 18:54:11.357000,-0.5301204819277109,-1.4698795180722892,-9.879518072289157,-1.4518700183936235,0.07112201103617412,-9.545064377682403,3.0,0.6431346431346432,1554.8843631342768,-0.5246780490647394,-0.5669832760328646,-7.763067420313501,1199.2673992673992,-1.0,52.92559491762679,0.6432176133502677,
2023-08-11 18:54:11.364000,-0.5180722891566265,-1.457831325301205,-9.879518072289157,-1.4322501532801961,-0.025137952176578784,-9.530349478847333,3.0,0.6431346431346432,1554.8843631342768,-0.47887652234718214,-0.46011304702523104,-7.900472000466173,1201.4652014652013,-1.0,52.92559491762679,0.6432183538695191,
2023-08-11 18:54:11.372000,-0.5421686746987953,-1.457831325301205,-9.879518072289157,-1.4984671980380133,0.05150214592274678,-9.606376456161863,3.0,0.6431346431346432,1554.8843631342768,-0.6010139269273348,0.04370374686789872,-7.976807878328768,1204.3956043956043,-1.0,52.92559491762679,0.6432190904387167,
2023-08-11 18:54:11.380000,-0.5542168674698795,-1.4457831325301205,-9.903614457831326,-1.4028203556100551,0.01226241569589209,-9.606376456161863,3.0,0.6431346431346432,1554.8843631342768,-0.28040323990443405,-0.5517161004603456,-8.587494901229531,1210.2564102564102,-1.0,52.92559491762679,0.6432198204413015,
2023-08-11 18:54:11.387000,-0.5421686746987953,-1.4457831325301205,-9.891566265060241,-1.4592274678111588,0.07847946045370938,-9.522992029429798,3.0,0.6431346431346432,1554.8843631342768,-0.1582658353242814,-0.6891206806130172,-8.556960550084494,1210.989010989011,-1.0,52.92559491762679,0.6432205411745033,
2023-08-11 18:54:11.395000,-0.5301204819277109,-1.4457831325301205,-9.879518072289157,-1.4396076026977314,0.04904966278356836,-9.572041692213366,3.0,0.6431346431346432,1554.8843631342768,-0.3109375910494722,-1.3456092302313378,-8.999708641687546,1213.1868131868132,-1.0,52.92559491762679,0.6432212500024419,
2023-08-11 18:54:11.402000,-0.49397590361445787,-1.457831325301205,-9.855421686746988,-1.4297976701410178,0.05885959534028203,-9.540159411404046,3.0,0.6431346431346432,1554.8843631342768,-0.14299865975176232,-1.208204650078666,-8.877571237107395,1216.117216117216,-1.0,52.92559491762679,0.6432219443598484,
2023-08-11 18:54:11.410000,-0.49397590361445787,-1.4698795180722892,-9.879518072289157,-1.4248927038626609,-0.0030656039239730223,-9.569589209074188,3.0,0.6431346431346432,1554.8843631342768,-0.3567391177670295,-1.2387390012237043,-9.091311695122661,1217.5824175824175,-1.0,52.92559491762679,0.6432226217556926,
2023-08-11 18:54:11.418000,-0.4819277108433735,-1.4698795180722892,-9.867469879518072,-1.4641324340895157,-6.131207847946045E-4,-9.554874310239116,3.0,0.6431346431346432,1554.8843631342768,-0.3109375910494722,-1.208204650078666,-9.152380397412738,1219.047619047619,-1.0,52.92559491762679,0.6432232799154608,
2023-08-11 18:54:11.425000,-0.5180722891566265,-1.4698795180722892,-9.855421686746988,-1.4592274678111588,-0.00551808706315144,-9.579399141630901,3.0,0.6431346431346432,1554.8843631342768,-0.2498688887593959,-1.208204650078666,-8.679097954664647,1220.5128205128203,-1.0,52.92559491762679,0.6432239167642086,
2023-08-11 18:54:11.433000,-0.5301204819277109,-1.4819277108433735,-9.867469879518072,-1.4788473329245861,0.0269773145309626,-9.525444512568976,3.0,0.6431346431346432,1554.8843631342768,-0.49414369791970125,-1.2387390012237043,-9.152380397412738,1219.7802197802198,-1.0,52.92559491762679,0.6432245301431491,
2023-08-11 18:54:11.441000,-0.5421686746987953,-1.4819277108433735,-9.855421686746988,-1.4886572654812997,-0.015328019619865112,-9.464132434089516,3.0,0.6431346431346432,1554.8843631342768,-0.2498688887593959,-1.1318687722160707,-8.862304061534875,1221.245421245421,-1.0,52.92559491762679,0.643225117973102,
2023-08-11 18:54:11.448000,-0.5783132530120483,-1.5060240963855422,-9.855421686746988,-1.4420600858369097,-0.07909258123850398,-9.547516860821581,3.0,0.6431346431346432,1554.8843631342768,-0.28040323990443405,-1.2234718256511852,-9.076044519550143,1221.245421245421,-1.0,52.92559491762679,0.6432256782473775,
2023-08-11 18:54:11.456000,-0.5783132530120483,-1.4819277108433735,-9.855421686746988,-1.5058246474555486,0.004904966278356836,-9.47148988350705,3.0,0.6431346431346432,1554.8843631342768,0.024940271545947603,-1.208204650078666,-9.747800244740981,1221.9780219780218,-1.0,52.92559491762679,0.643226208906756,
2023-08-11 18:54:11.464000,-0.5421686746987953,-1.493975903614458,-9.855421686746988,-1.4935622317596566,0.017167381974248927,-9.547516860821581,3.0,0.6431346431346432,1554.8843631342768,-0.38727346891206765,-1.3303420546588187,-9.808868947031058,1224.1758241758241,-1.0,52.92559491762679,0.6432267081298224,
2023-08-11 18:54:11.471000,-0.5542168674698795,-1.4819277108433735,-9.831325301204819,-1.461679950950337,0.002452483139178418,-9.496014714898834,3.0,0.6431346431346432,1554.8843631342768,-0.4330749956296249,-1.574616863819124,-10.389021618786783,1225.6410256410256,-1.0,52.92559491762679,0.6432271743147476,
2023-08-11 18:54:11.479000,-0.5421686746987953,-1.4819277108433735,-9.879518072289157,-1.5229920294297976,0.017167381974248927,-9.56468424279583,3.0,0.6431346431346432,1554.8843631342768,-0.37200629333954854,-1.5898840393916431,-10.541693374511974,1226.3736263736264,-1.0,52.92559491762679,0.6432276057945969,
2023-08-11 18:54:11.487000,-0.5060240963855422,-1.4819277108433735,-9.855421686746988,-1.4518700183936235,0.0809319435928878,-9.515634580012263,3.0,0.6431346431346432,1554.8843631342768,-0.4178078200571058,-1.6967542683992767,-10.78596818367228,1227.106227106227,-1.0,52.92559491762679,0.6432280009994887,
2023-08-11 18:54:11.494000,-0.49397590361445787,-1.493975903614458,-9.855421686746988,-1.3930104230533413,0.01226241569589209,-9.522992029429798,3.0,0.6431346431346432,1554.8843631342768,-0.6162811024998539,-1.376143581376376,-10.556960550084494,1227.106227106227,-1.0,52.92559491762679,0.6432283584481718,
2023-08-11 18:54:11.502000,-0.4819277108433735,-1.493975903614458,-9.843373493975903,-1.461679950950337,0.04904966278356836,-9.530349478847333,3.0,0.6431346431346432,1554.8843631342768,-0.3262047666219913,-1.6662199172542387,-10.999708641687546,1228.5714285714284,-1.0,52.92559491762679,0.6432286766217006,
2023-08-11 18:54:11.510000,-0.49397590361445787,-1.493975903614458,-9.879518072289157,-1.4543225015328018,0.07847946045370938,-9.53525444512569,3.0,0.6431346431346432,1554.8843631342768,-0.4330749956296249,-1.9715634287046202,-10.8012353592448,1227.106227106227,-1.0,52.92559491762679,0.6432289541137022,
2023-08-11 18:54:11.517000,-0.49397590361445787,-1.4819277108433735,-9.879518072289157,-1.491109748620478,0.0269773145309626,-9.508277130594726,3.0,0.6431346431346432,1554.8843631342768,-0.265136064331915,-1.7883573218343913,-11.137113221840218,1227.106227106227,-1.0,52.92559491762679,0.6432291897699828,
2023-08-11 18:54:11.525000,-0.49397590361445787,-1.4819277108433735,-9.867469879518072,-1.437155119558553,0.017167381974248927,-9.527896995708154,3.0,0.6431346431346432,1554.8843631342768,-0.02086125517160965,-1.8036244974069104,-10.877571237107395,1227.8388278388277,-1.0,52.92559491762679,0.6432293825301341,
2023-08-11 18:54:11.533000,-0.5180722891566265,-1.4819277108433735,-9.879518072289157,-1.449417535254445,0.05885959534028203,-9.525444512568976,3.0,0.6431346431346432,1554.8843631342768,-0.0666627818891669,-1.574616863819124,-10.969174290542508,1227.106227106227,-1.0,52.92559491762679,0.6432295313005434,
2023-08-11 18:54:11.540000,-0.5180722891566265,-1.4698795180722892,-9.867469879518072,-1.449417535254445,0.002452483139178418,-9.510729613733906,3.0,0.6431346431346432,1554.8843631342768,-0.4330749956296249,-1.8341588485519484,-11.320319328710447,1229.3040293040292,-1.0,52.92559491762679,0.6432296351039999,
2023-08-11 18:54:11.548000,-0.5180722891566265,-1.4819277108433735,-9.891566265060241,-1.4984671980380133,0.041692213366033105,-9.518087063151441,3.0,0.6431346431346432,1554.8843631342768,-0.4330749956296249,-1.8341588485519484,-11.320319328710447,1231.5018315018315,1179.62646484375,50.86355875200497,0.6432296932186421,
2023-08-11 18:54:11.556000,-0.5421686746987953,-1.4819277108433735,-9.867469879518072,-1.419987737584304,0.07602697731453095,-9.496014714898834,3.0,0.6431346431346432,1554.8843631342768,-0.0055940795990905645,-1.6967542683992767,-11.747800244740981,1233.6996336996335,-1.0,50.86355875200497,0.6432297051576609,
2023-08-11 18:54:11.563000,-0.5421686746987953,-1.4819277108433735,-9.867469879518072,-1.5033721643163702,-0.03494788473329246,-9.498467198038012,3.0,0.6431346431346432,1554.8843631342768,-0.3262047666219913,-2.0173649554221775,-11.732533069168463,1235.8974358974358,-1.0,50.86355875200497,0.6432296703825339,
2023-08-11 18:54:11.571000,-0.5421686746987953,-1.4819277108433735,-9.867469879518072,-1.461679950950337,0.014714898835070508,-9.481299816063764,3.0,0.6431346431346432,1554.8843631342768,-0.5704795757822967,-1.742555795116834,-11.808868947031058,1238.095238095238,-1.0,50.86355875200497,0.6432295884631144,
2023-08-11 18:54:11.579000,-0.5301204819277109,-1.4819277108433735,-9.891566265060241,-1.4420600858369097,0.019619865113427344,-9.572041692213366,3.0,0.6431346431346432,1554.8843631342768,-0.4025406444845867,-1.7578229706893531,-11.915739176038691,1238.8278388278388,-1.0,50.86355875200497,0.6432294590671502,
2023-08-11 18:54:11.586000,-0.5421686746987953,-1.493975903614458,-9.867469879518072,-1.4935622317596566,-6.131207847946045E-4,-9.52053954629062,3.0,0.6431346431346432,1554.8843631342768,-0.20406736204183865,-1.6814870928267578,-12.053143756191364,1233.6996336996335,-1.0,50.86355875200497,0.6432292819706589,
2023-08-11 18:54:11.594000,-0.5421686746987953,-1.4819277108433735,-9.879518072289157,-1.4935622317596566,-0.012875536480686695,-9.547516860821581,3.0,0.6431346431346432,1554.8843631342768,-0.3262047666219913,-1.4066779325214143,-12.28215138977915,1229.3040293040292,-1.0,50.86355875200497,0.6432290571857703,
2023-08-11 18:54:11.602000,-0.5421686746987953,-1.4819277108433735,-9.867469879518072,-1.5156345800122624,0.06376456161863887,-9.525444512568976,3.0,0.6431346431346432,1554.8843631342768,-0.17353301089680048,-1.4830138103840096,-12.572227725657012,1223.4432234432234,-1.0,50.86355875200497,0.6432287848115605,
2023-08-11 18:54:11.609000,-0.5060240963855422,-1.4819277108433735,-9.819277108433736,-1.513182096873084,0.0539546290619252,-9.554874310239116,3.0,0.6426906426906427,1555.958549222798,-0.265136064331915,-1.6204183905366814,-12.572227725657012,1214.6520146520145,-1.0,50.86355875200497,0.6432284648951139,
2023-08-11 18:54:11.617000,-0.4819277108433735,-1.493975903614458,-9.867469879518072,-1.4028203556100551,-0.010423053341508276,-9.532801961986511,3.0,0.6426906426906427,1555.958549222798,-0.49414369791970125,-2.0326321309946964,-12.373754443214263,1208.7912087912086,-1.0,50.86355875200497,0.6432280975796267,
2023-08-11 18:54:11.625000,-0.5180722891566265,-1.4819277108433735,-9.831325301204819,-1.4788473329245861,-0.01778050275904353,-9.451870018393622,3.0,0.6431346431346432,1554.8843631342768,-0.21933453761435773,-2.246372589009964,-13.030242992832585,1202.197802197802,-1.0,50.86355875200497,0.6432276830502285,
2023-08-11 18:54:11.632000,-0.5180722891566265,-1.4819277108433735,-9.819277108433736,-1.4763948497854076,-0.025137952176578784,-9.56713672593501,3.0,0.6431346431346432,1554.8843631342768,-0.6010139269273348,-2.2005710622924064,-12.78596818367228,1199.2673992673992,-1.0,50.86355875200497,0.6432272215425517,
2023-08-11 18:54:11.640000,-0.49397590361445787,-1.493975903614458,-9.891566265060241,-1.4935622317596566,0.009809932556713672,-9.547516860821581,3.0,0.6431346431346432,1554.8843631342768,-0.7994872093700829,-2.0173649554221775,-12.95390711496999,1197.8021978021977,-1.0,50.86355875200497,0.6432267135106599,
2023-08-11 18:54:11.648000,-0.4819277108433735,-1.5060240963855422,-9.867469879518072,-1.449417535254445,0.08583690987124463,-9.58185162477008,3.0,0.6431346431346432,1554.8843631342768,-0.38727346891206765,-1.6051512149641622,-12.755433832527242,1197.069597069597,-1.0,50.86355875200497,0.64322615948629,
2023-08-11 18:54:11.655000,-0.49397590361445787,-1.5060240963855422,-9.903614457831326,-1.5082771305947271,0.04414469650521152,-9.557326793378294,3.0,0.6431346431346432,1554.8843631342768,-0.814754384942602,-1.8341588485519484,-13.060777343977623,1196.3369963369962,-1.0,50.86355875200497,0.6432255600765877,
2023-08-11 18:54:11.663000,-0.5060240963855422,-1.4819277108433735,-9.879518072289157,-1.466584917228694,0.002452483139178418,-9.606376456161863,3.0,0.6431346431346432,1554.8843631342768,-0.4636093467746631,-1.6356855661092005,-13.121846046267699,1197.069597069597,-1.0,50.86355875200497,0.6432249158228581,
2023-08-11 18:54:11.671000,-0.49397590361445787,-1.4819277108433735,-9.867469879518072,-1.461679950950337,-0.032495401594114036,-9.601471489883506,3.0,0.6431346431346432,1554.8843631342768,-0.5552124002097776,-1.544082512674086,-12.740166656954722,1198.5347985347985,-1.0,50.86355875200497,0.6432242273569646,
2023-08-11 18:54:11.678000,-0.5180722891566265,-1.457831325301205,-9.891566265060241,-1.4567749846719804,0.0269773145309626,-9.594114040465971,3.0,0.6431346431346432,1554.8843631342768,-0.28040323990443405,-1.6814870928267578,-12.61802925237457,1199.2673992673992,-1.0,50.86355875200497,0.6432234955260163,
2023-08-11 18:54:11.686000,-0.5421686746987953,-1.457831325301205,-9.891566265060241,-1.4347026364193745,-0.012875536480686695,-9.513182096873084,3.0,0.6431346431346432,1554.8843631342768,-0.5094108734922204,-1.7578229706893531,-12.908105588252432,1197.8021978021977,-1.0,50.86355875200497,0.6432227212401491,
2023-08-11 18:54:11.694000,-0.5542168674698795,-1.4698795180722892,-9.867469879518072,-1.4396076026977314,-0.01778050275904353,-9.498467198038012,3.0,0.6431346431346432,1554.8843631342768,-0.5704795757822967,-2.108968008857292,-13.42718955771808,1200.7326007326008,-1.0,50.86355875200497,0.6432219054694349,
2023-08-11 18:54:11.701000,-0.5662650602409639,-1.457831325301205,-9.855421686746988,-1.385652973635806,-0.025137952176578784,-9.525444512568976,3.0,0.6431346431346432,1554.8843631342768,-0.38727346891206765,-2.429578695880193,-13.915739176038691,1207.3260073260074,-1.0,50.86355875200497,0.6432210492406357,
2023-08-11 18:54:11.709000,-0.5421686746987953,-1.4819277108433735,-9.843373493975903,-1.419987737584304,0.03678724708767627,-9.537706928264868,3.0,0.6431346431346432,1554.8843631342768,-0.6010139269273348,-2.689120680613017,-14.327952916496708,1218.3150183150183,-1.0,50.86355875200497,0.6432201536338235,
2023-08-11 18:54:11.717000,-0.5421686746987953,-1.4698795180722892,-9.843373493975903,-1.4543225015328018,0.03678724708767627,-9.547516860821581,3.0,0.6431346431346432,1554.8843631342768,-0.28040323990443405,-2.689120680613017,-14.26688421420663,1234.4322344322343,-1.0,50.86355875200497,0.6432192197788831,
2023-08-11 18:54:11.724000,-0.5301204819277109,-1.457831325301205,-9.855421686746988,-1.4518700183936235,0.03188228080931944,-9.569589209074188,3.0,0.6431346431346432,1554.8843631342768,-0.47887652234718214,-2.7196550317580552,-14.343220092069226,1257.142857142857,-1.0,50.86355875200497,0.6432182487131617,
2023-08-11 18:54:11.732000,-0.5060240963855422,-1.4698795180722892,-9.891566265060241,-1.461679950950337,0.03678724708767627,-9.537706928264868,3.0,0.6431346431346432,1554.8843631342768,-0.4330749956296249,-2.460113047025231,-14.389021618786783,1288.6446886446886,-1.0,50.86355875200497,0.6432172415369244,
2023-08-11 18:54:11.740000,-0.49397590361445787,-1.4819277108433735,-9.891566265060241,-1.4862047823421214,0.002452483139178418,-9.53525444512569,3.0,0.6431346431346432,1554.8843631342768,-0.4178078200571058,-1.8952275508420249,-14.465357496649379,1335.5311355311355,-1.0,50.86355875200497,0.643216199537226,
2023-08-11 18:54:11.747000,-0.49397590361445787,-1.4819277108433735,-9.867469879518072,-1.4788473329245861,0.02207234825260576,-9.56713672593501,3.0,0.6431346431346432,1554.8843631342768,-0.9826933162403119,-1.727288619544315,-14.083678107336402,1405.8608058608058,-1.0,50.86355875200497,0.6432151240350309,
2023-08-11 18:54:11.755000,-0.5421686746987953,-1.4819277108433735,-9.879518072289157,-1.4886572654812997,0.002452483139178418,-9.552421827099938,3.0,0.6431346431346432,1554.8843631342768,-0.8758230872326783,-1.4372122836664523,-14.25161703863411,1498.9010989010987,-1.0,50.86355875200497,0.6432140163816074,
2023-08-11 18:54:11.763000,-0.5060240963855422,-1.4698795180722892,-9.879518072289157,-1.5058246474555486,0.02207234825260576,-9.557326793378294,3.0,0.6426906426906427,1555.958549222798,-0.8452887360876401,-1.2998077035137807,-14.236349863061593,1611.7216117216117,-1.0,50.86355875200497,0.6432128779549089,
2023-08-11 18:54:11.770000,-0.5180722891566265,-1.4819277108433735,-9.855421686746988,-1.4297976701410178,0.004904966278356836,-9.527896995708154,3.0,0.6426906426906427,1555.958549222798,-0.8910902628051974,-1.3150748790862996,-14.389021618786783,1745.054945054945,-1.0,50.86355875200497,0.6432117101454186,
2023-08-11 18:54:11.778000,-0.49397590361445787,-1.493975903614458,-9.867469879518072,-1.4739423666462292,0.007357449417535254,-9.498467198038012,3.0,0.6426906426906427,1555.958549222798,-0.631548278072373,-1.5135481615290478,-14.801235359244798,1893.7728937728937,-1.0,50.86355875200497,0.6432105141715615,
2023-08-11 18:54:11.785000,-0.5060240963855422,-1.4819277108433735,-9.879518072289157,-1.461679950950337,0.06621704475781728,-9.527896995708154,3.0,0.6426906426906427,1555.958549222798,-0.9674261406677929,-1.4982809859565287,-14.892838412679913,2050.5494505494503,-1.0,50.86355875200497,0.6432092910856075,
2023-08-11 18:54:11.793000,-0.4819277108433735,-1.4819277108433735,-9.867469879518072,-1.4641324340895157,0.04414469650521152,-9.503372164316369,3.0,0.6431346431346432,1554.8843631342768,-0.9368917895227546,-2.292174115727521,-15.10657887069518,2205.8608058608056,-1.0,50.86355875200497,0.6432080419174009,
2023-08-11 18:54:11.801000,-0.46987951807228917,-1.4698795180722892,-9.843373493975903,-1.4518700183936235,0.03678724708767627,-9.576946658491723,3.0,0.6431346431346432,1554.8843631342768,-0.6773498047899302,-2.292174115727521,-15.289784977565409,2347.9853479853477,-1.0,50.86355875200497,0.6432067678179874,
2023-08-11 18:54:11.808000,-0.4819277108433735,-1.457831325301205,-9.891566265060241,-1.4224402207234825,0.04659717964438994,-9.545064377682403,3.0,0.6431346431346432,1554.8843631342768,-0.7689528582250448,-2.6127848027504217,-15.564594137870753,2473.9926739926736,-1.0,50.86355875200497,0.6432054700757401,
2023-08-11 18:54:11.816000,-0.45783132530120485,-1.4457831325301205,-9.879518072289157,-1.4641324340895157,0.08338442673206621,-9.545064377682403,3.0,0.6431346431346432,1554.8843631342768,-0.9063574383777164,-2.276906940155002,-15.259250626420371,2573.6263736263736,-1.0,50.86355875200497,0.6432041499734988,
2023-08-11 18:54:11.824000,-0.44578313253012053,-1.4819277108433735,-9.903614457831326,-1.4641324340895157,0.0809319435928878,-9.58185162477008,3.0,0.6431346431346432,1554.8843631342768,-0.9063574383777164,-2.276906940155002,-15.259250626420371,2646.8864468864467,-1.0,50.86355875200497,0.6432028087846162,
2023-08-11 18:54:11.831000,-0.46987951807228917,-1.457831325301205,-9.903614457831326,-1.4641324340895157,0.08828939301042305,-9.572041692213366,3.0,0.6431346431346432,1554.8843631342768,-0.997960491812831,-2.0631664821397346,-15.045510168405103,2690.10989010989,-1.0,50.86355875200497,0.6432014477691953,
2023-08-11 18:54:11.839000,-0.49397590361445787,-1.4698795180722892,-9.891566265060241,-1.4445125689760883,0.034334763948497854,-9.579399141630901,3.0,0.6431346431346432,1554.8843631342768,-1.028494842957869,-2.078433657712254,-14.93863993939747,2698.168498168498,-1.0,50.86355875200497,0.6432000681705237,
2023-08-11 18:54:11.847000,-0.5060240963855422,-1.457831325301205,-9.891566265060241,-1.4739423666462292,-0.02023298589822195,-9.56713672593501,3.0,0.6431346431346432,1554.8843631342768,-0.8605559116601592,-1.9715634287046202,-14.892838412679913,2675.457875457875,-1.0,50.86355875200497,0.6431986712117389,
2023-08-11 18:54:11.854000,-0.5421686746987953,-1.457831325301205,-9.867469879518072,-1.4739423666462292,-0.030042918454935622,-9.569589209074188,3.0,0.6431346431346432,1554.8843631342768,-0.9521589650952738,-1.8036244974069104,-14.847036885962355,2620.5128205128203,-1.0,50.86355875200497,0.643197257953978,
2023-08-11 18:54:11.862000,-0.5662650602409639,-1.457831325301205,-9.867469879518072,-1.4101778050275904,-0.06928264868179031,-9.522992029429798,3.0,0.6431346431346432,1554.8843631342768,-0.814754384942602,-2.0020977798496586,-14.984441466115028,2537.7289377289376,-1.0,50.86355875200497,0.6431958294526692,
2023-08-11 18:54:11.870000,-0.5542168674698795,-1.4337349397590362,-9.831325301204819,-1.4126302881667687,0.014714898835070508,-9.540159411404046,3.0,0.6431346431346432,1554.8843631342768,-1.2117009498280982,-2.4143115203076735,-15.198181924130294,2438.095238095238,-1.0,50.86355875200497,0.6431943868825746,
2023-08-11 18:54:11.877000,-0.5421686746987953,-1.4457831325301205,-9.855421686746988,-1.4347026364193745,-0.04966278356836296,-9.488657265481299,3.0,0.6431346431346432,1554.8843631342768,-0.9216246139502355,-2.108968008857292,-15.411922382145562,2322.3443223443223,-1.0,50.86355875200497,0.6431929312476548,
2023-08-11 18:54:11.885000,-0.5662650602409639,-1.4337349397590362,-9.831325301204819,-1.39546290619252,-0.015328019619865112,-9.545064377682403,3.0,0.6431346431346432,1554.8843631342768,-0.7231513315074874,-2.30744129130004,-15.839403298176094,2200.0,-1.0,50.86355875200497,0.6431914635384037,
2023-08-11 18:54:11.893000,-0.5180722891566265,-1.4337349397590362,-9.807228915662652,-1.419987737584304,-0.012875536480686695,-9.537706928264868,3.0,0.6431346431346432,1554.8843631342768,-0.6620826292174111,-2.4143115203076735,-15.564594137870753,2079.8534798534797,-1.0,50.86355875200497,0.6431899848579626,
2023-08-11 18:54:11.900000,-0.5301204819277109,-1.421686746987952,-9.831325301204819,-1.3807480073574494,-0.039852851011649294,-9.56468424279583,3.0,0.6431346431346432,1554.8843631342768,-0.7842200337975638,-2.3837771691626357,-15.93100635161121,1963.3699633699632,-1.0,50.86355875200497,0.6431884962718276,
2023-08-11 18:54:11.908000,-0.5180722891566265,-1.421686746987952,-9.879518072289157,-1.3832004904966277,0.007357449417535254,-9.505824647455547,3.0,0.6431346431346432,1554.8843631342768,-0.814754384942602,-1.8799603752695058,-16.05314375619136,1857.8754578754576,-1.0,50.86355875200497,0.6431869988071564,
2023-08-11 18:54:11.916000,-0.49397590361445787,-1.4096385542168675,-9.843373493975903,-1.3979153893316982,0.01226241569589209,-9.572041692213366,3.0,0.6426906426906427,1555.958549222798,-0.5552124002097776,-2.597517627177903,-15.763067420313499,1761.9047619047617,-1.0,50.86355875200497,0.6431854933136277,
2023-08-11 18:54:11.923000,-0.49397590361445787,-1.4096385542168675,-9.843373493975903,-1.4297976701410178,0.02452483139178418,-9.498467198038012,3.0,0.6426906426906427,1555.958549222798,-0.631548278072373,-2.7807237340481317,-15.793601771458537,1680.5860805860805,-1.0,50.86355875200497,0.6431839806119314,
2023-08-11 18:54:11.931000,-0.49397590361445787,-1.4096385542168675,-9.855421686746988,-1.4420600858369097,0.04414469650521152,-9.530349478847333,3.0,0.6431346431346432,1554.8843631342768,-0.7536856826525257,-2.2158382378649257,-15.763067420313499,1613.186813186813,-1.0,50.86355875200497,0.6431824614405767,
2023-08-11 18:54:11.939000,-0.46987951807228917,-1.421686746987952,-9.867469879518072,-1.4003678724708768,0.05885959534028203,-9.56713672593501,3.0,0.6431346431346432,1554.8843631342768,-0.7994872093700829,-1.8036244974069104,-15.42718955771808,1560.4395604395604,-1.0,50.86355875200497,0.6431809364660181,
2023-08-11 18:54:11.946000,-0.4819277108433735,-1.3975903614457832,-9.91566265060241,-1.3684855916615573,0.041692213366033105,-9.505824647455547,3.0,0.6431346431346432,1554.8843631342768,-0.5094108734922204,-1.6662199172542387,-15.335586504282967,1518.6813186813185,-1.0,50.86355875200497,0.6431794064527138,
2023-08-11 18:54:11.954000,-0.46987951807228917,-1.4096385542168675,-9.879518072289157,-1.4543225015328018,0.13979153893316984,-9.52053954629062,3.0,0.6426906426906427,1555.958549222798,-0.6620826292174111,-1.8646931996969867,-15.45772390886312,1485.7142857142856,-1.0,50.86355875200497,0.6431778721250264,
2023-08-11 18:54:11.962000,-0.45783132530120485,-1.4096385542168675,-9.891566265060241,-1.4347026364193745,0.07847946045370938,-9.557326793378294,3.0,0.6431346431346432,1554.8843631342768,-0.6620826292174111,-1.5135481615290478,-15.213449099702814,1463.003663003663,-1.0,50.86355875200497,0.6431763338801101,
2023-08-11 18:54:11.969000,-0.46987951807228917,-1.421686746987952,-9.879518072289157,-1.366033108522379,0.09074187614960147,-9.52053954629062,3.0,0.6431346431346432,1554.8843631342768,-0.4178078200571058,-2.108968008857292,-15.320319328710447,1446.8864468864467,-1.0,50.86355875200497,0.6431747920756349,
2023-08-11 18:54:11.977000,-0.46987951807228917,-1.421686746987952,-9.891566265060241,-1.3807480073574494,0.04414469650521152,-9.586756591048436,3.0,0.6426906426906427,1555.958549222798,-0.47887652234718214,-1.8494260241244675,-15.61039566458831,1435.164835164835,-1.0,50.86355875200497,0.6431732473177677,
2023-08-11 18:54:11.985000,-0.5060240963855422,-1.421686746987952,-9.891566265060241,-1.4862047823421214,0.04414469650521152,-9.579399141630901,3.0,0.6426906426906427,1555.958549222798,-0.631548278072373,-2.261639764582483,-15.518792611153195,1428.5714285714284,-1.0,50.86355875200497,0.6431717000255093,
2023-08-11 18:54:11.992000,-0.49397590361445787,-1.4337349397590362,-9.879518072289157,-1.4322501532801961,0.0269773145309626,-9.522992029429798,3.0,0.6431346431346432,1554.8843631342768,-1.0437620185303882,-2.4906473981702693,-15.74780024474098,1421.245421245421,-1.0,50.86355875200497,0.6431701504107163,
2023-08-11 18:54:12,-0.49397590361445787,-1.4457831325301205,-9.867469879518072,-1.4420600858369097,0.05150214592274678,-9.54996934396076,3.0,0.6426906426906427,1555.958549222798,-0.4636093467746631,-2.429578695880193,-15.808868947031057,1412.4542124542124,-1.0,50.86355875200497,0.643168598627823,
2023-08-11 18:54:12.008000,-0.46987951807228917,-1.421686746987952,-9.855421686746988,-1.437155119558553,0.009809932556713672,-9.574494175352545,3.0,0.6431346431346432,1554.8843631342768,-0.6010139269273348,-2.8265252607656888,-15.93100635161121,1404.3956043956043,-1.0,50.86355875200497,0.6431670446672354,
2023-08-11 18:54:12.015000,-0.49397590361445787,-1.4337349397590362,-9.879518072289157,-1.3758430410790925,0.017167381974248927,-9.56468424279583,3.0,0.6431346431346432,1554.8843631342768,-0.37200629333954854,-2.5822504516053835,-16.05314375619136,1397.069597069597,-1.0,50.86355875200497,0.643165488494119,
2023-08-11 18:54:12.023000,-0.49397590361445787,-1.4457831325301205,-9.867469879518072,-1.390557939914163,0.04659717964438994,-9.503372164316369,3.0,0.6431346431346432,1554.8843631342768,-0.448342171202144,-2.6127848027504217,-15.671464366878384,1387.5457875457876,-1.0,50.86355875200497,0.6431639303472854,
2023-08-11 18:54:12.031000,-0.5060240963855422,-1.4337349397590362,-9.867469879518072,-1.3832004904966277,-0.010423053341508276,-9.569589209074188,3.0,0.6431346431346432,1554.8843631342768,-0.7078841559349685,-2.765456558475613,-15.885204824893652,1378.021978021978,-1.0,50.86355875200497,0.643162370581437,
2023-08-11 18:54:12.038000,-0.5301204819277109,-1.4457831325301205,-9.879518072289157,-1.449417535254445,0.02452483139178418,-9.476394849785407,3.0,0.6431346431346432,1554.8843631342768,-0.9674261406677929,-2.2311054134374446,-15.976807878328765,1365.5677655677655,-1.0,50.86355875200497,0.6431608095209004,
2023-08-11 18:54:12.046000,-0.5301204819277109,-1.4457831325301205,-9.879518072289157,-1.4396076026977314,0.03678724708767627,-9.53525444512569,3.0,0.6431346431346432,1554.8843631342768,-0.6162811024998539,-2.3685099935901164,-15.732533069168461,1357.5091575091574,-1.0,50.86355875200497,0.6431592474627915,
2023-08-11 18:54:12.054000,-0.5301204819277109,-1.421686746987952,-9.867469879518072,-1.4175352544451256,-0.0030656039239730223,-9.515634580012263,3.0,0.6426906426906427,1555.958549222798,-0.5552124002097776,-2.1395023600023304,-15.992075053901285,1352.3809523809523,-1.0,50.86355875200497,0.6431576846802854,
2023-08-11 18:54:12.061000,-0.5542168674698795,-1.3975903614457832,-9.891566265060241,-1.4347026364193745,0.029429797670141016,-9.606376456161863,3.0,0.6431346431346432,1554.8843631342768,-0.49414369791970125,-2.337975642445078,-15.59512848901579,1349.4505494505493,-1.0,50.86355875200497,0.6431561211379414,
2023-08-11 18:54:12.069000,-0.5180722891566265,-1.385542168674699,-9.867469879518072,-1.4101778050275904,-0.010423053341508276,-9.54996934396076,3.0,0.6426906426906427,1555.958549222798,-0.5399452246372585,-2.7196550317580552,-15.518792611153195,1347.2527472527472,-1.0,50.86355875200497,0.6431545567816824,
2023-08-11 18:54:12.077000,-0.5421686746987953,-1.3975903614457832,-9.879518072289157,-1.3586756591048437,0.0269773145309626,-9.542611894543224,3.0,0.6426906426906427,1555.958549222798,-0.6926169803624493,-2.4143115203076735,-16.175281160771515,1349.4505494505493,-1.0,50.86355875200497,0.6431529918182796,
2023-08-11 18:54:12.084000,-0.5060240963855422,-1.4096385542168675,-9.867469879518072,-1.3218884120171672,0.06131207847946045,-9.532801961986511,3.0,0.6426906426906427,1555.958549222798,-0.5704795757822967,-2.887593963055765,-15.839403298176094,1356.0439560439559,-1.0,50.86355875200497,0.6431514262498215,
2023-08-11 18:54:12.092000,-0.5060240963855422,-1.4096385542168675,-9.891566265060241,-1.4396076026977314,0.08828939301042305,-9.540159411404046,3.0,0.6431346431346432,1554.8843631342768,-0.38727346891206765,-2.3837771691626357,-15.74780024474098,1367.7655677655678,-1.0,50.86355875200497,0.6431498598866872,
2023-08-11 18:54:12.100000,-0.46987951807228917,-1.421686746987952,-9.903614457831326,-1.3930104230533413,0.017167381974248927,-9.559779276517473,3.0,0.6431346431346432,1554.8843631342768,-0.38727346891206765,-2.3837771691626357,-15.74780024474098,1384.6153846153845,-1.0,50.86355875200497,0.6431482926475771,
2023-08-11 18:54:12.107000,-0.45783132530120485,-1.4096385542168675,-9.903614457831326,-1.4101778050275904,0.06621704475781728,-9.547516860821581,3.0,0.6431346431346432,1554.8843631342768,-0.4636093467746631,-2.429578695880193,-15.640930015733346,1400.7326007326005,-1.0,50.86355875200497,0.6431467245826235,
2023-08-11 18:54:12.115000,-0.44578313253012053,-1.421686746987952,-9.879518072289157,-1.437155119558553,0.06621704475781728,-9.56713672593501,3.0,0.6431346431346432,1554.8843631342768,-0.6620826292174111,-2.0020977798496586,-15.518792611153195,1413.9194139194137,-1.0,50.86355875200497,0.643145155737349,
2023-08-11 18:54:12.123000,-0.44578313253012053,-1.421686746987952,-9.879518072289157,-1.3684855916615573,0.04904966278356836,-9.483752299202942,3.0,0.6431346431346432,1554.8843631342768,-0.5704795757822967,-2.261639764582483,-15.4424567332906,1426.3736263736262,-1.0,50.86355875200497,0.643143586155329,
2023-08-11 18:54:12.130000,-0.45783132530120485,-1.421686746987952,-9.855421686746988,-1.3930104230533413,0.03678724708767627,-9.545064377682403,3.0,0.6426906426906427,1555.958549222798,-0.6620826292174111,-2.261639764582483,-15.259250626420371,1434.4322344322343,-1.0,50.86355875200497,0.6431420158808197,
2023-08-11 18:54:12.138000,-0.46987951807228917,-1.4337349397590362,-9.867469879518072,-1.3513182096873084,0.019619865113427344,-9.594114040465971,3.0,0.6431346431346432,1554.8843631342768,-0.5552124002097776,-2.246372589009964,-15.27451780199289,1438.8278388278388,-1.0,50.86355875200497,0.6431404448120207,
2023-08-11 18:54:12.146000,-0.4819277108433735,-1.4337349397590362,-9.891566265060241,-1.3586756591048437,0.03678724708767627,-9.547516860821581,3.0,0.6431346431346432,1554.8843631342768,-0.7231513315074874,-2.3990443447351546,-15.564594137870753,1437.3626373626373,-1.0,50.86355875200497,0.6431388728309901,
