Shimmer_F5D4_Timestamp_FormattedUnix_CAL,Shimmer_F5D4_Accel_LN_X_CAL,Shimmer_F5D4_Accel_LN_Y_CAL,Shimmer_F5D4_Accel_LN_Z_CAL,Shimmer_F5D4_Accel_WR_X_CAL,Shimmer_F5D4_Accel_WR_Y_CAL,Shimmer_F5D4_Accel_WR_Z_CAL,Shimmer_F5D4_GSR_Range_CAL,Shimmer_F5D4_GSR_Skin_Conductance_CAL,Shimmer_F5D4_GSR_Skin_Resistance_CAL,Shimmer_F5D4_Gyro_X_CAL,Shimmer_F5D4_Gyro_Y_CAL,Shimmer_F5D4_Gyro_Z_CAL,Shimmer_F5D4_PPG_A13_CAL,Shimmer_F5D4_PPG_IBI_CAL,Shimmer_F5D4_PPGtoHR_CAL,Shimmer_F5D4_GSR_Skin_Conductance_LPF_CAL,
yyyy/mm/dd hh:mm:ss.000,m/(s^2),m/(s^2),m/(s^2),m/(s^2),m/(s^2),m/(s^2),no_units,uS,kOhms,deg/s,deg/s,deg/s,mV,ms,BPM,uS,
2023-08-15 12:15:40.602000,0.9156626506024097,0.674698795180723,-9.927710843373495,0.8044144696505211,1.5150214592274678,-9.625996321275291,3.0,0.7159507159507159,1396.7441860465117,-1.2632130994697286,-0.4039391643843602,7.772507429636966,834.4322344322344,-1.0,79.92844946743638,0.7135149979610078,
2023-08-15 12:15:40.610000,0.9036144578313253,0.674698795180723,-9.951807228915664,0.7847946045370937,1.4537093807480073,-9.648068669527897,3.0,0.7155067155067156,1397.6109215017063,-1.4769535574849957,-0.7703513781248182,7.635102849484294,827.106227106227,-1.0,79.92844946743638,0.7135463391273328,
2023-08-15 12:15:40.617000,0.9156626506024097,0.710843373493976,-9.93975903614458,0.8338442673206621,1.4782342121397916,-9.603923973022685,3.0,0.7155067155067156,1397.6109215017063,-1.3700833284773621,-0.8924887827049709,7.787774605209485,830.03663003663,-1.0,79.92844946743638,0.7135775169611291,
2023-08-15 12:15:40.625000,0.9156626506024097,0.6987951807228916,-9.927710843373495,0.8166768853464133,1.5174739423666461,-9.625996321275291,3.0,0.7155067155067156,1397.6109215017063,-1.2632130994697286,-1.5489773323232916,7.787774605209485,846.8864468864468,-1.0,79.92844946743638,0.7136085298776799,
2023-08-15 12:15:40.633000,0.9397590361445783,0.710843373493976,-9.927710843373495,0.7872470876762722,1.5885959534028202,-9.640711220110362,3.0,0.7155067155067156,1397.6109215017063,-1.171610046034614,-1.823786492628635,8.108385292232386,879.1208791208791,-1.0,79.92844946743638,0.7136393765267178,
2023-08-15 12:15:40.640000,0.963855421686747,0.7349397590361446,-9.927710843373495,0.8632740649908032,1.5640711220110362,-9.540159411404046,3.0,0.7155067155067156,1397.6109215017063,-1.6601596643552248,-2.2665345842316884,8.03204941436979,926.0073260073259,-1.0,79.92844946743638,0.7136700557783122,
2023-08-15 12:15:40.648000,0.9879518072289157,0.746987951807229,-9.927710843373495,0.86817903126916,1.5542611894543223,-9.61128142244022,3.0,0.7155067155067156,1397.6109215017063,-1.3090146261872857,-2.037526950643902,8.001515063224753,985.3479853479853,-1.0,79.92844946743638,0.7137005667078586,
2023-08-15 12:15:40.655000,0.9879518072289157,0.746987951807229,-9.927710843373495,0.8362967504598405,1.5248313917841814,-9.59656652360515,3.0,0.7155067155067156,1397.6109215017063,-1.2479459238972095,-1.5642445078958105,8.53586620826292,1056.4102564102564,-1.0,79.92844946743638,0.7137309085802285,
2023-08-15 12:15:40.663000,1.0240963855421688,0.7590361445783133,-9.879518072289157,0.8608215818516247,1.5395462906192519,-9.576946658491723,3.0,0.7155067155067156,1397.6109215017063,-1.6296253132101866,-0.9535574849950472,8.68853796398811,1132.6007326007325,-1.0,79.92844946743638,0.7137610808331333,
2023-08-15 12:15:40.671000,1.036144578313253,0.7590361445783133,-9.891566265060241,0.8362967504598405,1.5689760882893928,-9.586756591048436,3.0,0.7155067155067156,1397.6109215017063,-1.507487908630034,-0.3428704620942839,8.932812773148417,1211.7216117216117,-1.0,79.92844946743638,0.7137910830597562,
2023-08-15 12:15:40.678000,1.0481927710843375,0.7590361445783133,-9.891566265060241,0.8559166155732679,1.5935009196811771,-9.557326793378294,3.0,0.7159507159507159,1396.7441860465117,-1.9655031758056063,-0.03752695064390224,9.146553231163683,1290.10989010989,-1.0,79.92844946743638,0.7138209149907258,
2023-08-15 12:15:40.686000,1.0120481927710845,0.7349397590361446,-9.951807228915664,0.8755364806866952,1.5665236051502145,-9.61128142244022,3.0,0.7159507159507159,1396.7441860465117,-1.7059611910727819,-0.541343744537032,8.902278422003379,1361.904761904762,-1.0,79.92844946743638,0.7138505766247875,
2023-08-15 12:15:40.694000,1.0240963855421688,0.746987951807229,-9.963855421686748,0.851011649294911,1.652360515021459,-9.608828939301041,3.0,0.7159507159507159,1396.7441860465117,-1.73649554221782,-0.1443971796515358,8.810675368568264,1424.9084249084249,-1.0,79.92844946743638,0.713880068231538,
2023-08-15 12:15:40.701000,1.0602409638554218,0.7349397590361446,-9.891566265060241,0.7823421213979154,1.6351931330472103,-9.53525444512569,3.0,0.7159507159507159,1396.7441860465117,-2.1945108093933925,0.4052211409591512,8.658003612843073,1474.7252747252746,-1.0,79.92844946743638,0.713909390194775,
2023-08-15 12:15:40.709000,1.0963855421686748,0.7228915662650602,-9.891566265060241,0.7970570202329859,1.6891477621091353,-9.574494175352545,3.0,0.7155067155067156,1397.6109215017063,-1.507487908630034,0.34415243866907486,8.566400559407958,1511.3553113553112,-1.0,79.92844946743638,0.7139385429944204,
2023-08-15 12:15:40.717000,1.0843373493975905,0.6867469879518072,-9.879518072289157,0.7749846719803801,1.6940527283874922,-9.525444512568976,3.0,0.7150627150627151,1398.4787333126358,-1.7517627177903392,0.17621350737136493,8.505331857117882,1531.8681318681317,-1.0,79.92844946743638,0.7139675270390474,
2023-08-15 12:15:40.724000,1.108433734939759,0.6987951807228916,-9.831325301204819,0.7921520539546291,1.7357449417535253,-9.532801961986511,3.0,0.7155067155067156,1397.6109215017063,-1.5532894353475912,0.3136180875240367,8.093118116659866,1544.3223443223442,-1.0,79.92844946743638,0.713996342615251,
2023-08-15 12:15:40.732000,1.1566265060240966,0.7349397590361446,-9.855421686746988,0.8485591661557327,1.7308399754751684,-9.53525444512569,3.0,0.7159507159507159,1396.7441860465117,-1.2174115727521713,0.00827457607365501,7.619835673911775,1544.3223443223442,-1.0,79.92844946743638,0.7140249899748413,
2023-08-15 12:15:40.740000,1.1204819277108435,0.7349397590361446,-9.891566265060241,0.7896995708154506,1.652360515021459,-9.542611894543224,3.0,0.7159507159507159,1396.7441860465117,-1.0189382903094233,0.34415243866907486,7.7267059029194085,1532.6007326007325,-1.0,79.92844946743638,0.7140534694955536,
2023-08-15 12:15:40.747000,1.108433734939759,0.746987951807229,-9.91566265060241,0.8534641324340895,1.6989576946658491,-9.56713672593501,3.0,0.7159507159507159,1396.7441860465117,-1.3242818017598048,0.4968241943942657,7.329759338033913,1511.3553113553112,-1.0,79.92844946743638,0.7140817816932069,
2023-08-15 12:15:40.755000,1.108433734939759,0.7349397590361446,-9.927710843373495,0.8044144696505211,1.652360515021459,-9.569589209074188,3.0,0.7159507159507159,1396.7441860465117,-1.1258085193170568,0.4052211409591512,6.993881475438493,1479.120879120879,-1.0,79.92844946743638,0.7141099270644965,
2023-08-15 12:15:40.763000,1.108433734939759,0.746987951807229,-9.891566265060241,0.8044144696505211,1.7136725935009196,-9.621091354996933,3.0,0.7159507159507159,1396.7441860465117,-0.8204650078666751,0.45102266767670846,6.841209719713302,1436.6300366300366,-1.0,79.92844946743638,0.7141379059301868,
2023-08-15 12:15:40.770000,1.108433734939759,0.7590361445783133,-9.867469879518072,0.8706315144083384,1.6376456161863886,-9.547516860821581,3.0,0.7159507159507159,1396.7441860465117,-0.789930656721637,0.3899539653866321,6.413728803682767,1390.4761904761904,-1.0,79.92844946743638,0.7141657185766594,
2023-08-15 12:15:40.778000,1.108433734939759,0.746987951807229,-9.867469879518072,0.8436541998773758,1.6597179644389943,-9.515634580012263,3.0,0.7159507159507159,1396.7441860465117,-0.7288619544315607,0.08461045393625043,6.53586620826292,1342.8571428571427,-1.0,79.92844946743638,0.7141933653665092,
2023-08-15 12:15:40.786000,1.0963855421686748,0.7590361445783133,-9.91566265060241,0.851011649294911,1.72838749233599,-9.559779276517473,3.0,0.7159507159507159,1396.7441860465117,-0.30138103840102626,-0.3428704620942839,6.154186818949944,1296.7032967032967,-1.0,79.92844946743638,0.7142208464343205,
2023-08-15 12:15:40.793000,1.1204819277108435,0.7590361445783133,-9.903614457831326,0.8779889638258737,1.6646229307173512,-9.537706928264868,3.0,0.7159507159507159,1396.7441860465117,-0.5151214964162935,0.08461045393625043,6.261057047957577,1251.2820512820513,-1.0,79.92844946743638,0.7142481616915797,
2023-08-15 12:15:40.801000,1.0843373493975905,0.7590361445783133,-9.927710843373495,0.8583690987124463,1.640098099325567,-9.589209074187615,3.0,0.7159507159507159,1396.7441860465117,-0.8051978322941561,-0.174931530796574,6.352660101392691,1208.058608058608,-1.0,79.92844946743638,0.7142753109599927,
2023-08-15 12:15:40.809000,1.0963855421686748,0.746987951807229,-9.91566265060241,0.8117719190680563,1.657265481299816,-9.562231759656651,3.0,0.7159507159507159,1396.7441860465117,-0.7593963055765988,-0.4955422178194747,6.749606666278187,1166.3003663003662,-1.0,79.92844946743638,0.7143022939565531,
2023-08-15 12:15:40.816000,1.036144578313253,0.6987951807228916,-9.927710843373495,0.82158185162477,1.6180257510729612,-9.589209074187615,3.0,0.7155067155067156,1397.6109215017063,-0.6525260765689652,-0.006992599498864074,6.749606666278187,1129.6703296703297,-1.0,79.92844946743638,0.7143291102797262,
2023-08-15 12:15:40.824000,1.036144578313253,0.710843373493976,-9.891566265060241,0.7872470876762722,1.5419987737584304,-9.618638871857755,3.0,0.7159507159507159,1396.7441860465117,-0.8509993590117133,-0.41920633995687934,6.932812773148417,1098.168498168498,-1.0,79.92844946743638,0.7143557592475106,
2023-08-15 12:15:40.832000,0.9879518072289157,0.710843373493976,-9.891566265060241,0.8436541998773758,1.5738810545677497,-9.616186388718576,3.0,0.7159507159507159,1396.7441860465117,-0.8815337101567514,-0.4344735155293984,7.146553231163684,1071.7948717948718,-1.0,79.92844946743638,0.7143822400134204,
2023-08-15 12:15:40.839000,1.0,0.6867469879518072,-9.891566265060241,0.8730839975475169,1.5542611894543223,-9.635806253832005,3.0,0.7159507159507159,1396.7441860465117,-1.0800069925994995,-0.7092826758347419,7.116018880018645,1050.5494505494505,-1.0,79.92844946743638,0.7144085517152594,
2023-08-15 12:15:40.847000,0.9879518072289157,0.6867469879518072,-9.927710843373495,0.7725321888412017,1.5910484365419988,-9.584304107909258,3.0,0.7159507159507159,1396.7441860465117,-1.2021443971796522,-0.7092826758347419,7.146553231163684,1036.6300366300366,-1.0,79.92844946743638,0.7144346933273106,
2023-08-15 12:15:40.855000,1.0240963855421688,0.674698795180723,-9.93975903614458,0.8289393010423053,1.5689760882893928,-9.645616186388718,3.0,0.7155067155067156,1397.6109215017063,-1.0800069925994995,-0.5718780956820702,7.37556086475147,1027.106227106227,-1.0,79.92844946743638,0.7144606635138607,
2023-08-15 12:15:40.862000,1.0120481927710845,0.6867469879518072,-9.963855421686748,0.7970570202329859,1.5787860208461066,-9.569589209074188,3.0,0.7159507159507159,1396.7441860465117,-1.4006176796224004,-0.9535574849950472,7.467163918186585,1020.5128205128204,-1.0,79.92844946743638,0.7144864606326645,
2023-08-15 12:15:40.870000,0.9879518072289157,0.710843373493976,-9.891566265060241,0.7946045370938074,1.5493562231759657,-9.586756591048436,3.0,0.7150627150627151,1398.4787333126358,-0.09906182623390192,-0.19789056581784217,-0.6758347415651759,1016.8498168498168,-1.0,79.92844946743638,0.7145120828462208,
2023-08-15 12:15:40.878000,1.0,0.6987951807228916,-9.91566265060241,0.8264868179031268,1.5493562231759657,-9.559779276517473,3.0,0.7155067155067156,1397.6109215017063,0.435289318804266,0.2143231746401731,-0.27888817667967974,1016.8498168498168,-1.0,79.92844946743638,0.7145375281272819,
2023-08-15 12:15:40.885000,1.0,0.710843373493976,-9.879518072289157,0.8362967504598405,1.5076640098099325,-9.616186388718576,3.0,0.7155067155067156,1397.6109215017063,0.12994580735388434,0.015849892197425,-0.37049123011479423,1019.7802197802197,-1.0,79.92844946743638,0.7145627941918961,
2023-08-15 12:15:40.893000,0.9759036144578314,0.7228915662650602,-9.91566265060241,0.86817903126916,1.551808706315144,-9.576946658491723,3.0,0.7155067155067156,1397.6109215017063,0.14521298292640342,-0.10628751238272767,-0.0193461919468553,1025.6410256410256,-1.0,79.92844946743638,0.7145878783790861,
2023-08-15 12:15:40.901000,0.963855421686747,0.746987951807229,-9.91566265060241,0.8559166155732679,1.5199264255058245,-9.586756591048436,3.0,0.7155067155067156,1397.6109215017063,0.48109084552182324,0.015849892197425,0.11805838820581645,1031.5018315018315,-1.0,79.92844946743638,0.7146127776802234,
2023-08-15 12:15:40.908000,0.963855421686747,0.7590361445783133,-9.951807228915664,0.8534641324340895,1.598405885959534,-9.591661557326793,3.0,0.7155067155067156,1397.6109215017063,0.05360992949128891,-0.029951634520132248,0.13332556377833554,1039.5604395604396,-1.0,79.92844946743638,0.7146374888866375,
2023-08-15 12:15:40.916000,0.9879518072289157,0.746987951807229,-9.891566265060241,0.8559166155732679,1.5885959534028202,-9.554874310239116,3.0,0.7159507159507159,1396.7441860465117,0.08414428063632708,0.2753918769302494,0.13332556377833554,1047.6190476190475,-1.0,79.92844946743638,0.7146620085892877,
2023-08-15 12:15:40.924000,1.0,0.7590361445783133,-9.903614457831326,0.8362967504598405,1.6082158185162476,-9.562231759656651,3.0,0.7159507159507159,1396.7441860465117,0.03834275391876983,0.15325447235009676,0.3165316706485645,1057.142857142857,-1.0,79.92844946743638,0.7146863333290664,
2023-08-15 12:15:40.931000,1.0,0.7710843373493976,-9.91566265060241,0.838749233599019,1.5616186388718576,-9.635806253832005,3.0,0.7159507159507159,1396.7441860465117,0.252083211934037,-0.1826233902453231,0.33179884622108363,1068.131868131868,-1.0,79.92844946743638,0.7147104596209873,
2023-08-15 12:15:40.939000,0.9879518072289157,0.7590361445783133,-9.91566265060241,0.8755364806866952,1.5542611894543223,-9.576946658491723,3.0,0.7155067155067156,1397.6109215017063,0.1604801584989225,-0.06048598566517042,0.408134724083679,1079.120879120879,-1.0,79.92844946743638,0.7147343838207186,
2023-08-15 12:15:40.947000,1.0,0.746987951807229,-9.91566265060241,0.8559166155732679,1.6253832004904964,-9.545064377682403,3.0,0.7155067155067156,1397.6109215017063,0.068877105063808,0.06165141891498225,0.8966843424042897,1089.3772893772893,-1.0,79.92844946743638,0.7147581019819842,
2023-08-15 12:15:40.954000,1.0240963855421688,0.7349397590361446,-9.91566265060241,0.8362967504598405,1.551808706315144,-9.606376456161863,3.0,0.7159507159507159,1396.7441860465117,-0.09906182623390192,0.1074529456325395,0.759279762251618,1096.7032967032967,-1.0,79.92844946743638,0.7147816098427613,
2023-08-15 12:15:40.962000,1.0,0.710843373493976,-9.91566265060241,0.7823421213979154,1.5910484365419988,-9.542611894543224,3.0,0.7159507159507159,1396.7441860465117,-0.35860381096672633,-0.22842491696288034,1.2936309072897858,1101.8315018315018,-1.0,79.92844946743638,0.7148049031210085,
2023-08-15 12:15:40.970000,1.0120481927710845,0.7228915662650602,-9.891566265060241,0.7896995708154506,1.622930717351318,-9.537706928264868,3.0,0.7159507159507159,1396.7441860465117,-0.08379465066138284,-0.167356214672804,0.8966843424042897,1106.227106227106,-1.0,79.92844946743638,0.7148279775452877,
2023-08-15 12:15:40.977000,1.0,0.7349397590361446,-9.879518072289157,0.8044144696505211,1.6155732679337829,-9.61128142244022,3.0,0.7159507159507159,1396.7441860465117,-0.06852747508886375,-0.09102033681020859,1.2478293805722287,1111.3553113553112,-1.0,79.92844946743638,0.7148508287274293,
2023-08-15 12:15:40.985000,1.0120481927710845,0.7228915662650602,-9.891566265060241,0.8485591661557327,1.5910484365419988,-9.603923973022685,3.0,0.7159507159507159,1396.7441860465117,-0.20593205524153552,0.04638424334246317,1.0340889225569614,1115.7509157509157,-1.0,79.92844946743638,0.7148734520363021,
2023-08-15 12:15:40.993000,1.0481927710843375,0.6987951807228916,-9.927710843373495,0.8019619865113427,1.6597179644389943,-9.608828939301041,3.0,0.7155067155067156,1397.6109215017063,-0.20593205524153552,-0.4421653749781475,0.7898141133966561,1123.076923076923,-1.0,79.92844946743638,0.7148958426317372,
2023-08-15 12:15:41,1.0602409638554218,0.710843373493976,-9.951807228915664,0.7700797057020232,1.7234825260576332,-9.594114040465971,3.0,0.7155067155067156,1397.6109215017063,-0.08379465066138284,-0.47269972612318567,0.6371423576714653,1131.8681318681317,-1.0,79.92844946743638,0.714917995616445,
2023-08-15 12:15:41.008000,1.0843373493975905,0.6867469879518072,-9.927710843373495,0.7774371551195585,1.6768853464132434,-9.574494175352545,3.0,0.7155067155067156,1397.6109215017063,0.09941145620884616,-0.6253714818483765,0.46920342637375534,1147.985347985348,-1.0,79.92844946743638,0.7149399058692181,
2023-08-15 12:15:41.015000,1.0963855421686748,0.710843373493976,-9.927710843373495,0.7774371551195585,1.6670754138565296,-9.633353770692827,3.0,0.7163947163947164,1395.87852494577,-0.09906182623390192,-0.884913466581201,0.4234018996561981,1174.3589743589744,-1.0,79.92844946743638,0.7149615680695296,
2023-08-15 12:15:41.023000,1.1204819277108435,0.7349397590361446,-9.903614457831326,0.8706315144083384,1.6670754138565296,-9.569589209074188,3.0,0.7155067155067156,1397.6109215017063,0.3284190897966324,-0.7780432375735673,0.5150049530913127,1218.3150183150183,-1.0,79.92844946743638,0.7149829771593309,
2023-08-15 12:15:41.031000,1.0963855421686748,0.746987951807229,-9.91566265060241,0.7896995708154506,1.662170447578173,-9.56468424279583,3.0,0.7150627150627151,1398.4787333126358,0.5116251966668615,-0.5643027795583002,0.28599731950352636,1283.5164835164835,-1.0,79.92844946743638,0.7150041282414342,
2023-08-15 12:15:41.038000,1.072289156626506,0.7349397590361446,-9.903614457831326,0.8362967504598405,1.6646229307173512,-9.621091354996933,3.0,0.7155067155067156,1397.6109215017063,0.252083211934037,-0.7627760620010483,0.8356156401142134,1375.8241758241757,-1.0,79.92844946743638,0.7150250161068941,
2023-08-15 12:15:41.046000,1.0481927710843375,0.7349397590361446,-9.891566265060241,0.8853464132434089,1.5910484365419988,-9.530349478847333,3.0,0.7155067155067156,1397.6109215017063,0.6032282501019759,-0.5185012528407429,0.48447060194627445,1498.168498168498,-1.0,79.92844946743638,0.7150456353688285,
2023-08-15 12:15:41.054000,1.0240963855421688,0.746987951807229,-9.879518072289157,0.8583690987124463,1.6155732679337829,-9.603923973022685,3.0,0.7159507159507159,1396.7441860465117,0.38948779208670875,-0.45743255055066656,0.08752403706077828,1652.0146520146518,-1.0,79.92844946743638,0.715065980658733,
2023-08-15 12:15:41.061000,1.036144578313253,0.7590361445783133,-9.879518072289157,0.9147762109135499,1.622930717351318,-9.589209074187615,3.0,0.7159507159507159,1396.7441860465117,0.5116251966668615,0.12272012120505858,-0.12621642095448887,1830.7692307692307,-1.0,79.92844946743638,0.7150860468017588,
2023-08-15 12:15:41.069000,1.0481927710843375,0.746987951807229,-9.903614457831326,0.8976088289393009,1.546903740036787,-9.542611894543224,3.0,0.7159507159507159,1396.7441860465117,0.252083211934037,-0.13682186352776582,-0.4926286346949469,2024.1758241758241,-1.0,79.92844946743638,0.7151058287153191,
2023-08-15 12:15:41.077000,1.0481927710843375,0.783132530120482,-9.927710843373495,0.8461066830165542,1.6131207847946045,-9.599019006744328,3.0,0.7155067155067156,1397.6109215017063,-0.16013052852397824,-0.24369209253539942,-0.7216362682827331,2221.2454212454213,-1.0,79.92844946743638,0.715125321307831,
2023-08-15 12:15:41.084000,1.036144578313253,0.783132530120482,-9.91566265060241,0.8951563458001226,1.6450030656039238,-9.665236051502145,3.0,0.7155067155067156,1397.6109215017063,0.252083211934037,-0.22842491696288034,-0.5231629858399851,2413.9194139194137,-1.0,79.92844946743638,0.7151445194945508,
2023-08-15 12:15:41.092000,1.0481927710843375,0.783132530120482,-9.91566265060241,0.8583690987124463,1.6253832004904964,-9.635806253832005,3.0,0.7159507159507159,1396.7441860465117,0.05360992949128891,0.015849892197425,-0.6758347415651759,2591.208791208791,-1.0,79.92844946743638,0.7151634181916684,
2023-08-15 12:15:41.100000,1.0240963855421688,0.783132530120482,-9.879518072289157,0.8853464132434089,1.6450030656039238,-9.591661557326793,3.0,0.7159507159507159,1396.7441860465117,0.22154886078899882,-0.167356214672804,-0.5536973369850232,2739.9267399267396,-1.0,79.92844946743638,0.7151820127574007,
2023-08-15 12:15:41.107000,1.0240963855421688,0.7951807228915663,-9.879518072289157,0.9147762109135499,1.576333537706928,-9.545064377682403,3.0,0.7159507159507159,1396.7441860465117,0.12994580735388434,0.382262105937883,-0.3857584056873133,2805.128205128205,-1.0,79.92844946743638,0.7152002988687874,
2023-08-15 12:15:41.115000,1.0240963855421688,0.7590361445783133,-9.867469879518072,0.8730839975475169,1.6425505824647455,-9.547516860821581,3.0,0.7159507159507159,1396.7441860465117,0.3284190897966324,0.7028727929607838,-0.6147660392750995,2805.128205128205,-1.0,79.92844946743638,0.7152182722707,
2023-08-15 12:15:41.123000,1.036144578313253,0.7590361445783133,-9.867469879518072,0.86817903126916,1.546903740036787,-9.53525444512569,3.0,0.7159507159507159,1396.7441860465117,0.38948779208670875,0.4891323349455166,-0.8132393217178476,2805.128205128205,-1.0,79.92844946743638,0.7152359289400564,
2023-08-15 12:15:41.130000,1.0,0.7710843373493976,-9.879518072289157,0.8240343347639485,1.5444512568976088,-9.635806253832005,3.0,0.7159507159507159,1396.7441860465117,0.49635802109434235,0.33646057922032574,-0.5842316881300614,2805.128205128205,-1.0,79.92844946743638,0.7152532651003817,
2023-08-15 12:15:41.138000,0.9759036144578314,0.746987951807229,-9.867469879518072,0.8019619865113427,1.5787860208461066,-9.522992029429798,3.0,0.7159507159507159,1396.7441860465117,0.6337626012470141,0.8555445486859746,-0.6147660392750995,2805.128205128205,-1.0,79.92844946743638,0.7152702772359207,
2023-08-15 12:15:41.146000,0.9879518072289157,0.7228915662650602,-9.843373493975903,0.7995095033721643,1.546903740036787,-9.527896995708154,3.0,0.7159507159507159,1396.7441860465117,0.6032282501019759,1.0387506555562036,-0.15675077209952706,2786.813186813187,-1.0,79.92844946743638,0.7152869621052086,
2023-08-15 12:15:41.153000,0.9518072289156627,0.7349397590361446,-9.879518072289157,0.8264868179031268,1.581238503985285,-9.537706928264868,3.0,0.7159507159507159,1396.7441860465117,0.6032282501019759,1.0387506555562036,-0.15675077209952706,2698.168498168498,-1.0,79.92844946743638,0.7153033167540113,
2023-08-15 12:15:41.161000,0.9759036144578314,0.710843373493976,-9.879518072289157,0.8338442673206621,1.5346413243408952,-9.554874310239116,3.0,0.7159507159507159,1396.7441860465117,0.9085717615523576,0.4127964570829212,-0.7979721461453285,2565.5677655677655,-1.0,79.92844946743638,0.7153193385275552,
2023-08-15 12:15:41.169000,0.9759036144578314,0.7228915662650602,-9.879518072289157,0.7798896382587369,1.598405885959534,-9.586756591048436,3.0,0.7159507159507159,1396.7441860465117,0.5879610745294568,0.07691859448750134,-0.09568206980945072,2408.058608058608,-1.0,79.92844946743638,0.7153350249432123,
2023-08-15 12:15:41.176000,1.0,0.6987951807228916,-9.903614457831326,0.7970570202329859,1.5640711220110362,-9.599019006744328,3.0,0.7155067155067156,1397.6109215017063,0.7559000058271668,-0.06048598566517042,-0.4620942835499087,2231.5018315018315,-1.0,79.92844946743638,0.7153503737214373,
2023-08-15 12:15:41.184000,1.0240963855421688,0.710843373493976,-9.867469879518072,0.8755364806866952,1.6351931330472103,-9.574494175352545,3.0,0.7155067155067156,1397.6109215017063,0.8933045859798385,-0.06048598566517042,-0.32468970339723696,2051.2820512820513,-1.0,79.92844946743638,0.7153653829328387,
2023-08-15 12:15:41.192000,1.0120481927710845,0.6987951807228916,-9.867469879518072,0.8583690987124463,1.6351931330472103,-9.586756591048436,3.0,0.7159507159507159,1396.7441860465117,1.1070450439951056,0.1074529456325395,-0.26362100110716064,1871.7948717948716,-1.0,79.92844946743638,0.7153800509634217,
2023-08-15 12:15:41.199000,1.0240963855421688,0.710843373493976,-9.867469879518072,0.8877988963825874,1.6376456161863886,-9.557326793378294,3.0,0.7155067155067156,1397.6109215017063,1.1375793951401438,-0.04521881009265133,-0.27888817667967974,1697.4358974358972,-1.0,79.92844946743638,0.7153943765208333,
2023-08-15 12:15:41.207000,1.0602409638554218,0.710843373493976,-9.891566265060241,0.8142244022072348,1.640098099325567,-9.623543838136113,3.0,0.7159507159507159,1396.7441860465117,1.2902511508653347,0.09218577006002042,0.056989685915740114,1536.263736263736,-1.0,79.92844946743638,0.7154083585322467,
2023-08-15 12:15:41.215000,1.0481927710843375,0.7228915662650602,-9.91566265060241,0.8338442673206621,1.6253832004904964,-9.56713672593501,3.0,0.7155067155067156,1397.6109215017063,1.1070450439951056,0.015849892197425,-0.5689645125575423,1394.139194139194,-1.0,79.92844946743638,0.7154219962862803,
2023-08-15 12:15:41.222000,1.0481927710843375,0.7228915662650602,-9.951807228915664,0.8828939301042305,1.6351931330472103,-9.645616186388718,3.0,0.7155067155067156,1397.6109215017063,0.984907639414953,0.3059262280752876,-0.5842316881300614,1268.8644688644688,-1.0,79.92844946743638,0.7154352894455805,
2023-08-15 12:15:41.230000,1.036144578313253,0.7349397590361446,-9.951807228915664,0.7774371551195585,1.5959534028203555,-9.62844880441447,3.0,0.7155067155067156,1397.6109215017063,0.7100984791096095,0.4891323349455166,-0.6758347415651759,1161.1721611721612,727.691650390625,82.45250576640805,0.7154482378879022,
2023-08-15 12:15:41.238000,1.036144578313253,0.746987951807229,-9.987951807228916,0.838749233599019,1.5861434702636419,-9.679950950337217,3.0,0.7155067155067156,1397.6109215017063,0.9391061126973957,0.13798729677757768,-0.7369034438552522,1068.131868131868,-1.0,82.45250576640805,0.7154608418438071,
2023-08-15 12:15:41.245000,1.0240963855421688,0.7228915662650602,-9.963855421686748,0.8632740649908032,1.6327406499080317,-9.589209074187615,3.0,0.7155067155067156,1397.6109215017063,0.7864343569722049,0.18378882349513492,-0.6605675659926568,991.2087912087911,-1.0,82.45250576640805,0.7154731018943368,
2023-08-15 12:15:41.253000,1.0120481927710845,0.7590361445783133,-9.903614457831326,0.8608215818516247,1.6253832004904964,-9.586756591048436,3.0,0.7155067155067156,1397.6109215017063,0.8780374104073194,0.3669949303653639,-0.8437736728628858,928.2051282051282,-1.0,82.45250576640805,0.715485018828644,
2023-08-15 12:15:41.261000,1.0240963855421688,0.7349397590361446,-9.891566265060241,0.8632740649908032,1.5714285714285714,-9.54996934396076,3.0,0.7155067155067156,1397.6109215017063,0.7253656546821285,0.3211934036478067,-0.4773614591224278,879.1208791208791,-1.0,82.45250576640805,0.715496593798219,
2023-08-15 12:15:41.268000,1.0,0.7590361445783133,-9.91566265060241,0.8313917841814837,1.5885959534028202,-9.572041692213366,3.0,0.7155067155067156,1397.6109215017063,0.801701532544724,0.5502010372355929,-0.4468271079773896,843.9560439560439,-1.0,82.45250576640805,0.7155078282995668,
2023-08-15 12:15:41.276000,1.0240963855421688,0.7349397590361446,-9.91566265060241,0.838749233599019,1.6008583690987124,-9.584304107909258,3.0,0.7155067155067156,1397.6109215017063,0.6490297768195331,0.7181399685333029,-0.5536973369850232,821.978021978022,-1.0,82.45250576640805,0.7155187240380354,
2023-08-15 12:15:41.284000,0.9759036144578314,0.7228915662650602,-9.91566265060241,0.8632740649908032,1.5787860208461066,-9.621091354996933,3.0,0.7155067155067156,1397.6109215017063,0.6948313035370904,0.8402773731134555,-0.9048423751529622,812.4542124542124,-1.0,82.45250576640805,0.7155292830673076,
2023-08-15 12:15:41.291000,0.963855421686747,0.7349397590361446,-9.93975903614458,0.8362967504598405,1.546903740036787,-9.608828939301041,3.0,0.7155067155067156,1397.6109215017063,0.5421595478118996,0.8097430219684173,-0.691101917137695,821.978021978022,-1.0,82.45250576640805,0.7155395076398291,
2023-08-15 12:15:41.299000,0.963855421686747,0.746987951807229,-9.927710843373495,0.8264868179031268,1.5174739423666461,-9.62844880441447,3.0,0.7155067155067156,1397.6109215017063,-0.022725948371306502,0.44333080822795934,-0.507895810267466,841.7582417582418,-1.0,82.45250576640805,0.7155494003541266,
2023-08-15 12:15:41.307000,0.963855421686747,0.7228915662650602,-9.903614457831326,0.8583690987124463,1.5125689760882892,-9.608828939301041,3.0,0.7155067155067156,1397.6109215017063,0.29788473865159426,0.13798729677757768,-0.3857584056873133,873.992673992674,-1.0,82.45250576640805,0.7155589641309201,
2023-08-15 12:15:41.314000,0.963855421686747,0.7349397590361446,-9.903614457831326,0.8976088289393009,1.5395462906192519,-9.586756591048436,3.0,0.7155067155067156,1397.6109215017063,0.3131519142241133,0.16852164792261584,-0.18728512324456523,920.8791208791208,-1.0,82.45250576640805,0.71556820207075,
2023-08-15 12:15:41.322000,0.963855421686747,0.710843373493976,-9.903614457831326,0.8093194359288779,1.4684242795830778,-9.56468424279583,3.0,0.7155067155067156,1397.6109215017063,0.6032282501019759,0.33646057922032574,0.026455334770701947,983.1501831501831,-1.0,82.45250576640805,0.7155771175876667,
2023-08-15 12:15:41.330000,0.963855421686747,0.7228915662650602,-9.891566265060241,0.8632740649908032,1.5199264255058245,-9.552421827099938,3.0,0.7150627150627151,1398.4787333126358,0.801701532544724,0.12272012120505858,0.408134724083679,1054.9450549450548,-1.0,82.45250576640805,0.7155857142542702,
2023-08-15 12:15:41.337000,0.9518072289156627,0.7228915662650602,-9.91566265060241,0.8093194359288779,1.5346413243408952,-9.584304107909258,3.0,0.7150627150627151,1398.4787333126358,0.6032282501019759,0.09218577006002042,0.1638599149233737,1133.3333333333333,-1.0,82.45250576640805,0.7155939959335482,
2023-08-15 12:15:41.345000,0.9277108433734941,0.7228915662650602,-9.927710843373495,0.8068669527896996,1.5787860208461066,-9.59656652360515,3.0,0.7150627150627151,1398.4787333126358,0.4505564943767851,0.09218577006002042,0.6829438843890225,1212.4542124542124,-1.0,82.45250576640805,0.715601966846999,
2023-08-15 12:15:41.353000,0.9397590361445783,0.7228915662650602,-9.91566265060241,0.8412017167381973,1.5616186388718576,-9.606376456161863,3.0,0.7155067155067156,1397.6109215017063,0.29788473865159426,0.2906590525027685,0.48447060194627445,1287.9120879120878,-1.0,82.45250576640805,0.7156096312581962,
2023-08-15 12:15:41.360000,0.9759036144578314,0.6987951807228916,-9.951807228915664,0.8240343347639485,1.5321888412017166,-9.645616186388718,3.0,0.7155067155067156,1397.6109215017063,0.20628168521647974,-0.014684458947613166,0.759279762251618,1355.3113553113553,-1.0,82.45250576640805,0.7156169936238754,
2023-08-15 12:15:41.368000,0.9759036144578314,0.710843373493976,-9.927710843373495,0.8461066830165542,1.5174739423666461,-9.655426118945432,3.0,0.7150627150627151,1398.4787333126358,0.03834275391876983,0.3059262280752876,0.6066080065264271,1415.3846153846152,-1.0,82.45250576640805,0.715624058744535,
2023-08-15 12:15:41.376000,1.0,0.710843373493976,-9.927710843373495,0.8706315144083384,1.6351931330472103,-9.645616186388718,3.0,0.7155067155067156,1397.6109215017063,-0.114329001806421,0.2906590525027685,0.37760037293864085,1465.9340659340658,-1.0,82.45250576640805,0.7156308314571196,
2023-08-15 12:15:41.383000,1.036144578313253,0.746987951807229,-9.927710843373495,0.8142244022072348,1.6597179644389943,-9.606376456161863,3.0,0.7155067155067156,1397.6109215017063,0.08414428063632708,0.3669949303653639,0.408134724083679,1506.227106227106,-1.0,82.45250576640805,0.7156373167430242,
2023-08-15 12:15:41.391000,1.072289156626506,0.7349397590361446,-9.879518072289157,0.8191293684855916,1.6155732679337829,-9.606376456161863,3.0,0.7155067155067156,1397.6109215017063,0.3131519142241133,0.6265369150981883,0.1638599149233737,1533.3333333333333,-1.0,82.45250576640805,0.7156435198675601,
2023-08-15 12:15:41.398000,1.0843373493975905,0.7710843373493976,-9.891566265060241,0.851011649294911,1.6891477621091353,-9.54996934396076,3.0,0.7155067155067156,1397.6109215017063,0.3131519142241133,0.8708117242584936,0.37760037293864085,1546.5201465201465,-1.0,82.45250576640805,0.7156494462215613,
2023-08-15 12:15:41.406000,1.108433734939759,0.7590361445783133,-9.867469879518072,0.86817903126916,1.6793378295524217,-9.525444512568976,3.0,0.7155067155067156,1397.6109215017063,0.3589534409416706,1.466231571586738,0.24019579278596911,1547.2527472527472,-1.0,82.45250576640805,0.7156551013018385,
2023-08-15 12:15:41.414000,1.0843373493975905,0.783132530120482,-9.831325301204819,0.8313917841814837,1.6817903126916,-9.56468424279583,3.0,0.7155067155067156,1397.6109215017063,0.6490297768195331,1.3135598158615471,0.33179884622108363,1533.3333333333333,-1.0,82.45250576640805,0.7156604906918029,
2023-08-15 12:15:41.421000,1.108433734939759,0.783132530120482,-9.831325301204819,0.8583690987124463,1.6670754138565296,-9.569589209074188,3.0,0.7155067155067156,1397.6109215017063,0.5574267233844187,1.3135598158615471,0.011188159198182864,1509.89010989011,-1.0,82.45250576640805,0.7156656200423331,
2023-08-15 12:15:41.429000,1.0843373493975905,0.783132530120482,-9.855421686746988,0.9172286940527283,1.6327406499080317,-9.510729613733906,3.0,0.7155067155067156,1397.6109215017063,0.5574267233844187,1.3135598158615471,0.011188159198182864,1476.1904761904761,-1.0,82.45250576640805,0.7156704950529666,
2023-08-15 12:15:41.437000,1.108433734939759,0.7710843373493976,-9.867469879518072,0.9074187614960146,1.7087676272225627,-9.522992029429798,3.0,0.7155067155067156,1397.6109215017063,0.6032282501019759,0.93188042654857,-0.4468271079773896,1434.4322344322343,-1.0,82.45250576640805,0.7156751214534744,
2023-08-15 12:15:41.444000,1.108433734939759,0.7710843373493976,-9.855421686746988,0.9025137952176578,1.6499080318822807,-9.574494175352545,3.0,0.7155067155067156,1397.6109215017063,0.7253656546821285,0.8402773731134555,-0.4926286346949469,1383.8827838827838,-1.0,82.45250576640805,0.7156795049858927,
2023-08-15 12:15:41.452000,1.108433734939759,0.7590361445783133,-9.879518072289157,0.8485591661557327,1.703862660944206,-9.557326793378294,3.0,0.7155067155067156,1397.6109215017063,1.000174814987472,0.8250101975409364,-0.5231629858399851,1330.4029304029302,-1.0,82.45250576640805,0.7156836513870811,
2023-08-15 12:15:41.460000,1.1204819277108435,0.746987951807229,-9.891566265060241,0.8044144696505211,1.7234825260576332,-9.572041692213366,3.0,0.7155067155067156,1397.6109215017063,0.8627702348348003,0.6265369150981883,-0.9659110774430385,1276.1904761904761,-1.0,82.45250576640805,0.7156875663718651,
2023-08-15 12:15:41.467000,1.1325301204819278,0.746987951807229,-9.927710843373495,0.8730839975475169,1.7210300429184548,-9.510729613733906,3.0,0.7155067155067156,1397.6109215017063,1.2444496241477774,0.04638424334246317,-1.3017889400384584,1224.1758241758241,-1.0,82.45250576640805,0.7156912554780746,
2023-08-15 12:15:41.475000,1.1325301204819278,0.7228915662650602,-9.963855421686748,0.8264868179031268,1.6842427958307786,-9.623543838136113,3.0,0.7155067155067156,1397.6109215017063,1.0765106928500674,0.04638424334246317,-1.1491171843132675,1175.0915750915751,-1.0,82.45250576640805,0.7156947240714185,
2023-08-15 12:15:41.483000,1.1325301204819278,0.7349397590361446,-9.93975903614458,0.8068669527896996,1.7381974248927037,-9.599019006744328,3.0,0.7146187146187145,1399.3476234855545,1.2291824485752583,0.015849892197425,-1.3170561156109775,1126.7399267399267,-1.0,82.45250576640805,0.7156979776174746,
2023-08-15 12:15:41.490000,1.0963855421686748,0.746987951807229,-9.987951807228916,0.8608215818516247,1.6008583690987124,-9.638258736971183,3.0,0.7150627150627151,1398.4787333126358,1.4123885554454874,-0.4879669016957047,-1.2254530621758628,1077.6556776556777,-1.0,82.45250576640805,0.7157010214864231,
2023-08-15 12:15:41.498000,1.0843373493975905,0.746987951807229,-9.93975903614458,0.8142244022072348,1.6474555487431024,-9.633353770692827,3.0,0.7150627150627151,1398.4787333126358,1.717732066895869,-0.5795699551308192,-1.1338500087407484,1033.6996336996335,-1.0,82.45250576640805,0.7157038607374693,
2023-08-15 12:15:41.506000,1.072289156626506,0.746987951807229,-9.93975903614458,0.8313917841814837,1.6768853464132434,-9.623543838136113,3.0,0.7150627150627151,1398.4787333126358,1.1986480974302203,-0.2894936192529567,-1.1033156575957102,1002.1978021978022,-1.0,82.45250576640805,0.7157065001366668,
2023-08-15 12:15:41.513000,1.0602409638554218,0.746987951807229,-9.93975903614458,0.8338442673206621,1.6499080318822807,-9.62844880441447,3.0,0.7150627150627151,1398.4787333126358,1.152846570712663,0.07691859448750134,-1.5002622224812063,980.2197802197802,-1.0,82.45250576640805,0.7157089443134509,
2023-08-15 12:15:41.521000,1.0240963855421688,0.7349397590361446,-9.903614457831326,0.8313917841814837,1.5910484365419988,-9.62844880441447,3.0,0.7150627150627151,1398.4787333126358,0.7559000058271668,0.2753918769302494,-1.1491171843132675,968.4981684981684,-1.0,82.45250576640805,0.7157111977371415,
2023-08-15 12:15:41.529000,1.0,0.710843373493976,-9.93975903614458,0.7749846719803801,1.6008583690987124,-9.613733905579398,3.0,0.7150627150627151,1398.4787333126358,1.1833809218577012,0.15325447235009676,-1.408659169046092,961.172161172161,-1.0,82.45250576640805,0.7157132645766886,
2023-08-15 12:15:41.536000,0.9879518072289157,0.6867469879518072,-9.951807228915664,0.8240343347639485,1.505211526670754,-9.638258736971183,3.0,0.7150627150627151,1398.4787333126358,0.4047549676592278,0.4891323349455166,-1.1643843598857866,962.6373626373626,-1.0,82.45250576640805,0.7157151488381774,
2023-08-15 12:15:41.544000,0.9879518072289157,0.6867469879518072,-9.951807228915664,0.7259350091968118,1.5787860208461066,-9.670141017780502,3.0,0.7150627150627151,1398.4787333126358,0.29788473865159426,0.7181399685333029,-1.3628576423285346,967.032967032967,-1.0,82.45250576640805,0.7157168543541342,
2023-08-15 12:15:41.552000,0.9879518072289157,0.6626506024096386,-9.951807228915664,0.7087676272225628,1.4782342121397916,-9.662783568362967,3.0,0.7150627150627151,1398.4787333126358,-0.022725948371306502,0.733407144105822,-0.9506439018705194,978.0219780219779,-1.0,82.45250576640805,0.7157183847739366,
2023-08-15 12:15:41.559000,0.9036144578313253,0.6265060240963856,-9.927710843373495,0.7529123237277743,1.48068669527897,-9.630901287553648,3.0,0.7150627150627151,1398.4787333126358,0.08414428063632708,0.8097430219684173,-0.8285064972903667,992.6739926739926,-1.0,82.45250576640805,0.7157197435553638,
2023-08-15 12:15:41.567000,0.9277108433734941,0.6265060240963856,-9.927710843373495,0.7480073574494175,1.4782342121397916,-9.579399141630901,3.0,0.7150627150627151,1398.4787333126358,-0.25173358195909273,0.6723384418157455,-0.3857584056873133,1009.5238095238094,-1.0,82.45250576640805,0.7157209338185562,
2023-08-15 12:15:41.575000,0.9518072289156627,0.6385542168674699,-9.855421686746988,0.6916002452483139,1.5297363580625383,-9.53525444512569,3.0,0.7150627150627151,1398.4787333126358,0.37422061651418964,0.8860788998310127,-0.24835382553464155,1024.9084249084249,-1.0,82.45250576640805,0.7157219583602645,
2023-08-15 12:15:41.582000,0.9397590361445783,0.6506024096385542,-9.867469879518072,0.7185775597792765,1.546903740036787,-9.559779276517473,3.0,0.7150627150627151,1398.4787333126358,0.0078084027737316646,0.9929491288386464,0.10279121263329737,1039.5604395604396,-1.0,82.45250576640805,0.7157228197968897,
2023-08-15 12:15:41.590000,0.9518072289156627,0.6385542168674699,-9.855421686746988,0.7308399754751685,1.5591661557326792,-9.481299816063764,3.0,0.7150627150627151,1398.4787333126358,0.3284190897966324,0.9471476021210891,0.6066080065264271,1055.6776556776556,-1.0,82.45250576640805,0.7157235205596028,
2023-08-15 12:15:41.598000,0.9397590361445783,0.6385542168674699,-9.843373493975903,0.7700797057020232,1.522378908645003,-9.557326793378294,3.0,0.7150627150627151,1398.4787333126358,0.4200221432317469,0.4738651593729975,0.39286754851115996,1072.5274725274724,-1.0,82.45250576640805,0.715724062890834,
2023-08-15 12:15:41.605000,0.9759036144578314,0.6506024096385542,-9.855421686746988,0.6989576946658491,1.5321888412017166,-9.525444512568976,3.0,0.7150627150627151,1398.4787333126358,0.6032282501019759,0.26012470135773036,0.6982110599615416,1087.9120879120878,-1.0,82.45250576640805,0.7157244488421234,
2023-08-15 12:15:41.613000,0.9879518072289157,0.6265060240963856,-9.867469879518072,0.7431023911710607,1.4904966278356835,-9.603923973022685,3.0,0.7150627150627151,1398.4787333126358,0.7711671813996859,0.2143231746401731,1.156226327137114,1103.2967032967033,-1.0,82.45250576640805,0.7157246804120592,
2023-08-15 12:15:41.621000,1.036144578313253,0.6626506024096386,-9.879518072289157,0.7529123237277743,1.6033108522378907,-9.510729613733906,3.0,0.7150627150627151,1398.4787333126358,0.6795641279645713,-0.06048598566517042,0.6066080065264271,1113.5531135531135,-1.0,82.45250576640805,0.7157247593876589,
2023-08-15 12:15:41.628000,1.0481927710843375,0.674698795180723,-9.831325301204819,0.745554874310239,1.6327406499080317,-9.483752299202942,3.0,0.7150627150627151,1398.4787333126358,0.801701532544724,-0.21315774139036126,0.6676767088165034,1124.5421245421244,-1.0,82.45250576640805,0.7157246872185482,
2023-08-15 12:15:41.636000,1.0843373493975905,0.710843373493976,-9.843373493975903,0.7970570202329859,1.6842427958307786,-9.505824647455547,3.0,0.7146187146187145,1399.3476234855545,1.3055183264378538,-0.47269972612318567,0.46920342637375534,1132.6007326007325,-1.0,82.45250576640805,0.7157244651690985,
2023-08-15 12:15:41.644000,1.1325301204819278,0.710843373493976,-9.819277108433736,0.8264868179031268,1.6817903126916,-9.461679950950337,3.0,0.7146187146187145,1399.3476234855545,1.1070450439951056,-0.5032340772682238,0.49973777751879356,1136.9963369963368,-1.0,82.45250576640805,0.7157240943119276,
2023-08-15 12:15:41.651000,1.144578313253012,0.710843373493976,-9.831325301204819,0.7749846719803801,1.7063151440833844,-9.48620478234212,3.0,0.7146187146187145,1399.3476234855545,1.2139152730027392,-0.6864401841384529,0.4234018996561981,1138.4615384615383,-1.0,82.45250576640805,0.7157235754908454,
2023-08-15 12:15:41.659000,1.1927710843373494,0.7228915662650602,-9.843373493975903,0.8264868179031268,1.7259350091968118,-9.493562231759656,3.0,0.7150627150627151,1398.4787333126358,1.1986480974302203,-0.7017073597109719,0.4234018996561981,1134.7985347985348,-1.0,82.45250576640805,0.7157229091774762,
2023-08-15 12:15:41.667000,1.1686746987951808,0.7228915662650602,-9.843373493975903,0.8166768853464133,1.7210300429184548,-9.446965052115265,3.0,0.7150627150627151,1398.4787333126358,1.6261290134607544,-0.8238447642911246,-0.03461336751937438,1128.937728937729,-1.0,82.45250576640805,0.7157220956475095,
2023-08-15 12:15:41.674000,1.144578313253012,0.7228915662650602,-9.903614457831326,0.8289393010423053,1.7014101778050275,-9.518087063151441,3.0,0.7150627150627151,1398.4787333126358,1.5803274867431973,-0.7475088864285292,-0.37049123011479423,1124.5421245421244,-1.0,82.45250576640805,0.7157211351577513,
2023-08-15 12:15:41.682000,1.1325301204819278,0.7349397590361446,-9.867469879518072,0.7725321888412017,1.762722256284488,-9.56468424279583,3.0,0.7150627150627151,1398.4787333126358,1.916205349338617,-0.8085775887186055,-0.4468271079773896,1121.6117216117216,-1.0,82.45250576640805,0.7157200278156982,
2023-08-15 12:15:41.690000,1.108433734939759,0.746987951807229,-9.91566265060241,0.7308399754751685,1.703862660944206,-9.56468424279583,3.0,0.7150627150627151,1398.4787333126358,2.114678631781365,-1.251325680321659,-0.9659110774430385,1123.076923076923,-1.0,82.45250576640805,0.7157187735887383,
2023-08-15 12:15:41.697000,1.072289156626506,0.7228915662650602,-9.879518072289157,0.8289393010423053,1.6940527283874922,-9.540159411404046,3.0,0.7150627150627151,1398.4787333126358,2.084144280636327,-1.083386749023949,-1.0269797797331148,1127.4725274725274,-1.0,82.45250576640805,0.71571737217542,
2023-08-15 12:15:41.705000,1.0602409638554218,0.7349397590361446,-9.867469879518072,0.8240343347639485,1.5787860208461066,-9.599019006744328,3.0,0.7150627150627151,1398.4787333126358,2.084144280636327,-1.083386749023949,-1.0269797797331148,1136.9963369963368,-1.0,82.45250576640805,0.7157158230366056,
2023-08-15 12:15:41.713000,1.072289156626506,0.6867469879518072,-9.903614457831326,0.7995095033721643,1.6204782342121398,-9.599019006744328,3.0,0.7150627150627151,1398.4787333126358,2.236816036361518,-1.1291882757415062,-1.2865217644659392,1153.8461538461538,-1.0,82.45250576640805,0.7157141256936596,
2023-08-15 12:15:41.720000,1.072289156626506,0.6867469879518072,-9.91566265060241,0.7798896382587369,1.6302881667688534,-9.591661557326793,3.0,0.7150627150627151,1398.4787333126358,2.1910145096439604,-1.1291882757415062,-1.622399627061359,1183.8827838827838,-1.0,82.45250576640805,0.715712279580277,
2023-08-15 12:15:41.728000,1.0481927710843375,0.674698795180723,-9.93975903614458,0.7553648068669527,1.6351931330472103,-9.589209074187615,3.0,0.7150627150627151,1398.4787333126358,2.1299458073538844,-1.3581959093292926,-1.408659169046092,1230.03663003663,-1.0,82.45250576640805,0.7157102839265544,
2023-08-15 12:15:41.736000,1.0,0.6987951807228916,-9.93975903614458,0.8019619865113427,1.5836909871244633,-9.62844880441447,3.0,0.7150627150627151,1398.4787333126358,2.3589534409416704,-0.8238447642911246,-1.591865275916321,1299.6336996336995,-1.0,82.45250576640805,0.7157081380591734,
2023-08-15 12:15:41.743000,0.963855421686747,0.6867469879518072,-9.951807228915664,0.7651747394236664,1.5370938074800735,-9.633353770692827,3.0,0.7150627150627151,1398.4787333126358,2.252083211934037,-0.7780432375735673,-1.5002622224812063,1393.4065934065934,-1.0,82.45250576640805,0.715705841393729,
2023-08-15 12:15:41.751000,0.9397590361445783,0.710843373493976,-9.987951807228916,0.7946045370938074,1.5248313917841814,-9.716738197424892,3.0,0.7150627150627151,1398.4787333126358,1.900938173766098,-0.5795699551308192,-1.5765981003438019,1516.4835164835163,-1.0,82.45250576640805,0.7157033932999355,
2023-08-15 12:15:41.759000,0.8915662650602411,0.6626506024096386,-10.0,0.7357449417535254,1.451256897608829,-9.697118332311465,3.0,0.7150627150627151,1398.4787333126358,1.8551366470485406,-0.24369209253539942,-1.3323232911834966,1668.131868131868,-1.0,82.45250576640805,0.715700792977581,
2023-08-15 12:15:41.766000,0.855421686746988,0.6867469879518072,-10.0,0.8142244022072348,1.3825873697118332,-9.73635806253832,3.0,0.7150627150627151,1398.4787333126358,1.4429229065905256,-0.12155468795524675,-1.3323232911834966,1841.7582417582416,-1.0,82.45250576640805,0.7156980394917265,
2023-08-15 12:15:41.774000,0.8313253012048193,0.6867469879518072,-10.012048192771084,0.762722256284488,1.4144696505211527,-9.709380748007357,3.0,0.7150627150627151,1398.4787333126358,1.0307091661325103,-0.07575316123768949,-1.3781248179010537,2033.6996336996335,-1.0,82.45250576640805,0.7156951319355584,
2023-08-15 12:15:41.781000,0.819277108433735,0.6867469879518072,-10.048192771084338,0.7602697731453096,1.370324954015941,-9.714285714285714,3.0,0.7150627150627151,1398.4787333126358,0.6337626012470141,-0.22842491696288034,-1.4391935201911301,2235.8974358974356,-1.0,82.45250576640805,0.7156920694440868,
2023-08-15 12:15:41.789000,0.8433734939759037,0.6867469879518072,-10.048192771084338,0.8044144696505211,1.4267320662170446,-9.731453096259962,3.0,0.7146187146187145,1399.3476234855545,0.19101450964396066,-0.45743255055066656,-0.9353767262980003,2431.5018315018315,-1.0,82.45250576640805,0.7156888512079126,
2023-08-15 12:15:41.797000,0.8433734939759037,0.710843373493976,-10.012048192771084,0.7921520539546291,1.4071122011036172,-9.724095646842427,3.0,0.7146187146187145,1399.3476234855545,0.1604801584989225,-0.47269972612318567,-0.7979721461453285,2612.454212454212,-1.0,82.45250576640805,0.7156854764764317,
2023-08-15 12:15:41.804000,0.8313253012048193,0.710843373493976,-10.024096385542169,0.8632740649908032,1.4488044144696504,-9.667688534641323,3.0,0.7150627150627151,1398.4787333126358,0.252083211934037,-0.014684458947613166,-0.0193461919468553,2763.369963369963,-1.0,82.45250576640805,0.7156819443904742,
2023-08-15 12:15:41.812000,0.8674698795180723,0.7228915662650602,-10.012048192771084,0.8608215818516247,1.446351931330472,-9.645616186388718,3.0,0.7150627150627151,1398.4787333126358,-0.26700075753161184,0.015849892197425,0.0722568614882592,2805.128205128205,-1.0,82.45250576640805,0.7156782541545184,
2023-08-15 12:15:41.820000,0.8795180722891567,0.746987951807229,-9.987951807228916,0.7725321888412017,1.4488044144696504,-9.648068669527897,3.0,0.7150627150627151,1398.4787333126358,-0.14486335295145916,0.24485752578521125,0.4539362508012363,2805.128205128205,-1.0,82.45250576640805,0.7156744052189917,
2023-08-15 12:15:41.827000,0.8915662650602411,0.7590361445783133,-9.91566265060241,0.8559166155732679,1.4389944819129368,-9.638258736971183,3.0,0.7155067155067156,1397.6109215017063,-0.480741215546879,0.42806363265544023,0.6218751820989462,2805.128205128205,-1.0,82.45250576640805,0.7156703971538378,
2023-08-15 12:15:41.835000,0.9277108433734941,0.746987951807229,-9.91566265060241,0.8927038626609441,1.5419987737584304,-9.606376456161863,3.0,0.7150627150627151,1398.4787333126358,-0.43493968882932177,0.748674319678341,0.6829438843890225,2805.128205128205,-1.0,82.45250576640805,0.7156662298097276,
2023-08-15 12:15:41.843000,0.963855421686747,0.7590361445783133,-9.879518072289157,0.8412017167381973,1.5419987737584304,-9.584304107909258,3.0,0.7150627150627151,1398.4787333126358,-0.6028786201270316,0.9013460754035318,0.7287454111065798,2805.128205128205,-1.0,82.45250576640805,0.7156619032021057,
2023-08-15 12:15:41.850000,1.0120481927710845,0.7349397590361446,-9.879518072289157,0.8313917841814837,1.5640711220110362,-9.633353770692827,3.0,0.7150627150627151,1398.4787333126358,-0.41967251325680266,1.2677582891439898,0.9882873958394042,2751.6483516483513,-1.0,82.45250576640805,0.7156574173631985,
2023-08-15 12:15:41.858000,1.036144578313253,0.746987951807229,-9.891566265060241,0.8412017167381973,1.6131207847946045,-9.540159411404046,3.0,0.7150627150627151,1398.4787333126358,-0.7567158091020343,1.139910261639764,0.8631198648097428,2640.29304029304,-1.0,82.45250576640805,0.715652772491314,
2023-08-15 12:15:41.866000,1.0602409638554218,0.7349397590361446,-9.867469879518072,0.8362967504598405,1.6008583690987124,-9.559779276517473,3.0,0.7150627150627151,1398.4787333126358,-0.8149874715925637,0.9487792086708225,0.8067128955189096,2493.040293040293,-1.0,82.45250576640805,0.7156479688219978,
2023-08-15 12:15:41.873000,1.072289156626506,0.710843373493976,-9.879518072289157,0.7774371551195585,1.6646229307173512,-9.584304107909258,3.0,0.7155067155067156,1397.6109215017063,-0.7989044927451787,1.06147660392751,1.1788357321834388,2321.6117216117214,-1.0,82.45250576640805,0.7156430066576212,
2023-08-15 12:15:41.881000,1.0843373493975905,0.6867469879518072,-9.855421686746988,0.7381974248927038,1.6670754138565296,-9.52053954629062,3.0,0.7150627150627151,1398.4787333126358,-0.6760678282151393,1.1579744770118283,0.6472816269448163,2137.7289377289376,-1.0,82.45250576640805,0.715637886811876,
2023-08-15 12:15:41.889000,1.0843373493975905,0.674698795180723,-9.867469879518072,0.7480073574494175,1.7406499080318822,-9.52053954629062,3.0,0.7150627150627151,1398.4787333126358,-0.351611211467864,1.104131460870578,0.8097430219684165,1954.5787545787543,-1.0,82.45250576640805,0.7156326103297915,
2023-08-15 12:15:41.896000,1.108433734939759,0.6626506024096386,-9.855421686746988,0.8240343347639485,1.7063151440833844,-9.503372164316369,3.0,0.7150627150627151,1398.4787333126358,-0.13880310005244526,0.7437795000291355,-0.05267758289143962,1777.2893772893772,-1.0,82.45250576640805,0.7156271782071024,
2023-08-15 12:15:41.904000,1.108433734939759,0.674698795180723,-9.819277108433736,0.7946045370938074,1.716125076640098,-9.540159411404046,3.0,0.7150627150627151,1398.4787333126358,-0.2481207388846799,0.44624439135248545,-0.020395081871685435,1608.7912087912086,697.052001953125,86.07679173416226,0.7156215916835281,
2023-08-15 12:15:41.912000,1.0843373493975905,0.6867469879518072,-9.855421686746988,0.7602697731453096,1.6597179644389943,-9.589209074187615,3.0,0.7150627150627151,1398.4787333126358,0.027620768020512047,0.5793368684808575,-0.6132509760503465,1450.5494505494505,-1.0,86.07679173416226,0.7156158522472845,
2023-08-15 12:15:41.919000,1.0602409638554218,0.674698795180723,-9.867469879518072,0.7112201103617413,1.581238503985285,-9.586756591048436,3.0,0.7150627150627151,1398.4787333126358,0.14532952625138426,0.5736262455567862,-0.5602237631839635,1306.9597069597069,-1.0,86.07679173416226,0.71560996163884,
2023-08-15 12:15:41.927000,1.0481927710843375,0.6626506024096386,-9.891566265060241,0.7946045370938074,1.6033108522378907,-9.569589209074188,3.0,0.7146187146187145,1399.3476234855545,-0.13460754035312647,0.7229182448575258,-0.8586912184604628,1181.6849816849815,-1.0,86.07679173416226,0.7156039218538899,
2023-08-15 12:15:41.935000,1.036144578313253,0.6867469879518072,-9.891566265060241,0.7774371551195585,1.6253832004904964,-9.559779276517473,3.0,0.7146187146187145,1399.3476234855545,0.25895926810791847,0.9006468154536451,-1.2144979896276442,1073.9926739926739,-1.0,86.07679173416226,0.715597734996228,
2023-08-15 12:15:41.942000,1.0240963855421688,0.6987951807228916,-9.93975903614458,0.838749233599019,1.6376456161863886,-9.67259350091968,3.0,0.7141747141747142,1400.2175940317065,0.16257793834858103,0.49426024124468204,-1.185711788357322,982.4175824175824,-1.0,86.07679173416226,0.7155914032571999,
2023-08-15 12:15:41.950000,1.036144578313253,0.710843373493976,-9.963855421686748,0.7725321888412017,1.598405885959534,-9.652973635806253,3.0,0.7141747141747142,1400.2175940317065,-0.17807820057106177,0.19870636909270975,-1.2175281160771512,909.8901098901098,-1.0,86.07679173416226,0.7155849290427003,
2023-08-15 12:15:41.958000,1.036144578313253,0.7228915662650602,-9.975903614457831,0.7970570202329859,1.5861434702636419,-9.616186388718576,3.0,0.7141747141747142,1400.2175940317065,-0.08938873026047514,-0.3837771691626356,-1.2757997785676818,854.9450549450548,-1.0,86.07679173416226,0.715578314789912,
2023-08-15 12:15:41.965000,1.036144578313253,0.7228915662650602,-9.91566265060241,0.7651747394236664,1.6302881667688534,-9.586756591048436,3.0,0.7146187146187145,1399.3476234855545,0.16525843482314548,-0.9004137288036834,-1.1207971563428705,816.8498168498168,-1.0,86.07679173416226,0.7155715629734424,
2023-08-15 12:15:41.973000,1.036144578313253,0.6987951807228916,-9.903614457831326,0.7995095033721643,1.6499080318822807,-9.545064377682403,3.0,0.7146187146187145,1399.3476234855545,0.17166831769710364,-1.1103082570945744,-0.9169628809509934,797.069597069597,-1.0,86.07679173416226,0.7155646762587337,
2023-08-15 12:15:41.981000,1.072289156626506,0.6867469879518072,-9.891566265060241,0.8044144696505211,1.6499080318822807,-9.56468424279583,3.0,0.7146187146187145,1399.3476234855545,0.16479226152322038,-1.1043645475205413,-0.9007633587786259,794.139194139194,-1.0,86.07679173416226,0.7155576575366754,
2023-08-15 12:15:41.988000,1.072289156626506,0.710843373493976,-9.891566265060241,0.8240343347639485,1.6351931330472103,-9.54996934396076,3.0,0.7146187146187145,1399.3476234855545,0.47864343569722045,-0.4718839228483181,-0.7444787599790222,805.1282051282051,-1.0,86.07679173416226,0.7155505099257117,
2023-08-15 12:15:41.996000,1.0481927710843375,0.6987951807228916,-9.93975903614458,0.82158185162477,1.5689760882893928,-9.591661557326793,3.0,0.7146187146187145,1399.3476234855545,0.46838762309888776,0.049997086416876044,-0.5603403065089447,830.03663003663,-1.0,86.07679173416226,0.715543236762641,
2023-08-15 12:15:42.004000,0.9879518072289157,0.7349397590361446,-9.91566265060241,0.7578172900061312,1.5836909871244633,-9.623543838136113,3.0,0.7146187146187145,1399.3476234855545,0.44286463492803424,0.3046442515004949,-0.7304935609812945,867.3992673992674,-1.0,86.07679173416226,0.7155358415926928,
2023-08-15 12:15:42.011000,0.9277108433734941,0.710843373493976,-9.91566265060241,0.8313917841814837,1.446351931330472,-9.638258736971183,3.0,0.7141747141747142,1400.2175940317065,0.647398170269798,0.7097488491346653,-0.18285647689528606,917.9487179487179,-1.0,86.07679173416226,0.7155283281589189,
2023-08-15 12:15:42.019000,0.9036144578313253,0.6867469879518072,-9.951807228915664,0.7185775597792765,1.4561618638871856,-9.679950950337217,3.0,0.7146187146187145,1399.3476234855545,0.3936833517860258,0.6830604277140033,-0.3123361109492453,974.3589743589743,-1.0,86.07679173416226,0.7155207002416542,
2023-08-15 12:15:42.027000,0.8795180722891567,0.6867469879518072,-9.987951807228916,0.7406499080318822,1.421827099938688,-9.68976088289393,3.0,0.7146187146187145,1399.3476234855545,-0.3024299283258555,0.0896218169104368,-0.013635569022784335,1038.8278388278388,-1.0,86.07679173416226,0.715512961912844,
2023-08-15 12:15:42.034000,0.9036144578313253,0.6506024096385542,-9.963855421686748,0.7014101778050276,1.5150214592274678,-9.625996321275291,3.0,0.7146187146187145,1399.3476234855545,-0.5014859273935078,-0.28483188625371453,0.11561097838121324,1109.89010989011,-1.0,86.07679173416226,0.715505117523476,
2023-08-15 12:15:42.042000,0.9277108433734941,0.6385542168674699,-9.951807228915664,0.7357449417535254,1.5027590435315756,-9.65787860208461,3.0,0.7146187146187145,1399.3476234855545,-0.6518268166190785,-0.8991317522288907,0.24217702931064594,1183.150183150183,-1.0,86.07679173416226,0.7154971714241609,
2023-08-15 12:15:42.050000,0.9518072289156627,0.6385542168674699,-9.93975903614458,0.6793378295524218,1.4095646842427958,-9.652973635806253,3.0,0.7146187146187145,1399.3476234855545,-0.11596060835615618,-1.0675368568265258,0.7231513315074879,1254.9450549450548,-1.0,86.07679173416226,0.7154891281007518,
2023-08-15 12:15:42.057000,0.9518072289156627,0.6385542168674699,-9.93975903614458,0.7553648068669527,1.556713672593501,-9.623543838136113,3.0,0.7146187146187145,1399.3476234855545,-0.37538604976399975,-0.5457723908863125,1.0604277140026803,1324.5421245421244,-1.0,86.07679173416226,0.7154809921603017,
2023-08-15 12:15:42.065000,0.9397590361445783,0.6385542168674699,-9.91566265060241,0.7283874923359902,1.5101164929491109,-9.62844880441447,3.0,0.7146187146187145,1399.3476234855545,-0.7413320902045327,0.26257211118233137,1.605850474914049,1386.8131868131868,-1.0,86.07679173416226,0.715472768316718,
2023-08-15 12:15:42.073000,0.9156626506024097,0.6385542168674699,-9.951807228915664,0.7210300429184548,1.5125689760882892,-9.59656652360515,3.0,0.7146187146187145,1399.3476234855545,-0.8440067595128492,0.5500844939106121,1.4889575199580445,1441.0256410256409,-1.0,86.07679173416226,0.7154644613761817,
2023-08-15 12:15:42.080000,0.9036144578313253,0.6385542168674699,-9.987951807228916,0.7406499080318822,1.4904966278356835,-9.640711220110362,3.0,0.7146187146187145,1399.3476234855545,-1.0699842666511268,0.6807295612143814,1.507487908630033,1484.2490842490843,-1.0,86.07679173416226,0.7154560762223886,
2023-08-15 12:15:42.088000,0.9277108433734941,0.6626506024096386,-9.975903614457831,0.7136725935009196,1.5101164929491109,-9.706928264868179,3.0,0.7146187146187145,1399.3476234855545,-1.6027038051395612,0.2904259658528051,1.3255637783345957,1520.14652014652,-1.0,86.07679173416226,0.7154476178016909,
2023-08-15 12:15:42.096000,0.963855421686747,0.6867469879518072,-9.975903614457831,0.7774371551195585,1.5419987737584304,-9.670141017780502,3.0,0.7141747141747142,1400.2175940317065,-1.2579686498455804,0.25429753510867636,1.6197191305867955,1542.1245421245421,-1.0,86.07679173416226,0.7154390911081937,
2023-08-15 12:15:42.103000,0.9879518072289157,0.7228915662650602,-9.951807228915664,0.7970570202329859,1.5493562231759657,-9.633353770692827,3.0,0.7146187146187145,1399.3476234855545,-1.5127323582541803,-0.03927510051861826,1.284423984616281,1549.4505494505493,-1.0,86.07679173416226,0.7154305011583373,
2023-08-15 12:15:42.111000,1.036144578313253,0.6867469879518072,-9.927710843373495,0.8093194359288779,1.5787860208461066,-9.58185162477008,3.0,0.7146187146187145,1399.3476234855545,-1.153545830662548,0.1259833343045272,1.670065846978614,1539.194139194139,-1.0,86.07679173416226,0.7154218530831544,
2023-08-15 12:15:42.119000,1.0602409638554218,0.6867469879518072,-9.91566265060241,0.7676272225628449,1.6057633353770693,-9.562231759656651,3.0,0.7146187146187145,1399.3476234855545,-1.6221665404113974,0.26362100110716236,1.7180816968708115,1512.8205128205127,-1.0,86.07679173416226,0.7154131521245901,
2023-08-15 12:15:42.126000,1.072289156626506,0.674698795180723,-9.867469879518072,0.7946045370938074,1.6253832004904964,-9.510729613733906,3.0,0.7146187146187145,1399.3476234855545,-1.398636443097721,0.23471825651185765,1.779150399160888,1476.1904761904761,-1.0,86.07679173416226,0.7154044034832742,
2023-08-15 12:15:42.134000,1.072289156626506,0.674698795180723,-9.879518072289157,0.8068669527896996,1.6793378295524217,-9.52053954629062,3.0,0.7146187146187145,1399.3476234855545,-1.2068061301788944,0.5555620301847218,1.609113688013519,1431.5018315018315,-1.0,86.07679173416226,0.7153956123051339,
2023-08-15 12:15:42.142000,1.1204819277108435,0.6867469879518072,-9.855421686746988,0.7578172900061312,1.662170447578173,-9.542611894543224,3.0,0.7146187146187145,1399.3476234855545,-0.8170852514422239,0.5674494493327897,1.4725249111357144,1380.2197802197802,-1.0,86.07679173416226,0.7153867835294286,
2023-08-15 12:15:42.149000,1.108433734939759,0.6987951807228916,-9.843373493975903,0.7847946045370937,1.7063151440833844,-9.513182096873084,3.0,0.7146187146187145,1399.3476234855545,-0.7803741040731893,0.567915622632713,1.0160247071848962,1328.2051282051282,-1.0,86.07679173416226,0.7153779220348849,
2023-08-15 12:15:42.157000,1.1204819277108435,0.6987951807228916,-9.843373493975903,0.7946045370938074,1.7136725935009196,-9.473942366646229,3.0,0.7146187146187145,1399.3476234855545,-0.973136763591866,0.24916962880950913,1.0702173533010897,1279.8534798534797,-1.0,86.07679173416226,0.7153690327546168,
2023-08-15 12:15:42.164000,1.1325301204819278,0.6987951807228916,-9.843373493975903,0.7896995708154506,1.7651747394236663,-9.532801961986511,3.0,0.7146187146187145,1399.3476234855545,-0.553697336985025,0.46722218984907593,0.7575316123769006,1235.164835164835,-1.0,86.07679173416226,0.7153601205146952,
2023-08-15 12:15:42.172000,1.1204819277108435,0.7228915662650602,-9.867469879518072,0.8142244022072348,1.72838749233599,-9.584304107909258,3.0,0.7146187146187145,1399.3476234855545,-0.0892721869354943,0.15978089854903574,0.5491521473107623,1191.2087912087911,-1.0,86.07679173416226,0.7153511900224337,
2023-08-15 12:15:42.180000,1.144578313253012,0.7228915662650602,-9.843373493975903,0.8461066830165542,1.6719803801348865,-9.559779276517473,3.0,0.7146187146187145,1399.3476234855545,0.10966726880717886,-0.13262630382844878,0.10337392925820155,1147.985347985348,-1.0,86.07679173416226,0.7153422458551608,
2023-08-15 12:15:42.187000,1.1325301204819278,0.710843373493976,-9.819277108433736,0.7749846719803801,1.733292458614347,-9.547516860821581,3.0,0.7146187146187145,1399.3476234855545,0.003030126449508691,0.018880018646931958,-0.26548569430685837,1108.4249084249084,-1.0,86.07679173416226,0.7153332924495356,
2023-08-15 12:15:42.195000,1.1566265060240966,0.710843373493976,-9.819277108433736,0.8240343347639485,1.7185775597792765,-9.466584917228694,3.0,0.7146187146187145,1399.3476234855545,0.5242118757648161,-0.02925237457024723,-0.12668259425441397,1069.5970695970695,-1.0,86.07679173416226,0.7153243340914599,
2023-08-15 12:15:42.203000,1.144578313253012,0.7228915662650602,-9.819277108433736,0.7700797057020232,1.7210300429184548,-9.552421827099938,3.0,0.7146187146187145,1399.3476234855545,0.8598566517102725,0.382262105937883,-0.9197599207505391,1036.6300366300366,-1.0,86.07679173416226,0.715315374906643,
2023-08-15 12:15:42.210000,1.072289156626506,0.6987951807228916,-9.819277108433736,0.8142244022072348,1.6891477621091353,-9.50091968117719,3.0,0.7141747141747142,1400.2175940317065,1.0710331565759579,0.17877746052094853,-1.1114736903443854,1010.9890109890109,-1.0,86.07679173416226,0.7153064188518741,
2023-08-15 12:15:42.218000,1.0963855421686748,0.6867469879518072,-9.843373493975903,0.8191293684855916,1.6302881667688534,-9.545064377682403,3.0,0.7146187146187145,1399.3476234855545,1.0069343278363727,0.25266592855894116,-1.4212458481440473,991.2087912087911,-1.0,86.07679173416226,0.7152974694189959,
2023-08-15 12:15:42.226000,1.0481927710843375,0.674698795180723,-9.879518072289157,0.7872470876762722,1.6376456161863886,-9.574494175352545,3.0,0.7146187146187145,1399.3476234855545,1.12510925936717,-0.025756074820815194,-1.7638832235883688,974.3589743589743,-1.0,86.07679173416226,0.7152885297755177,
2023-08-15 12:15:42.233000,1.0481927710843375,0.6867469879518072,-9.903614457831326,0.7725321888412017,1.5959534028203555,-9.562231759656651,3.0,0.7146187146187145,1399.3476234855545,1.0582133908280398,0.21921799428937688,-2.0428879435930307,961.9047619047618,-1.0,86.07679173416226,0.7152796030651988,
2023-08-15 12:15:42.241000,1.0240963855421688,0.6867469879518072,-9.951807228915664,0.7847946045370937,1.610668301655426,-9.638258736971183,3.0,0.7146187146187145,1399.3476234855545,0.7301439310063516,0.26525260765689584,-2.2745760736553815,955.3113553113552,-1.0,86.07679173416226,0.7152706922625293,
2023-08-15 12:15:42.249000,1.0120481927710845,0.6987951807228916,-9.963855421686748,0.7896995708154506,1.662170447578173,-9.640711220110362,3.0,0.7137307137307137,1401.0886469673405,1.0322242293572628,0.3998601480100223,-2.3369267525202493,953.8461538461538,-1.0,86.07679173416226,0.7152618003058252,
2023-08-15 12:15:42.256000,1.0240963855421688,0.6867469879518072,-9.951807228915664,0.7847946045370937,1.546903740036787,-9.645616186388718,3.0,0.7137307137307137,1401.0886469673405,1.0254647165083621,0.39636384826059023,-2.3217761202727116,956.043956043956,-1.0,86.07679173416226,0.7152529299124885,
2023-08-15 12:15:42.264000,1.036144578313253,0.6987951807228916,-9.963855421686748,0.8289393010423053,1.598405885959534,-9.638258736971183,3.0,0.7141747141747142,1400.2175940317065,1.0346716391818656,0.3484645416933745,-2.5981003438028085,960.4395604395604,-1.0,86.07679173416226,0.7152440832247694,
2023-08-15 12:15:42.272000,1.0,0.7228915662650602,-9.93975903614458,0.8117719190680563,1.5714285714285714,-9.59656652360515,3.0,0.7141747141747142,1400.2175940317065,1.0883981119981354,0.9265194335994411,-2.304527708175514,968.4981684981684,-1.0,86.07679173416226,0.7152352619657287,
2023-08-15 12:15:42.279000,1.0120481927710845,0.710843373493976,-9.93975903614458,0.7431023911710607,1.6131207847946045,-9.662783568362967,3.0,0.7141747141747142,1400.2175940317065,1.2338441815745005,1.059145737427888,-2.4097663306334134,978.7545787545787,-1.0,86.07679173416226,0.715226467626734,
2023-08-15 12:15:42.287000,0.9879518072289157,0.7228915662650602,-9.963855421686748,0.8412017167381973,1.5346413243408952,-9.613733905579398,3.0,0.7146187146187145,1399.3476234855545,1.1021502243459,1.4057455859215657,-1.919468562438086,993.4065934065933,-1.0,86.07679173416226,0.7152177014749589,
2023-08-15 12:15:42.295000,0.9759036144578314,0.6987951807228916,-9.951807228915664,0.7946045370938074,1.4659717964438994,-9.618638871857755,3.0,0.7146187146187145,1399.3476234855545,0.8190664879669016,1.3841850708000694,-2.1835557368451717,1010.2564102564102,-1.0,86.07679173416226,0.7152089647006693,
2023-08-15 12:15:42.302000,0.9397590361445783,0.6987951807228916,-9.975903614457831,0.8093194359288779,1.475781729000613,-9.625996321275291,3.0,0.7146187146187145,1399.3476234855545,0.8269914340656142,1.347240836781073,-1.5278829905017188,1026.3736263736264,-1.0,86.07679173416226,0.7152002584381288,
2023-08-15 12:15:42.310000,0.9397590361445783,0.6987951807228916,-9.93975903614458,0.7602697731453096,1.5076640098099325,-9.687308399754752,3.0,0.7141747141747142,1400.2175940317065,0.3114037643493973,1.7199463900705083,-1.822271429403881,1043.2234432234432,-1.0,86.07679173416226,0.7151915836286108,
2023-08-15 12:15:42.318000,0.963855421686747,0.674698795180723,-9.951807228915664,0.8019619865113427,1.5297363580625383,-9.630901287553648,3.0,0.7141747141747142,1400.2175940317065,0.22959035021269217,1.262980012819765,-1.6401142124584813,1059.3406593406592,-1.0,86.07679173416226,0.7151829408741023,
2023-08-15 12:15:42.325000,0.9759036144578314,0.6867469879518072,-9.927710843373495,0.7946045370938074,1.5935009196811771,-9.616186388718576,3.0,0.7141747141747142,1400.2175940317065,-0.3248062467222195,0.7943593030709174,-2.053143756191364,1071.7948717948718,-1.0,86.07679173416226,0.7151743304196382,
2023-08-15 12:15:42.333000,1.0120481927710845,0.6626506024096386,-9.91566265060241,0.7823421213979154,1.6131207847946045,-9.601471489883506,3.0,0.7141747141747142,1400.2175940317065,-0.3384418157450034,0.9564710681195734,-1.7895227550842023,1082.051282051282,-1.0,86.07679173416226,0.7151657522957692,
2023-08-15 12:15:42.341000,1.0481927710843375,0.6506024096385542,-9.903614457831326,0.7259350091968118,1.5542611894543223,-9.527896995708154,3.0,0.7141747141747142,1400.2175940317065,-0.5794534118058384,0.3981119981353063,-1.7843948487850358,1090.10989010989,-1.0,86.07679173416226,0.7151572063232636,
2023-08-15 12:15:42.348000,1.0602409638554218,0.6626506024096386,-9.903614457831326,0.7283874923359902,1.6670754138565296,-9.562231759656651,3.0,0.7141747141747142,1400.2175940317065,-0.5453062175863874,0.5918070042538314,-1.3229998251850126,1095.970695970696,-1.0,86.07679173416226,0.715148692118761,
2023-08-15 12:15:42.356000,1.108433734939759,0.6626506024096386,-9.855421686746988,0.7578172900061312,1.6180257510729612,-9.56713672593501,3.0,0.7146187146187145,1399.3476234855545,0.12866383077909166,1.135131985315541,-1.5480449857234426,1100.3663003663003,-1.0,86.07679173416226,0.7151402092400945,
2023-08-15 12:15:42.364000,1.108433734939759,0.674698795180723,-9.843373493975903,0.7553648068669527,1.6842427958307786,-9.574494175352545,3.0,0.7146187146187145,1399.3476234855545,0.09405046325971728,1.27882990501719,-1.9101450964396018,1104.029304029304,-1.0,86.07679173416226,0.7151317571839184,
2023-08-15 12:15:42.371000,1.0843373493975905,0.674698795180723,-9.879518072289157,0.7651747394236664,1.622930717351318,-9.559779276517473,3.0,0.7146187146187145,1399.3476234855545,-0.032632130994696695,1.4190315249694072,-1.8244857525785214,1109.89010989011,-1.0,86.07679173416226,0.7151233352882699,
2023-08-15 12:15:42.379000,1.0843373493975905,0.674698795180723,-9.879518072289157,0.7798896382587369,1.6597179644389943,-9.562231759656651,3.0,0.7141747141747142,1400.2175940317065,0.3594196142415939,1.209370083328478,-2.1068702290076335,1115.018315018315,-1.0,86.07679173416226,0.7151149427537034,
2023-08-15 12:15:42.387000,1.0963855421686748,0.6867469879518072,-9.879518072289157,0.7602697731453096,1.6499080318822807,-9.569589209074188,3.0,0.7146187146187145,1399.3476234855545,0.5488025173358194,1.1537789173125113,-2.113862828506497,1120.8791208791208,-1.0,86.07679173416226,0.71510657850552,
2023-08-15 12:15:42.394000,1.1204819277108435,0.674698795180723,-9.879518072289157,0.7480073574494175,1.7308399754751684,-9.586756591048436,3.0,0.7146187146187145,1399.3476234855545,0.3107045043995106,1.0991200978963915,-2.425732766155818,1128.2051282051282,-1.0,86.07679173416226,0.7150982414723281,
2023-08-15 12:15:42.402000,1.108433734939759,0.6987951807228916,-9.91566265060241,0.6916002452483139,1.7087676272225627,-9.618638871857755,3.0,0.7137307137307137,1401.0886469673405,0.5188508828156871,0.4819066487966908,-2.7216362682827335,1139.9267399267399,-1.0,86.07679173416226,0.7150899305990537,
2023-08-15 12:15:42.410000,1.1204819277108435,0.6867469879518072,-9.927710843373495,0.8166768853464133,1.6474555487431024,-9.61128142244022,3.0,0.7141747141747142,1400.2175940317065,0.8933045859798385,-0.3883223588368969,-2.8913233494551602,1161.1721611721612,-1.0,86.07679173416226,0.7150816445732434,
2023-08-15 12:15:42.417000,1.1325301204819278,0.6867469879518072,-9.903614457831326,0.8044144696505211,1.6940527283874922,-9.530349478847333,3.0,0.7141747141747142,1400.2175940317065,1.0667210535516582,-0.7130120622341356,-2.9231396771749902,1194.1391941391942,-1.0,86.07679173416226,0.715073381914618,
2023-08-15 12:15:42.425000,1.1204819277108435,0.6867469879518072,-9.903614457831326,0.7946045370938074,1.6499080318822807,-9.591661557326793,3.0,0.7141747141747142,1400.2175940317065,0.9966785152380401,-0.2729444671056466,-3.3507371365305048,1242.4908424908424,-1.0,86.07679173416226,0.7150651410102846,
2023-08-15 12:15:42.433000,1.0843373493975905,0.7228915662650602,-9.91566265060241,0.8608215818516247,1.657265481299816,-9.633353770692827,3.0,0.7146187146187145,1399.3476234855545,0.8440067595128492,-0.043936833517860395,-2.9995920983625655,1312.087912087912,-1.0,86.07679173416226,0.7150569201394618,
2023-08-15 12:15:42.440000,1.036144578313253,0.7228915662650602,-9.93975903614458,0.8068669527896996,1.652360515021459,-9.630901287553648,3.0,0.7146187146187145,1399.3476234855545,0.26385408775712405,0.09346774663481136,-3.808752403706077,1408.058608058608,-1.0,86.07679173416226,0.7150487176370237,
2023-08-15 12:15:42.448000,1.0120481927710845,0.7349397590361446,-10.0,0.8412017167381973,1.6302881667688534,-9.652973635806253,3.0,0.7146187146187145,1399.3476234855545,0.23331973661208588,-0.4256162228308375,-3.9461569838587494,1530.4029304029302,-1.0,86.07679173416226,0.7150405319296204,
2023-08-15 12:15:42.456000,0.963855421686747,0.7710843373493976,-9.975903614457831,0.86817903126916,1.546903740036787,-9.650521152667075,3.0,0.7146187146187145,1399.3476234855545,0.2180525610395668,-0.6393566808461046,-4.495775304469436,1678.3882783882782,-1.0,86.07679173416226,0.7150323612740448,
2023-08-15 12:15:42.463000,0.963855421686747,0.8072289156626506,-9.987951807228916,0.8902513795217657,1.5346413243408952,-9.73390557939914,3.0,0.7141747141747142,1400.2175940317065,0.09591515645941413,-1.21950935260183,-4.801118815919818,1845.4212454212452,-1.0,86.07679173416226,0.7150242037935327,
2023-08-15 12:15:42.471000,0.9759036144578314,0.8433734939759037,-9.987951807228916,0.9098712446351931,1.576333537706928,-9.729000613120784,3.0,0.7146187146187145,1399.3476234855545,0.08064798088689504,-1.3263795816094635,-5.075927976225161,2027.106227106227,-1.0,86.07679173416226,0.7150160574923613,
2023-08-15 12:15:42.479000,1.036144578313253,0.855421686746988,-9.975903614457831,0.9294911097486205,1.640098099325567,-9.670141017780502,3.0,0.7146187146187145,1399.3476234855545,-0.7895810267466927,-1.066837596876639,-4.9385233960724895,2213.9194139194137,-1.0,86.07679173416226,0.7150079205367235,
2023-08-15 12:15:42.486000,1.0,0.8674698795180723,-9.963855421686748,0.9393010423053341,1.5714285714285714,-9.623543838136113,3.0,0.7146187146187145,1399.3476234855545,-0.468970339723792,-1.2042421770293108,-4.846920342637375,2392.6739926739924,-1.0,86.07679173416226,0.7149997914080363,
2023-08-15 12:15:42.494000,0.9759036144578314,0.8674698795180723,-9.93975903614458,1.0104230533415082,1.5248313917841814,-9.58185162477008,3.0,0.7146187146187145,1399.3476234855545,-0.43843598857875377,-1.21950935260183,-4.587378357904551,2551.6483516483513,-1.0,86.07679173416226,0.7149916684919724,
2023-08-15 12:15:42.502000,0.9518072289156627,0.8674698795180723,-9.951807228915664,0.9785407725321887,1.5419987737584304,-9.603923973022685,3.0,0.7146187146187145,1399.3476234855545,-0.6827107977390591,-0.88363149000641,-4.3736378998892835,2678.388278388278,-1.0,86.07679173416226,0.7149835501143802,
2023-08-15 12:15:42.509000,0.9277108433734941,0.8915662650602411,-9.91566265060241,1.020232985898222,1.4855916615573268,-9.616186388718576,3.0,0.7146187146187145,1399.3476234855545,-0.6827107977390591,-0.07447118466289857,-4.999592098362566,2766.300366300366,-1.0,86.07679173416226,0.7149754347044472,
2023-08-15 12:15:42.517000,0.9156626506024097,0.9277108433734941,-9.93975903614458,1.0251379521765787,1.4586143470263642,-9.635806253832005,3.0,0.7146187146187145,1399.3476234855545,-0.5605733931589064,-0.043936833517860395,-4.587378357904551,2805.128205128205,-1.0,86.07679173416226,0.7149673208083359,
2023-08-15 12:15:42.524000,0.855421686746988,0.9036144578313253,-9.927710843373495,0.9883507050889024,1.421827099938688,-9.589209074187615,3.0,0.7146187146187145,1399.3476234855545,-0.7895810267466927,0.07820057106229227,-4.343103548744246,2805.128205128205,-1.0,86.07679173416226,0.7149592071025228,
2023-08-15 12:15:42.532000,0.855421686746988,0.8795180722891567,-9.891566265060241,0.9687308399754752,1.4316370324954015,-9.576946658491723,3.0,0.7150627150627151,1398.4787333126358,-0.7895810267466927,0.07820057106229227,-4.343103548744246,2776.556776556776,-1.0,86.07679173416226,0.7149510925455168,
2023-08-15 12:15:42.540000,0.8915662650602411,0.8674698795180723,-9.855421686746988,0.956468424279583,1.4267320662170446,-9.515634580012263,3.0,0.7146187146187145,1399.3476234855545,-1.033855835906998,0.26140667793252126,-4.068294388438902,2703.296703296703,-1.0,86.07679173416226,0.714942976519315,
2023-08-15 12:15:42.547000,0.9036144578313253,0.8674698795180723,-9.831325301204819,0.9858982219497241,1.4438994481912937,-9.43960760269773,3.0,0.7150627150627151,1398.4787333126358,-0.6063749198764637,-0.08973836023541765,-4.404172251034322,2597.069597069597,-1.0,86.07679173416226,0.7149348585660373,
2023-08-15 12:15:42.555000,0.9397590361445783,0.8674698795180723,-9.819277108433736,0.8927038626609441,1.5003065603923973,-9.451870018393622,3.0,0.7141747141747142,1400.2175940317065,-0.37736728628867744,0.4293456092302312,-4.175164617446535,2460.07326007326,-1.0,86.07679173416226,0.7149267381133784,
2023-08-15 12:15:42.563000,0.963855421686747,0.855421686746988,-9.843373493975903,0.9613733905579399,1.581238503985285,-9.481299816063764,3.0,0.7146187146187145,1399.3476234855545,-0.3621001107161584,0.765223471825651,-4.144630266301498,2305.494505494505,-1.0,86.07679173416226,0.714918614666865,
2023-08-15 12:15:42.570000,0.9879518072289157,0.819277108433735,-9.843373493975903,0.8779889638258737,1.598405885959534,-9.449417535254444,3.0,0.7146187146187145,1399.3476234855545,-0.39263446186119655,0.6888875939630557,-4.343103548744246,2139.9267399267396,-1.0,86.07679173416226,0.7149104881834013,
2023-08-15 12:15:42.578000,1.0120481927710845,0.8072289156626506,-9.855421686746988,0.8877988963825874,1.5248313917841814,-9.505824647455547,3.0,0.7146187146187145,1399.3476234855545,0.3401899656197195,1.0094982809859563,-4.465240953324398,1972.161172161172,-1.0,86.07679173416226,0.7149023589219725,
2023-08-15 12:15:42.586000,1.0240963855421688,0.7951807228915663,-9.831325301204819,0.8534641324340895,1.5665236051502145,-9.510729613733906,3.0,0.7146187146187145,1399.3476234855545,0.24858691218460496,1.146902861138628,-4.159897441874016,1807.3260073260071,-1.0,86.07679173416226,0.7148942271868407,
2023-08-15 12:15:42.593000,1.0240963855421688,0.7710843373493976,-9.807228915662652,0.8117719190680563,1.6253832004904964,-9.491109748620477,3.0,0.7146187146187145,1399.3476234855545,0.4775945457723912,1.146902861138628,-4.358370724316765,1649.8168498168498,-1.0,86.07679173416226,0.7148860933464207,
2023-08-15 12:15:42.601000,1.0481927710843375,0.783132530120482,-9.831325301204819,0.9074187614960146,1.6351931330472103,-9.473942366646229,3.0,0.7146187146187145,1399.3476234855545,0.7676708816502538,0.7957578229706892,-4.907989044927452,1501.8315018315018,674.072265625,89.0112278160087,0.7148779578609193,
2023-08-15 12:15:42.609000,1.072289156626506,0.783132530120482,-9.843373493975903,0.86817903126916,1.6646229307173512,-9.522992029429798,3.0,0.7146187146187145,1399.3476234855545,0.6455334770701011,0.765223471825651,-5.304935609812948,1367.032967032967,-1.0,89.0112278160087,0.7148698214364791,
2023-08-15 12:15:42.616000,1.108433734939759,0.7710843373493976,-9.843373493975903,0.8289393010423053,1.7308399754751684,-9.58185162477008,3.0,0.7146187146187145,1399.3476234855545,0.798205232795292,-0.043936833517860395,-5.991958510576306,1244.6886446886447,-1.0,89.0112278160087,0.7148616851678434,
2023-08-15 12:15:42.624000,1.144578313253012,0.783132530120482,-9.843373493975903,0.8559166155732679,1.762722256284488,-9.496014714898834,3.0,0.7146187146187145,1399.3476234855545,1.0272128663830782,0.07820057106229227,-6.159897441874016,1135.5311355311355,-1.0,89.0112278160087,0.7148535505209287,
2023-08-15 12:15:42.632000,1.1927710843373494,0.7590361445783133,-9.879518072289157,0.86817903126916,1.792152053954629,-9.530349478847333,3.0,0.7146187146187145,1399.3476234855545,1.33255637783346,0.2308723267874831,-6.678981411339665,1038.8278388278388,-1.0,89.0112278160087,0.7148454190480549,
2023-08-15 12:15:42.639000,1.2048192771084338,0.746987951807229,-9.891566265060241,0.8240343347639485,1.762722256284488,-9.56713672593501,3.0,0.7146187146187145,1399.3476234855545,1.714235767146437,0.2919410290775594,-6.969057747217528,954.5787545787546,-1.0,89.0112278160087,0.7148372924104089,
2023-08-15 12:15:42.647000,1.2048192771084338,0.7590361445783133,-9.903614457831326,0.8559166155732679,1.7504598405885958,-9.58185162477008,3.0,0.7146187146187145,1399.3476234855545,1.8516403472991088,0.3835440825126739,-7.4881417166831765,887.1794871794871,-1.0,89.0112278160087,0.714829172526918,
2023-08-15 12:15:42.655000,1.1686746987951808,0.783132530120482,-9.903614457831326,0.8755364806866952,1.6940527283874922,-9.554874310239116,3.0,0.7146187146187145,1399.3476234855545,1.9585105763067423,0.5056814870928266,-7.656080647980887,836.6300366300366,-1.0,89.0112278160087,0.714821061572817,
2023-08-15 12:15:42.662000,1.144578313253012,0.783132530120482,-9.879518072289157,0.838749233599019,1.72838749233599,-9.54996934396076,3.0,0.7146187146187145,1399.3476234855545,2.1569838587494905,0.27667385350504037,-8.358370724316764,801.4652014652014,-1.0,89.0112278160087,0.7148129619772124,
2023-08-15 12:15:42.670000,1.1566265060240966,0.783132530120482,-9.891566265060241,0.8240343347639485,1.7676272225628449,-9.584304107909258,3.0,0.7146187146187145,1399.3476234855545,2.080647980886895,0.09346774663481136,-8.892721869354933,781.6849816849816,-1.0,89.0112278160087,0.7148048764196367,
2023-08-15 12:15:42.678000,1.1325301204819278,0.7590361445783133,-9.867469879518072,0.9245861434702636,1.7504598405885958,-9.59656652360515,3.0,0.7146187146187145,1399.3476234855545,2.3707243167647576,-0.043936833517860395,-9.25913408309539,777.2893772893773,-1.0,89.0112278160087,0.7147968078256173,
2023-08-15 12:15:42.685000,1.108433734939759,0.7590361445783133,-9.879518072289157,0.8485591661557327,1.6744328632740648,-9.552421827099938,3.0,0.7146187146187145,1399.3476234855545,2.263854087757124,-0.043936833517860395,-9.610279121263329,789.010989010989,-1.0,89.0112278160087,0.7147887593612589,
2023-08-15 12:15:42.693000,1.0843373493975905,0.7590361445783133,-9.903614457831326,0.8362967504598405,1.6916002452483139,-9.579399141630901,3.0,0.7146187146187145,1399.3476234855545,2.2485869121846047,-0.028669657945341313,-10.007225686148825,815.3846153846154,-1.0,89.0112278160087,0.714780734426869,
2023-08-15 12:15:42.701000,1.0481927710843375,0.7349397590361446,-9.93975903614458,0.8289393010423053,1.6033108522378907,-9.635806253832005,3.0,0.7146187146187145,1399.3476234855545,1.7600372938639943,0.09346774663481136,-10.419439426606841,855.6776556776556,-1.0,89.0112278160087,0.7147727366496383,
2023-08-15 12:15:42.708000,1.036144578313253,0.746987951807229,-9.93975903614458,0.9172286940527283,1.5689760882893928,-9.65787860208461,3.0,0.7141747141747142,1400.2175940317065,1.7905716450090323,0.12400209777984952,-10.75531728920226,907.6923076923076,-1.0,89.0112278160087,0.7147647698754076,
2023-08-15 12:15:42.716000,0.9879518072289157,0.746987951807229,-9.951807228915664,0.8436541998773758,1.5346413243408952,-9.638258736971183,3.0,0.7141747141747142,1400.2175940317065,1.9432434007342232,-0.013402482372822228,-10.694248586912185,969.9633699633699,-1.0,89.0112278160087,0.7147568381490043,
2023-08-15 12:15:42.724000,0.9879518072289157,0.7590361445783133,-9.975903614457831,0.7823421213979154,1.5346413243408952,-9.68976088289393,3.0,0.7146187146187145,1399.3476234855545,1.729502942718956,-0.28821164267816574,-11.045393625080123,1039.5604395604396,-1.0,89.0112278160087,0.7147489456620094,
2023-08-15 12:15:42.731000,0.963855421686747,0.7590361445783133,-9.963855421686748,0.7995095033721643,1.5199264255058245,-9.667688534641323,3.0,0.7146187146187145,1399.3476234855545,1.8211059961540705,-0.07447118466289857,-10.801118815919818,1113.5531135531135,-1.0,89.0112278160087,0.7147410967415763,
2023-08-15 12:15:42.739000,0.9156626506024097,0.746987951807229,-9.93975903614458,0.8289393010423053,1.4708767627222563,-9.655426118945432,3.0,0.7146187146187145,1399.3476234855545,1.8363731717265896,0.35300973136763575,-11.075927976225161,1188.278388278388,-1.0,89.0112278160087,0.7147332960190913,
2023-08-15 12:15:42.747000,0.9277108433734941,0.7590361445783133,-9.963855421686748,0.8706315144083384,1.421827099938688,-9.652973635806253,3.0,0.7146187146187145,1399.3476234855545,1.4394266068410935,0.35300973136763575,-11.030126449507604,1260.8058608058607,-1.0,89.0112278160087,0.7147255482685221,
2023-08-15 12:15:42.754000,0.9156626506024097,0.746987951807229,-9.91566265060241,0.7921520539546291,1.4954015941140404,-9.662783568362967,3.0,0.7146187146187145,1399.3476234855545,1.2409533243983453,0.18507080006992585,-10.938523396072489,1329.6703296703297,-1.0,89.0112278160087,0.7147178584038123,
2023-08-15 12:15:42.762000,0.8915662650602411,0.746987951807229,-9.951807228915664,0.8044144696505211,1.4586143470263642,-9.623543838136113,3.0,0.7150627150627151,1398.4787333126358,1.531029660276208,0.41407843365771213,-10.61791270904959,1391.2087912087911,-1.0,89.0112278160087,0.714710231593247,
2023-08-15 12:15:42.770000,0.8915662650602411,0.746987951807229,-9.93975903614458,0.8313917841814837,1.4291845493562232,-9.630901287553648,3.0,0.7146187146187145,1399.3476234855545,1.3172892022609408,0.5362158382378648,-10.816385991492337,1441.7582417582416,-1.0,89.0112278160087,0.7147026732456441,
2023-08-15 12:15:42.777000,0.9156626506024097,0.7349397590361446,-9.975903614457831,0.8951563458001226,1.4978540772532187,-9.655426118945432,3.0,0.7150627150627151,1398.4787333126358,1.2867548511159026,0.47514713594778846,-10.694248586912185,1476.1904761904761,-1.0,89.0112278160087,0.7146951888684415,
2023-08-15 12:15:42.785000,0.9277108433734941,0.746987951807229,-9.963855421686748,0.7725321888412017,1.4904966278356835,-9.623543838136113,3.0,0.7150627150627151,1398.4787333126358,0.8287395839403301,0.9178952275508419,-10.480508128896917,1495.970695970696,-1.0,89.0112278160087,0.7146877840429322,
2023-08-15 12:15:42.793000,0.9277108433734941,0.7590361445783133,-9.93975903614458,0.8534641324340895,1.505211526670754,-9.591661557326793,3.0,0.7150627150627151,1398.4787333126358,0.9966785152380401,0.5667501893829029,-10.58737835790455,1502.5641025641025,-1.0,89.0112278160087,0.7146804645693925,
2023-08-15 12:15:42.800000,0.9759036144578314,0.746987951807229,-9.927710843373495,0.8313917841814837,1.5395462906192519,-9.630901287553648,3.0,0.7150627150627151,1398.4787333126358,0.5997319503525439,0.5056814870928266,-10.449973777751879,1495.2380952380952,-1.0,89.0112278160087,0.7146732363140331,
2023-08-15 12:15:42.808000,0.9879518072289157,0.7590361445783133,-9.927710843373495,0.8412017167381973,1.5419987737584304,-9.65787860208461,3.0,0.7150627150627151,1398.4787333126358,0.7066021793601774,0.5514830138103839,-10.25150049530913,1476.923076923077,-1.0,89.0112278160087,0.7146661051944554,
2023-08-15 12:15:42.816000,1.0240963855421688,0.746987951807229,-9.963855421686748,0.8362967504598405,1.5836909871244633,-9.59656652360515,3.0,0.7150627150627151,1398.4787333126358,0.7066021793601774,0.5514830138103839,-10.25150049530913,1449.084249084249,-1.0,89.0112278160087,0.7146590771649377,
2023-08-15 12:15:42.823000,1.0602409638554218,0.746987951807229,-9.93975903614458,0.8436541998773758,1.6499080318822807,-9.608828939301041,3.0,0.7150627150627151,1398.4787333126358,0.447060194627353,0.5362158382378648,-10.449973777751879,1416.117216117216,-1.0,89.0112278160087,0.7146521582016119,
2023-08-15 12:15:42.831000,1.072289156626506,0.746987951807229,-9.91566265060241,0.8362967504598405,1.6548129981606376,-9.625996321275291,3.0,0.7155067155067156,1397.6109215017063,1.1035487442456737,0.6430860672454983,-10.205698968591573,1381.6849816849815,-1.0,89.0112278160087,0.7146453542875961,
2023-08-15 12:15:42.839000,1.0481927710843375,0.746987951807229,-9.891566265060241,0.8485591661557327,1.6695278969957081,-9.54996934396076,3.0,0.7150627150627151,1398.4787333126358,1.0730143931006355,-0.013402482372822228,-10.77058446477478,1342.8571428571427,-1.0,89.0112278160087,0.7146386715474425,
2023-08-15 12:15:42.846000,1.0963855421686748,0.7590361445783133,-9.91566265060241,0.8313917841814837,1.640098099325567,-9.613733905579398,3.0,0.7150627150627151,1398.4787333126358,0.7524037060777347,0.3224753802225976,-11.243866907522872,1298.9010989010987,-1.0,89.0112278160087,0.7146321161049531,
2023-08-15 12:15:42.854000,1.1325301204819278,0.7349397590361446,-9.903614457831326,0.8436541998773758,1.7234825260576332,-9.591661557326793,3.0,0.7155067155067156,1397.6109215017063,0.8134724083678111,0.41407843365771213,-11.533943243400733,1253.4798534798533,-1.0,89.0112278160087,0.7146256939096188,
2023-08-15 12:15:42.862000,1.1325301204819278,0.7228915662650602,-9.91566265060241,0.8828939301042305,1.7651747394236663,-9.603923973022685,3.0,0.7146187146187145,1399.3476234855545,0.6913350037876583,0.35300973136763575,-11.824019579278596,1205.128205128205,-1.0,89.0112278160087,0.714619411010428,
2023-08-15 12:15:42.869000,1.144578313253012,0.746987951807229,-9.93975903614458,0.8240343347639485,1.7480073574494175,-9.594114040465971,3.0,0.7150627150627151,1398.4787333126358,0.5844647747800248,0.4293456092302312,-12.373637899889284,1159.7069597069597,-1.0,89.0112278160087,0.7146132734039173,
2023-08-15 12:15:42.877000,1.1325301204819278,0.7228915662650602,-9.93975903614458,0.8608215818516247,1.7259350091968118,-9.594114040465971,3.0,0.7150627150627151,1398.4787333126358,0.9203426373754446,0.06293339548977318,-12.801118815919818,1115.7509157509157,-1.0,89.0112278160087,0.7146072869685841,
2023-08-15 12:15:42.885000,1.1325301204819278,0.7349397590361446,-9.91566265060241,0.8142244022072348,1.7308399754751684,-9.562231759656651,3.0,0.7150627150627151,1398.4787333126358,0.9966785152380401,0.36827690694015486,-13.182798205232794,1077.6556776556777,-1.0,89.0112278160087,0.7146014576014289,
2023-08-15 12:15:42.892000,1.108433734939759,0.7349397590361446,-9.903614457831326,0.8338442673206621,1.6719803801348865,-9.61128142244022,3.0,0.7155067155067156,1397.6109215017063,1.179884622108269,0.47514713594778846,-13.533943243400733,1044.6886446886447,-1.0,89.0112278160087,0.7145957909286091,
2023-08-15 12:15:42.900000,1.0963855421686748,0.746987951807229,-9.867469879518072,0.8166768853464133,1.6793378295524217,-9.572041692213366,3.0,0.7155067155067156,1397.6109215017063,1.179884622108269,0.5667501893829029,-13.991958510576307,1019.0476190476189,-1.0,89.0112278160087,0.7145902924635065,
2023-08-15 12:15:42.907000,1.072289156626506,0.7228915662650602,-9.867469879518072,0.8289393010423053,1.6646229307173512,-9.584304107909258,3.0,0.7155067155067156,1397.6109215017063,0.9203426373754446,0.3835440825126739,-14.159897441874016,1002.1978021978022,-1.0,89.0112278160087,0.7145849679040146,
2023-08-15 12:15:42.915000,1.0843373493975905,0.7349397590361446,-9.855421686746988,0.8853464132434089,1.6008583690987124,-9.53525444512569,3.0,0.7155067155067156,1397.6109215017063,1.1951517976807882,0.41407843365771213,-14.61791270904959,991.9413919413919,-1.0,89.0112278160087,0.7145798228242398,
2023-08-15 12:15:42.923000,1.0602409638554218,0.7349397590361446,-9.879518072289157,0.8313917841814837,1.6425505824647455,-9.540159411404046,3.0,0.7155067155067156,1397.6109215017063,1.0424800419555973,0.4904143115203075,-14.938523396072489,986.080586080586,-1.0,89.0112278160087,0.7145748625372027,
2023-08-15 12:15:42.930000,1.072289156626506,0.7349397590361446,-9.891566265060241,0.8362967504598405,1.6155732679337829,-9.545064377682403,3.0,0.7155067155067156,1397.6109215017063,1.2409533243983453,0.09346774663481136,-15.457607365538138,981.6849816849816,-1.0,89.0112278160087,0.714570092235023,
2023-08-15 12:15:42.938000,1.0481927710843375,0.746987951807229,-9.843373493975903,0.8608215818516247,1.6253832004904964,-9.56713672593501,3.0,0.7155067155067156,1397.6109215017063,1.378357904551017,0.09346774663481136,-15.747683701416001,982.4175824175824,-1.0,89.0112278160087,0.7145655169805932,
2023-08-15 12:15:42.946000,1.0602409638554218,0.7590361445783133,-9.867469879518072,0.8412017167381973,1.5370938074800735,-9.572041692213366,3.0,0.7155067155067156,1397.6109215017063,1.8363731717265896,0.0476662199172541,-16.114095915156458,986.080586080586,-1.0,89.0112278160087,0.7145611417000536,
2023-08-15 12:15:42.953000,1.036144578313253,0.7710843373493976,-9.903614457831326,0.8853464132434089,1.5714285714285714,-9.635806253832005,3.0,0.7155067155067156,1397.6109215017063,1.6226327137113226,0.2308723267874831,-16.175164617446534,991.2087912087911,-1.0,89.0112278160087,0.7145569711760786,
2023-08-15 12:15:42.961000,1.0240963855421688,0.7710843373493976,-9.879518072289157,0.8951563458001226,1.5959534028203555,-9.613733905579398,3.0,0.7155067155067156,1397.6109215017063,1.50049530913117,0.20033797564244493,-16.28203484645417,996.3369963369963,-1.0,89.0112278160087,0.7145530100419766,
2023-08-15 12:15:42.969000,0.9879518072289157,0.7710843373493976,-9.867469879518072,0.8755364806866952,1.5836909871244633,-9.58185162477008,3.0,0.7155067155067156,1397.6109215017063,1.7447701182914752,0.16980362449740677,-16.44997377775188,999.9999999999999,-1.0,89.0112278160087,0.7145492627765948,
2023-08-15 12:15:42.976000,0.9879518072289157,0.7590361445783133,-9.879518072289157,0.851011649294911,1.5591661557326792,-9.547516860821581,3.0,0.7159507159507159,1396.7441860465117,1.6837014160013988,0.09346774663481136,-16.205698968591573,1004.3956043956043,-1.0,89.0112278160087,0.714545733700026,
2023-08-15 12:15:42.984000,0.9759036144578314,0.7590361445783133,-9.843373493975903,0.762722256284488,1.5665236051502145,-9.508277130594726,3.0,0.7155067155067156,1397.6109215017063,1.4699609579861317,0.582017364955422,-16.63317988462211,1009.5238095238094,-1.0,89.0112278160087,0.7145424271193862,
2023-08-15 12:15:42.992000,1.0,0.746987951807229,-9.843373493975903,0.9147762109135499,1.5346413243408952,-9.498467198038012,3.0,0.7155067155067156,1397.6109215017063,1.9737777518792614,0.20033797564244493,-16.801118815919818,1017.5824175824175,-1.0,89.0112278160087,0.7145393471986418,
2023-08-15 12:15:42.999000,0.9277108433734941,0.7590361445783133,-9.867469879518072,0.8289393010423053,1.5027590435315756,-9.586756591048436,3.0,0.7159507159507159,1396.7441860465117,2.0348464541693376,-0.2118757648155703,-16.969057747217526,1026.3736263736264,-1.0,89.0112278160087,0.7145364977976466,
2023-08-15 12:15:43.007000,0.9277108433734941,0.7590361445783133,-9.867469879518072,0.8706315144083384,1.5199264255058245,-9.574494175352545,3.0,0.7159507159507159,1396.7441860465117,2.080647980886895,-0.10500553580793673,-17.045393625080123,1035.8974358974358,-1.0,89.0112278160087,0.7145338827590421,
2023-08-15 12:15:43.015000,0.9518072289156627,0.7710843373493976,-9.879518072289157,0.8657265481299815,1.5199264255058245,-9.599019006744328,3.0,0.7150627150627151,1398.4787333126358,2.3401899656197194,0.1392692733523686,-17.381271487675544,1044.6886446886447,-1.0,89.0112278160087,0.7145315059296392,
2023-08-15 12:15:43.022000,0.9759036144578314,0.783132530120482,-9.891566265060241,0.8853464132434089,1.5640711220110362,-9.527896995708154,3.0,0.7155067155067156,1397.6109215017063,2.447060194627353,0.41407843365771213,-17.350737136530505,1052.7472527472528,-1.0,89.0112278160087,0.7145293710023771,
2023-08-15 12:15:43.030000,0.9879518072289157,0.7710843373493976,-9.855421686746988,0.9098712446351931,1.5665236051502145,-9.510729613733906,3.0,0.7155067155067156,1397.6109215017063,2.2485869121846047,0.5209486626653457,-17.701882174698444,1062.2710622710622,-1.0,89.0112278160087,0.7145274814448938,
2023-08-15 12:15:43.038000,1.0,0.783132530120482,-9.879518072289157,0.9466584917228693,1.6155732679337829,-9.552421827099938,3.0,0.7155067155067156,1397.6109215017063,2.065380805314376,0.6430860672454983,-18.114095915156458,1071.062271062271,-1.0,89.0112278160087,0.7145258405231284,
2023-08-15 12:15:43.045000,1.0481927710843375,0.7951807228915663,-9.879518072289157,0.8877988963825874,1.6155732679337829,-9.616186388718576,3.0,0.7159507159507159,1396.7441860465117,2.5386632480624676,0.3377425557951167,-18.343103548744246,1079.8534798534797,-1.0,89.0112278160087,0.7145244513145386,
2023-08-15 12:15:43.053000,1.036144578313253,0.7951807228915663,-9.891566265060241,0.8877988963825874,1.6474555487431024,-9.58185162477008,3.0,0.7159507159507159,1396.7441860465117,2.431793019054834,0.749956296253132,-18.09882873958394,1087.9120879120878,-1.0,89.0112278160087,0.71452331686023,
2023-08-15 12:15:43.061000,1.0120481927710845,0.783132530120482,-9.91566265060241,0.8583690987124463,1.610668301655426,-9.665236051502145,3.0,0.7159507159507159,1396.7441860465117,2.431793019054834,0.5514830138103839,-18.37363789988928,1097.4358974358975,-1.0,89.0112278160087,0.7145224401897835,
2023-08-15 12:15:43.068000,1.0240963855421688,0.783132530120482,-9.927710843373495,0.8976088289393009,1.5959534028203555,-9.621091354996933,3.0,0.7159507159507159,1396.7441860465117,2.2180525610395665,0.933162403123361,-18.129363090728976,1111.3553113553112,-1.0,89.0112278160087,0.7145218241871943,
2023-08-15 12:15:43.076000,1.0240963855421688,0.7590361445783133,-9.903614457831326,0.8534641324340895,1.5836909871244633,-9.572041692213366,3.0,0.7159507159507159,1396.7441860465117,2.7982052327952918,1.3606433191538954,-18.465240953324397,1131.135531135531,-1.0,89.0112278160087,0.7145214715957382,
2023-08-15 12:15:43.084000,1.0120481927710845,0.7228915662650602,-9.927710843373495,0.8117719190680563,1.6082158185162476,-9.59656652360515,3.0,0.7159507159507159,1396.7441860465117,2.3859914923372765,1.4522463725890098,-18.541576831186994,1159.7069597069597,-1.0,89.0112278160087,0.7145213850229474,
2023-08-15 12:15:43.091000,1.0481927710843375,0.7228915662650602,-9.91566265060241,0.7946045370938074,1.640098099325567,-9.569589209074188,3.0,0.7159507159507159,1396.7441860465117,2.3859914923372765,1.4522463725890098,-18.541576831186994,1200.7326007326008,-1.0,89.0112278160087,0.714521566945634,
2023-08-15 12:15:43.099000,1.0481927710843375,0.7228915662650602,-9.91566265060241,0.7651747394236664,1.6450030656039238,-9.606376456161863,3.0,0.7163947163947164,1395.87852494577,2.630266301497582,1.3301089680088571,-18.770584464774778,1259.3406593406592,-1.0,89.0112278160087,0.7145220197148889,
2023-08-15 12:15:43.107000,1.0602409638554218,0.674698795180723,-9.903614457831326,0.7381974248927038,1.6670754138565296,-9.59656652360515,3.0,0.7159507159507159,1396.7441860465117,2.233319736612086,1.6049181283142007,-18.678981411339663,1337.7289377289376,-1.0,89.0112278160087,0.7145227457102856,
2023-08-15 12:15:43.114000,1.0240963855421688,0.6506024096385542,-9.927710843373495,0.6989576946658491,1.610668301655426,-9.572041692213366,3.0,0.7159507159507159,1396.7441860465117,2.431793019054834,1.9865975176271777,-18.58737835790455,1438.8278388278388,-1.0,89.0112278160087,0.7145237472172216,
2023-08-15 12:15:43.122000,0.9879518072289157,0.6626506024096386,-9.951807228915664,0.7234825260576333,1.5640711220110362,-9.586756591048436,3.0,0.7163947163947164,1395.87852494577,2.447060194627353,2.0782005710622924,-18.648447060194627,1565.5677655677655,-1.0,89.0112278160087,0.7145250262725176,
2023-08-15 12:15:43.130000,0.9879518072289157,0.6385542168674699,-9.91566265060241,0.745554874310239,1.5248313917841814,-9.608828939301041,3.0,0.7163947163947164,1395.87852494577,2.2485869121846047,1.4980478993065671,-18.846920342637375,1712.087912087912,-1.0,89.0112278160087,0.7145265849569097,
2023-08-15 12:15:43.137000,0.963855421686747,0.6265060240963856,-9.903614457831326,0.6523605150214592,1.546903740036787,-9.601471489883506,3.0,0.7163947163947164,1395.87852494577,2.141716683176971,1.3911776702989334,-18.63317988462211,1873.9926739926739,-1.0,89.0112278160087,0.7145284254210205,
2023-08-15 12:15:43.145000,0.963855421686747,0.6144578313253012,-9.903614457831326,0.7431023911710607,1.5616186388718576,-9.54996934396076,3.0,0.7163947163947164,1395.87852494577,2.2180525610395665,1.2079715634287045,-18.617912709049588,2043.2234432234432,-1.0,89.0112278160087,0.7145305497519885,
2023-08-15 12:15:43.153000,0.9518072289156627,0.6144578313253012,-9.891566265060241,0.7431023911710607,1.522378908645003,-9.542611894543224,3.0,0.7163947163947164,1395.87852494577,2.1264495076044523,0.8873608764058037,-18.694248586912185,2213.186813186813,-1.0,89.0112278160087,0.7145329599785691,
2023-08-15 12:15:43.160000,0.9759036144578314,0.6024096385542169,-9.891566265060241,0.7406499080318822,1.5419987737584304,-9.554874310239116,3.0,0.7163947163947164,1395.87852494577,2.1264495076044523,0.8110249985432083,-18.999592098362566,2373.6263736263736,-1.0,89.0112278160087,0.7145356580758973,
2023-08-15 12:15:43.168000,0.9759036144578314,0.6144578313253012,-9.879518072289157,0.7357449417535254,1.5542611894543223,-9.547516860821581,3.0,0.7159507159507159,1396.7441860465117,2.1264495076044523,0.5972845405279411,-18.831653167064857,2515.7509157509157,-1.0,89.0112278160087,0.7145386459698513,
2023-08-15 12:15:43.176000,1.0,0.6265060240963856,-9.891566265060241,0.7283874923359902,1.5616186388718576,-9.618638871857755,3.0,0.7159507159507159,1396.7441860465117,2.3554571411922383,0.8720937008332846,-18.816385991492336,2631.5018315018315,-1.0,89.0112278160087,0.7145419255304167,
2023-08-15 12:15:43.183000,1.0240963855421688,0.6265060240963856,-9.927710843373495,0.7087676272225628,1.5714285714285714,-9.608828939301041,3.0,0.7163947163947164,1395.87852494577,2.279121263329643,0.9026280519783227,-18.7858516403473,2712.8205128205127,-1.0,89.0112278160087,0.7145454985328356,
2023-08-15 12:15:43.191000,1.0,0.6265060240963856,-9.93975903614458,0.6793378295524218,1.576333537706928,-9.662783568362967,3.0,0.7168387168387169,1395.013936203159,2.3707243167647576,0.9789639298409182,-18.846920342637375,2758.241758241758,-1.0,89.0112278160087,0.7145493667988081,
2023-08-15 12:15:43.199000,0.9759036144578314,0.6265060240963856,-9.927710843373495,0.7112201103617413,1.5297363580625383,-9.625996321275291,3.0,0.7168387168387169,1395.013936203159,2.3707243167647576,1.2537730901462616,-18.556844006759512,2764.102564102564,-1.0,89.0112278160087,0.7145535322303794,
2023-08-15 12:15:43.206000,0.9759036144578314,0.6024096385542169,-9.93975903614458,0.6253832004904966,1.505211526670754,-9.586756591048436,3.0,0.7168387168387169,1395.013936203159,2.5386632480624676,1.2079715634287045,-18.60264553347707,2728.937728937729,-1.0,89.0112278160087,0.7145579967155727,
2023-08-15 12:15:43.214000,1.0240963855421688,0.6144578313253012,-9.927710843373495,0.6695278969957081,1.5665236051502145,-9.574494175352545,3.0,0.7168387168387169,1395.013936203159,2.614999125925063,1.5285822504516051,-18.541576831186994,2656.4102564102564,-1.0,89.0112278160087,0.7145627621405846,
2023-08-15 12:15:43.222000,1.0481927710843375,0.5903614457831325,-9.963855421686748,0.657265481299816,1.5640711220110362,-9.687308399754752,3.0,0.7168387168387169,1395.013936203159,2.233319736612086,1.7117883573218342,-18.037760037293864,2550.18315018315,-1.0,89.0112278160087,0.714567830390921,
2023-08-15 12:15:43.229000,1.036144578313253,0.5903614457831325,-9.963855421686748,0.6523605150214592,1.5419987737584304,-9.699570815450643,3.0,0.7168387168387169,1395.013936203159,2.141716683176971,1.6354524794592389,-18.43470660217936,2419.78021978022,-1.0,89.0112278160087,0.7145732033520008,
2023-08-15 12:15:43.237000,1.036144578313253,0.5903614457831325,-9.963855421686748,0.6793378295524218,1.5910484365419988,-9.655426118945432,3.0,0.7168387168387169,1395.013936203159,1.8058388205815514,1.4980478993065671,-18.28203484645417,2274.7252747252746,-1.0,89.0112278160087,0.714578882909187,
2023-08-15 12:15:43.245000,1.036144578313253,0.5783132530120483,-9.963855421686748,0.6621704475781729,1.6033108522378907,-9.667688534641323,3.0,0.7168387168387169,1395.013936203159,1.7905716450090323,1.3453761435813762,-17.869821105996152,2118.6813186813183,-1.0,89.0112278160087,0.714584870947235,
2023-08-15 12:15:43.252000,1.0120481927710845,0.5783132530120483,-9.927710843373495,0.615573267933783,1.5591661557326792,-9.613733905579398,3.0,0.7168387168387169,1395.013936203159,1.5768311869937652,1.7728570596119104,-17.4270730143931,1958.2417582417581,-1.0,89.0112278160087,0.7145911693491258,
2023-08-15 12:15:43.260000,1.0240963855421688,0.5783132530120483,-9.93975903614458,0.6376456161863887,1.640098099325567,-9.623543838136113,3.0,0.7172827172827172,1394.150417827298,1.729502942718956,1.6659868306042769,-17.41180583882058,1799.2673992673992,-1.0,89.0112278160087,0.7145977799942722,
2023-08-15 12:15:43.268000,1.0120481927710845,0.5662650602409639,-9.951807228915664,0.6621704475781729,1.598405885959534,-9.608828939301041,3.0,0.7168387168387169,1395.013936203159,1.2562204999708644,1.6659868306042769,-17.625546296835847,1643.956043956044,-1.0,89.0112278160087,0.714604704905377,
2023-08-15 12:15:43.275000,1.0120481927710845,0.5783132530120483,-9.93975903614458,0.6646229307173512,1.5885959534028202,-9.633353770692827,3.0,0.7172827172827172,1394.150417827298,1.1188159198181926,1.6659868306042769,-17.747683701416,1496.7032967032967,-1.0,89.0112278160087,0.7146119461179198,
2023-08-15 12:15:43.283000,1.036144578313253,0.5783132530120483,-9.951807228915664,0.6793378295524218,1.6033108522378907,-9.640711220110362,3.0,0.7168387168387169,1395.013936203159,1.3172892022609408,1.8186585863294678,-17.900355457141192,1362.6373626373625,-1.0,89.0112278160087,0.7146195056667595,
2023-08-15 12:15:43.290000,1.036144578313253,0.5903614457831325,-9.93975903614458,0.7136725935009196,1.6180257510729612,-9.601471489883506,3.0,0.7168387168387169,1395.013936203159,1.5157624847036888,1.5438494260241242,-17.869821105996152,1240.2930402930401,-1.0,89.0112278160087,0.7146273855932176,
2023-08-15 12:15:43.298000,1.0602409638554218,0.5903614457831325,-9.927710843373495,0.7014101778050276,1.6204782342121398,-9.633353770692827,3.0,0.7168387168387169,1395.013936203159,1.0577472175281164,1.6659868306042769,-17.06066080065264,1132.6007326007325,697.052001953125,86.07679173416226,0.7146355877812257,
2023-08-15 12:15:43.306000,1.0602409638554218,0.5662650602409639,-9.903614457831326,0.5836909871244634,1.5640711220110362,-9.616186388718576,3.0,0.7168387168387169,1395.013936203159,0.9661441640930019,1.8033914107569486,-17.045393625080123,1039.5604395604396,-1.0,86.07679173416226,0.7146441140906515,
2023-08-15 12:15:43.313000,1.036144578313253,0.5542168674698795,-9.903614457831326,0.6719803801348866,1.6425505824647455,-9.584304107909258,3.0,0.7172827172827172,1394.150417827298,1.2409533243983453,1.7117883573218342,-16.40417225103432,959.7069597069597,-1.0,86.07679173416226,0.7146529663511999,
2023-08-15 12:15:43.321000,1.0602409638554218,0.5421686746987953,-9.91566265060241,0.6793378295524218,1.6474555487431024,-9.522992029429798,3.0,0.7163947163947164,1395.87852494577,1.4241594312685744,1.8033914107569486,-16.58737835790455,891.5750915750915,-1.0,86.07679173416226,0.7146621465049223,
2023-08-15 12:15:43.329000,1.0602409638554218,0.5662650602409639,-9.903614457831326,0.6106683016554261,1.6499080318822807,-9.61128142244022,3.0,0.7168387168387169,1395.013936203159,1.4546937824136126,1.7270555328943533,-16.083561564011422,838.8278388278387,-1.0,86.07679173416226,0.7146716564608002,
2023-08-15 12:15:43.336000,1.036144578313253,0.5421686746987953,-9.891566265060241,0.6523605150214592,1.5861434702636419,-9.630901287553648,3.0,0.7168387168387169,1395.013936203159,1.3936250801235361,1.5591166015966433,-16.083561564011422,802.1978021978022,-1.0,86.07679173416226,0.7146814980347342,
2023-08-15 12:15:43.344000,1.0240963855421688,0.5421686746987953,-9.891566265060241,0.5885959534028203,1.5444512568976088,-9.584304107909258,3.0,0.7168387168387169,1395.013936203159,1.4241594312685744,1.3453761435813762,-15.824019579278596,782.4175824175824,-1.0,86.07679173416226,0.7146916729519187,
2023-08-15 12:15:43.352000,1.036144578313253,0.5301204819277109,-9.91566265060241,0.5935009196811771,1.5297363580625383,-9.613733905579398,3.0,0.7172827172827172,1394.150417827298,1.4852281335586508,1.4217120214439716,-15.457607365538138,780.9523809523808,-1.0,86.07679173416226,0.7147021827201926,
2023-08-15 12:15:43.359000,1.0,0.5301204819277109,-9.903614457831326,0.5738810545677498,1.6646229307173512,-9.621091354996933,3.0,0.7168387168387169,1395.013936203159,1.5615640114212461,1.2232387390012236,-15.518676067828215,796.3369963369963,-1.0,86.07679173416226,0.7147130289182492,
2023-08-15 12:15:43.367000,1.0481927710843375,0.49397590361445787,-9.93975903614458,0.5321888412017167,1.6302881667688534,-9.554874310239116,3.0,0.7172827172827172,1394.150417827298,1.5615640114212461,1.2232387390012236,-15.518676067828215,826.3736263736263,-1.0,86.07679173416226,0.7147242129185287,
2023-08-15 12:15:43.375000,1.0481927710843375,0.5060240963855422,-9.91566265060241,0.5665236051502146,1.5861434702636419,-9.54996934396076,3.0,0.7172827172827172,1394.150417827298,1.4852281335586508,1.1163685099935898,-15.503408892255695,871.7948717948717,-1.0,86.07679173416226,0.7147357360252296,
2023-08-15 12:15:43.382000,1.072289156626506,0.49397590361445787,-9.91566265060241,0.5787860208461066,1.7112201103617413,-9.650521152667075,3.0,0.7172827172827172,1394.150417827298,1.6073655381388035,1.1163685099935898,-15.075927976225161,929.6703296703296,-1.0,86.07679173416226,0.714747599750771,
2023-08-15 12:15:43.390000,1.0843373493975905,0.49397590361445787,-9.91566265060241,0.5052115266707541,1.6204782342121398,-9.591661557326793,3.0,0.7172827172827172,1394.150417827298,1.6226327137113226,1.131635685566109,-14.92325622049997,997.069597069597,-1.0,86.07679173416226,0.7147598055174019,
2023-08-15 12:15:43.398000,1.0843373493975905,0.4819277108433735,-9.927710843373495,0.5959534028203556,1.6376456161863886,-9.655426118945432,3.0,0.7172827172827172,1394.150417827298,1.378357904551017,1.101101334421071,-14.953790571645008,1068.8644688644688,-1.0,86.07679173416226,0.7147723546466334,
2023-08-15 12:15:43.405000,1.0240963855421688,0.46987951807228917,-9.975903614457831,0.5444512568976088,1.6351931330472103,-9.630901287553648,3.0,0.7172827172827172,1394.150417827298,1.2867548511159026,1.864460113047025,-14.541576831186994,1140.6593406593406,-1.0,86.07679173416226,0.7147852483484741,
2023-08-15 12:15:43.413000,1.036144578313253,0.45783132530120485,-9.951807228915664,0.5542611894543225,1.5885959534028202,-9.662783568362967,3.0,0.7172827172827172,1394.150417827298,1.0424800419555973,1.1774372122836663,-14.175164617446535,1210.989010989011,-1.0,86.07679173416226,0.714798487571779,
2023-08-15 12:15:43.421000,1.0120481927710845,0.45783132530120485,-9.975903614457831,0.5272838749233598,1.576333537706928,-9.665236051502145,3.0,0.7172827172827172,1394.150417827298,0.8898082862304064,1.314841792436338,-13.991958510576307,1279.8534798534797,-1.0,86.07679173416226,0.7148120731523517,
2023-08-15 12:15:43.428000,1.0,0.46987951807228917,-9.951807228915664,0.568976088289393,1.5910484365419988,-9.697118332311465,3.0,0.7172827172827172,1394.150417827298,0.798205232795292,1.5438494260241242,-13.549210418973253,1343.5897435897434,-1.0,86.07679173416226,0.7148260059294655,
2023-08-15 12:15:43.436000,1.0240963855421688,0.46987951807228917,-9.975903614457831,0.522378908645003,1.576333537706928,-9.599019006744328,3.0,0.7177267177267178,1393.2879678317352,0.6455334770701011,1.0247654565584754,-13.396538663248062,1400.7326007326005,-1.0,86.07679173416226,0.7148402865856426,
2023-08-15 12:15:43.444000,1.0240963855421688,0.5060240963855422,-9.975903614457831,0.5640711220110362,1.6253832004904964,-9.625996321275291,3.0,0.7172827172827172,1394.150417827298,0.447060194627353,1.146902861138628,-13.014859273935084,1447.6190476190475,-1.0,86.07679173416226,0.7148549157850174,
2023-08-15 12:15:43.451000,1.0240963855421688,0.49397590361445787,-9.951807228915664,0.5616186388718577,1.6131207847946045,-9.594114040465971,3.0,0.7177267177267178,1393.2879678317352,0.447060194627353,0.7804906473981701,-12.495775304469436,1485.7142857142856,-1.0,86.07679173416226,0.7148698940350409,
2023-08-15 12:15:43.459000,1.0,0.5060240963855422,-9.903614457831326,0.5665236051502146,1.5616186388718576,-9.630901287553648,3.0,0.7177267177267178,1393.2879678317352,0.447060194627353,0.9484295786958801,-12.053027212866382,1509.1575091575091,-1.0,86.07679173416226,0.7148852216660332,
2023-08-15 12:15:43.467000,1.0,0.49397590361445787,-9.93975903614458,0.6008583690987124,1.581238503985285,-9.660331085223788,3.0,0.7177267177267178,1393.2879678317352,0.5386632480624676,0.7194219451080938,-11.671347823553406,1518.6813186813185,-1.0,86.07679173416226,0.7149008991200586,
2023-08-15 12:15:43.474000,1.0240963855421688,0.49397590361445787,-9.927710843373495,0.6376456161863887,1.610668301655426,-9.665236051502145,3.0,0.7172827172827172,1394.150417827298,0.4775945457723912,0.6278188916729792,-11.350737136530505,1512.8205128205127,-1.0,86.07679173416226,0.7149169267831256,
2023-08-15 12:15:43.482000,1.0,0.5060240963855422,-9.93975903614458,0.6253832004904966,1.5861434702636419,-9.589209074187615,3.0,0.7172827172827172,1394.150417827298,0.2180525610395668,1.131635685566109,-10.75531728920226,1493.7728937728937,-1.0,86.07679173416226,0.7149333048183472,
2023-08-15 12:15:43.490000,1.0,0.5180722891566265,-9.91566265060241,0.5935009196811771,1.6008583690987124,-9.670141017780502,3.0,0.7177267177267178,1393.2879678317352,-0.056756599265776704,0.45987996037526935,-10.388905075461803,1464.4688644688645,-1.0,86.07679173416226,0.7149500331168669,
2023-08-15 12:15:43.497000,1.0240963855421688,0.5301204819277109,-9.93975903614458,0.5714285714285714,1.5861434702636419,-9.635806253832005,3.0,0.7177267177267178,1393.2879678317352,-0.08729095041081487,0.765223471825651,-10.129363090728978,1427.8388278388277,-1.0,86.07679173416226,0.7149671114296223,
2023-08-15 12:15:43.505000,1.0481927710843375,0.5180722891566265,-9.93975903614458,0.615573267933783,1.6180257510729612,-9.677498467198037,3.0,0.7177267177267178,1393.2879678317352,0.17225103432200956,0.8720937008332846,-9.808752403706077,1383.8827838827838,-1.0,86.07679173416226,0.714984539243331,
2023-08-15 12:15:43.513000,1.0481927710843375,0.5301204819277109,-9.91566265060241,0.6106683016554261,1.627835683629675,-9.640711220110362,3.0,0.7177267177267178,1393.2879678317352,0.15698385874949047,0.9026280519783227,-9.549210418973253,1335.5311355311355,-1.0,86.07679173416226,0.7150023156565525,
2023-08-15 12:15:43.520000,1.036144578313253,0.5421686746987953,-9.927710843373495,0.6376456161863887,1.598405885959534,-9.61128142244022,3.0,0.7177267177267178,1393.2879678317352,0.32492279004720037,0.8415593496882464,-8.77058446477478,1285.7142857142856,-1.0,86.07679173416226,0.7150204395222096,
2023-08-15 12:15:43.528000,1.0602409638554218,0.5180722891566265,-9.927710843373495,0.6376456161863887,1.598405885959534,-9.576946658491723,3.0,0.7177267177267178,1393.2879678317352,0.12644950760445228,0.8873608764058037,-8.785851640347298,1238.095238095238,-1.0,86.07679173416226,0.7150389094411425,
2023-08-15 12:15:43.536000,1.0602409638554218,0.5060240963855422,-9.93975903614458,0.5836909871244634,1.6302881667688534,-9.591661557326793,3.0,0.7177267177267178,1393.2879678317352,0.14171668317697136,0.9026280519783227,-8.358370724316764,1187.5457875457876,-1.0,86.07679173416226,0.7150577237560175,
2023-08-15 12:15:43.543000,1.0602409638554218,0.5060240963855422,-9.91566265060241,0.5665236051502146,1.6499080318822807,-9.623543838136113,3.0,0.7181707181707182,1392.4265842349305,0.35545714119223853,0.7346891206806129,-8.053027212866382,1139.9267399267399,-1.0,86.07679173416226,0.7150768805456144,
2023-08-15 12:15:43.551000,1.0843373493975905,0.5301204819277109,-9.91566265060241,0.5640711220110362,1.6253832004904964,-9.64316370324954,3.0,0.7177267177267178,1393.2879678317352,0.2180525610395668,1.1163685099935898,-7.472874541110658,1096.7032967032967,-1.0,86.07679173416226,0.7150963779075713,
2023-08-15 12:15:43.559000,1.0602409638554218,0.5180722891566265,-9.91566265060241,0.6204782342121398,1.5787860208461066,-9.645616186388718,3.0,0.7181707181707182,1392.4265842349305,0.004312103024299628,1.3911776702989334,-7.564477594545772,1058.6080586080586,-1.0,86.07679173416226,0.715116213666966,
2023-08-15 12:15:43.566000,1.0481927710843375,0.5060240963855422,-9.927710843373495,0.6057633353770693,1.6180257510729612,-9.630901287553648,3.0,0.7181707181707182,1392.4265842349305,-0.02622224812073854,1.2385059145737427,-7.472874541110658,1027.8388278388277,-1.0,86.07679173416226,0.7151363852346507,
2023-08-15 12:15:43.574000,1.0602409638554218,0.5180722891566265,-9.93975903614458,0.6327406499080318,1.6425505824647455,-9.599019006744328,3.0,0.7181707181707182,1392.4265842349305,-0.02622224812073854,1.299574616863819,-7.121729502942719,1005.1282051282051,-1.0,86.07679173416226,0.7151568899132221,
2023-08-15 12:15:43.582000,1.036144578313253,0.5301204819277109,-9.927710843373495,0.6523605150214592,1.6155732679337829,-9.61128142244022,3.0,0.7181707181707182,1392.4265842349305,-0.48423751529631104,0.749956296253132,-6.724782938057222,989.7435897435897,-1.0,86.07679173416226,0.7151777247565038,
2023-08-15 12:15:43.589000,1.0481927710843375,0.5301204819277109,-9.927710843373495,0.6548129981606376,1.5689760882893928,-9.574494175352545,3.0,0.7181707181707182,1392.4265842349305,-0.08729095041081487,0.5209486626653457,-6.556844006759513,980.2197802197802,-1.0,86.07679173416226,0.7151988865684681,
2023-08-15 12:15:43.597000,1.072289156626506,0.5421686746987953,-9.93975903614458,0.6229307173513182,1.6033108522378907,-9.601471489883506,3.0,0.7181707181707182,1392.4265842349305,-0.20942835499096754,-0.013402482372822228,-6.037760037293864,975.8241758241758,-1.0,86.07679173416226,0.7152203719028545,
2023-08-15 12:15:43.605000,1.036144578313253,0.5542168674698795,-9.927710843373495,0.5738810545677498,1.6351931330472103,-9.594114040465971,3.0,0.7181707181707182,1392.4265842349305,-0.5147718664413492,0.8720937008332846,-5.976691335003787,976.5567765567765,-1.0,86.07679173416226,0.715242177063492,
2023-08-15 12:15:43.612000,1.036144578313253,0.5421686746987953,-9.91566265060241,0.6229307173513182,1.622930717351318,-9.638258736971183,3.0,0.7181707181707182,1392.4265842349305,-0.2704970572810439,0.3377425557951167,-5.472874541110658,979.4871794871794,-1.0,86.07679173416226,0.7152642981053167,
2023-08-15 12:15:43.620000,1.036144578313253,0.5662650602409639,-9.91566265060241,0.6499080318822807,1.5935009196811771,-9.621091354996933,3.0,0.7181707181707182,1392.4265842349305,-0.17889400384592938,-0.19660858924305122,-5.243866907522872,986.080586080586,-1.0,86.07679173416226,0.7152867308360827,
2023-08-15 12:15:43.628000,1.036144578313253,0.5662650602409639,-9.91566265060241,0.6425505824647455,1.6008583690987124,-9.54996934396076,3.0,0.7177267177267178,1393.2879678317352,-0.3315657595711202,0.03239904434473502,-4.648447060194627,997.069597069597,-1.0,86.07679173416226,0.7153094708187557,
2023-08-15 12:15:43.635000,1.0481927710843375,0.5542168674698795,-9.91566265060241,0.6719803801348866,1.5861434702636419,-9.540159411404046,3.0,0.7177267177267178,1393.2879678317352,-0.43843598857875377,-0.043936833517860395,-4.678981411339665,1008.7912087912088,-1.0,86.07679173416226,0.715332513364028,
