Shimmer_F5D4_Timestamp_FormattedUnix_CAL,Shimmer_F5D4_Accel_LN_X_CAL,Shimmer_F5D4_Accel_LN_Y_CAL,Shimmer_F5D4_Accel_LN_Z_CAL,Shimmer_F5D4_Accel_WR_X_CAL,Shimmer_F5D4_Accel_WR_Y_CAL,Shimmer_F5D4_Accel_WR_Z_CAL,Shimmer_F5D4_GSR_Range_CAL,Shimmer_F5D4_GSR_Skin_Conductance_CAL,Shimmer_F5D4_GSR_Skin_Resistance_CAL,Shimmer_F5D4_Gyro_X_CAL,Shimmer_F5D4_Gyro_Y_CAL,Shimmer_F5D4_Gyro_Z_CAL,Shimmer_F5D4_PPG_A13_CAL,Shimmer_F5D4_PPG_IBI_CAL,Shimmer_F5D4_PPGtoHR_CAL,Shimmer_F5D4_GSR_Skin_Conductance_LPF_CAL,
yyyy/mm/dd hh:mm:ss.000,m/(s^2),m/(s^2),m/(s^2),m/(s^2),m/(s^2),m/(s^2),no_units,uS,kOhms,deg/s,deg/s,deg/s,mV,ms,BPM,uS,
2023-08-15 14:32:26.104000,-6.096385542168675,-1.1927710843373494,-7.72289156626506,-1.150214592274678,-5.808093194359288,-7.480073574494175,2.0,1.9289377289377287,518.4200531712876,0.17842783054600603,-0.13903618670240694,-0.06876056173882629,1357.5091575091574,-1.0,71.86227566797032,1.93261323556668,
2023-08-15 14:32:26.112000,-6.1084337349397595,-1.2048192771084338,-7.746987951807229,-1.1771919068056407,-5.847332924586143,-7.42611894543225,2.0,1.9274725274725273,518.8141391106044,0.328186003146669,0.04405337684284123,0.12726531087931944,1349.4505494505493,-1.0,71.86227566797032,1.9325726584700917,
2023-08-15 14:32:26.119000,-6.0843373493975905,-1.2048192771084338,-7.746987951807229,-1.155119558553035,-5.778663396689147,-7.418761496014715,2.0,1.9274725274725273,518.8141391106044,0.21828564768952846,0.011887419148067882,0.36885962356506036,1339.9267399267399,-1.0,71.86227566797032,1.932531995705909,
2023-08-15 14:32:26.127000,-6.1084337349397595,-1.1927710843373494,-7.759036144578314,-1.2434089515634579,-5.786020846106683,-7.453096259963212,2.0,1.9274725274725273,518.8141391106044,0.08064798088689504,-0.17318338092185798,-0.14020161995221703,1332.6007326007325,-1.0,71.86227566797032,1.9324912426200282,
2023-08-15 14:32:26.135000,-6.096385542168675,-1.1927710843373494,-7.771084337349398,-1.1747394236664623,-5.783568362967504,-7.4481912936848556,2.0,1.9289377289377287,518.4200531712876,0.15838237864926225,-0.23634986306159284,-0.13996853330225492,1326.007326007326,-1.0,71.86227566797032,1.932450394448623,
2023-08-15 14:32:26.142000,-6.0843373493975905,-1.180722891566265,-7.746987951807229,-1.179644389944819,-5.7811158798283255,-7.445738810545677,2.0,1.9260073260073258,519.2088246481552,0.022026688421421484,0.14626187285123268,0.014567915622632762,1317.9487179487178,-1.0,71.86227566797032,1.9324094468337685,
2023-08-15 14:32:26.150000,-6.120481927710844,-1.1927710843373494,-7.710843373493976,-1.155119558553035,-5.79092581238504,-7.421213979153893,2.0,1.9274725274725273,518.8141391106044,0.236233319736612,0.2841326263038278,-0.06071907231513295,1310.6227106227104,-1.0,71.86227566797032,1.9323683953917075,
2023-08-15 14:32:26.158000,-6.120481927710844,-1.180722891566265,-7.759036144578314,-1.2115266707541386,-5.7811158798283255,-7.435928877988964,2.0,1.9274725274725273,518.8141391106044,-0.025639531495834356,-0.14299865975176232,-0.1073364023075578,1306.227106227106,-1.0,71.86227566797032,1.9323272351078067,
2023-08-15 14:32:26.165000,-6.096385542168675,-1.2048192771084338,-7.746987951807229,-1.137952176578786,-5.746781115879828,-7.475168608215818,2.0,1.9274725274725273,518.8141391106044,-0.0858924305110431,-0.12516753102965963,-0.18227376027038059,1300.3663003663003,-1.0,71.86227566797032,1.9322859609230043,
2023-08-15 14:32:26.173000,-6.120481927710844,-1.1927710843373494,-7.746987951807229,-1.2115266707541386,-5.798283261802575,-7.399141630901287,2.0,1.9274725274725273,518.8141391106044,-0.1157275217061945,-0.15197249577530408,-0.11887419148068273,1295.970695970696,-1.0,71.86227566797032,1.9322445677929514,
2023-08-15 14:32:26.181000,-6.1084337349397595,-1.2048192771084338,-7.746987951807229,-1.1477621091354997,-5.798283261802575,-7.4481912936848556,2.0,1.9274725274725273,518.8141391106044,-0.20651477186644143,-0.20884563836606335,0.172017947672047,1287.9120879120878,-1.0,71.86227566797032,1.9322030507127417,
2023-08-15 14:32:26.188000,-6.120481927710844,-1.1927710843373494,-7.746987951807229,-1.1649294911097485,-5.793378295524218,-7.445738810545677,2.0,1.9274725274725273,518.8141391106044,-0.17329992424683882,-0.01911310529689363,-0.17924363382087274,1279.8534798534797,-1.0,71.86227566797032,1.9321614047419544,
2023-08-15 14:32:26.196000,-6.120481927710844,-1.1927710843373494,-7.746987951807229,-1.1600245248313916,-5.817903126916002,-7.391784181483752,2.0,1.9274725274725273,518.8141391106044,-0.033797564244508534,-0.244507895810267,-0.26909853738127165,1272.5274725274724,-1.0,71.86227566797032,1.9321196250299577,
2023-08-15 14:32:26.204000,-6.1084337349397595,-1.180722891566265,-7.746987951807229,-1.1649294911097485,-5.80564071122011,-7.509503372164316,2.0,1.9274725274725273,518.8141391106044,0.05768894586562513,0.03449682419439355,0.024241011596060846,1266.6666666666665,-1.0,71.86227566797032,1.9320777068414177,
2023-08-15 14:32:26.211000,-6.120481927710844,-1.1927710843373494,-7.759036144578314,-1.125689760882894,-5.793378295524218,-7.433476394849785,2.0,1.9274725274725273,518.8141391106044,-0.1574500320494138,-0.07272303478818254,0.13052852397878895,1264.4688644688645,-1.0,71.86227566797032,1.9320356455819392,
2023-08-15 14:32:26.219000,-6.1084337349397595,-1.1686746987951808,-7.746987951807229,-1.1722869405272838,-5.80564071122011,-7.4923359901900675,2.0,1.9274725274725273,518.8141391106044,-0.11351319853155341,-0.08577588718606226,-0.18926635976924422,1264.4688644688645,-1.0,71.86227566797032,1.9319934368237852,
2023-08-15 14:32:26.227000,-6.120481927710844,-1.180722891566265,-7.734939759036145,-1.061925199264255,-5.746781115879828,-7.408951563458001,2.0,1.9274725274725273,518.8141391106044,-0.3567391177670295,0.0055940795990905645,-0.20360118874191488,1265.9340659340658,-1.0,71.86227566797032,1.9319510763315988,
2023-08-15 14:32:26.234000,-6.096385542168675,-1.1927710843373494,-7.746987951807229,-1.2188841201716738,-5.800735744941753,-7.404046597179644,2.0,1.9274725274725273,518.8141391106044,-0.26163976458248295,-0.17936017714585445,-0.2776062001048888,1267.3992673992673,-1.0,71.86227566797032,1.9319085600880552,
2023-08-15 14:32:26.242000,-6.1084337349397595,-1.180722891566265,-7.734939759036145,-1.1060698957694666,-5.8031882280809315,-7.435928877988964,2.0,1.9274725274725273,518.8141391106044,0.07750131111240552,-0.1650253481731838,0.3048773381504575,1265.9340659340658,-1.0,71.86227566797032,1.9318658843193837,
2023-08-15 14:32:26.250000,-6.120481927710844,-1.1927710843373494,-7.771084337349398,-1.1698344573881054,-5.788473329245861,-7.401594114040465,2.0,1.9274725274725273,518.8141391106044,-0.5021851873433946,0.002214323174639364,0.025989161470776866,1263.7362637362637,-1.0,71.86227566797032,1.9318230455206669,
2023-08-15 14:32:26.257000,-6.1084337349397595,-1.1927710843373494,-7.746987951807229,-1.1894543225015328,-5.717351318209687,-7.433476394849785,2.0,1.9274725274725273,518.8141391106044,-0.008740749373580091,0.24322591923547607,0.1329759338033913,1260.07326007326,-1.0,71.86227566797032,1.9317800404808672,
2023-08-15 14:32:26.265000,-6.1084337349397595,-1.2048192771084338,-7.72289156626506,-1.1183323114653587,-5.8031882280809315,-7.42611894543225,2.0,1.9274725274725273,518.8141391106044,0.20453353534176372,0.08682477711089152,-0.4042887943593032,1259.3406593406592,-1.0,71.86227566797032,1.9317368663074714,
2023-08-15 14:32:26.273000,-6.1084337349397595,-1.1927710843373494,-7.783132530120482,-1.150214592274678,-5.798283261802575,-7.460453709380747,2.0,1.9274725274725273,518.8141391106044,-0.06992599498863726,-0.08297884738651524,-0.1555853388497174,1258.6080586080586,-1.0,71.86227566797032,1.931693520450715,
2023-08-15 14:32:26.280000,-6.1084337349397595,-1.216867469879518,-7.734939759036145,-1.1943592887798895,-5.827713059472716,-7.445738810545677,2.0,1.9260073260073258,519.2088246481552,-0.28121904317930163,-0.02249286172134483,-0.12248703455509605,1256.4102564102564,-1.0,71.86227566797032,1.9316500007272703,
2023-08-15 14:32:26.288000,-6.072289156626506,-1.2048192771084338,-7.759036144578314,-1.1404046597179645,-5.79092581238504,-7.423666462293071,2.0,1.9274725274725273,518.8141391106044,-0.15675077209952878,-0.1475438494260236,-0.02738768137054951,1256.4102564102564,-1.0,71.86227566797032,1.9316063048506735,
2023-08-15 14:32:26.296000,-6.096385542168675,-1.1927710843373494,-7.759036144578314,-1.1575720416922133,-5.719803801348865,-7.438381361128142,2.0,1.9260073260073258,519.2088246481552,0.13623914690286165,-0.15022434590058806,0.11281393858166752,1256.4102564102564,-1.0,71.86227566797032,1.9315624313321031,
2023-08-15 14:32:26.303000,-6.1084337349397595,-1.2048192771084338,-7.746987951807229,-1.1232372777437154,-5.734518700183936,-7.401594114040465,2.0,1.9260073260073258,519.2088246481552,0.10558825243284264,-0.3315657595711202,-0.1610628751238271,1259.3406593406592,-1.0,71.86227566797032,1.9315183794666149,
2023-08-15 14:32:26.311000,-6.0843373493975905,-1.1927710843373494,-7.710843373493976,-1.1747394236664623,-5.808093194359288,-7.399141630901287,2.0,1.9260073260073258,519.2088246481552,0.1499912592506264,-0.056640055940795866,-0.19043179301905475,1260.8058608058607,-1.0,71.86227566797032,1.9314741483349334,
2023-08-15 14:32:26.319000,-6.096385542168675,-1.1927710843373494,-7.746987951807229,-1.1281422440220723,-5.788473329245861,-7.421213979153893,2.0,1.9260073260073258,519.2088246481552,-0.1386865567274627,-0.16514189149816463,-0.3410057688945866,1263.7362637362637,-1.0,71.86227566797032,1.931429737278738,
2023-08-15 14:32:26.326000,-6.0843373493975905,-1.1927710843373494,-7.759036144578314,-1.2066217044757817,-5.8326180257510725,-7.435928877988964,2.0,1.9274725274725273,518.8141391106044,-0.029019287920283823,0.001631606549735182,-0.12318629450498236,1266.6666666666665,-1.0,71.86227566797032,1.9313851454580095,
2023-08-15 14:32:26.334000,-6.1084337349397595,-1.180722891566265,-7.759036144578314,-1.1109748620478233,-5.8031882280809315,-7.460453709380747,2.0,1.9274725274725273,518.8141391106044,0.019462735271837873,-0.1503408892255689,-0.106054425732766,1269.5970695970695,-1.0,71.86227566797032,1.9313403728818017,
2023-08-15 14:32:26.342000,-6.096385542168675,-1.1686746987951808,-7.771084337349398,-1.0962599632127528,-5.788473329245861,-7.47271612507664,2.0,1.9274725274725273,518.8141391106044,-0.2534817318338088,-0.07248994813822088,0.016082978847386676,1273.260073260073,-1.0,71.86227566797032,1.9312954209122863,
2023-08-15 14:32:26.349000,-6.096385542168675,-1.1686746987951808,-7.759036144578314,-1.1060698957694666,-5.786020846106683,-7.391784181483752,2.0,1.9260073260073258,519.2088246481552,0.10092651943359877,-0.055824252665928276,0.07866674436221649,1278.3882783882782,-1.0,71.86227566797032,1.9312502908710432,
2023-08-15 14:32:26.357000,-6.0843373493975905,-1.180722891566265,-7.746987951807229,-1.1453096259963211,-5.746781115879828,-7.438381361128142,2.0,1.9274725274725273,518.8141391106044,-0.37223937998951023,0.03659460404405381,0.09323465998484924,1282.051282051282,-1.0,71.86227566797032,1.9312049840846057,
2023-08-15 14:32:26.365000,-6.1084337349397595,-1.2048192771084338,-7.72289156626506,-1.1649294911097485,-5.798283261802575,-7.42611894543225,2.0,1.9260073260073258,519.2088246481552,0.2887943593030716,0.2350678864868019,0.09125342346017112,1284.9816849816848,-1.0,71.86227566797032,1.9311595027375412,
2023-08-15 14:32:26.372000,-6.1325301204819285,-1.2048192771084338,-7.734939759036145,-1.1526670754138564,-5.815450643776824,-7.428571428571428,2.0,1.9260073260073258,519.2088246481552,0.2887943593030716,0.23600023308665033,0.0928850300099063,1282.7838827838827,-1.0,71.86227566797032,1.9311138494221134,
2023-08-15 14:32:26.380000,-6.120481927710844,-1.216867469879518,-7.746987951807229,-1.179644389944819,-5.864500306560392,-7.460453709380747,2.0,1.9260073260073258,519.2088246481552,-0.05990326904026623,-0.17609696404638409,0.047899306567216214,1283.5164835164835,-1.0,71.86227566797032,1.9310680266165334,
2023-08-15 14:32:26.388000,-6.1084337349397595,-1.216867469879518,-7.771084337349398,-1.1354996934396075,-5.8522378908645,-7.497240956468424,2.0,1.9274725274725273,518.8141391106044,-0.24404172251034367,-0.4020744711846634,-0.10430627585805041,1284.9816849816848,-1.0,71.86227566797032,1.931022037144008,
2023-08-15 14:32:26.395000,-6.096385542168675,-1.2048192771084338,-7.771084337349398,-1.2041692213366033,-5.739423666462293,-7.404046597179644,2.0,1.9274725274725273,518.8141391106044,0.07994872093700829,-0.32037760037293905,0.23366936658702883,1287.179487179487,-1.0,71.86227566797032,1.9309758846644662,
2023-08-15 14:32:26.403000,-6.1084337349397595,-1.2289156626506024,-7.759036144578314,-1.1330472103004292,-5.7811158798283255,-7.396689147762109,2.0,1.9260073260073258,519.2088246481552,0.30580968475030673,-0.4831886253714818,-0.029019287920284256,1290.8424908424909,-1.0,71.86227566797032,1.9309295737437226,
2023-08-15 14:32:26.410000,-6.1084337349397595,-1.2048192771084338,-7.746987951807229,-1.1526670754138564,-5.776210913549969,-7.460453709380747,2.0,1.9274725274725273,518.8141391106044,0.013985198997728147,-0.4463609346774663,0.17143523104714195,1292.3076923076922,-1.0,71.86227566797032,1.9308831089034966,
2023-08-15 14:32:26.418000,-6.072289156626506,-1.1927710843373494,-7.72289156626506,-1.120784794604537,-5.7271612507664,-7.404046597179644,2.0,1.9260073260073258,519.2088246481552,0.198007109142823,-0.1818075869704555,0.11071615873200856,1293.7728937728937,-1.0,71.86227566797032,1.930836495041152,
2023-08-15 14:32:26.426000,-6.096385542168675,-1.1927710843373494,-7.746987951807229,-1.1428571428571428,-5.7369711833231145,-7.381974248927039,2.0,1.9260073260073258,519.2088246481552,0.13460754035312647,0.15698385874949047,0.019928908571761654,1295.2380952380952,-1.0,71.86227566797032,1.9307897374595655,
2023-08-15 14:32:26.433000,-6.0843373493975905,-1.1927710843373494,-7.72289156626506,-1.1232372777437154,-5.776210913549969,-7.384426732066217,2.0,1.9260073260073258,519.2088246481552,0.08577588718606226,-0.07179068818833412,0.28098595652934,1296.7032967032967,-1.0,71.86227566797032,1.9307428413333667,
2023-08-15 14:32:26.441000,-6.096385542168675,-1.1927710843373494,-7.72289156626506,-1.1428571428571428,-5.79092581238504,-7.389331698344574,2.0,1.9274725274725273,518.8141391106044,-0.09882873958394024,-0.14859273935085288,0.004661732999242571,1300.3663003663003,-1.0,71.86227566797032,1.9306958121565,
2023-08-15 14:32:26.449000,-6.0843373493975905,-1.180722891566265,-7.710843373493976,-1.1428571428571428,-5.798283261802575,-7.431023911710606,2.0,1.9245421245421244,519.604111153407,-0.09789639298409182,0.09684750305926255,0.2776062001048888,1301.098901098901,-1.0,71.86227566797032,1.9306486562230416,
2023-08-15 14:32:26.456000,-6.1084337349397595,-1.1927710843373494,-7.783132530120482,-1.155119558553035,-5.776210913549969,-7.445738810545677,2.0,1.9260073260073258,519.2088246481552,-0.26583532428180173,0.2943884389021622,-0.2594254414078431,1301.8315018315018,-1.0,71.86227566797032,1.930601380158642,
2023-08-15 14:32:26.464000,-6.1325301204819285,-1.1927710843373494,-7.759036144578314,-1.2164316370324952,-5.869405272838749,-7.462906192519926,2.0,1.9260073260073258,519.2088246481552,-0.2508012353592443,0.2481207388846799,0.2319212167123128,1302.5641025641025,-1.0,71.86227566797032,1.9305539902767994,
2023-08-15 14:32:26.472000,-6.1325301204819285,-1.216867469879518,-7.783132530120482,-1.1747394236664623,-5.820355610055181,-7.531575720416922,2.0,1.9260073260073258,519.2088246481552,-0.4617446535749662,0.3077909212749844,0.12213740458015267,1298.9010989010987,-1.0,71.86227566797032,1.9305064931249627,
2023-08-15 14:32:26.479000,-6.144578313253012,-1.180722891566265,-7.771084337349398,-1.1453096259963211,-5.812998160637646,-7.48743102391171,2.0,1.9260073260073258,519.2088246481552,-0.2588427247829377,0.0017481498747160184,-0.09148651011013323,1290.10989010989,-1.0,71.86227566797032,1.9304588955018784,
2023-08-15 14:32:26.487000,-6.1084337349397595,-1.216867469879518,-7.795180722891566,-1.1453096259963211,-5.79092581238504,-7.5144083384426725,2.0,1.9260073260073258,519.2088246481552,-0.47060194627352714,-0.5465881941611801,-0.09113688013519029,1282.051282051282,-1.0,71.86227566797032,1.930411204439255,
2023-08-15 14:32:26.495000,-6.096385542168675,-1.2048192771084338,-7.807228915662651,-1.1477621091354997,-5.788473329245861,-7.4849785407725316,2.0,1.9260073260073258,519.2088246481552,-0.1480100227259487,-0.6906357438377716,-0.014917545597575707,1275.4578754578754,-1.0,71.86227566797032,1.9303634271827113,
2023-08-15 14:32:26.502000,-6.1084337349397595,-1.1927710843373494,-7.771084337349398,-1.1428571428571428,-5.771305947271612,-7.4481912936848556,2.0,1.9260073260073258,519.2088246481552,-0.024357554921041684,-0.5763067420313506,0.2767903968300216,1272.5274725274724,-1.0,71.86227566797032,1.9303155711721534,
2023-08-15 14:32:26.510000,-6.120481927710844,-1.2048192771084338,-7.759036144578314,-1.1673819742489269,-5.7590435315757205,-7.453096259963212,2.0,1.9260073260073258,519.2088246481552,-0.1157275217061945,-0.3723559233144928,0.10500553580793673,1273.9926739926739,-1.0,71.86227566797032,1.930267644021763,
2023-08-15 14:32:26.518000,-6.072289156626506,-1.2048192771084338,-7.759036144578314,-1.2115266707541386,-5.761496014714899,-7.438381361128142,2.0,1.9260073260073258,519.2088246481552,0.022609405046325665,-0.3555736845172194,-0.001981236524678125,1281.3186813186812,-1.0,71.86227566797032,1.9302196534997422,
2023-08-15 14:32:26.525000,-6.072289156626506,-1.1927710843373494,-7.734939759036145,-1.0987124463519313,-5.776210913549969,-7.450643776824034,2.0,1.9260073260073258,519.2088246481552,0.07097488491346653,-0.48936542159547824,-0.2146728046151156,1293.7728937728937,-1.0,71.86227566797032,1.9301716075079918,
2023-08-15 14:32:26.533000,-6.0843373493975905,-1.1927710843373494,-7.710843373493976,-1.1673819742489269,-5.739423666462293,-7.39423666462293,2.0,1.9260073260073258,519.2088246481552,-0.054192646116193094,-0.14940854262572048,0.046966959967367786,1308.4249084249084,-1.0,71.86227566797032,1.9301235140618722,
2023-08-15 14:32:26.541000,-6.1084337349397595,-1.1927710843373494,-7.746987951807229,-1.155119558553035,-5.687921520539546,-7.391784181483752,2.0,1.9260073260073258,519.2088246481552,0.09743021968416674,-0.1931122894936192,0.09090379348522817,1324.5421245421244,-1.0,71.86227566797032,1.930075381270216,
2023-08-15 14:32:26.548000,-6.0843373493975905,-1.1686746987951808,-7.710843373493976,-1.1600245248313916,-5.79092581238504,-7.416309012875536,2.0,1.9260073260073258,519.2088246481552,0.25021851873434015,-0.11467863178136525,-0.07796748441233016,1348.7179487179487,-1.0,71.86227566797032,1.9300272173157331,
2023-08-15 14:32:26.556000,-6.096385542168675,-1.180722891566265,-7.710843373493976,-1.1354996934396075,-5.862047823421213,-7.401594114040465,2.0,1.9260073260073258,519.2088246481552,0.17283375094691372,0.07004253831361809,0.04451955014276544,1380.2197802197802,811.95068359375,73.89611365857326,1.9299790304359659,
2023-08-15 14:32:26.564000,-6.1325301204819285,-1.1686746987951808,-7.746987951807229,-1.091354996934396,-5.788473329245861,-7.431023911710606,2.0,1.9260073260073258,519.2088246481552,-0.028669657945341313,0.06596352193928014,-0.018064215372064367,1417.5824175824175,-1.0,73.89611365857326,1.9299308289049366,
2023-08-15 14:32:26.571000,-6.1325301204819285,-1.1566265060240966,-7.746987951807229,-1.1183323114653587,-5.822808093194359,-7.372164316370324,2.0,1.9260073260073258,519.2088246481552,0.24718839228483144,0.23250393333721828,-0.0010488899248296977,1459.3406593406592,-1.0,73.89611365857326,1.9298826210156166,
2023-08-15 14:32:26.579000,-6.1325301204819285,-1.1686746987951808,-7.746987951807229,-1.1183323114653587,-5.837522992029429,-7.42611894543225,2.0,1.9260073260073258,519.2088246481552,0.028203484645416232,0.5338849717382428,-0.24660567565992642,1504.7619047619046,-1.0,73.89611365857326,1.9298344150633424,
2023-08-15 14:32:26.587000,-6.1325301204819285,-1.1566265060240966,-7.771084337349398,-1.179644389944819,-5.847332924586143,-7.460453709380747,2.0,1.9260073260073258,519.2088246481552,-0.09474972320960402,0.6810791911893239,-0.25919235475788105,1554.5787545787546,-1.0,73.89611365857326,1.9297862193303166,
2023-08-15 14:32:26.594000,-6.144578313253012,-1.180722891566265,-7.783132530120482,-1.1134273451870018,-5.79092581238504,-7.4849785407725316,2.0,1.9260073260073258,519.2088246481552,-0.45953033040032687,0.40265718780956755,-0.24136122603577878,1602.197802197802,-1.0,73.89611365857326,1.929738042071268,
2023-08-15 14:32:26.602000,-6.156626506024097,-1.1686746987951808,-7.795180722891566,-1.0668301655426118,-5.825260576333537,-7.435928877988964,2.0,1.9245421245421244,519.604111153407,-0.19462735271837353,0.35300973136763575,-0.16409300157333492,1646.153846153846,-1.0,73.89611365857326,1.9296898915004022,
2023-08-15 14:32:26.610000,-6.120481927710844,-1.1927710843373494,-7.783132530120482,-1.1649294911097485,-5.8399754751686075,-7.4776210913549965,2.0,1.9245421245421244,519.604111153407,-0.13262630382844878,-0.0791329176621407,0.08332847736145906,1685.7142857142856,-1.0,73.89611365857326,1.9296417757449094,
2023-08-15 14:32:26.617000,-6.120481927710844,-1.1927710843373494,-7.807228915662651,-1.1722869405272838,-5.800735744941753,-7.5070508890251375,2.0,1.9260073260073258,519.2088246481552,-0.17737894062117676,-0.1707359710972552,0.007924946098712067,1720.14652014652,-1.0,73.89611365857326,1.929593702695268,
2023-08-15 14:32:26.625000,-6.1084337349397595,-1.180722891566265,-7.795180722891566,-1.1649294911097485,-5.798283261802575,-7.4481912936848556,2.0,1.9260073260073258,519.2088246481552,-0.11479517510634608,-0.2759745935551536,-0.005827166249053105,1741.3919413919414,-1.0,73.89611365857326,1.929545680453088,
2023-08-15 14:32:26.633000,-6.096385542168675,-1.1927710843373494,-7.783132530120482,-1.079092581238504,-5.815450643776824,-7.445738810545677,2.0,1.9260073260073258,519.2088246481552,-0.29450498222714305,-0.43995105180350813,0.02412446827107958,1746.5201465201465,-1.0,73.89611365857326,1.9294977173935586,
2023-08-15 14:32:26.640000,-6.1084337349397595,-1.2048192771084338,-7.771084337349398,-1.155119558553035,-5.844880441446965,-7.47271612507664,2.0,1.9260073260073258,519.2088246481552,-0.35347590466756085,-0.7568323524270152,-0.082745760736554,1739.9267399267399,-1.0,73.89611365857326,1.9294498212458875,
2023-08-15 14:32:26.648000,-6.1084337349397595,-1.216867469879518,-7.771084337349398,-1.2286940527283874,-5.793378295524218,-7.438381361128142,2.0,1.9245421245421244,519.604111153407,-0.3507954081929964,-0.7508886428529804,-0.0801818075869704,1718.6813186813185,-1.0,73.89611365857326,1.9294019996156409,
2023-08-15 14:32:26.656000,-6.1084337349397595,-1.2409638554216869,-7.72289156626506,-1.1649294911097485,-5.7811158798283255,-7.406499080318822,2.0,1.9260073260073258,519.2088246481552,-0.25557951168346904,-0.7748965677990796,-0.09568206980945158,1686.4468864468863,-1.0,73.89611365857326,1.9293542594536228,
2023-08-15 14:32:26.663000,-6.1084337349397595,-1.2289156626506024,-7.759036144578314,-1.1575720416922133,-5.8105456774984665,-7.431023911710606,2.0,1.9260073260073258,519.2088246481552,-0.17376609754676214,-0.6931996969873553,-0.4299283258551367,1644.6886446886447,-1.0,73.89611365857326,1.9293066075088643,
2023-08-15 14:32:26.671000,-6.1084337349397595,-1.2530120481927711,-7.759036144578314,-1.2360515021459226,-5.800735744941753,-7.47271612507664,2.0,1.9260073260073258,519.2088246481552,-0.2963696754268399,-0.7947089330458599,-0.24544024241011586,1598.5347985347985,-1.0,73.89611365857326,1.9292590512754322,
2023-08-15 14:32:26.679000,-6.120481927710844,-1.2409638554216869,-7.72289156626506,-1.2630288166768853,-5.788473329245861,-7.443286327406499,2.0,1.9260073260073258,519.2088246481552,-0.2044169920167829,-0.36221665404113923,-0.4259658528057804,1545.7875457875457,-1.0,73.89611365857326,1.9292115980442648,
2023-08-15 14:32:26.686000,-6.1325301204819285,-1.2650602409638554,-7.746987951807229,-1.2728387492335989,-5.7664009809932555,-7.458001226241569,2.0,1.9260073260073258,519.2088246481552,-0.11036652875706562,-0.14672804615115603,-0.3921682885612728,1493.7728937728937,-1.0,73.89611365857326,1.9291642549067303,
2023-08-15 14:32:26.694000,-6.120481927710844,-1.2771084337349399,-7.759036144578314,-1.213979153893317,-5.812998160637646,-7.465358675659105,2.0,1.9260073260073258,519.2088246481552,-0.167356214672804,0.17318338092185798,-0.23413553988695304,1442.4908424908424,-1.0,73.89611365857326,1.9291170287593653,
2023-08-15 14:32:26.702000,-6.1084337349397595,-1.2891566265060241,-7.759036144578314,-1.2213366033108521,-5.80564071122011,-7.443286327406499,2.0,1.9245421245421244,519.604111153407,-0.30138103840102626,0.199055999067654,-0.6428529805955362,1392.6739926739926,-1.0,73.89611365857326,1.9290699263097717,
2023-08-15 14:32:26.709000,-6.096385542168675,-1.2650602409638554,-7.771084337349398,-1.260576333537707,-5.817903126916002,-7.458001226241569,2.0,1.9245421245421244,519.604111153407,-0.327486743196784,0.07295612143814421,-0.6353942077967484,1348.7179487179487,-1.0,73.89611365857326,1.9290229535909995,
2023-08-15 14:32:26.717000,-6.0843373493975905,-1.2771084337349399,-7.746987951807229,-1.2017167381974247,-5.793378295524218,-7.497240956468424,2.0,1.9260073260073258,519.2088246481552,-0.5069634636676192,0.13274284715342963,-0.597051453877979,1310.6227106227104,-1.0,73.89611365857326,1.9289761158975194,
2023-08-15 14:32:26.725000,-6.1084337349397595,-1.2891566265060241,-7.759036144578314,-1.2409564684242795,-5.8031882280809315,-7.428571428571428,2.0,1.9260073260073258,519.2088246481552,-0.8332847736145914,-0.019462735271837873,-0.6982110599615408,1278.3882783882782,-1.0,73.89611365857326,1.9289294187394606,
2023-08-15 14:32:26.732000,-6.1084337349397595,-1.2771084337349399,-7.746987951807229,-1.2286940527283874,-5.7296137339055795,-7.516860821581851,2.0,1.9245421245421244,519.604111153407,-0.4733989860730724,0.1358895169279174,-1.1047141774954838,1252.014652014652,-1.0,73.89611365857326,1.928882867918912,
2023-08-15 14:32:26.740000,-6.1084337349397595,-1.2771084337349399,-7.771084337349398,-1.2409564684242795,-5.7811158798283255,-7.42611894543225,2.0,1.9245421245421244,519.604111153407,-1.0635743837771685,0.138453470077501,-1.096905774721753,1226.3736263736264,-1.0,73.89611365857326,1.9288364685894988,
2023-08-15 14:32:26.748000,-6.120481927710844,-1.2891566265060241,-7.746987951807229,-1.2458614347026364,-5.756591048436542,-7.5070508890251375,2.0,1.9245421245421244,519.604111153407,-1.1480682943884382,0.01713186877221594,-1.6528174348814173,1203.6630036630036,-1.0,73.89611365857326,1.928790225195292,
2023-08-15 14:32:26.755000,-6.096385542168675,-1.313253012048193,-7.783132530120482,-1.2581238503985284,-5.820355610055181,-7.455548743102391,2.0,1.9230769230769231,520.0,-1.1844298117825303,-0.3129188275741499,-1.456208845638366,1188.278388278388,-1.0,73.89611365857326,1.9287441419351965,
2023-08-15 14:32:26.763000,-6.0843373493975905,-1.3253012048192772,-7.771084337349398,-1.2703862660944205,-5.7664009809932555,-7.431023911710606,2.0,1.9230769230769231,520.0,-1.556902278422004,-0.2291241769127671,-1.5349921333255638,1175.8241758241757,-1.0,73.89611365857326,1.9286982227349434,
2023-08-15 14:32:26.771000,-6.048192771084338,-1.3253012048192772,-7.807228915662651,-1.3243408951563458,-5.763948497854077,-7.480073574494175,2.0,1.9245421245421244,519.604111153407,-1.4211293048190656,-0.10407318920808831,-1.9178369558883515,1167.7655677655678,-1.0,73.89611365857326,1.928652471114707,
2023-08-15 14:32:26.778000,-6.0843373493975905,-1.349397590361446,-7.771084337349398,-1.3292458614347025,-5.7369711833231145,-7.450643776824034,2.0,1.9245421245421244,519.604111153407,-1.6686673270788415,-0.3462502185187351,-1.9338033914107573,1159.7069597069597,-1.0,73.89611365857326,1.9286068901951132,
2023-08-15 14:32:26.786000,-6.096385542168675,-1.349397590361446,-7.734939759036145,-1.2998160637645615,-5.734518700183936,-7.418761496014715,2.0,1.9245421245421244,519.604111153407,-1.7471009847910954,-0.585047491404929,-1.917487325913408,1158.2417582417581,-1.0,73.89611365857326,1.92856148284164,
2023-08-15 14:32:26.793000,-6.0843373493975905,-1.3734939759036144,-7.698795180722892,-1.3243408951563458,-5.771305947271612,-7.453096259963212,2.0,1.9245421245421244,519.604111153407,-1.9470893304585977,-0.22737602703805107,-2.116193695006119,1158.974358974359,-1.0,73.89611365857326,1.9285162521624404,
2023-08-15 14:32:26.801000,-6.0843373493975905,-1.349397590361446,-7.698795180722892,-1.3684855916615573,-5.7443286327406495,-7.408951563458001,2.0,1.9245421245421244,519.604111153407,-2.4949595011945687,0.2793543499796048,-2.206048598566517,1164.102564102564,-1.0,73.89611365857326,1.928471200988605,
2023-08-15 14:32:26.809000,-6.120481927710844,-1.349397590361446,-7.698795180722892,-1.3096259963212753,-5.7737584304107905,-7.418761496014715,2.0,1.9245421245421244,519.604111153407,-2.2298234368626537,0.09509935318454654,-2.5408775712371074,1172.161172161172,-1.0,73.89611365857326,1.928426331458636,
2023-08-15 14:32:26.816000,-6.0843373493975905,-1.3975903614457832,-7.698795180722892,-1.3684855916615573,-5.761496014714899,-7.423666462293071,2.0,1.9245421245421244,519.604111153407,-3.0227842200337975,0.9816444263154827,-3.2529572868713945,1182.4175824175823,-1.0,73.89611365857326,1.9283816455162888,
2023-08-15 14:32:26.824000,-6.096385542168675,-1.3975903614457832,-7.72289156626506,-1.356223175965665,-5.8105456774984665,-7.423666462293071,2.0,1.9245421245421244,519.604111153407,-3.4424567332906,0.5608064798088681,-3.350737136530505,1189.7435897435896,-1.0,73.89611365857326,1.9283371453738434,
2023-08-15 14:32:26.832000,-6.1084337349397595,-1.4096385542168675,-7.710843373493976,-1.2998160637645615,-5.830165542611894,-7.369711833231146,2.0,1.9245421245421244,519.604111153407,-2.637375444321425,0.4637258900996439,-2.8521647922615236,1200.0,-1.0,73.89611365857326,1.9282928329926197,
2023-08-15 14:32:26.839000,-6.1325301204819285,-1.3614457831325302,-7.698795180722892,-1.3415082771305946,-5.80564071122011,-7.342734518700183,2.0,1.9245421245421244,519.604111153407,-3.4562088456383653,-0.027154594720586966,-4.768137054950178,1208.7912087912086,-1.0,73.89611365857326,1.9282487101256156,
2023-08-15 14:32:26.847000,-6.144578313253012,-1.3975903614457832,-7.686746987951808,-1.3537706928264868,-5.879215205395463,-7.313304721030042,2.0,1.9245421245421244,519.604111153407,-3.1366470485402935,-0.8793193869821103,-5.479983683934502,1220.5128205128203,-1.0,73.89611365857326,1.9282047782905531,
2023-08-15 14:32:26.855000,-6.156626506024097,-1.3734939759036144,-7.638554216867471,-1.4101778050275904,-5.8326180257510725,-7.357449417535254,2.0,1.9245421245421244,519.604111153407,-4.1189907348056645,-0.24322591923547607,-5.010430627585804,1233.6996336996335,-1.0,73.89611365857326,1.9281610383545336,
2023-08-15 14:32:26.862000,-6.228915662650603,-1.3734939759036144,-7.650602409638554,-1.3292458614347025,-5.91354996934396,-7.386879215205395,2.0,1.9245421245421244,519.604111153407,-5.293048190664878,0.06782821513897873,-5.5042246955305645,1247.6190476190475,-1.0,73.89611365857326,1.9281174910321293,
2023-08-15 14:32:26.870000,-6.216867469879518,-1.3975903614457832,-7.674698795180723,-1.4003678724708768,-5.925812385039853,-7.359901900674433,2.0,1.9245421245421244,519.604111153407,-5.633587786259541,1.0596119107278132,-5.688130062350679,1262.2710622710622,-1.0,73.89611365857326,1.9280741368911238,
2023-08-15 14:32:26.878000,-6.27710843373494,-1.421686746987952,-7.674698795180723,-1.4396076026977314,-5.94543225015328,-7.408951563458001,2.0,1.9245421245421244,519.604111153407,-5.634053959559467,1.1756890624089502,-6.130645067303769,1279.120879120879,-1.0,73.89611365857326,1.9280309763585888,
2023-08-15 14:32:26.885000,-6.27710843373494,-1.3975903614457832,-7.674698795180723,-1.3733905579399142,-5.940527283874923,-7.354996934396076,2.0,1.9245421245421244,519.604111153407,-5.954664646582367,0.7024066196608587,-7.3062175863877385,1293.040293040293,-1.0,73.89611365857326,1.9279880101851983,
2023-08-15 14:32:26.893000,-6.228915662650603,-1.385542168674699,-7.626506024096386,-1.3586756591048437,-5.91354996934396,-7.33292458614347,2.0,1.9245421245421244,519.604111153407,-6.870695180933512,0.9619486043936831,-8.344385525319035,1309.1575091575091,-1.0,73.89611365857326,1.927945238926928,
2023-08-15 14:32:26.901000,-6.228915662650603,-1.385542168674699,-7.650602409638554,-1.3366033108522377,-5.940527283874923,-7.303494788473329,2.0,1.9245421245421244,519.604111153407,-7.176038692383894,0.9161470776761258,-8.008507662723616,1323.8095238095236,-1.0,73.89611365857326,1.9279026625311682,
2023-08-15 14:32:26.908000,-6.253012048192772,-1.3975903614457832,-7.638554216867471,-1.407725321888412,-5.923359901900674,-7.337829552421827,2.0,1.9230769230769231,520.0,-7.542450906124352,1.1909562379814693,-8.039042013868654,1338.4615384615383,-1.0,73.89611365857326,1.9278602808363898,
2023-08-15 14:32:26.916000,-6.228915662650603,-1.385542168674699,-7.602409638554217,-1.390557939914163,-5.842427958307787,-7.301042305334151,2.0,1.9230769230769231,520.0,-7.7409241885671,1.3436279937066602,-8.191713769593845,1349.4505494505493,-1.0,73.89611365857326,1.9278180935447904,
2023-08-15 14:32:26.924000,-6.19277108433735,-1.4096385542168675,-7.614457831325302,-1.390557939914163,-5.859595340282035,-7.357449417535254,2.0,1.9245421245421244,519.604111153407,-7.7409241885671,1.3436279937066602,-8.191713769593845,1360.4395604395604,-1.0,73.89611365857326,1.9277761000907494,
2023-08-15 14:32:26.931000,-6.1807228915662655,-1.2771084337349399,-7.55421686746988,-1.2703862660944205,-5.864500306560392,-7.256897608828939,2.0,1.9245421245421244,519.604111153407,-8.305809684750306,0.8245440242410114,-7.748965677990792,1364.8351648351647,-1.0,73.89611365857326,1.9277343001057927,
2023-08-15 14:32:26.939000,-6.19277108433735,-1.3253012048192772,-7.566265060240965,-1.2507664009809931,-5.79092581238504,-7.301042305334151,2.0,1.9245421245421244,519.604111153407,-8.41267991375794,0.9924829555387212,-8.726064914632014,1368.4981684981683,-1.0,73.89611365857326,1.9276926930392366,
2023-08-15 14:32:26.947000,-6.19277108433735,-1.2891566265060241,-7.566265060240965,-1.3169834457388105,-5.884120171673819,-7.296137339055794,2.0,1.9245421245421244,519.604111153407,-9.328710448109085,0.6413379173707824,-8.649729036769418,1365.5677655677655,-1.0,73.89611365857326,1.9276512782365858,
2023-08-15 14:32:26.954000,-6.19277108433735,-1.313253012048193,-7.626506024096386,-1.2630288166768853,-5.891477621091354,-7.310852237890864,2.0,1.9245421245421244,519.604111153407,-9.511916554979313,0.5192005127906296,-9.871103082570945,1360.4395604395604,-1.0,73.89611365857326,1.927610055371737,
2023-08-15 14:32:26.962000,-6.204819277108434,-1.3614457831325302,-7.626506024096386,-1.4028203556100551,-5.884120171673819,-7.313304721030042,2.0,1.9245421245421244,519.604111153407,-9.511916554979313,0.397063108210477,-10.329118349746517,1351.6483516483515,-1.0,73.89611365857326,1.9275690239659835,
2023-08-15 14:32:26.970000,-6.228915662650603,-1.3614457831325302,-7.638554216867471,-1.3169834457388105,-5.889025137952176,-7.367259350091968,2.0,1.9245421245421244,519.604111153407,-9.832527242002215,0.3817959326379579,-11.62682827341064,1343.5897435897434,-1.0,73.89611365857326,1.9275281833996791,
2023-08-15 14:32:26.977000,-6.204819277108434,-1.349397590361446,-7.614457831325302,-1.3733905579399142,-5.908645003065604,-7.337829552421827,2.0,1.9245421245421244,519.604111153407,-9.817260066429697,-0.21362391469028633,-12.741332090204532,1332.6007326007325,-1.0,73.89611365857326,1.9274875329239047,
2023-08-15 14:32:26.985000,-6.168674698795181,-1.3253012048192772,-7.578313253012048,-1.3047210300429184,-5.881667688534641,-7.335377069282648,2.0,1.9245421245421244,519.604111153407,-10.107336402307558,-0.6258376551483016,-13.153545830662548,1320.14652014652,-1.0,73.89611365857326,1.9274470716721792,
2023-08-15 14:32:26.993000,-6.168674698795181,-1.313253012048193,-7.614457831325302,-1.3415082771305946,-5.869405272838749,-7.335377069282648,2.0,1.9245421245421244,519.604111153407,-10.321076860322826,-0.8548452887360878,-12.985606899364837,1307.6923076923076,-1.0,73.89611365857326,1.9274067986722256,
2023-08-15 14:32:27,-6.228915662650603,-1.2891566265060241,-7.638554216867471,-1.1943592887798895,-5.93071735131821,-7.242182709993869,2.0,1.9245421245421244,519.604111153407,-10.992832585513666,-1.6029368917895228,-12.77186644134957,1293.040293040293,-1.0,73.89611365857326,1.9273667128578378,
2023-08-15 14:32:27.008000,-6.19277108433735,-1.2771084337349399,-7.614457831325302,-1.2777437155119558,-5.920907418761495,-7.342734518700183,2.0,1.9245421245421244,519.604111153407,-11.343977623681605,-2.060952158965095,-13.260416059670181,1280.5860805860805,-1.0,73.89611365857326,1.927326813080864,
2023-08-15 14:32:27.016000,-6.168674698795181,-1.3012048192771084,-7.614457831325302,-1.2777437155119558,-5.857142857142857,-7.345187001839362,2.0,1.9230769230769231,520.0,-11.75619136413962,-2.32049414369792,-13.993240487151096,1265.9340659340658,-1.0,73.89611365857326,1.9272870981233359,
2023-08-15 14:32:27.023000,-6.19277108433735,-1.2771084337349399,-7.614457831325302,-1.2335990190067443,-5.8326180257510725,-7.408951563458001,2.0,1.9245421245421244,519.604111153407,-12.153137929025116,-2.6258376551483016,-13.748965677990792,1252.7472527472526,-1.0,73.89611365857326,1.927247566217104,
2023-08-15 14:32:27.031000,-6.1807228915662655,-1.2771084337349399,-7.674698795180723,-1.3047210300429184,-5.911097486204782,-7.421213979153893,2.0,1.9245421245421244,519.604111153407,-12.397412738185421,-2.6411048307208205,-14.161179418448807,1238.095238095238,-1.0,73.89611365857326,1.9272082154768195,
2023-08-15 14:32:27.039000,-6.19277108433735,-1.3253012048192772,-7.662650602409639,-1.2777437155119558,-5.93071735131821,-7.362354383813611,2.0,1.9245421245421244,519.604111153407,-12.90122953207855,-2.137288036827691,-14.13064506730377,1227.106227106227,-1.0,73.89611365857326,1.9271690444371479,
2023-08-15 14:32:27.046000,-6.265060240963856,-1.3373493975903614,-7.626506024096386,-1.3513182096873084,-5.906192519926425,-7.244635193133047,2.0,1.9245421245421244,519.604111153407,-13.450847852689238,-2.0762193345376145,-14.390187052036593,1216.8498168498168,-1.0,73.89611365857326,1.9271300516072483,
2023-08-15 14:32:27.054000,-6.301204819277109,-1.3373493975903614,-7.55421686746988,-1.2875536480686696,-5.960147148988351,-7.244635193133047,2.0,1.9245421245421244,519.604111153407,-13.08443563894878,-1.8624788765223472,-15.687896975700715,1209.5238095238094,-1.0,73.89611365857326,1.927091235483402,
2023-08-15 14:32:27.062000,-6.228915662650603,-1.313253012048193,-7.590361445783133,-1.2581238503985284,-5.869405272838749,-7.357449417535254,2.0,1.9230769230769231,520.0,-14.382145562612902,-1.5571353650719657,-17.672629800128195,1200.0,-1.0,73.89611365857326,1.927052594561951,
2023-08-15 14:32:27.069000,-6.1807228915662655,-1.2891566265060241,-7.590361445783133,-1.2654812998160636,-5.80564071122011,-7.303494788473329,2.0,1.9230769230769231,520.0,-15.450847852689238,-2.198356739117767,-18.206980945166364,1193.4065934065934,-1.0,73.89611365857326,1.927014127317753,
2023-08-15 14:32:27.077000,-6.168674698795181,-1.2771084337349399,-7.602409638554217,-1.2826486817903127,-5.830165542611894,-7.315757204169221,2.0,1.9230769230769231,520.0,-15.72565701299458,-2.4578987238505916,-18.283316823028958,1188.278388278388,-1.0,73.89611365857326,1.926975832078322,
2023-08-15 14:32:27.085000,-6.156626506024097,-1.9879518072289157,-6.46987951807229,-2.209687308399755,-5.933169834457388,-6.4622930717351315,2.0,1.9230769230769231,520.0,-17.87832876871977,-1.8777460520948663,-18.57339315890682,1187.5457875457876,-1.0,73.89611365857326,1.9269377065437912,
2023-08-15 14:32:27.092000,-6.445783132530121,-0.8915662650602411,-8.349397590361447,-0.6474555487431024,-6.0999386879215205,-7.8479460453709375,2.0,1.9245421245421244,519.604111153407,-34.24474098246023,8.137521123477653,-20.26804964745644,1188.278388278388,-1.0,73.89611365857326,1.9268997478658882,
2023-08-15 14:32:27.100000,-6.048192771084338,-1.2048192771084338,-7.987951807228916,-1.1673819742489269,-5.7148988350705086,-7.617412630288166,2.0,1.9245421245421244,519.604111153407,-15.72565701299458,-3.5571353650719657,-22.130645067303767,1192.6739926739926,-1.0,73.89611365857326,1.9268619536397862,
2023-08-15 14:32:27.108000,-6.1325301204819285,-1.108433734939759,-7.638554216867471,-1.0374003678724708,-5.8326180257510725,-7.291232372777436,2.0,1.9230769230769231,520.0,-17.54245090612435,-2.5953033040032634,-20.329118349746516,1204.3956043956043,-1.0,73.89611365857326,1.9268243219826007,
2023-08-15 14:32:27.115000,-6.1325301204819285,-1.216867469879518,-7.662650602409639,-1.1943592887798895,-5.849785407725322,-7.340282035561005,2.0,1.9245421245421244,519.604111153407,-18.489015791620535,-1.8930132276673854,-20.42072140318163,1218.3150183150183,-1.0,73.89611365857326,1.926786850594553,
2023-08-15 14:32:27.123000,-6.228915662650603,-1.2289156626506024,-7.662650602409639,-1.1428571428571428,-5.91354996934396,-7.367259350091968,2.0,1.9230769230769231,520.0,-18.840160829788474,-1.9846162811025,-20.741332090204534,1231.5018315018315,-1.0,73.89611365857326,1.926749537191621,
2023-08-15 14:32:27.131000,-6.253012048192772,-1.2771084337349399,-7.662650602409639,-1.2409564684242795,-5.938074800735745,-7.4481912936848556,2.0,1.9230769230769231,520.0,-19.786725715284657,-3.0075170444612787,-21.504690868830487,1245.4212454212454,-1.0,73.89611365857326,1.9267123795500447,
2023-08-15 14:32:27.138000,-6.27710843373494,-1.313253012048193,-7.686746987951808,-1.280196198651134,-5.952789699570815,-7.408951563458001,2.0,1.9245421245421244,519.604111153407,-20.260008158032747,-3.5418681894994464,-22.527591632189264,1254.212454212454,-1.0,73.89611365857326,1.926675374988821,
2023-08-15 14:32:27.146000,-6.289156626506024,-1.2771084337349399,-7.710843373493976,-1.25567136725935,-5.952789699570815,-7.460453709380747,2.0,1.9230769230769231,520.0,-20.947031058796107,-4.213623914690286,-23.10774430394499,1259.3406593406592,-1.0,73.89611365857326,1.9266385213277692,
2023-08-15 14:32:27.153000,-6.325301204819278,-1.2530120481927711,-7.710843373493976,-1.260576333537707,-6.019006744328633,-7.47271612507664,2.0,1.9245421245421244,519.604111153407,-21.313443272536563,-4.274692616980363,-23.810034380280868,1265.2014652014652,-1.0,73.89611365857326,1.9266018164744856,
2023-08-15 14:32:27.161000,-6.301204819277109,-1.313253012048193,-7.771084337349398,-1.3979153893316982,-6.045984058859595,-7.384426732066217,2.0,1.9230769230769231,520.0,-21.52718373055183,-4.259425441407844,-24.359652700891555,1269.5970695970695,-1.0,73.89611365857326,1.9265652583998834,
2023-08-15 14:32:27.169000,-6.337349397590362,-1.2771084337349399,-7.698795180722892,-1.1453096259963211,-5.874310239117106,-7.37952176578786,2.0,1.9230769230769231,520.0,-20.504282967193053,-4.289959792552882,-23.352019113105296,1272.5274725274724,-1.0,73.89611365857326,1.926528845183507,
2023-08-15 14:32:27.176000,-6.253012048192772,-1.1566265060240966,-7.674698795180723,-1.150214592274678,-5.942979767014101,-7.416309012875536,2.0,1.9230769230769231,520.0,-22.809626478643434,-5.251791853621584,-25.871103082570944,1276.1904761904761,-1.0,73.89611365857326,1.9264925744969057,
2023-08-15 14:32:27.184000,-6.253012048192772,-1.1566265060240966,-7.710843373493976,-1.0987124463519313,-5.950337216431636,-7.37952176578786,2.0,1.9245421245421244,519.604111153407,-22.260008158032747,-5.740341471942195,-25.565759571120562,1280.5860805860805,-1.0,73.89611365857326,1.9264564445277748,
2023-08-15 14:32:27.192000,-6.216867469879518,-1.144578313253012,-7.698795180722892,-1.120784794604537,-5.920907418761495,-7.362354383813611,2.0,1.9245421245421244,519.604111153407,-23.58825243284191,-5.587669716217004,-26.222248120738882,1280.5860805860805,-1.0,73.89611365857326,1.9264204544137047,
2023-08-15 14:32:27.199000,-6.228915662650603,-1.1927710843373494,-7.626506024096386,-1.1600245248313916,-5.879215205395463,-7.301042305334151,2.0,1.9245421245421244,519.604111153407,-23.58825243284191,-5.587669716217004,-26.222248120738882,1282.051282051282,-1.0,73.89611365857326,1.9263846038342225,
2023-08-15 14:32:27.207000,-6.253012048192772,-1.1686746987951808,-7.602409638554217,-1.1526670754138564,-5.908645003065604,-7.34763948497854,2.0,1.9245421245421244,519.604111153407,-22.71802342520832,-5.373929258201737,-26.054309189441174,1285.7142857142856,-1.0,73.89611365857326,1.9263488925702652,
2023-08-15 14:32:27.215000,-6.240963855421687,-1.1566265060240966,-7.566265060240965,-1.1354996934396075,-5.955242182709994,-7.301042305334151,2.0,1.9230769230769231,520.0,-23.38977915039916,-6.4120971971330345,-27.2756832352427,1284.9816849816848,-1.0,73.89611365857326,1.9263133200635034,
2023-08-15 14:32:27.222000,-6.19277108433735,-1.0843373493975905,-7.530120481927711,-1.0864500306560392,-5.89883507050889,-7.244635193133047,2.0,1.9230769230769231,520.0,-23.664588310704502,-6.381562845987996,-27.30621758638774,1285.7142857142856,-1.0,73.89611365857326,1.92627788546581,
2023-08-15 14:32:27.230000,-6.204819277108434,-1.108433734939759,-7.530120481927711,-1.0055180870631515,-5.918454935622317,-7.200490496627835,2.0,1.9230769230769231,520.0,-24.36687838704038,-6.671639181865858,-27.93217178486102,1282.7838827838827,-1.0,73.89611365857326,1.9262425884628758,
2023-08-15 14:32:27.238000,-6.204819277108434,-1.0963855421686748,-7.518072289156627,-1.0889025137952175,-5.869405272838749,-7.1587982832618025,2.0,1.9230769230769231,520.0,-24.992832585513664,-6.82431093759105,-27.840568731425904,1282.051282051282,-1.0,73.89611365857326,1.9262074287259088,
2023-08-15 14:32:27.245000,-6.168674698795181,-1.1204819277108435,-7.493975903614459,-1.1404046597179645,-5.768853464132434,-7.1735131820968725,2.0,1.9245421245421244,519.604111153407,-24.947031058796107,-6.732707884155935,-28.206980945166364,1279.120879120879,-1.0,73.89611365857326,1.9261724055012568,
2023-08-15 14:32:27.253000,-6.156626506024097,-1.1686746987951808,-7.46987951807229,-1.137952176578786,-5.79092581238504,-7.178418148375229,2.0,1.9230769230769231,520.0,-25.160771516811373,-7.053318571178836,-29.550492395548044,1280.5860805860805,-1.0,73.89611365857326,1.9261375186049086,
2023-08-15 14:32:27.261000,-6.156626506024097,-1.1686746987951808,-7.481927710843374,-1.1354996934396075,-5.822808093194359,-7.171060698957694,2.0,1.9230769230769231,520.0,-25.084435638948776,-7.205990326904026,-30.054309189441174,1278.3882783882782,-1.0,73.89611365857326,1.9261027680102487,
2023-08-15 14:32:27.268000,-6.120481927710844,-1.1204819277108435,-7.46987951807229,-1.0668301655426118,-5.835070508890251,-7.1661557326793375,2.0,1.9245421245421244,519.604111153407,-25.603519608414427,-6.992249868888759,-30.77186644134957,1276.923076923077,-1.0,73.89611365857326,1.9260681533308786,
2023-08-15 14:32:27.276000,-6.168674698795181,-1.180722891566265,-7.518072289156627,-1.1428571428571428,-5.862047823421213,-7.215205395462906,2.0,1.9230769230769231,520.0,-26.03100052444496,-5.81667734980479,-31.397820639822857,1275.4578754578754,-1.0,73.89611365857326,1.9260336747781608,
2023-08-15 14:32:27.284000,-6.19277108433735,-1.1686746987951808,-7.530120481927711,-1.1870018393623543,-5.859595340282035,-7.20784794604537,2.0,1.9230769230769231,520.0,-26.01573334887244,-5.404463609346775,-31.70316415127324,1272.5274725274724,-1.0,73.89611365857326,1.925999332746797,
2023-08-15 14:32:27.291000,-6.228915662650603,-1.1325301204819278,-7.542168674698796,-1.079092581238504,-5.847332924586143,-7.274064990803188,2.0,1.9230769230769231,520.0,-26.076802051162517,-4.564768952858225,-31.428354990967893,1271.7948717948716,-1.0,73.89611365857326,1.9259651272954736,
2023-08-15 14:32:27.299000,-6.265060240963856,-1.1566265060240966,-7.566265060240965,-1.155119558553035,-5.999386879215205,-7.301042305334151,2.0,1.9230769230769231,520.0,-27.160771516811373,-3.9388147543849428,-32.252782471883926,1270.3296703296703,-1.0,73.89611365857326,1.925931058609557,
2023-08-15 14:32:27.307000,-6.289156626506024,-1.1204819277108435,-7.614457831325302,-1.061925199264255,-5.916002452483139,-7.337829552421827,2.0,1.9245421245421244,519.604111153407,-27.099702814521297,-2.747975059728454,-31.779500029135832,1271.062271062271,-1.0,73.89611365857326,1.9258971270050047,
2023-08-15 14:32:27.314000,-6.289156626506024,-1.1686746987951808,-7.638554216867471,-1.1919068056407112,-6.021459227467811,-7.416309012875536,2.0,1.9245421245421244,519.604111153407,-27.801992890857175,-3.4044636093467746,-32.92453819707477,1271.062271062271,-1.0,73.89611365857326,1.9258633334240316,
2023-08-15 14:32:27.322000,-6.240963855421687,-1.1325301204819278,-7.698795180722892,-1.0349478847332925,-5.830165542611894,-7.4702636419374615,2.0,1.9245421245421244,519.604111153407,-27.267641745819006,-2.8090437620185305,-33.24514888409767,1269.5970695970695,-1.0,73.89611365857326,1.9258296795094076,
2023-08-15 14:32:27.330000,-6.204819277108434,-1.108433734939759,-7.686746987951808,-1.0521152667075413,-5.916002452483139,-7.39423666462293,2.0,1.9230769230769231,520.0,-28.24474098246023,-3.81667734980479,-34.90927102150224,1270.3296703296703,-1.0,73.89611365857326,1.9257961671534047,
2023-08-15 14:32:27.337000,-6.240963855421687,-1.1204819277108435,-7.698795180722892,-1.0570202329858982,-5.938074800735745,-7.462906192519926,2.0,1.9230769230769231,520.0,-28.565351669483128,-3.847211700949828,-35.13827865509003,1270.3296703296703,-1.0,73.89611365857326,1.9257627980117205,
2023-08-15 14:32:27.345000,-6.144578313253012,-1.108433734939759,-7.686746987951808,-1.0521152667075413,-5.879215205395463,-7.450643776824034,2.0,1.9230769230769231,520.0,-28.809626478643434,-3.6945399452246375,-35.79476720470835,1270.3296703296703,-1.0,73.89611365857326,1.925729573437665,
2023-08-15 14:32:27.353000,-6.168674698795181,-1.0843373493975905,-7.710843373493976,-1.044757817290006,-5.874310239117106,-7.428571428571428,2.0,1.9230769230769231,520.0,-29.130237165666333,-3.083852922323874,-36.10011071615873,1272.5274725274724,-1.0,73.89611365857326,1.9256964949406168,
2023-08-15 14:32:27.360000,-6.204819277108434,-1.072289156626506,-7.734939759036145,-1.0594727161250765,-5.889025137952176,-7.433476394849785,2.0,1.9230769230769231,520.0,-30.076802051162517,-4.167822387972729,-36.37491987646408,1276.1904761904761,-1.0,73.89611365857326,1.9256635646436566,
2023-08-15 14:32:27.368000,-6.144578313253012,-1.0843373493975905,-7.734939759036145,-1.091354996934396,-5.80564071122011,-7.423666462293071,2.0,1.9230769230769231,520.0,-30.076802051162517,-4.915913991026164,-36.92453819707477,1282.7838827838827,-1.0,73.89611365857326,1.9256307847573744,
2023-08-15 14:32:27.376000,-6.168674698795181,-1.072289156626506,-7.734939759036145,-0.9858982219497241,-5.817903126916002,-7.438381361128142,2.0,1.9230769230769231,520.0,-30.260008158032747,-4.7479750597284545,-37.4283549909679,1290.10989010989,-1.0,73.89611365857326,1.925598157614783,
2023-08-15 14:32:27.383000,-6.168674698795181,-1.0481927710843375,-7.72289156626506,-0.9760882893930104,-5.847332924586143,-7.465358675659105,2.0,1.9230769230769231,520.0,-30.48901579162053,-5.114387273468912,-37.581026746693084,1303.2967032967033,-1.0,73.89611365857326,1.9255656860934676,
2023-08-15 14:32:27.391000,-6.1807228915662655,-1.0602409638554218,-7.710843373493976,-0.9957081545064377,-5.8522378908645,-7.396689147762109,2.0,1.9230769230769231,520.0,-30.68748907406328,-5.373929258201737,-37.84056873142591,1320.14652014652,-1.0,73.89611365857326,1.9255333731232303,
2023-08-15 14:32:27.399000,-6.168674698795181,-1.0481927710843375,-7.710843373493976,-0.9957081545064377,-5.8522378908645,-7.4408338442673205,2.0,1.9230769230769231,520.0,-30.504282967193053,-5.450265136064332,-38.29858399860148,1342.8571428571427,-1.0,73.89611365857326,1.925501221685055,
2023-08-15 14:32:27.406000,-6.19277108433735,-1.0120481927710845,-7.650602409638554,-0.9687308399754752,-5.896382587369711,-7.330472103004292,2.0,1.9230769230769231,520.0,-31.603519608414427,-5.602936891789523,-39.10774430394499,1372.8937728937728,781.31103515625,76.79400046871338,1.9254692348087719,
2023-08-15 14:32:27.414000,-6.144578313253012,-0.9879518072289157,-7.686746987951808,-0.8853464132434089,-5.911097486204782,-7.399141630901287,2.0,1.9230769230769231,520.0,-31.86306159314725,-5.450265136064332,-40.008507662723616,1413.1868131868132,-1.0,76.79400046871338,1.925437415569491,
2023-08-15 14:32:27.422000,-6.168674698795181,-0.9759036144578314,-7.638554216867471,-0.956468424279583,-5.817903126916002,-7.359901900674433,2.0,1.9230769230769231,520.0,-32.214206631315186,-5.205990326904026,-40.37491987646408,1457.8754578754579,-1.0,76.79400046871338,1.9254057666249664,
2023-08-15 14:32:27.429000,-6.216867469879518,-0.9036144578313253,-7.674698795180723,-0.8583690987124463,-5.957694665849172,-7.391784181483752,2.0,1.9230769230769231,520.0,-32.7027562496358,-4.7479750597284545,-40.313851174174,1504.7619047619046,-1.0,76.79400046871338,1.925374290734854,
2023-08-15 14:32:27.437000,-6.216867469879518,-0.9036144578313253,-7.626506024096386,-0.9294911097486205,-5.876762722256284,-7.345187001839362,2.0,1.9230769230769231,520.0,-33.51191655497931,-5.373929258201737,-40.16117941844881,1548.7179487179485,-1.0,76.79400046871338,1.9253429911749365,
2023-08-15 14:32:27.445000,-6.19277108433735,-1.0120481927710845,-7.674698795180723,-0.9540159411404046,-5.835070508890251,-7.408951563458001,2.0,1.9230769230769231,520.0,-33.9851989977274,-5.2975933803391415,-40.894003845929724,1589.7435897435896,-1.0,76.79400046871338,1.9253118712372532,
2023-08-15 14:32:27.452000,-6.1325301204819285,-1.072289156626506,-7.674698795180723,-1.0177805027590434,-5.717351318209687,-7.33292458614347,2.0,1.9230769230769231,520.0,-34.275275333605265,-5.64873841850708,-41.703164151273235,1627.106227106227,-1.0,76.79400046871338,1.9252809342220456,
2023-08-15 14:32:27.460000,-6.096385542168675,-0.963855421686747,-7.746987951807229,-0.9123237277743715,-5.847332924586143,-7.453096259963212,2.0,1.9245421245421244,519.604111153407,-34.24474098246023,-4.5342346017131865,-42.28331682302896,1656.4102564102564,-1.0,76.79400046871338,1.9252501834289342,
2023-08-15 14:32:27.468000,-6.156626506024097,-0.9036144578313253,-7.710843373493976,-0.9025137952176578,-5.837522992029429,-7.384426732066217,2.0,1.9230769230769231,520.0,-33.92413029543733,-3.81667734980479,-41.79476720470835,1678.3882783882782,-1.0,76.79400046871338,1.925219622640102,
2023-08-15 14:32:27.475000,-6.19277108433735,-0.8795180722891567,-7.650602409638554,-0.8706315144083384,-5.871857755977928,-7.367259350091968,2.0,1.9245421245421244,519.604111153407,-33.92413029543733,-3.81667734980479,-41.79476720470835,1690.8424908424906,-1.0,76.79400046871338,1.9251892556897465,
2023-08-15 14:32:27.483000,-6.204819277108434,-0.8915662650602411,-7.686746987951808,-0.8313917841814837,-5.906192519926425,-7.404046597179644,2.0,1.9230769230769231,520.0,-34.19893945574267,-4.122020861255172,-41.87110308257095,1696.7032967032967,-1.0,76.79400046871338,1.9251590868796038,
2023-08-15 14:32:27.491000,-6.240963855421687,-0.8795180722891567,-7.698795180722892,-0.9025137952176578,-5.920907418761495,-7.359901900674433,2.0,1.9230769230769231,520.0,-34.47374861604801,-4.137288036827691,-42.10011071615873,1692.3076923076922,-1.0,76.79400046871338,1.9251291204809309,
2023-08-15 14:32:27.498000,-6.168674698795181,-0.9277108433734941,-7.759036144578314,-0.8951563458001226,-5.893930104230533,-7.482526057633353,2.0,1.9245421245421244,519.604111153407,-34.67222189849076,-5.5266010139269275,-42.92453819707476,1676.923076923077,-1.0,76.79400046871338,1.925099359778335,
2023-08-15 14:32:27.506000,-6.168674698795181,-0.9277108433734941,-7.771084337349398,-0.9025137952176578,-5.864500306560392,-7.421213979153893,2.0,1.9230769230769231,520.0,-34.29054250917778,-5.404463609346775,-43.443622166540415,1656.4102564102564,-1.0,76.79400046871338,1.9250698085021973,
2023-08-15 14:32:27.514000,-6.156626506024097,-0.9156626506024097,-7.746987951807229,-0.8657265481299815,-5.79092581238504,-7.482526057633353,2.0,1.9245421245421244,519.604111153407,-34.55008449391061,-4.503700250568149,-43.9932404871511,1627.8388278388277,-1.0,76.79400046871338,1.9250404703973152,
2023-08-15 14:32:27.521000,-6.1325301204819285,-0.9156626506024097,-7.795180722891566,-0.8412017167381973,-5.925812385039853,-7.47271612507664,2.0,1.9230769230769231,520.0,-34.44321426490298,-5.068585746751355,-43.947438960433544,1589.0109890109889,-1.0,76.79400046871338,1.925011349180194,
2023-08-15 14:32:27.529000,-6.156626506024097,-0.8795180722891567,-7.807228915662651,-0.8166768853464133,-5.825260576333537,-7.450643776824034,2.0,1.9230769230769231,520.0,-34.42794708933046,-5.236524678049065,-43.6726298001282,1545.7875457875457,-1.0,76.79400046871338,1.924982449024142,
2023-08-15 14:32:27.536000,-6.156626506024097,-0.8915662650602411,-7.819277108433735,-0.7921520539546291,-5.835070508890251,-7.48743102391171,2.0,1.9230769230769231,520.0,-34.519550142765574,-5.8624788765223474,-43.64209544898316,1500.3663003663003,-1.0,76.79400046871338,1.9249537739575324,
2023-08-15 14:32:27.544000,-6.144578313253012,-0.8795180722891567,-7.83132530120482,-0.8264868179031268,-5.849785407725322,-7.4776210913549965,2.0,1.9230769230769231,520.0,-34.80962647864343,-5.099120097896393,-43.36728628867782,1454.212454212454,-1.0,76.79400046871338,1.924925327366299,
2023-08-15 14:32:27.552000,-6.156626506024097,-0.8795180722891567,-7.819277108433735,-0.8068669527896996,-5.827713059472716,-7.558553034947884,2.0,1.9230769230769231,520.0,-34.580618845055646,-5.496066662781889,-43.62682827341064,1409.5238095238094,-1.0,76.79400046871338,1.9248971120560399,
2023-08-15 14:32:27.559000,-6.1325301204819285,-0.9397590361445783,-7.795180722891566,-0.8976088289393009,-5.771305947271612,-7.5291232372777435,2.0,1.9230769230769231,520.0,-34.53481731833809,-5.709807120797156,-43.96270613600606,1367.032967032967,-1.0,76.79400046871338,1.924869130734993,
2023-08-15 14:32:27.567000,-6.0843373493975905,-0.8795180722891567,-7.819277108433735,-0.8853464132434089,-5.783568362967504,-7.445738810545677,2.0,1.9245421245421244,519.604111153407,-35.16077151681137,-5.053318571178836,-44.023774838296134,1326.007326007326,-1.0,76.79400046871338,1.924841386004829,
2023-08-15 14:32:27.575000,-6.024096385542169,-0.8915662650602411,-7.819277108433735,-0.8485591661557327,-5.702636419374617,-7.521765787860208,2.0,1.9245421245421244,519.604111153407,-35.20657304352893,-3.969349105529981,-44.19171376959385,1287.9120879120878,-1.0,76.79400046871338,1.9248138808446786,
2023-08-15 14:32:27.582000,-6.0361445783132535,-0.8795180722891567,-7.843373493975904,-0.8068669527896996,-5.754138565297363,-7.531575720416922,2.0,1.9230769230769231,520.0,-35.3439776236816,-3.3586620826292175,-44.390187052036595,1260.07326007326,-1.0,76.79400046871338,1.924786618675337,
2023-08-15 14:32:27.590000,-6.048192771084338,-0.8313253012048193,-7.807228915662651,-0.7774371551195585,-5.776210913549969,-7.497240956468424,2.0,1.9230769230769231,520.0,-35.55771808169687,-3.465532311636851,-44.252782471883926,1236.6300366300366,-1.0,76.79400046871338,1.9247596028648943,
2023-08-15 14:32:27.598000,-6.072289156626506,-0.819277108433735,-7.819277108433735,-0.7700797057020232,-5.709993868792152,-7.460453709380747,2.0,1.9230769230769231,520.0,-34.97756540994114,-3.450265136064332,-44.37491987646408,1218.3150183150183,-1.0,76.79400046871338,1.9247328365889882,
2023-08-15 14:32:27.605000,-6.060240963855422,-0.819277108433735,-7.783132530120482,-0.7847946045370937,-5.771305947271612,-7.458001226241569,2.0,1.9230769230769231,520.0,-35.634053959559466,-3.3128605559116604,-44.634461861196904,1204.3956043956043,-1.0,76.79400046871338,1.9247063223379774,
2023-08-15 14:32:27.613000,-6.048192771084338,-0.783132530120482,-7.819277108433735,-0.7406499080318822,-5.690374003678724,-7.494788473329246,2.0,1.9230769230769231,520.0,-36.153137929025114,-3.2212575024765457,-44.64972903676942,1192.6739926739926,-1.0,76.79400046871338,1.9246800619842264,
2023-08-15 14:32:27.621000,-6.024096385542169,-0.783132530120482,-7.807228915662651,-0.7749846719803801,-5.7369711833231145,-7.5144083384426725,2.0,1.9245421245421244,519.604111153407,-36.3821455626129,-3.633471242934561,-44.756599265777055,1184.6153846153845,-1.0,76.79400046871338,1.924654057270715,
2023-08-15 14:32:27.628000,-6.0120481927710845,-0.7710843373493976,-7.879518072289157,-0.7185775597792765,-5.633966891477621,-7.5438381361128135,2.0,1.9230769230769231,520.0,-36.22947380688771,-2.885379639881126,-44.527591632189264,1176.5567765567764,-1.0,76.79400046871338,1.9246283103005446,
2023-08-15 14:32:27.636000,-6.0120481927710845,-0.7349397590361446,-7.855421686746988,-0.7308399754751685,-5.7148988350705086,-7.5732679337829545,2.0,1.9230769230769231,520.0,-36.07680205116252,-3.0533185711788358,-44.19171376959385,1172.161172161172,-1.0,76.79400046871338,1.9246028231142225,
2023-08-15 14:32:27.644000,-6.060240963855422,-0.7710843373493976,-7.867469879518072,-0.6916002452483139,-5.724708767627222,-7.48743102391171,2.0,1.9245421245421244,519.604111153407,-35.86306159314725,-3.3586620826292175,-43.79476720470835,1171.4285714285713,-1.0,76.79400046871338,1.9245775971638635,
2023-08-15 14:32:27.651000,-6.1325301204819285,-0.7590361445783133,-7.843373493975904,-0.7480073574494175,-5.815450643776824,-7.4849785407725316,2.0,1.9230769230769231,520.0,-34.73329060078084,-4.7479750597284545,-43.64209544898316,1177.2893772893772,-1.0,76.79400046871338,1.9245526347218775,
2023-08-15 14:32:27.659000,-6.204819277108434,-0.7951807228915663,-7.819277108433735,-0.7700797057020232,-5.952789699570815,-7.516860821581851,2.0,1.9245421245421244,519.604111153407,-34.12260357788008,-6.427364372705553,-43.84056873142591,1183.8827838827838,-1.0,76.79400046871338,1.9245279383944334,
2023-08-15 14:32:27.667000,-6.265060240963856,-0.746987951807229,-7.819277108433735,-0.7136725935009196,-5.911097486204782,-7.5144083384426725,2.0,1.9230769230769231,520.0,-33.72565701299458,-8.381562845987997,-44.55812598333431,1194.1391941391942,-1.0,76.79400046871338,1.9245035106033703,
2023-08-15 14:32:27.674000,-6.228915662650603,-0.7710843373493976,-7.807228915662651,-0.7676272225628449,-5.869405272838749,-7.47271612507664,2.0,1.9230769230769231,520.0,-33.282908921391524,-9.12965444904143,-44.98560689936484,1203.6630036630036,-1.0,76.79400046871338,1.924479353172989,
2023-08-15 14:32:27.682000,-6.156626506024097,-0.7951807228915663,-7.771084337349398,-0.7480073574494175,-5.786020846106683,-7.5291232372777435,2.0,1.9230769230769231,520.0,-33.05390128780374,-9.31286055591166,-45.382553464250336,1218.3150183150183,-1.0,76.79400046871338,1.9244554677960048,
2023-08-15 14:32:27.690000,-6.096385542168675,-0.783132530120482,-7.771084337349398,-0.7798896382587369,-5.8031882280809315,-7.48743102391171,2.0,1.9230769230769231,520.0,-33.16077151681137,-10.564768952858225,-45.6726298001282,1230.03663003663,-1.0,76.79400046871338,1.9244318563956446,
2023-08-15 14:32:27.697000,-6.048192771084338,-0.8072289156626506,-7.759036144578314,-0.7651747394236664,-5.719803801348865,-7.48743102391171,2.0,1.9230769230769231,520.0,-33.05390128780374,-10.244158265835324,-45.21461453295262,1243.956043956044,-1.0,76.79400046871338,1.9244085202208159,
2023-08-15 14:32:27.705000,-6.0,-0.819277108433735,-7.771084337349398,-0.7946045370938074,-5.719803801348865,-7.423666462293071,2.0,1.9230769230769231,520.0,-33.05390128780374,-9.679272769652117,-45.16881300623507,1256.4102564102564,-1.0,76.79400046871338,1.9243854603471289,
2023-08-15 14:32:27.713000,-5.975903614457832,-0.8674698795180723,-7.72289156626506,-0.7896995708154506,-5.692826486817903,-7.453096259963212,2.0,1.9245421245421244,519.604111153407,-32.779092127498394,-8.6258376551483,-44.61919468562438,1273.260073260073,-1.0,76.79400046871338,1.9243626776852651,
2023-08-15 14:32:27.720000,-6.024096385542169,-0.9277108433734941,-7.746987951807229,-0.9319435928877988,-5.663396689147762,-7.399141630901287,2.0,1.9230769230769231,520.0,-32.275275333605265,-8.259425441407844,-43.45888934211293,1287.9120879120878,-1.0,76.79400046871338,1.9243401734819612,
2023-08-15 14:32:27.728000,-6.0361445783132535,-0.9518072289156627,-7.734939759036145,-0.8583690987124463,-5.680564071122011,-7.433476394849785,2.0,1.9230769230769231,520.0,-31.298176096964045,-7.770875823087232,-43.260416059670185,1305.4945054945053,-1.0,76.79400046871338,1.924317948907765,
2023-08-15 14:32:27.736000,-6.096385542168675,-0.9397590361445783,-7.771084337349398,-0.9294911097486205,-5.741876149601471,-7.4114040465971796,2.0,1.9245421245421244,519.604111153407,-31.282908921391524,-7.786142998659752,-43.2756832352427,1317.9487179487178,-1.0,76.79400046871338,1.9242960045406674,
2023-08-15 14:32:27.743000,-6.060240963855422,-0.9879518072289157,-7.771084337349398,-0.9491109748620478,-5.783568362967504,-7.443286327406499,2.0,1.9245421245421244,519.604111153407,-30.565351669483128,-6.244158265835324,-43.24514888409767,1327.4725274725274,-1.0,76.79400046871338,1.924274341325213,
2023-08-15 14:32:27.751000,-6.0361445783132535,-0.963855421686747,-7.807228915662651,-0.9785407725321887,-5.719803801348865,-7.509503372164316,2.0,1.9230769230769231,520.0,-30.565351669483128,-6.244158265835324,-43.24514888409767,1334.7985347985348,-1.0,76.79400046871338,1.9242529606530436,
2023-08-15 14:32:27.759000,-6.0120481927710845,-1.0481927710843375,-7.795180722891566,-1.0521152667075413,-5.656039239730227,-7.4996934396076025,2.0,1.9230769230769231,520.0,-30.06153487559,-5.114387273468912,-42.29858399860148,1342.1245421245421,-1.0,76.79400046871338,1.9242318634260167,
2023-08-15 14:32:27.766000,-6.0361445783132535,-1.0120481927710845,-7.807228915662651,-0.973635806253832,-5.685469037400368,-7.548743102391171,2.0,1.9230769230769231,520.0,-29.801992890857175,-6.091486510110133,-42.74133209020454,1348.7179487179487,-1.0,76.79400046871338,1.924211049997983,
2023-08-15 14:32:27.774000,-6.0361445783132535,-1.0120481927710845,-7.807228915662651,-0.9785407725321887,-5.697731453096259,-7.511955855303494,2.0,1.9230769230769231,520.0,-30.06153487559,-6.0762193345376145,-42.68026338791446,1357.5091575091574,-1.0,76.79400046871338,1.9241905206413006,
2023-08-15 14:32:27.782000,-6.024096385542169,-1.072289156626506,-7.83132530120482,-1.091354996934396,-5.756591048436542,-7.5144083384426725,2.0,1.9245421245421244,519.604111153407,-29.817260066429693,-6.045684983392576,-42.10011071615873,1367.032967032967,-1.0,76.79400046871338,1.9241702755550478,
2023-08-15 14:32:27.789000,-6.0120481927710845,-1.108433734939759,-7.795180722891566,-1.1894543225015328,-5.690374003678724,-7.511955855303494,2.0,1.9245421245421244,519.604111153407,-29.450847852689236,-5.068585746751355,-42.252782471883926,1371.4285714285713,-1.0,76.79400046871338,1.9241503153654103,
2023-08-15 14:32:27.797000,-6.024096385542169,-1.1566265060240966,-7.795180722891566,-1.1428571428571428,-5.7001839362354385,-7.423666462293071,2.0,1.9245421245421244,519.604111153407,-29.130237165666333,-5.434997960491813,-41.9932404871511,1375.091575091575,-1.0,76.79400046871338,1.9241306412050814,
2023-08-15 14:32:27.805000,-6.048192771084338,-1.180722891566265,-7.759036144578314,-1.1698344573881054,-5.732066217044758,-7.39423666462293,2.0,1.9245421245421244,519.604111153407,-28.580618845055646,-5.831944525377309,-41.9932404871511,1378.021978021978,-1.0,76.79400046871338,1.9241112542675889,
2023-08-15 14:32:27.812000,-6.0120481927710845,-1.216867469879518,-7.686746987951808,-1.1526670754138564,-5.734518700183936,-7.357449417535254,2.0,1.9230769230769231,520.0,-27.466115028261754,-5.893013227667385,-42.23751529631141,1376.5567765567764,-1.0,76.79400046871338,1.9240921558195205,
2023-08-15 14:32:27.820000,-5.987951807228916,-1.2048192771084338,-7.602409638554217,-1.1526670754138564,-5.646229307173513,-7.318209687308399,2.0,1.9230769230769231,520.0,-26.687489074063283,-5.709807120797156,-41.97797331157858,1372.161172161172,-1.0,76.79400046871338,1.9240733471779004,
2023-08-15 14:32:27.828000,-6.0120481927710845,-1.216867469879518,-7.590361445783133,-1.1943592887798895,-5.702636419374617,-7.249540159411404,2.0,1.9230769230769231,520.0,-26.382145562612898,-5.740341471942195,-41.50469086883049,1365.5677655677655,-1.0,76.79400046871338,1.9240548291249289,
2023-08-15 14:32:27.835000,-6.024096385542169,-1.1686746987951808,-7.578313253012048,-1.1894543225015328,-5.724708767627222,-7.278969957081545,2.0,1.9230769230769231,520.0,-26.39741273818542,-6.274692616980363,-40.939805372647285,1355.3113553113553,-1.0,76.79400046871338,1.9240366024089244,
2023-08-15 14:32:27.843000,-6.120481927710844,-1.144578313253012,-7.662650602409639,-1.1134273451870018,-5.825260576333537,-7.308399754751686,2.0,1.9230769230769231,520.0,-26.916496707651067,-5.16018880018647,-40.34438552531904,1346.5201465201465,-1.0,76.79400046871338,1.9240186681745453,
2023-08-15 14:32:27.851000,-6.19277108433735,-1.1204819277108435,-7.662650602409639,-1.044757817290006,-5.911097486204782,-7.39423666462293,2.0,1.9230769230769231,520.0,-27.32871044810908,-4.717440708583416,-39.50469086883049,1336.9963369963368,-1.0,76.79400046871338,1.924001027478327,
2023-08-15 14:32:27.858000,-6.265060240963856,-1.0843373493975905,-7.674698795180723,-1.0226854690374003,-5.962599632127529,-7.396689147762109,2.0,1.9230769230769231,520.0,-28.36687838704038,-3.419730784919294,-39.50469086883049,1330.4029304029302,-1.0,76.79400046871338,1.923983681295311,
2023-08-15 14:32:27.866000,-6.337349397590362,-1.0602409638554218,-7.746987951807229,-0.9760882893930104,-5.972409564684242,-7.467811158798283,2.0,1.9230769230769231,520.0,-28.275275333605265,-2.6105704795757823,-39.00087407493736,1321.6117216117216,-1.0,76.79400046871338,1.9239666300662048,
2023-08-15 14:32:27.874000,-6.325301204819278,-1.0481927710843375,-7.734939759036145,-0.9589209074187615,-6.004291845493562,-7.480073574494175,2.0,1.9230769230769231,520.0,-28.977565409941143,-1.9235475788124237,-39.50469086883049,1311.3553113553112,-1.0,76.79400046871338,1.9239498737680678,
2023-08-15 14:32:27.881000,-6.289156626506024,-1.0120481927710845,-7.783132530120482,-0.9245861434702636,-5.955242182709994,-7.443286327406499,2.0,1.9230769230769231,520.0,-29.298176096964045,-1.8777460520948663,-39.77950002913583,1300.3663003663003,-1.0,76.79400046871338,1.923933412404516,
2023-08-15 14:32:27.889000,-6.19277108433735,-0.9879518072289157,-7.771084337349398,-0.9957081545064377,-5.884120171673819,-7.4849785407725316,2.0,1.9230769230769231,520.0,-28.885962356506028,-1.5724025406444848,-40.54285880776179,1285.7142857142856,-1.0,76.79400046871338,1.9239172464602114,
2023-08-15 14:32:27.897000,-6.096385542168675,-0.9156626506024097,-7.819277108433735,-0.8951563458001226,-5.7075413856529735,-7.4481912936848556,2.0,1.9230769230769231,520.0,-28.7027562496358,-2.1067536856826528,-41.10774430394499,1277.6556776556777,-1.0,76.79400046871338,1.9239013763714579,
2023-08-15 14:32:27.904000,-5.975903614457832,-0.855421686746988,-7.795180722891566,-0.8117719190680563,-5.65113427345187,-7.561005518087063,2.0,1.9230769230769231,520.0,-28.458481440475495,-2.4120971971330345,-41.12301147951751,1274.7252747252746,-1.0,76.79400046871338,1.9238858025578038,
2023-08-15 14:32:27.912000,-5.927710843373494,-0.8433734939759037,-7.843373493975904,-0.7210300429184548,-5.60453709380748,-7.600245248313917,2.0,1.9230769230769231,520.0,-27.954664646582366,-2.5953033040032634,-40.92453819707476,1275.4578754578754,-1.0,76.79400046871338,1.9238705258408613,
2023-08-15 14:32:27.919000,-5.855421686746988,-0.8072289156626506,-7.843373493975904,-0.7602697731453096,-5.538320049049663,-7.524218270999387,2.0,1.9230769230769231,520.0,-28.36687838704038,-2.2899597925528816,-40.84820231921217,1277.6556776556777,-1.0,76.79400046871338,1.9238555469485505,
2023-08-15 14:32:27.927000,-5.819277108433735,-0.8072289156626506,-7.867469879518072,-0.7578172900061312,-5.477007970570202,-7.583077866339669,2.0,1.9230769230769231,520.0,-28.840160829788474,-2.2594254414078434,-40.22224812073888,1278.3882783882782,-1.0,76.79400046871338,1.9238408660527866,
2023-08-15 14:32:27.935000,-5.807228915662651,-0.783132530120482,-7.903614457831326,-0.7946045370938074,-5.496627835683629,-7.649294911097486,2.0,1.9230769230769231,520.0,-28.763824951925876,-1.8166773498047901,-39.18408018180759,1283.5164835164835,-1.0,76.79400046871338,1.9238264828310012,
2023-08-15 14:32:27.942000,-5.83132530120482,-0.7951807228915663,-7.975903614457832,-0.8338442673206621,-5.550582464745554,-7.664009809932557,2.0,1.9230769230769231,520.0,-28.809626478643434,-0.8395781131635688,-38.55812598333431,1285.7142857142856,-1.0,76.79400046871338,1.923812397405425,
2023-08-15 14:32:27.950000,-5.879518072289157,-0.8313253012048193,-8.048192771084338,-0.7700797057020232,-5.550582464745554,-7.75229920294298,2.0,1.9230769230769231,520.0,-29.22184021910145,-0.9769826933162405,-38.34438552531904,1287.9120879120878,-1.0,76.79400046871338,1.9237986098062436,
2023-08-15 14:32:27.958000,-5.83132530120482,-0.8433734939759037,-8.096385542168676,-0.8019619865113427,-5.575107296137339,-7.823421213979153,2.0,1.9230769230769231,520.0,-29.40504632597168,-0.5495017772857061,-38.19171376959385,1287.179487179487,-1.0,76.79400046871338,1.9237851199962133,
2023-08-15 14:32:27.965000,-5.83132530120482,-0.9156626506024097,-8.180722891566266,-0.838749233599019,-5.430410790925812,-7.855303494788473,2.0,1.9230769230769231,520.0,-29.87832876871977,-0.15255521240021,-37.55049239554805,1286.4468864468863,-1.0,76.79400046871338,1.923771928283023,
2023-08-15 14:32:27.973000,-5.807228915662651,-0.9277108433734941,-8.240963855421688,-0.927038626609442,-5.494175352544451,-7.894543225015328,2.0,1.9230769230769231,520.0,-29.969931822154884,-0.6869063574383779,-36.939805372647285,1289.3772893772893,-1.0,76.79400046871338,1.923759034817667,
2023-08-15 14:32:27.981000,-5.83132530120482,-0.9397590361445783,-8.289156626506024,-0.9025137952176578,-5.489270386266094,-7.985285101164929,2.0,1.9216117216117214,520.3964925657644,-29.420313501544197,-0.5037002505681489,-36.42072140318163,1290.8424908424909,-1.0,76.79400046871338,1.923746439126867,
2023-08-15 14:32:27.988000,-5.807228915662651,-0.9036144578313253,-8.325301204819278,-0.927038626609442,-5.508890251379522,-7.985285101164929,2.0,1.9230769230769231,520.0,-28.824893654215952,-1.251791853621584,-35.61156109783812,1294.5054945054944,-1.0,76.79400046871338,1.9237341405930817,
2023-08-15 14:32:27.996000,-5.795180722891566,-0.8795180722891567,-8.325301204819278,-0.9000613120784794,-5.535867565910484,-7.970570202329858,2.0,1.9230769230769231,520.0,-28.229473806887707,-1.3128605559116604,-34.74133209020454,1294.5054945054944,-1.0,76.79400046871338,1.9237221387601315,
2023-08-15 14:32:28.004000,-5.903614457831326,-0.8433734939759037,-8.265060240963855,-0.7480073574494175,-5.503985285101165,-7.9362354383813605,2.0,1.9230769230769231,520.0,-27.67985548627702,-1.618204067362042,-34.17644659402133,1290.10989010989,-1.0,76.79400046871338,1.923710432933316,
2023-08-15 14:32:28.011000,-5.975903614457832,-0.8072289156626506,-8.156626506024097,-0.7063151440833844,-5.695278969957081,-7.786633966891477,2.0,1.9230769230769231,520.0,-27.298176096964045,-2.2746926169803627,-33.71843132684575,1286.4468864468863,-1.0,76.79400046871338,1.9236990222020816,
2023-08-15 14:32:28.019000,-5.987951807228916,-0.8313253012048193,-8.096385542168676,-0.7774371551195585,-5.57265481299816,-7.740036787247087,2.0,1.9230769230769231,520.0,-26.611153196200686,-2.4426315482780727,-33.382553464250336,1281.3186813186812,-1.0,76.79400046871338,1.9236879054277691,
2023-08-15 14:32:28.027000,-5.975903614457832,-0.819277108433735,-8.024096385542169,-0.7210300429184548,-5.6781115879828326,-7.649294911097486,2.0,1.9230769230769231,520.0,-26.611153196200686,-2.4426315482780727,-33.382553464250336,1278.3882783882782,-1.0,76.79400046871338,1.9236770812313788,
2023-08-15 14:32:28.034000,-5.951807228915663,-0.783132530120482,-7.963855421686747,-0.7283874923359902,-5.619251992642551,-7.607602697731453,2.0,1.9230769230769231,520.0,-25.87832876871977,-2.65637200629334,-33.077209952799954,1276.923076923077,-1.0,76.79400046871338,1.9236665479814838,
2023-08-15 14:32:28.042000,-5.91566265060241,-0.783132530120482,-7.879518072289157,-0.7602697731453096,-5.57265481299816,-7.5364806866952785,2.0,1.9230769230769231,520.0,-25.435580677116715,-4.244158265835324,-32.97033972379232,1278.3882783882782,-1.0,76.79400046871338,1.9236563037824443,
2023-08-15 14:32:28.050000,-5.879518072289157,-0.7951807228915663,-7.83132530120482,-0.7896995708154506,-5.575107296137339,-7.511955855303494,2.0,1.9230769230769231,520.0,-24.611153196200686,-5.434997960491813,-33.2756832352427,1278.3882783882782,-1.0,76.79400046871338,1.923646346463048,
2023-08-15 14:32:28.057000,-5.867469879518072,-0.8313253012048193,-7.807228915662651,-0.7578172900061312,-5.523605150214592,-7.494788473329246,2.0,1.9230769230769231,520.0,-23.9851989977274,-6.106753685682652,-32.710797739059494,1279.8534798534797,-1.0,76.79400046871338,1.9236366735657395,
2023-08-15 14:32:28.065000,-5.83132530120482,-0.8433734939759037,-7.771084337349398,-0.7798896382587369,-5.540772532188841,-7.460453709380747,2.0,1.9230769230769231,520.0,-23.87832876871977,-6.97698269331624,-32.26804964745644,1276.923076923077,-1.0,76.79400046871338,1.9236272823365432,
2023-08-15 14:32:28.073000,-5.855421686746988,-0.855421686746988,-7.771084337349398,-0.7823421213979154,-5.553034947884733,-7.433476394849785,2.0,1.9230769230769231,520.0,-23.114969990093815,-6.97698269331624,-31.748965677990796,1276.923076923077,-1.0,76.79400046871338,1.923618169715846,
2023-08-15 14:32:28.080000,-5.891566265060241,-0.8795180722891567,-7.746987951807229,-0.7995095033721643,-5.545677498467198,-7.396689147762109,2.0,1.9230769230769231,520.0,-22.443214264902977,-7.053318571178836,-31.184080181807584,1273.9926739926739,-1.0,76.79400046871338,1.9236093323301524,
2023-08-15 14:32:28.088000,-5.927710843373494,-0.9036144578313253,-7.746987951807229,-0.8828939301042305,-5.577559779276517,-7.4408338442673205,2.0,1.9230769230769231,520.0,-22.107336402307556,-6.595303304003263,-30.695530563486976,1271.7948717948716,-1.0,76.79400046871338,1.9236007664849308,
2023-08-15 14:32:28.096000,-5.963855421686747,-0.9277108433734941,-7.783132530120482,-0.8902513795217657,-5.658491722869405,-7.4481912936848556,2.0,1.9230769230769231,520.0,-21.58825243284191,-6.48843307499563,-30.26804964745644,1268.131868131868,-1.0,76.79400046871338,1.9235924681586871,
2023-08-15 14:32:28.103000,-5.987951807228916,-0.9759036144578314,-7.855421686746988,-0.9025137952176578,-5.660944206008583,-7.524218270999387,2.0,1.9230769230769231,520.0,-21.54245090612435,-5.328127731484179,-29.718431326845753,1262.2710622710622,-1.0,76.79400046871338,1.9235844329983618,
2023-08-15 14:32:28.111000,-5.975903614457832,-1.0240963855421688,-7.867469879518072,-1.032495401594114,-5.702636419374617,-7.556100551808706,2.0,1.9230769230769231,520.0,-21.0233669366587,-5.053318571178836,-29.825301555853386,1261.5384615384614,-1.0,76.79400046871338,1.9235766563161534,
2023-08-15 14:32:28.119000,-6.0361445783132535,-1.0,-7.903614457831326,-0.9172286940527283,-5.702636419374617,-7.5732679337829545,2.0,1.9230769230769231,520.0,-20.992832585513664,-4.763242235300973,-29.153545830662548,1260.07326007326,-1.0,76.79400046871338,1.9235691330878757,
2023-08-15 14:32:28.126000,-6.048192771084338,-1.0481927710843375,-7.975903614457832,-1.0300429184549356,-5.754138565297363,-7.678724708767627,2.0,1.9230769230769231,520.0,-21.725657012994578,-3.770875823087233,-28.939805372647278,1262.2710622710622,-1.0,76.79400046871338,1.9235618579529161,
2023-08-15 14:32:28.134000,-6.0120481927710845,-1.1325301204819278,-7.987951807228916,-1.0570202329858982,-5.680564071122011,-7.666462293071735,2.0,1.9216117216117214,520.3964925657644,-21.313443272536563,-3.1449216246139504,-28.634461861196897,1263.003663003663,-1.0,76.79400046871338,1.9235548252158738,
2023-08-15 14:32:28.142000,-6.024096385542169,-1.1204819277108435,-8.0,-1.108522378908645,-5.660944206008583,-7.68853464132434,2.0,1.9230769230769231,520.0,-20.794359303070916,-2.4273643727055534,-28.43598857875415,1267.3992673992673,-1.0,76.79400046871338,1.9235480288151596,
2023-08-15 14:32:28.149000,-5.975903614457832,-1.072289156626506,-8.0,-1.0349478847332925,-5.648681790312692,-7.659104843654199,2.0,1.9230769230769231,520.0,-20.809626478643434,-2.65637200629334,-28.29858399860148,1272.5274725274724,-1.0,76.79400046871338,1.9235414626813958,
2023-08-15 14:32:28.157000,-5.951807228915663,-1.0963855421686748,-7.951807228915663,-1.0594727161250765,-5.621704475781729,-7.698344573881054,2.0,1.9230769230769231,520.0,-20.336344035895344,-2.15255521240021,-27.93217178486102,1279.120879120879,-1.0,76.79400046871338,1.9235351203226878,
2023-08-15 14:32:28.165000,-5.927710843373494,-1.0843373493975905,-7.975903614457832,-1.0374003678724708,-5.575107296137339,-7.666462293071735,2.0,1.9230769230769231,520.0,-20.473748616048013,-2.5953033040032634,-27.382553464250332,1284.2490842490843,-1.0,76.79400046871338,1.923528994445913,
2023-08-15 14:32:28.172000,-5.891566265060241,-1.0963855421686748,-7.951807228915663,-1.0692826486817903,-5.562844880441447,-7.646842427958307,2.0,1.9230769230769231,520.0,-20.09206922673504,-3.038051395606317,-27.12301147951751,1287.9120879120878,-1.0,76.79400046871338,1.9235230774582628,
2023-08-15 14:32:28.180000,-5.879518072289157,-1.0963855421686748,-7.951807228915663,-1.0104230533415082,-5.550582464745554,-7.610055180870631,2.0,1.9230769230769231,520.0,-19.54245090612435,-3.847211700949828,-26.60392751005186,1293.040293040293,-1.0,76.79400046871338,1.9235173614780412,
2023-08-15 14:32:28.188000,-5.855421686746988,-1.0843373493975905,-7.9397590361445785,-1.032495401594114,-5.501532801961986,-7.558553034947884,2.0,1.9230769230769231,520.0,-19.099702814521297,-4.580036128430744,-26.054309189441174,1297.4358974358975,-1.0,76.79400046871338,1.9235118388052688,
2023-08-15 14:32:28.195000,-5.855421686746988,-1.072289156626506,-7.9397590361445785,-1.0668301655426118,-5.452483139178418,-7.585530349478847,2.0,1.9230769230769231,520.0,-18.382145562612898,-4.854845288736088,-25.61156109783812,1304.7619047619046,-1.0,76.79400046871338,1.9235065014112176,
2023-08-15 14:32:28.203000,-5.843373493975904,-1.1204819277108435,-7.9397590361445785,-1.0251379521765787,-5.521152667075413,-7.610055180870631,2.0,1.9230769230769231,520.0,-18.06153487559,-5.038051395606317,-25.290950410815217,1311.3553113553112,-1.0,76.79400046871338,1.9235013405338521,
2023-08-15 14:32:28.211000,-5.843373493975904,-1.0963855421686748,-7.879518072289157,-1.032495401594114,-5.553034947884733,-7.610055180870631,2.0,1.9230769230769231,520.0,-17.664588310704502,-5.068585746751355,-24.58866033447934,1321.6117216117216,-1.0,76.79400046871338,1.9234963471883042,
2023-08-15 14:32:28.218000,-5.891566265060241,-1.0843373493975905,-7.891566265060241,-1.0079705702023298,-5.557939914163089,-7.617412630288166,2.0,1.9230769230769231,520.0,-17.40504632597168,-4.717440708583416,-24.39018705203659,1334.7985347985348,-1.0,76.79400046871338,1.9234915121865,
2023-08-15 14:32:28.226000,-5.891566265060241,-1.0481927710843375,-7.91566265060241,-0.9932556713672593,-5.584917228694052,-7.597792765174739,2.0,1.9230769230769231,520.0,-17.496649379406794,-4.045684983392576,-24.206980945166364,1355.3113553113553,-1.0,76.79400046871338,1.9234868261585818,
2023-08-15 14:32:28.234000,-5.91566265060241,-1.036144578313253,-7.879518072289157,-1.0545677498467196,-5.584917228694052,-7.516860821581851,2.0,1.9230769230769231,520.0,-17.634053959559466,-3.999883456675019,-23.93217178486102,1380.952380952381,-1.0,76.79400046871338,1.9234822795760425,
2023-08-15 14:32:28.241000,-5.879518072289157,-1.072289156626506,-7.891566265060241,-1.0962599632127528,-5.560392397302269,-7.583077866339669,2.0,1.9230769230769231,520.0,-17.603519608414427,-2.885379639881126,-23.718431326845753,1413.9194139194137,-1.0,76.79400046871338,1.923477863234373,
2023-08-15 14:32:28.249000,-5.91566265060241,-1.0240963855421688,-7.891566265060241,-0.9466584917228693,-5.65113427345187,-7.605150214592275,2.0,1.9230769230769231,520.0,-17.435580677116718,-3.3891964337742557,-23.840568731425908,1452.7472527472526,-1.0,76.79400046871338,1.923473568212133,
2023-08-15 14:32:28.257000,-5.963855421686747,-1.0240963855421688,-7.903614457831326,-1.032495401594114,-5.611894543225015,-7.597792765174739,2.0,1.9230769230769231,520.0,-17.985198997727405,-3.267059029194103,-23.504690868830487,1495.970695970696,850.250244140625,70.56745989016905,1.9234693849524638,
2023-08-15 14:32:28.264000,-5.9397590361445785,-1.0843373493975905,-7.903614457831326,-1.049662783568363,-5.614347026364193,-7.561005518087063,2.0,1.9230769230769231,520.0,-17.847794417574733,-3.3739292582017364,-23.30621758638774,1539.194139194139,-1.0,70.56745989016905,1.9234653033630824,
2023-08-15 14:32:28.272000,-5.91566265060241,-1.0963855421686748,-7.91566265060241,-1.0472103004291844,-5.673206621704476,-7.632127529123236,2.0,1.9230769230769231,520.0,-17.756191364139617,-3.267059029194103,-22.939805372647278,1583.8827838827838,-1.0,70.56745989016905,1.9234613137958079,
2023-08-15 14:32:28.280000,-5.927710843373494,-1.0602409638554218,-7.927710843373494,-1.0398528510116491,-5.594727161250766,-7.570815450643776,2.0,1.9230769230769231,520.0,-17.58825243284191,-3.1601888001864693,-22.283316823028958,1624.9084249084249,-1.0,70.56745989016905,1.9234574070093726,
2023-08-15 14:32:28.287000,-5.91566265060241,-1.0602409638554218,-7.975903614457832,-1.044757817290006,-5.543225015328019,-7.622317596566523,2.0,1.9216117216117214,520.3964925657644,-17.145504341238855,-3.1449216246139504,-22.2375152963114,1662.2710622710622,-1.0,70.56745989016905,1.9234535737120437,
2023-08-15 14:32:28.295000,-5.891566265060241,-1.036144578313253,-7.975903614457832,-0.9687308399754752,-5.543225015328019,-7.637032495401594,2.0,1.9216117216117214,520.3964925657644,-16.67222189849076,-2.8548452887360876,-22.359652700891555,1690.8424908424906,-1.0,70.56745989016905,1.9234498045622561,
2023-08-15 14:32:28.302000,-5.879518072289157,-1.072289156626506,-7.963855421686747,-1.0692826486817903,-5.592274678111588,-7.590435315757204,2.0,1.9230769230769231,520.0,-16.67222189849076,-2.8548452887360876,-22.359652700891555,1712.087912087912,-1.0,70.56745989016905,1.9234460900645913,
2023-08-15 14:32:28.310000,-5.903614457831326,-1.072289156626506,-7.963855421686747,-1.0300429184549356,-5.582464745554874,-7.637032495401594,2.0,1.9230769230769231,520.0,-16.275275333605265,-2.0914865101101334,-21.184080181807584,1720.8791208791208,-1.0,70.56745989016905,1.923442420603767,
2023-08-15 14:32:28.318000,-5.951807228915663,-1.0240963855421688,-7.987951807228916,-0.9908031882280809,-5.562844880441447,-7.705702023298589,2.0,1.9230769230769231,520.0,-16.24474098246023,-1.7098071207971566,-19.977973311578577,1718.6813186813185,-1.0,70.56745989016905,1.9234387866164893,
2023-08-15 14:32:28.325000,-5.951807228915663,-1.0240963855421688,-7.963855421686747,-1.003065603923973,-5.570202329858982,-7.637032495401594,2.0,1.9230769230769231,520.0,-15.343977623681603,-1.7403414719421946,-20.26804964745644,1704.0293040293038,-1.0,70.56745989016905,1.923435178658249,
2023-08-15 14:32:28.333000,-5.951807228915663,-1.0240963855421688,-7.903614457831326,-0.9294911097486205,-5.71244635193133,-7.668914776210913,2.0,1.9230769230769231,520.0,-15.603519608414429,-0.9311811665986832,-20.283316823028958,1684.9816849816848,-1.0,70.56745989016905,1.9234315874347883,
2023-08-15 14:32:28.341000,-6.024096385542169,-1.036144578313253,-7.891566265060241,-0.9785407725321887,-5.739423666462293,-7.5732679337829545,2.0,1.9230769230769231,520.0,-15.588252432841909,-1.3891964337742557,-19.352019113105296,1657.8754578754579,-1.0,70.56745989016905,1.9234280038329117,
2023-08-15 14:32:28.348000,-6.0120481927710845,-1.0240963855421688,-7.951807228915663,-0.9834457388105456,-5.685469037400368,-7.531575720416922,2.0,1.9230769230769231,520.0,-14.90122953207855,-1.8930132276673854,-18.039042013868656,1627.8388278388277,-1.0,70.56745989016905,1.923424418950547,
2023-08-15 14:32:28.356000,-5.975903614457832,-0.9879518072289157,-7.927710843373494,-0.9491109748620478,-5.683016554261189,-7.607602697731453,2.0,1.9230769230769231,520.0,-14.153137929025116,-2.48843307499563,-19.30621758638774,1589.7435897435896,-1.0,70.56745989016905,1.9234208241259263,
2023-08-15 14:32:28.364000,-5.91566265060241,-1.0240963855421688,-7.927710843373494,-1.0006131207847946,-5.626609442060086,-7.551195585530349,2.0,1.9230769230769231,520.0,-15.114969990093817,-2.9311811665986833,-18.985606899364836,1550.9157509157508,-1.0,70.56745989016905,1.9234172109657932,
2023-08-15 14:32:28.371000,-5.927710843373494,-1.0602409638554218,-7.91566265060241,-1.0104230533415082,-5.621704475781729,-7.610055180870631,2.0,1.9230769230769231,520.0,-14.611153196200688,-2.4273643727055534,-18.588660334479343,1507.6923076923076,-1.0,70.56745989016905,1.9234135713725313,
2023-08-15 14:32:28.379000,-5.903614457831326,-1.0240963855421688,-7.91566265060241,-0.9540159411404046,-5.629061925199264,-7.659104843654199,2.0,1.9230769230769231,520.0,-14.000466173299925,-2.747975059728454,-18.45125575432667,1465.201465201465,-1.0,70.56745989016905,1.9234098975701208,
2023-08-15 14:32:28.387000,-5.891566265060241,-1.0,-7.9397590361445785,-1.0006131207847946,-5.594727161250766,-7.600245248313917,2.0,1.9230769230769231,520.0,-14.06153487559,-3.0533185711788358,-17.9169046092885,1423.4432234432234,-1.0,70.56745989016905,1.9234061821288224,
2023-08-15 14:32:28.394000,-5.855421686746988,-1.0481927710843375,-7.91566265060241,-0.9932556713672593,-5.548129981606376,-7.575720416922133,2.0,1.9230769230769231,520.0,-13.878328768719772,-3.5724025406444846,-17.382553464250332,1386.080586080586,-1.0,70.56745989016905,1.9234024179885094,
2023-08-15 14:32:28.402000,-5.807228915662651,-1.036144578313253,-7.903614457831326,-0.9687308399754752,-5.481912936848559,-7.546290619251992,2.0,1.9230769230769231,520.0,-12.73329060078084,-3.602936891789523,-17.184080181807584,1352.3809523809523,-1.0,70.56745989016905,1.9233985984805686,
2023-08-15 14:32:28.410000,-5.83132530120482,-1.0,-7.843373493975904,-0.8902513795217657,-5.4696505211526665,-7.570815450643776,2.0,1.9230769230769231,520.0,-11.679855486277024,-3.8624788765223474,-16.481790105471706,1323.076923076923,-1.0,70.56745989016905,1.9233947173482835,
2023-08-15 14:32:28.417000,-5.807228915662651,-1.0,-7.879518072289157,-0.944206008583691,-5.540772532188841,-7.62722256284488,2.0,1.9230769230769231,520.0,-11.38977915039916,-3.434997960491813,-16.08484354058621,1295.2380952380952,-1.0,70.56745989016905,1.9233907687656504,
2023-08-15 14:32:28.425000,-5.783132530120482,-0.9759036144578314,-7.879518072289157,-0.9491109748620478,-5.4402207234825255,-7.575720416922133,2.0,1.9230769230769231,520.0,-11.38977915039916,-3.4807994872093704,-15.397820639822852,1271.7948717948716,-1.0,70.56745989016905,1.923386747354548,
2023-08-15 14:32:28.433000,-5.795180722891566,-0.9879518072289157,-7.891566265060241,-1.0006131207847946,-5.391171060698958,-7.553648068669528,2.0,1.9230769230769231,520.0,-11.481382203834276,-3.7098071207971564,-14.100110716158731,1252.014652014652,-1.0,70.56745989016905,1.9233826482002148,
2023-08-15 14:32:28.440000,-5.771084337349398,-0.963855421686747,-7.963855421686747,-0.8877988963825874,-5.477007970570202,-7.614960147148988,2.0,1.9216117216117214,520.3964925657644,-10.06153487559,-3.099120097896393,-13.855835906998426,1236.6300366300366,-1.0,70.56745989016905,1.9233784668649925,
2023-08-15 14:32:28.448000,-5.759036144578314,-0.9518072289156627,-7.963855421686747,-0.8313917841814837,-5.435315757204169,-7.715511955855303,2.0,1.9216117216117214,520.3964925657644,-10.260008158032749,-2.5495017772857063,-14.161179418448807,1223.4432234432234,-1.0,70.56745989016905,1.9233741993654798,
2023-08-15 14:32:28.456000,-5.795180722891566,-0.963855421686747,-7.963855421686747,-0.8461066830165542,-5.516247700797057,-7.742489270386265,2.0,1.9230769230769231,520.0,-9.634053959559466,-1.8319445253773092,-13.199347357380105,1214.6520146520145,-1.0,70.56745989016905,1.9233698420432415,
2023-08-15 14:32:28.463000,-5.819277108433735,-0.9879518072289157,-7.975903614457832,-0.9343960760269773,-5.496627835683629,-7.634580012262416,2.0,1.9230769230769231,520.0,-9.099702814521299,-2.2746926169803627,-12.359652700891555,1205.128205128205,-1.0,70.56745989016905,1.9233653915718345,
2023-08-15 14:32:28.471000,-5.855421686746988,-0.9518072289156627,-8.012048192771084,-0.8828939301042305,-5.602084610668301,-7.681177191906805,2.0,1.9230769230769231,520.0,-8.137870753452596,-2.518967426140668,-11.794767204708348,1196.3369963369962,-1.0,70.56745989016905,1.9233608451001656,
2023-08-15 14:32:28.479000,-5.903614457831326,-0.9518072289156627,-7.987951807228916,-0.8853464132434089,-5.614347026364193,-7.600245248313917,2.0,1.9230769230769231,520.0,-8.168405104597635,-3.1449216246139504,-10.619194685624379,1194.1391941391942,-1.0,70.56745989016905,1.923356200289389,
2023-08-15 14:32:28.486000,-5.927710843373494,-0.9397590361445783,-8.048192771084338,-0.9343960760269773,-5.602084610668301,-7.75229920294298,2.0,1.9230769230769231,520.0,-7.099702814521299,-3.847211700949828,-10.176446594021327,1194.1391941391942,-1.0,70.56745989016905,1.923351455313203,
2023-08-15 14:32:28.494000,-5.91566265060241,-0.9277108433734941,-8.012048192771084,-0.8608215818516247,-5.619251992642551,-7.676272225628448,2.0,1.9230769230769231,520.0,-6.336344035895345,-4.122020861255172,-10.466522929899188,1201.4652014652013,-1.0,70.56745989016905,1.9233466088564048,
2023-08-15 14:32:28.502000,-5.891566265060241,-0.8915662650602411,-7.927710843373494,-0.7946045370938074,-5.597179644389945,-7.597792765174739,2.0,1.9230769230769231,520.0,-5.908863119864811,-4.457898723850591,-9.519958044403005,1210.989010989011,-1.0,70.56745989016905,1.9233416601117228,
2023-08-15 14:32:28.509000,-5.903614457831326,-0.9036144578313253,-7.963855421686747,-0.8902513795217657,-5.58982219497241,-7.67381974248927,2.0,1.9230769230769231,520.0,-5.58825243284191,-3.9388147543849428,-8.924538197074762,1226.3736263736264,-1.0,70.56745989016905,1.9233366087749866,
2023-08-15 14:32:28.517000,-5.951807228915663,-0.8915662650602411,-7.927710843373494,-0.8264868179031268,-5.656039239730227,-7.634580012262416,2.0,1.9230769230769231,520.0,-4.809626478643437,-4.228891090262805,-8.29858399860148,1242.4908424908424,-1.0,70.56745989016905,1.9233314550386875,
2023-08-15 14:32:28.525000,-5.9397590361445785,-0.855421686746988,-7.903614457831326,-0.7847946045370937,-5.587369711833231,-7.585530349478847,2.0,1.9216117216117214,520.3964925657644,-5.176038692383894,-4.900646815453645,-7.123011479517509,1260.07326007326,-1.0,70.56745989016905,1.9233261995839814,
2023-08-15 14:32:28.532000,-5.9397590361445785,-0.8433734939759037,-7.927710843373494,-0.733292458614347,-5.675659104843654,-7.656652360515021,2.0,1.9230769230769231,520.0,-4.290542509177787,-5.282326204766622,-6.832935143639647,1276.923076923077,-1.0,70.56745989016905,1.9233208430785487,
2023-08-15 14:32:28.540000,-5.9397590361445785,-0.8795180722891567,-7.927710843373494,-0.7725321888412017,-5.668301655426118,-7.629675045984058,2.0,1.9230769230769231,520.0,-4.901229532078551,-4.915913991026164,-6.4207214031816315,1295.970695970696,-1.0,70.56745989016905,1.9233153865861723,
2023-08-15 14:32:28.548000,-5.9397590361445785,-0.8433734939759037,-7.927710843373494,-0.7553648068669527,-5.611894543225015,-7.585530349478847,2.0,1.9230769230769231,520.0,-4.3821455626129024,-4.8701124643086064,-5.764232853563311,1315.018315018315,-1.0,70.56745989016905,1.9233098320790072,
2023-08-15 14:32:28.555000,-5.91566265060241,-0.8674698795180723,-7.975903614457832,-0.7529123237277743,-5.565297363580625,-7.671367259350092,2.0,1.9230769230769231,520.0,-3.817260066429696,-4.900646815453645,-5.336751937532777,1332.6007326007325,-1.0,70.56745989016905,1.9233041824234747,
2023-08-15 14:32:28.563000,-5.903614457831326,-0.9036144578313253,-8.0,-0.851011649294911,-5.60453709380748,-7.661557326793378,2.0,1.9230769230769231,520.0,-3.3592447992541232,-4.80904376201853,-4.11537789173125,1346.5201465201465,-1.0,70.56745989016905,1.923298440839882,
2023-08-15 14:32:28.571000,-5.891566265060241,-0.855421686746988,-8.048192771084338,-0.7798896382587369,-5.641324340895156,-7.732679337829552,2.0,1.9230769230769231,520.0,-2.4432142649029784,-4.167822387972729,-2.9245381970747615,1363.3699633699632,-1.0,70.56745989016905,1.9232926104649941,
2023-08-15 14:32:28.578000,-5.879518072289157,-0.8674698795180723,-8.060240963855422,-0.8362967504598405,-5.614347026364193,-7.705702023298589,2.0,1.9230769230769231,520.0,-2.4432142649029784,-4.167822387972729,-2.9245381970747615,1379.4871794871794,-1.0,70.56745989016905,1.9232866948267657,
2023-08-15 14:32:28.586000,-5.91566265060241,-0.8313253012048193,-8.024096385542169,-0.7651747394236664,-5.690374003678724,-7.705702023298589,2.0,1.9230769230769231,520.0,-1.4203135015441999,-3.297593380339141,-1.6573626245556776,1391.9413919413919,-1.0,70.56745989016905,1.9232806978255645,
2023-08-15 14:32:28.594000,-5.891566265060241,-0.8915662650602411,-8.012048192771084,-0.8828939301042305,-5.52605763335377,-7.676272225628448,2.0,1.9216117216117214,520.3964925657644,-0.9775654099411464,-3.6640055940795992,-0.4665229298991892,1397.069597069597,-1.0,70.56745989016905,1.9232746237146094,
2023-08-15 14:32:28.601000,-5.855421686746988,-0.8433734939759037,-7.987951807228916,-0.7823421213979154,-5.587369711833231,-7.68853464132434,2.0,1.9216117216117214,520.3964925657644,0.09113688013518942,-4.183089563545248,0.5411106578870704,1399.2673992673992,-1.0,70.56745989016905,1.923268477044971,
2023-08-15 14:32:28.609000,-5.867469879518072,-0.7590361445783133,-8.024096385542169,-0.7357449417535254,-5.52605763335377,-7.695892090741876,2.0,1.9230769230769231,520.0,1.1751063457840443,-4.167822387972729,1.0601946273527192,1399.2673992673992,-1.0,70.56745989016905,1.9232622625053755,
2023-08-15 14:32:28.617000,-5.819277108433735,-0.783132530120482,-8.048192771084338,-0.6891477621091354,-5.503985285101165,-7.72041692213366,2.0,1.9230769230769231,520.0,1.6178544373870978,-4.778509410873492,1.7624847036885969,1397.069597069597,-1.0,70.56745989016905,1.923255985357594,
2023-08-15 14:32:28.624000,-5.807228915662651,-0.8433734939759037,-8.048192771084338,-0.7995095033721643,-5.560392397302269,-7.717964438994482,2.0,1.9230769230769231,520.0,1.8315948954023649,-5.221257502476545,2.480041955596994,1391.9413919413919,-1.0,70.56745989016905,1.923249651484554,
2023-08-15 14:32:28.632000,-5.855421686746988,-0.8674698795180723,-8.060240963855422,-0.8240343347639485,-5.533415082771306,-7.641937461679951,2.0,1.9230769230769231,520.0,3.08350329234893,-4.656372006293339,4.327370199871803,1385.3479853479853,-1.0,70.56745989016905,1.9232432664546084,
2023-08-15 14:32:28.640000,-5.879518072289157,-0.8795180722891567,-8.024096385542169,-0.9025137952176578,-5.670754138565297,-7.671367259350092,2.0,1.9230769230769231,520.0,4.640755200745876,-3.4960666627818893,6.006759512848902,1380.952380952381,-1.0,70.56745989016905,1.9232368355680785,
2023-08-15 14:32:28.647000,-5.903614457831326,-0.9156626506024097,-8.012048192771084,-0.9000613120784794,-5.545677498467198,-7.676272225628448,2.0,1.9230769230769231,520.0,5.449915506089388,-3.0227842200337975,6.953324398345085,1374.3589743589744,-1.0,70.56745989016905,1.923230364782215,
2023-08-15 14:32:28.655000,-5.9397590361445785,-0.9518072289156627,-7.963855421686747,-0.8927038626609441,-5.616799509503372,-7.61250766400981,2.0,1.9230769230769231,520.0,6.396480391585571,-1.6487384185070801,7.88462210826875,1367.7655677655678,-1.0,70.56745989016905,1.923223860160657,
2023-08-15 14:32:28.662000,-5.987951807228916,-0.9518072289156627,-7.951807228915663,-0.9491109748620478,-5.680564071122011,-7.59534028203556,2.0,1.9230769230769231,520.0,7.220907872501601,-0.9464483421712023,9.350270963230582,1356.0439560439559,-1.0,70.56745989016905,1.923217327885106,
2023-08-15 14:32:28.670000,-6.0361445783132535,-0.9397590361445783,-7.975903614457832,-0.8951563458001226,-5.749233599019006,-7.654199877375842,2.0,1.9230769230769231,520.0,8.045335353417633,0.15278829905017166,10.281568673154245,1344.3223443223442,-1.0,70.56745989016905,1.92321077465544,
2023-08-15 14:32:28.678000,-6.0361445783132535,-0.9156626506024097,-7.9397590361445785,-0.8264868179031268,-5.7001839362354385,-7.61250766400981,2.0,1.9230769230769231,520.0,8.549152147310762,1.5115669250043702,11.182332031932871,1333.3333333333333,-1.0,70.56745989016905,1.9232042067187296,
2023-08-15 14:32:28.685000,-6.0361445783132535,-0.8674698795180723,-7.9397590361445785,-0.8461066830165542,-5.778663396689147,-7.59534028203556,2.0,1.9230769230769231,520.0,9.114037643493967,3.4657653982868126,12.174698444146612,1324.5421245421244,-1.0,70.56745989016905,1.9231976303739506,
2023-08-15 14:32:28.693000,-6.048192771084338,-0.8072289156626506,-7.903614457831326,-0.7553648068669527,-5.7271612507664,-7.541385652973635,2.0,1.9230769230769231,520.0,9.724724666394732,5.17568906240895,12.327370199871803,1315.7509157509157,-1.0,70.56745989016905,1.923191051914959,
2023-08-15 14:32:28.701000,-6.0120481927710845,-0.783132530120482,-7.83132530120482,-0.7553648068669527,-5.7148988350705086,-7.509503372164316,2.0,1.9230769230769231,520.0,10.152205582425266,6.519200512790629,13.273935085367986,1309.89010989011,-1.0,70.56745989016905,1.9231844776435727,
2023-08-15 14:32:28.708000,-6.0361445783132535,-0.7590361445783133,-7.759036144578314,-0.7283874923359902,-5.695278969957081,-7.4408338442673205,2.0,1.9230769230769231,520.0,10.259075811432899,6.946681428821163,13.976225161703864,1305.4945054945053,-1.0,70.56745989016905,1.923177914271671,
2023-08-15 14:32:28.716000,-5.987951807228916,-0.746987951807229,-7.650602409638554,-0.7578172900061312,-5.695278969957081,-7.34763948497854,2.0,1.9230769230769231,520.0,10.457549093875647,6.9314142532486445,14.327370199871803,1304.7619047619046,-1.0,70.56745989016905,1.9231713684106135,
2023-08-15 14:32:28.724000,-5.963855421686747,-0.7228915662650602,-7.590361445783133,-0.6842427958307786,-5.66584917228694,-7.291232372777436,2.0,1.9230769230769231,520.0,11.129304819066487,5.771108909737194,14.831186993764932,1305.4945054945053,-1.0,70.56745989016905,1.9231648460959976,
2023-08-15 14:32:28.731000,-5.903614457831326,-0.7590361445783133,-7.590361445783133,-0.7210300429184548,-5.560392397302269,-7.296137339055794,2.0,1.9230769230769231,520.0,11.144571994639005,4.030650894470019,14.525843482314551,1307.6923076923076,-1.0,70.56745989016905,1.9231583528381775,
2023-08-15 14:32:28.739000,-5.83132530120482,-0.7951807228915663,-7.662650602409639,-0.7896995708154506,-5.46474555487431,-7.313304721030042,2.0,1.9230769230769231,520.0,11.25144222364664,2.427597459355515,14.480041955596993,1309.1575091575091,-1.0,70.56745989016905,1.9231518940946228,
2023-08-15 14:32:28.747000,-5.855421686746988,-0.855421686746988,-7.698795180722892,-0.745554874310239,-5.535867565910484,-7.372164316370324,2.0,1.9216117216117214,520.3964925657644,11.480449857234426,0.5802692150807061,15.335003787658062,1308.4249084249084,-1.0,70.56745989016905,1.923145475251046,
2023-08-15 14:32:28.754000,-5.855421686746988,-0.8313253012048193,-7.771084337349398,-0.8313917841814837,-5.496627835683629,-7.443286327406499,2.0,1.9230769230769231,520.0,12.625488025173357,-1.3281277314841795,16.312103024299283,1309.1575091575091,-1.0,70.56745989016905,1.923139101569244,
2023-08-15 14:32:28.762000,-5.903614457831326,-0.8795180722891567,-7.795180722891566,-0.8166768853464133,-5.643776824034335,-7.445738810545677,2.0,1.9230769230769231,520.0,13.785793368684807,-2.5953033040032634,17.426606841093175,1307.6923076923076,-1.0,70.56745989016905,1.9231327785245416,
2023-08-15 14:32:28.770000,-5.91566265060241,-0.9277108433734941,-7.795180722891566,-0.8338442673206621,-5.663396689147762,-7.423666462293071,2.0,1.9230769230769231,520.0,15.08350329234893,-3.618204067362042,18.189965619719132,1305.4945054945053,-1.0,70.56745989016905,1.9231265118277356,
2023-08-15 14:32:28.777000,-5.951807228915663,-0.9518072289156627,-7.783132530120482,-0.8461066830165542,-5.643776824034335,-7.450643776824034,2.0,1.9230769230769231,520.0,16.335411689295494,-3.8777460520948663,19.335003787658064,1304.0293040293038,-1.0,70.56745989016905,1.923120306957728,
2023-08-15 14:32:28.785000,-5.9397590361445785,-0.963855421686747,-7.855421686746988,-0.9638258736971183,-5.66584917228694,-7.4923359901900675,2.0,1.9245421245421244,519.604111153407,17.831594895402365,-3.7861429986597517,20.312103024299283,1301.8315018315018,-1.0,70.56745989016905,1.9231141686952111,
2023-08-15 14:32:28.793000,-5.9397590361445785,-0.9759036144578314,-7.855421686746988,-0.9613733905579399,-5.643776824034335,-7.509503372164316,2.0,1.9230769230769231,520.0,19.465182681661908,-3.1754559757589886,21.18233203193287,1296.7032967032967,-1.0,70.56745989016905,1.9231081021330767,
2023-08-15 14:32:28.800000,-5.891566265060241,-0.963855421686747,-7.91566265060241,-0.9294911097486205,-5.599632127529123,-7.561005518087063,2.0,1.9230769230769231,520.0,21.159839170211526,-2.8090437620185305,22.281568673154243,1293.040293040293,-1.0,70.56745989016905,1.9231021126707724,
2023-08-15 14:32:28.808000,-5.903614457831326,-0.9518072289156627,-7.91566265060241,-0.8313917841814837,-5.663396689147762,-7.61250766400981,2.0,1.9230769230769231,520.0,22.91556436105122,-2.3815628459879963,23.121263329642794,1290.10989010989,-1.0,70.56745989016905,1.9230962045347118,
2023-08-15 14:32:28.816000,-5.927710843373494,-0.9397590361445783,-7.927710843373494,-0.8657265481299815,-5.633966891477621,-7.600245248313917,2.0,1.9230769230769231,520.0,23.358312452654275,-1.1907231513315077,24.83118699376493,1287.179487179487,-1.0,70.56745989016905,1.9230903817584248,
2023-08-15 14:32:28.823000,-5.987951807228916,-0.9277108433734941,-7.91566265060241,-0.8657265481299815,-5.653586756591048,-7.59534028203556,2.0,1.9230769230769231,520.0,24.182739933570303,0.5039333372181106,26.251034322009208,1287.179487179487,-1.0,70.56745989016905,1.9230846486019009,
2023-08-15 14:32:28.831000,-6.024096385542169,-0.9397590361445783,-7.903614457831326,-0.8853464132434089,-5.709993868792152,-7.5438381361128135,2.0,1.9230769230769231,520.0,24.335411689295494,0.9161470776761258,26.98385874949012,1285.7142857142856,-1.0,70.56745989016905,1.9230790090588177,
2023-08-15 14:32:28.839000,-6.060240963855422,-0.9518072289156627,-7.855421686746988,-0.9957081545064377,-5.763948497854077,-7.526670754138565,2.0,1.9230769230769231,520.0,24.45754909387565,2.122253947905133,27.289202260940506,1286.4468864468863,-1.0,70.56745989016905,1.9230734668574512,
2023-08-15 14:32:28.846000,-6.0120481927710845,-1.0240963855421688,-7.819277108433735,-0.9834457388105456,-5.680564071122011,-7.5364806866952785,2.0,1.9230769230769231,520.0,25.23617504807412,2.8398111998135303,27.777751879261114,1290.8424908424909,-1.0,70.56745989016905,1.9230680250046843,
2023-08-15 14:32:28.854000,-5.975903614457832,-1.0481927710843375,-7.83132530120482,-1.020232985898222,-5.741876149601471,-7.5291232372777435,2.0,1.9230769230769231,520.0,25.23617504807412,2.8398111998135303,27.777751879261114,1294.5054945054944,-1.0,70.56745989016905,1.9230626858560607,
2023-08-15 14:32:28.862000,-5.963855421686747,-1.0481927710843375,-7.819277108433735,-1.032495401594114,-5.702636419374617,-7.504598405885959,2.0,1.9230769230769231,520.0,25.23617504807412,4.061185245615057,28.495309131169513,1298.9010989010987,-1.0,70.56745989016905,1.9230574516078514,
2023-08-15 14:32:28.869000,-5.951807228915663,-1.0963855421686748,-7.855421686746988,-1.0423053341508277,-5.643776824034335,-7.5364806866952785,2.0,1.9230769230769231,520.0,25.938465124409998,4.4733989860730725,29.304469436513024,1304.0293040293038,-1.0,70.56745989016905,1.9230523247557896,
2023-08-15 14:32:28.877000,-5.963855421686747,-1.0963855421686748,-7.891566265060241,-1.0643776824034334,-5.685469037400368,-7.556100551808706,2.0,1.9245421245421244,519.604111153407,26.09113688013519,4.35126158149292,30.342637375444323,1312.087912087912,-1.0,70.56745989016905,1.9230473080301147,
2023-08-15 14:32:28.885000,-5.987951807228916,-1.0963855421686748,-7.879518072289157,-1.0545677498467196,-5.695278969957081,-7.607602697731453,2.0,1.9230769230769231,520.0,26.747625429753512,4.549734863935668,31.441874016665693,1317.9487179487178,-1.0,70.56745989016905,1.9230424044035108,
2023-08-15 14:32:28.892000,-6.0,-1.144578313253012,-7.927710843373494,-1.0864500306560392,-5.741876149601471,-7.622317596566523,2.0,1.9230769230769231,520.0,27.510984208379465,4.381795932637957,32.77011829147485,1324.5421245421244,-1.0,70.56745989016905,1.9230376166791896,
2023-08-15 14:32:28.900000,-6.060240963855422,-1.1686746987951808,-7.903614457831326,-1.155119558553035,-5.7811158798283255,-7.600245248313917,2.0,1.9216117216117214,520.3964925657644,28.182739933570303,3.908513489889866,33.94569081055882,1327.4725274725274,-1.0,70.56745989016905,1.923032946975509,
2023-08-15 14:32:28.908000,-6.1084337349397595,-1.2409638554216869,-7.879518072289157,-1.1870018393623543,-5.7958307786633965,-7.610055180870631,2.0,1.9216117216117214,520.3964925657644,28.121671231280228,3.8474447875997897,35.10599615407027,1333.3333333333333,-1.0,70.56745989016905,1.9230283967013477,
2023-08-15 14:32:28.915000,-6.156626506024097,-1.313253012048193,-7.867469879518072,-1.2213366033108521,-5.857142857142857,-7.570815450643776,2.0,1.9216117216117214,520.3964925657644,28.10640405570771,2.9008799021036067,35.27393508536798,1337.7289377289376,-1.0,70.56745989016905,1.9230239664944286,
2023-08-15 14:32:28.923000,-6.096385542168675,-1.349397590361446,-7.903614457831326,-1.3415082771305946,-5.7271612507664,-7.664009809932557,2.0,1.9230769230769231,520.0,27.58732008624206,1.9695821921799426,35.060194627352715,1345.054945054945,-1.0,70.56745989016905,1.9230196566843822,
2023-08-15 14:32:28.931000,-6.024096385542169,-1.349397590361446,-8.012048192771084,-1.2826486817903127,-5.690374003678724,-7.715511955855303,2.0,1.9230769230769231,520.0,26.564419322883282,1.3588951692791793,34.678515238039736,1351.6483516483515,-1.0,70.56745989016905,1.923015467790156,
2023-08-15 14:32:28.938000,-6.0,-1.3373493975903614,-8.084337349397591,-1.3218884120171672,-5.668301655426118,-7.72041692213366,2.0,1.9230769230769231,520.0,26.167472757997785,0.6108035662257442,34.78538546704737,1356.0439560439559,-1.0,70.56745989016905,1.9230114005964165,
2023-08-15 14:32:28.946000,-6.0361445783132535,-1.3373493975903614,-8.120481927710843,-1.2286940527283874,-5.7516860821581846,-7.8405885959534025,2.0,1.9230769230769231,520.0,25.510984208379465,-0.045684983392576414,35.13653050521531,1356.0439560439559,-1.0,70.56745989016905,1.9230074557048995,
2023-08-15 14:32:28.954000,-6.048192771084338,-1.3373493975903614,-8.120481927710843,-1.3071735131820967,-5.7001839362354385,-7.835683629675046,2.0,1.9230769230769231,520.0,25.11403764349397,-1.053318571178836,35.2892022609405,1356.7765567765566,-1.0,70.56745989016905,1.9230036335436165,
2023-08-15 14:32:28.961000,-6.048192771084338,-1.313253012048193,-8.168674698795181,-1.3071735131820967,-5.680564071122011,-7.909258123850398,2.0,1.9230769230769231,520.0,25.037701765631372,-1.6029368917895228,35.22813355865043,1354.5787545787546,-1.0,70.56745989016905,1.9229999343759987,
2023-08-15 14:32:28.969000,-6.0843373493975905,-1.2771084337349399,-8.132530120481928,-1.2630288166768853,-5.7664009809932555,-7.882280809319435,2.0,1.9230769230769231,520.0,25.08350329234893,-0.015150632247538248,34.90752287162752,1353.113553113553,-1.0,70.56745989016905,1.92299635830993,
2023-08-15 14:32:28.977000,-6.1325301204819285,-1.1566265060240966,-8.156626506024097,-1.0717351318209687,-5.825260576333537,-7.8700183936235435,2.0,1.9230769230769231,520.0,25.938465124409998,2.076452421187576,34.5716450090321,1351.6483516483515,-1.0,70.56745989016905,1.922992905306576,
2023-08-15 14:32:28.984000,-6.168674698795181,-1.1204819277108435,-8.072289156626507,-1.0839975475168608,-5.844880441446965,-7.705702023298589,2.0,1.9230769230769231,520.0,26.854495658761145,5.2520249402715455,34.03729386399394,1349.4505494505493,-1.0,70.56745989016905,1.9229895751889967,
2023-08-15 14:32:28.992000,-6.228915662650603,-1.0963855421686748,-7.9397590361445785,-1.120784794604537,-5.940527283874923,-7.5364806866952785,2.0,1.9230769230769231,520.0,28.625488025173357,6.961948604393683,33.30446943651302,1353.113553113553,-1.0,70.56745989016905,1.92298636765048,
2023-08-15 14:32:29,-6.204819277108434,-1.108433734939759,-7.807228915662651,-1.0398528510116491,-5.925812385039853,-7.431023911710606,2.0,1.9230769230769231,520.0,29.938465124409998,7.954315016607423,32.70904958918477,1361.904761904762,-1.0,70.56745989016905,1.922983281804671,
2023-08-15 14:32:29.007000,-6.1325301204819285,-1.1566265060240966,-7.734939759036145,-1.108522378908645,-5.812998160637646,-7.406499080318822,2.0,1.9230769230769231,520.0,31.14457199463901,8.076452421187575,32.312103024299276,1377.2893772893772,-1.0,70.56745989016905,1.9229803167183426,
2023-08-15 14:32:29.015000,-6.0,-1.2048192771084338,-7.638554216867471,-1.2532188841201717,-5.6781115879828326,-7.251992642550582,2.0,1.9230769230769231,520.0,32.07586970456267,7.83217761202727,32.510576306742024,1399.2673992673992,-1.0,70.56745989016905,1.922977471381894,
2023-08-15 14:32:29.023000,-5.855421686746988,-1.2650602409638554,-7.542168674698796,-1.260576333537707,-5.530962599632128,-7.220110361741263,2.0,1.9216117216117214,520.3964925657644,33.38884680379931,8.717673795233377,32.75485111590233,1425.6410256410256,-1.0,70.56745989016905,1.9229747447492915,
2023-08-15 14:32:29.030000,-5.759036144578314,-1.2891566265060241,-7.518072289156627,-1.3513182096873084,-5.378908645003065,-7.229920294297976,2.0,1.9216117216117214,520.3964925657644,34.56441932288328,10.198589825767728,33.30446943651302,1453.4798534798533,-1.0,70.56745989016905,1.922972135673547,
2023-08-15 14:32:29.038000,-5.662650602409639,-1.2771084337349399,-7.506024096385542,-1.2041692213366033,-5.383813611281422,-7.095033721643163,2.0,1.9216117216117214,520.3964925657644,35.2209078725016,12.076452421187575,34.90752287162752,1487.179487179487,-1.0,70.56745989016905,1.9229696418911921,
2023-08-15 14:32:29.045000,-5.686746987951808,-1.3614457831325302,-7.457831325301205,-1.3341508277130594,-5.430410790925812,-7.198038013488657,2.0,1.9216117216117214,520.3964925657644,34.991900238913814,13.84744478759979,36.17469844414661,1523.8095238095236,-1.0,70.56745989016905,1.9229672610064283,
2023-08-15 14:32:29.053000,-5.795180722891566,-1.3975903614457832,-7.445783132530121,-1.4224402207234825,-5.548129981606376,-7.171060698957694,2.0,1.9216117216117214,520.3964925657644,35.15983917021153,15.542101276149408,36.86172134490997,1559.7069597069597,-1.0,70.56745989016905,1.9229649904543917,
2023-08-15 14:32:29.061000,-5.9397590361445785,-1.3975903614457832,-7.530120481927711,-1.3758430410790925,-5.6781115879828326,-7.288779889638258,2.0,1.9216117216117214,520.3964925657644,34.39648039158557,16.351261581492917,37.869354932696226,1596.3369963369962,-1.0,70.56745989016905,1.9229628275331747,
2023-08-15 14:32:29.068000,-6.048192771084338,-1.3734939759036144,-7.566265060240965,-1.290006131207848,-5.746781115879828,-7.25444512568976,2.0,1.9216117216117214,520.3964925657644,33.87739642211992,15.847444787599787,38.251034322009204,1629.3040293040292,-1.0,70.56745989016905,1.9229607698234243,
2023-08-15 14:32:29.076000,-6.1084337349397595,-1.3373493975903614,-7.578313253012048,-1.3366033108522377,-5.761496014714899,-7.328019619865113,2.0,1.9216117216117214,520.3964925657644,33.32777810150924,15.725307383019635,38.80065264261989,1659.3406593406592,-1.0,70.56745989016905,1.9229588146937444,
2023-08-15 14:32:29.084000,-6.19277108433735,-1.2530120481927711,-7.602409638554217,-1.1281422440220723,-5.906192519926425,-7.244635193133047,2.0,1.9216117216117214,520.3964925657644,32.854495658761145,14.259658528057805,38.876988520482485,1680.5860805860805,-1.0,70.56745989016905,1.922956959297758,
2023-08-15 14:32:29.091000,-6.19277108433735,-1.1927710843373494,-7.662650602409639,-1.1305947271612506,-5.889025137952176,-7.431023911710606,2.0,1.9216117216117214,520.3964925657644,31.75525901753977,12.68713944408834,39.62508012353592,1695.970695970696,850.250244140625,70.56745989016905,1.922955200570213,
2023-08-15 14:32:29.099000,-6.1807228915662655,-1.180722891566265,-7.710843373493976,-1.2066217044757817,-5.776210913549969,-7.455548743102391,2.0,1.9216117216117214,520.3964925657644,30.24380863586038,11.481032573859332,38.86172134490997,1703.296703296703,-1.0,70.56745989016905,1.9229535352221776,
2023-08-15 14:32:29.107000,-6.1084337349397595,-1.144578313253012,-7.795180722891566,-1.0521152667075413,-5.7737584304107905,-7.5438381361128135,2.0,1.9216117216117214,520.3964925657644,29.495717032806947,10.50393333721811,38.09836256628401,1703.296703296703,-1.0,70.56745989016905,1.9229519592775528,
2023-08-15 14:32:29.114000,-6.024096385542169,-1.144578313253012,-7.83132530120482,-1.2286940527283874,-5.695278969957081,-7.622317596566523,2.0,1.9230769230769231,520.0,27.5415185595245,9.206223413553989,37.85408775712371,1695.970695970696,-1.0,70.56745989016905,1.9229504681339618,
2023-08-15 14:32:29.122000,-5.927710843373494,-1.180722891566265,-7.9397590361445785,-1.1600245248313916,-5.548129981606376,-7.67381974248927,2.0,1.9230769230769231,520.0,26.121671231280228,9.587902802866966,37.59454577239088,1683.5164835164835,-1.0,70.56745989016905,1.9229490579946613,
2023-08-15 14:32:29.130000,-5.771084337349398,-1.1927710843373494,-8.024096385542169,-1.1477621091354997,-5.452483139178418,-7.764561618638871,2.0,1.9230769230769231,520.0,25.663655964104656,11.755841734164674,37.380805314375614,1663.003663003663,-1.0,70.56745989016905,1.922947725862297,
2023-08-15 14:32:29.137000,-5.734939759036145,-1.1325301204819278,-8.096385542168676,-1.0374003678724708,-5.472103004291845,-7.835683629675046,2.0,1.9230769230769231,520.0,25.663655964104656,11.755841734164674,37.380805314375614,1634.4322344322343,-1.0,70.56745989016905,1.922946468587256,
2023-08-15 14:32:29.145000,-5.746987951807229,-1.072289156626506,-8.19277108433735,-1.0177805027590434,-5.430410790925812,-7.955855303494788,2.0,1.9230769230769231,520.0,23.999533826700077,13.282559291416584,37.67088165025348,1602.197802197802,-1.0,70.56745989016905,1.9229452828668643,
2023-08-15 14:32:29.153000,-5.771084337349398,-1.036144578313253,-8.27710843373494,-1.0006131207847946,-5.427958307786634,-7.955855303494788,2.0,1.9230769230769231,520.0,23.14457199463901,14.290192879202843,38.189965619719125,1569.9633699633698,-1.0,70.56745989016905,1.922944165244964,
2023-08-15 14:32:29.160000,-5.867469879518072,-0.9277108433734941,-8.313253012048193,-0.8755364806866952,-5.533415082771306,-8.031882280809318,2.0,1.9230769230769231,520.0,23.14457199463901,13.893246314317347,38.52584348231455,1536.263736263736,-1.0,70.56745989016905,1.9229431116540823,
2023-08-15 14:32:29.168000,-6.0361445783132535,-0.6987951807228916,-8.289156626506024,-0.6597179644389944,-5.7590435315757205,-7.941140404659717,2.0,1.9216117216117214,520.3964925657644,22.991900238913818,13.465765398286813,38.815919818192405,1501.8315018315018,-1.0,70.56745989016905,1.922942117941147,
2023-08-15 14:32:29.176000,-6.1325301204819285,-0.674698795180723,-8.25301204819277,-0.640098099325567,-5.86695278969957,-7.970570202329858,2.0,1.9230769230769231,520.0,21.92319794883748,11.374162344851698,38.95332439834508,1469.5970695970695,-1.0,70.56745989016905,1.9229411797971614,
