Shimmer_F5D4_Timestamp_FormattedUnix_CAL,Shimmer_F5D4_Accel_LN_X_CAL,Shimmer_F5D4_Accel_LN_Y_CAL,Shimmer_F5D4_Accel_LN_Z_CAL,Shimmer_F5D4_Accel_WR_X_CAL,Shimmer_F5D4_Accel_WR_Y_CAL,Shimmer_F5D4_Accel_WR_Z_CAL,Shimmer_F5D4_GSR_Range_CAL,Shimmer_F5D4_GSR_Skin_Conductance_CAL,Shimmer_F5D4_GSR_Skin_Resistance_CAL,Shimmer_F5D4_Gyro_X_CAL,Shimmer_F5D4_Gyro_Y_CAL,Shimmer_F5D4_Gyro_Z_CAL,Shimmer_F5D4_PPG_A13_CAL,Shimmer_F5D4_PPG_IBI_CAL,Shimmer_F5D4_PPGtoHR_CAL,Shimmer_F5D4_GSR_Skin_Conductance_LPF_CAL,
yyyy/mm/dd hh:mm:ss.000,m/(s^2),m/(s^2),m/(s^2),m/(s^2),m/(s^2),m/(s^2),no_units,uS,kOhms,deg/s,deg/s,deg/s,mV,ms,BPM,uS,
2023-08-21 17:18:43.702000,-8.301204819277109,-3.4096385542168677,-4.0361445783132535,-3.467811158798283,-8.135499693439607,-3.637032495401594,3.0,0.2572982572982573,3886.5401207937875,0.020628168521647974,0.24625604568498302,-0.04638424334246274,1191.9413919413919,-1.0,57.59550035153504,0.25724754592764626,
2023-08-21 17:18:43.710000,-8.265060240963855,-3.4096385542168677,-3.987951807228916,-3.396689147762109,-8.125689760882894,-3.6419374616799507,3.0,0.2572982572982573,3886.5401207937875,0.18763475321950945,0.15383718897500093,0.19754093584289967,1196.3369963369962,-1.0,57.59550035153504,0.25724688706265875,
2023-08-21 17:18:43.717000,-8.27710843373494,-3.421686746987952,-4.0120481927710845,-3.4187614960147146,-8.147762109135499,-3.602697731453096,3.0,0.2572982572982573,3886.5401207937875,-0.1650253481731838,0.10815220558242453,-0.2157216945399453,1205.128205128205,-1.0,57.59550035153504,0.2572462380150524,
2023-08-21 17:18:43.725000,-8.27710843373494,-3.4096385542168677,-4.0120481927710845,-3.438381361128142,-8.088902513795217,-3.573267933782955,3.0,0.2568542568542569,3893.2584269662916,0.17283375094691372,-0.2905425091777877,0.031699784394848704,1216.8498168498168,-1.0,57.59550035153504,0.25724559936813607,
2023-08-21 17:18:43.733000,-8.25301204819277,-3.421686746987952,-3.9759036144578315,-3.42611894543225,-8.110974862047822,-3.5536480686695278,3.0,0.2568542568542569,3893.2584269662916,-0.1934619194685617,-0.028203484645416232,0.19963871569255862,1232.2344322344322,-1.0,57.59550035153504,0.25724497168477156,
2023-08-21 17:18:43.740000,-8.289156626506024,-3.4096385542168677,-4.0120481927710845,-3.391784181483752,-8.155119558553034,-3.5683629675045982,3.0,0.2572982572982573,3886.5401207937875,0.18880018646931956,-0.21257502476545706,0.031583241069867866,1247.6190476190475,-1.0,57.59550035153504,0.2572443554661093,
2023-08-21 17:18:43.748000,-8.289156626506024,-3.4096385542168677,-4.0120481927710845,-3.4530962599632127,-8.101164929491109,-3.6051502145922747,3.0,0.2572982572982573,3886.5401207937875,-0.2704970572810439,-0.27352718373055257,0.22877454693782415,1247.6190476190475,-1.0,57.59550035153504,0.25724375115222037,
2023-08-21 17:18:43.756000,-8.265060240963855,-3.397590361445783,-4.0120481927710845,-3.435928877988964,-8.096259963212752,-3.5536480686695278,3.0,0.2572982572982573,3886.5401207937875,0.14334828972670657,-0.2868131227783922,-0.30779092127498403,1272.5274725274724,-1.0,57.59550035153504,0.257243159164615,
2023-08-21 17:18:43.763000,-8.27710843373494,-3.4096385542168677,-4.0120481927710845,-3.384426732066217,-8.091354996934395,-3.5830778663396687,3.0,0.2572982572982573,3886.5401207937875,0.17236757764699037,0.09405046325971728,-0.12213740458015267,1279.8534798534797,-1.0,57.59550035153504,0.2572425799170613,
2023-08-21 17:18:43.771000,-8.27710843373494,-3.4457831325301207,-4.0361445783132535,-3.4015941140404657,-8.150214592274677,-3.619865113427345,3.0,0.2572982572982573,3886.5401207937875,-0.05745585921566346,3.496299749425094E-4,-0.15441990559990684,1284.9816849816848,-1.0,57.59550035153504,0.2572420138158649,
2023-08-21 17:18:43.779000,-8.25301204819277,-3.3734939759036147,-4.024096385542169,-3.3280196198651133,-8.005518087063152,-3.624770079705702,3.0,0.2572982572982573,3886.5401207937875,0.0961482431093758,-0.24544024241011544,-0.12190431793019056,1286.4468864468863,-1.0,57.59550035153504,0.25724146126014696,
2023-08-21 17:18:43.786000,-8.421686746987952,-3.5180722891566267,-4.0602409638554215,-3.6909871244635193,-8.358675659104843,-3.5634580012262416,3.0,0.2572982572982573,3886.5401207937875,-0.4544024241011596,1.0540178311287227,0.45836489715051587,1284.2490842490843,-1.0,57.59550035153504,0.2572409226421146,
2023-08-21 17:18:43.794000,-8.313253012048193,-3.4819277108433737,-4.072289156626506,-3.4285714285714284,-8.135499693439607,-3.6002452483139176,3.0,0.2572982572982573,3886.5401207937875,0.41815745003205007,-1.6551483013810384,-0.4314433890798906,1279.120879120879,-1.0,57.59550035153504,0.25724039834731965,
2023-08-21 17:18:43.802000,-8.301204819277109,-3.433734939759036,-4.024096385542169,-3.4408338442673205,-8.135499693439607,-3.607602697731453,3.0,0.2572982572982573,3886.5401207937875,-0.13402482372822055,0.3420546588194163,-0.19858982576772935,1273.9926739926739,-1.0,57.59550035153504,0.2572398887548972,
2023-08-21 17:18:43.809000,-8.265060240963855,-3.433734939759036,-4.0120481927710845,-3.5462906192519923,-8.221336603310851,-3.62722256284488,3.0,0.2572982572982573,3886.5401207937875,-0.010605442573276946,0.15360410232503927,-0.1989394557426723,1268.131868131868,-1.0,57.59550035153504,0.2572393942377804,
2023-08-21 17:18:43.817000,-8.349397590361447,-3.433734939759036,-4.0602409638554215,-3.4481912936848556,-8.09871244635193,-3.5830778663396687,3.0,0.2572982572982573,3886.5401207937875,0.15640114212458453,-0.8092768486684923,-0.04603461336751936,1260.07326007326,-1.0,57.59550035153504,0.25723891516288705,
2023-08-21 17:18:43.825000,-8.301204819277109,-3.421686746987952,-4.0361445783132535,-3.4530962599632127,-8.113427345187002,-3.585530349478847,3.0,0.2572982572982573,3886.5401207937875,-0.10430627585804997,0.020278538546705464,-0.09125342346017112,1252.7472527472526,-1.0,57.59550035153504,0.25723845189127015,
2023-08-21 17:18:43.832000,-8.27710843373494,-3.4096385542168677,-4.0,-3.4530962599632127,-8.106069895769465,-3.5977927651747392,3.0,0.2572982572982573,3886.5401207937875,-0.2115261348406278,-0.07097488491346653,-0.07715168113746301,1243.2234432234432,-1.0,57.59550035153504,0.2572380047782308,
2023-08-21 17:18:43.840000,-8.27710843373494,-3.421686746987952,-4.024096385542169,-3.4163090128755362,-8.101164929491109,-3.5683629675045982,3.0,0.2572982572982573,3886.5401207937875,-0.1960258726181453,-0.054891906066079854,0.2427597459355514,1231.5018315018315,-1.0,57.59550035153504,0.25723757417338844,
2023-08-21 17:18:43.848000,-8.27710843373494,-3.421686746987952,-4.024096385542169,-3.367259350091968,-8.088902513795217,-3.573267933782955,3.0,0.2572982572982573,3886.5401207937875,-0.1653749781481263,0.0067595128489024,0.1198065380805316,1231.5018315018315,-1.0,57.59550035153504,0.2572371604207046,
2023-08-21 17:18:43.855000,-8.27710843373494,-3.433734939759036,-4.0120481927710845,-3.467811158798283,-8.13059472716125,-3.607602697731453,3.0,0.2572982572982573,3886.5401207937875,0.21735330108968004,-0.22189849076394133,-0.11013344210710352,1200.0,-1.0,57.59550035153504,0.2572367638584572,
2023-08-21 17:18:43.863000,-8.27710843373494,-3.397590361445783,-4.0,-3.4285714285714284,-8.110974862047822,-3.6051502145922747,3.0,0.2572982572982573,3886.5401207937875,-0.07283957811316338,-0.12854728745411081,0.08752403706077741,1185.3479853479853,-1.0,57.59550035153504,0.25723638481916283,
2023-08-21 17:18:43.871000,-8.27710843373494,-3.4096385542168677,-4.0,-3.438381361128142,-8.05211526670754,-3.6296750459840585,3.0,0.2572982572982573,3886.5401207937875,-0.026804964745644456,-0.034613367519376124,-0.022725948371306936,1175.8241758241757,-1.0,57.59550035153504,0.25723602362944537,
2023-08-21 17:18:43.878000,-8.289156626506024,-3.4096385542168677,-4.0361445783132535,-3.3991416309012874,-8.106069895769465,-3.5904353157572038,3.0,0.2568542568542569,3893.2584269662916,0.1715517743721228,-0.14253248645183897,-0.0849600839111938,1169.230769230769,-1.0,57.59550035153504,0.2572356806098471,
2023-08-21 17:18:43.886000,-8.289156626506024,-3.4096385542168677,-4.0120481927710845,-3.3991416309012874,-8.182096873083998,-3.6051502145922747,3.0,0.2568542568542569,3893.2584269662916,-0.04382029019287956,-0.03589534409416706,0.08227958743662936,1167.032967032967,-1.0,57.59550035153504,0.2572353560640399,
2023-08-21 17:18:43.894000,-8.27710843373494,-3.4096385542168677,-4.024096385542169,-3.497240956468424,-8.081545064377682,-3.5904353157572038,3.0,0.2572982572982573,3886.5401207937875,0.27550842025523026,-0.038575840568731506,-0.190548336344036,1165.5677655677655,-1.0,57.59550035153504,0.2572350502362676,
2023-08-21 17:18:43.901000,-8.27710843373494,-3.433734939759036,-4.024096385542169,-3.413856529736358,-8.086450030656039,-3.5634580012262416,3.0,0.2572982572982573,3886.5401207937875,-0.1988229124176906,-0.07109142823844736,-0.11281393858166752,1166.3003663003662,-1.0,57.59550035153504,0.2572347633105986,
2023-08-21 17:18:43.909000,-8.289156626506024,-3.421686746987952,-4.0120481927710845,-3.4187614960147146,-8.093807480073574,-3.5928877988963825,3.0,0.2572982572982573,3886.5401207937875,-0.24322591923547607,-0.17796165724608096,-0.006409882873958589,1167.032967032967,-1.0,57.59550035153504,0.2572344954519958,
2023-08-21 17:18:43.917000,-8.27710843373494,-3.4096385542168677,-4.0361445783132535,-3.4310239117106067,-8.120784794604537,-3.6517473942366645,3.0,0.2572982572982573,3886.5401207937875,-0.1806421537206454,-0.08414428063632708,-0.0816968708117243,1167.032967032967,-1.0,57.59550035153504,0.25723424681563234,
2023-08-21 17:18:43.924000,-8.289156626506024,-3.397590361445783,-4.024096385542169,-3.391784181483752,-8.123237277743716,-3.5977927651747392,3.0,0.2572982572982573,3886.5401207937875,0.15849892197424306,-0.10174232270846637,-0.20243575549210432,1167.032967032967,-1.0,57.59550035153504,0.2572340175456322,
2023-08-21 17:18:43.932000,-8.289156626506024,-3.421686746987952,-4.0,-3.4506437768240343,-8.101164929491109,-3.5708154506437766,3.0,0.2568542568542569,3893.2584269662916,-0.10244158265835313,-0.08764058038575911,-0.20243575549210432,1167.7655677655678,-1.0,57.59550035153504,0.25723380777378974,
2023-08-21 17:18:43.940000,-8.27710843373494,-3.421686746987952,-4.048192771084338,-3.3991416309012874,-8.108522378908644,-3.5879828326180254,3.0,0.2572982572982573,3886.5401207937875,0.20231921216712262,-0.2708466872559881,-0.1550026222248119,1167.032967032967,-1.0,57.59550035153504,0.2572336174689857,
2023-08-21 17:18:43.947000,-8.289156626506024,-3.397590361445783,-3.987951807228916,-3.3525444512568976,-8.047210300429184,-3.573267933782955,3.0,0.2572982572982573,3886.5401207937875,-0.010721985898257782,-0.11537789173125026,-0.18402191014509658,1166.3003663003662,-1.0,57.59550035153504,0.25723344656331865,
2023-08-21 17:18:43.963000,-8.397590361445783,-3.433734939759036,-3.987951807228916,-3.514408338442673,-8.299816063764561,-3.514408338442673,3.0,0.2572982572982573,3886.5401207937875,-0.5909912009789637,-0.06654623856418607,0.38156284598799584,1172.161172161172,-1.0,57.59550035153504,0.2572332951097691,
2023-08-21 17:18:43.970000,-8.349397590361447,-3.457831325301205,-4.048192771084338,-3.3893316983445736,-8.088902513795217,-3.614960147148988,3.0,0.2572982572982573,3886.5401207937875,-0.2680496474564411,-0.11094924538197154,0.17924363382087274,1177.2893772893772,-1.0,57.59550035153504,0.25723316314201766,
2023-08-21 17:18:43.978000,-8.27710843373494,-3.433734939759036,-4.024096385542169,-3.3991416309012874,-8.150214592274677,-3.6125076640098097,3.0,0.2572982572982573,3886.5401207937875,-0.26525260765689584,-0.10931763883223636,0.17912709049589193,1183.8827838827838,-1.0,57.59550035153504,0.257233050673059,
2023-08-21 17:18:43.986000,-8.289156626506024,-3.421686746987952,-3.987951807228916,-3.42611894543225,-8.05211526670754,-3.6394849785407724,3.0,0.2572982572982573,3886.5401207937875,0.42270263970631133,0.10337392925820155,-0.20546588194161172,1186.080586080586,-1.0,57.59550035153504,0.25723295769387505,
2023-08-21 17:18:43.993000,-8.27710843373494,-3.4096385542168677,-4.024096385542169,-3.4530962599632127,-8.125689760882894,-3.624770079705702,3.0,0.2572982572982573,3886.5401207937875,-0.2093118116659867,-0.05069634636676106,0.07237340481323917,1185.3479853479853,-1.0,57.59550035153504,0.25723288417218165,
2023-08-21 17:18:44.001000,-8.289156626506024,-3.421686746987952,-4.0120481927710845,-3.3893316983445736,-8.133047210300429,-3.5634580012262416,3.0,0.2572982572982573,3886.5401207937875,-0.10080997610861794,-0.2771400268049654,-0.3392576190198706,1186.080586080586,-1.0,57.59550035153504,0.2572328300512602,
2023-08-21 17:18:44.009000,-8.265060240963855,-3.4096385542168677,-4.0120481927710845,-3.467811158798283,-8.106069895769465,-3.573267933782955,3.0,0.2572982572982573,3886.5401207937875,0.3596527008915556,0.014801002272594002,0.030417807820056895,1186.080586080586,-1.0,57.59550035153504,0.25723279524888965,
2023-08-21 17:18:44.016000,-8.289156626506024,-3.4096385542168677,-4.0,-3.4702636419374615,-8.113427345187002,-3.666462293071735,3.0,0.2572982572982573,3886.5401207937875,0.01957927859681871,0.168405104597635,0.09183614008507661,1185.3479853479853,-1.0,57.59550035153504,0.25723277965638663,
2023-08-21 17:18:44.024000,-8.265060240963855,-3.433734939759036,-4.024096385542169,-3.433476394849785,-8.09871244635193,-3.624770079705702,3.0,0.2572982572982573,3886.5401207937875,-0.13274284715342963,0.24380863586038026,-0.06386574208962162,1186.080586080586,-1.0,57.59550035153504,0.2572327831377685,
2023-08-21 17:18:44.032000,-8.301204819277109,-3.4457831325301207,-4.048192771084338,-3.4310239117106067,-8.120784794604537,-3.5879828326180254,3.0,0.2572982572982573,3886.5401207937875,0.02214323174640232,0.27457607365538184,0.0745877279878794,1186.080586080586,-1.0,57.59550035153504,0.25723280539029875,
2023-08-21 17:18:44.039000,-8.265060240963855,-3.4096385542168677,-4.0120481927710845,-3.435928877988964,-8.106069895769465,-3.644389944819129,3.0,0.2568542568542569,3893.2584269662916,-0.024124468271080012,-0.3657129537905712,0.13519025697803153,1184.6153846153845,-1.0,57.59550035153504,0.2572328461030516,
2023-08-21 17:18:44.047000,-8.27710843373494,-3.433734939759036,-4.0361445783132535,-3.4310239117106067,-8.071735131820969,-3.614960147148988,3.0,0.2572982572982573,3886.5401207937875,-0.268632364081347,-0.18052561039566456,0.027620768020511614,1185.3479853479853,-1.0,57.59550035153504,0.2572329049348183,
2023-08-21 17:18:44.055000,-8.27710843373494,-3.433734939759036,-4.0361445783132535,-3.4874310239117103,-8.09871244635193,-3.6223175965665235,3.0,0.2572982572982573,3886.5401207937875,0.09964454285880783,-0.08391119398636367,0.05698968591573925,1185.3479853479853,-1.0,57.59550035153504,0.2572329814921744,
2023-08-21 17:18:44.062000,-8.265060240963855,-3.433734939759036,-4.0361445783132535,-3.413856529736358,-8.103617412630287,-3.585530349478847,3.0,0.2572982572982573,3886.5401207937875,0.008041489423693338,0.03997436046850501,0.010721985898257782,1194.8717948717947,-1.0,57.59550035153504,0.2572330754885229,
2023-08-21 17:18:44.070000,-8.240963855421688,-3.397590361445783,-4.0,-3.4187614960147146,-8.113427345187002,-3.5830778663396687,3.0,0.2572982572982573,3886.5401207937875,0.09789639298409182,0.22236466406386643,0.20861255171610038,1199.2673992673992,-1.0,57.59550035153504,0.25723318660543665,
2023-08-21 17:18:44.078000,-8.313253012048193,-3.4457831325301207,-4.0602409638554215,-3.5977927651747392,-8.280196198651133,-3.5708154506437766,3.0,0.2572982572982573,3886.5401207937875,-0.29963288852631026,0.4962414777693615,0.2995163452013286,1201.4652014652013,-1.0,57.59550035153504,0.25723331449292625,
2023-08-21 17:18:44.085000,-8.289156626506024,-3.4819277108433737,-4.072289156626506,-3.465358675659105,-8.16002452483139,-3.637032495401594,3.0,0.2572982572982573,3886.5401207937875,0.17516461744653566,-1.3691509818775136,-0.08530971388613719,1205.128205128205,-1.0,57.59550035153504,0.25723345876989234,
2023-08-21 17:18:44.093000,-8.325301204819278,-3.421686746987952,-4.024096385542169,-3.421213979153893,-8.216431637032494,-3.585530349478847,3.0,0.2572982572982573,3886.5401207937875,0.26536915098187663,0.27410990035545674,0.37107394673970057,1206.5934065934066,-1.0,57.59550035153504,0.2572336190247615,
2023-08-21 17:18:44.100000,-8.216867469879519,-3.3734939759036147,-3.9759036144578315,-3.256897608828939,-8.020232985898222,-3.5511955855303494,3.0,0.2572982572982573,3886.5401207937875,-0.21094341821572188,0.12120505798030425,-0.3520773847677873,1206.5934065934066,-1.0,57.59550035153504,0.2572337948163075,
2023-08-21 17:18:44.108000,-8.265060240963855,-3.397590361445783,-3.987951807228916,-3.543838136112814,-8.086450030656039,-3.602697731453096,3.0,0.2572982572982573,3886.5401207937875,0.10978381213215971,0.6712895518909145,0.5978672571528466,1208.7912087912086,-1.0,57.59550035153504,0.2572339856746579,
2023-08-21 17:18:44.116000,-8.337349397590362,-3.4457831325301207,-4.0361445783132535,-3.438381361128142,-8.06928264868179,-3.6394849785407724,3.0,0.2572982572982573,3886.5401207937875,0.384709515762484,-0.3567391177670295,0.32072723034788203,1210.2564102564102,-1.0,57.59550035153504,0.2572341911024824,
2023-08-21 17:18:44.123000,-8.289156626506024,-3.421686746987952,-3.987951807228916,-3.4163090128755362,-8.17964438994482,-3.5536480686695278,3.0,0.2572982572982573,3886.5401207937875,-0.1363556902278425,0.18157450032049383,0.22702639706310812,1208.7912087912086,-1.0,57.59550035153504,0.25723441057636354,
2023-08-21 17:18:44.131000,-8.25301204819277,-3.421686746987952,-4.024096385542169,-3.445738810545677,-8.13059472716125,-3.5879828326180254,3.0,0.2572982572982573,3886.5401207937875,-0.22982343686265383,-0.3258551366470488,0.2263271371132218,1208.058608058608,-1.0,57.59550035153504,0.2572346435483414,
2023-08-21 17:18:44.139000,-8.27710843373494,-3.421686746987952,-4.0120481927710845,-3.408951563458001,-8.128142244022072,-3.595340282035561,3.0,0.2572982572982573,3886.5401207937875,-0.13682186352776582,0.28669657945341137,-0.07878328768719775,1204.3956043956043,-1.0,57.59550035153504,0.25723488944763007,
2023-08-21 17:18:44.146000,-8.27710843373494,-3.421686746987952,-4.0361445783132535,-3.3942366646229307,-8.133047210300429,-3.624770079705702,3.0,0.2572982572982573,3886.5401207937875,-0.3333139094458362,0.06876056173882716,-0.07866674436221649,1200.0,-1.0,57.59550035153504,0.2572351476824974,
2023-08-21 17:18:44.154000,-8.27710843373494,-3.421686746987952,-4.0361445783132535,-3.3893316983445736,-8.169834457388106,-3.649294911097486,3.0,0.2572982572982573,3886.5401207937875,-0.3314492162461394,0.023891381621118337,0.015034088922556976,1200.0,-1.0,57.59550035153504,0.25723541764230073,
2023-08-21 17:18:44.162000,-8.301204819277109,-3.4096385542168677,-4.048192771084338,-3.396689147762109,-8.13059472716125,-3.624770079705702,3.0,0.2572982572982573,3886.5401207937875,0.03810966726880642,0.17388264087174474,-0.13833692675252018,1190.4761904761904,-1.0,57.59550035153504,0.2572356986996703,
2023-08-21 17:18:44.169000,-8.301204819277109,-3.4096385542168677,-4.0361445783132535,-3.384426732066217,-8.108522378908644,-3.524218270999387,3.0,0.2572982572982573,3886.5401207937875,0.03845929724375067,-0.04370374686789872,-0.12260357788007688,1183.150183150183,-1.0,57.59550035153504,0.25723599021282845,
2023-08-21 17:18:44.177000,-8.120481927710843,-3.2650602409638556,-3.951807228915663,-3.08522378908645,-7.806866952789699,-3.5879828326180254,3.0,0.2572982572982573,3886.5401207937875,-0.2354175164617444,-0.027853854670473722,0.3510284948429577,1176.5567765567764,-1.0,57.59550035153504,0.25723629152803607,
2023-08-21 17:18:44.185000,-8.397590361445783,-3.4819277108433737,-4.0361445783132535,-3.497240956468424,-8.282648681790313,-3.6591048436541995,3.0,0.2572982572982573,3886.5401207937875,-0.2790047200046623,-0.8048482023192118,0.10314084260823944,1171.4285714285713,-1.0,57.59550035153504,0.2572366019821513,
2023-08-21 17:18:44.192000,-8.301204819277109,-3.4457831325301207,-4.0361445783132535,-3.556100551808706,-8.245861434702636,-3.573267933782955,3.0,0.2568542568542569,3893.2584269662916,-0.5969349105529986,1.353767262980012,0.13239321717848623,1167.032967032967,-1.0,57.59550035153504,0.25723692090528955,
2023-08-21 17:18:44.200000,-8.325301204819278,-3.421686746987952,-4.0361445783132535,-3.4506437768240343,-8.113427345187002,-3.5830778663396687,3.0,0.2568542568542569,3893.2584269662916,-0.012353592447992964,0.12330283782996276,-0.1288969174290542,1167.7655677655678,-1.0,57.59550035153504,0.25723724747427607,
2023-08-21 17:18:44.208000,-8.301204819277109,-3.385542168674699,-4.024096385542169,-3.3942366646229307,-8.169834457388106,-3.5536480686695278,3.0,0.2572982572982573,3886.5401207937875,0.08018180758696997,0.27702348347998285,-0.17551424742147903,1170.6959706959706,-1.0,57.59550035153504,0.2572375806935897,
2023-08-21 17:18:44.215000,-8.289156626506024,-3.397590361445783,-4.024096385542169,-3.3868792152053953,-8.140404659717964,-3.607602697731453,3.0,0.2572982572982573,3886.5401207937875,0.09335120330983052,-0.10593788240778515,0.2235300973136765,1176.5567765567764,-1.0,57.59550035153504,0.25723791968459453,
2023-08-21 17:18:44.223000,-8.289156626506024,-3.397590361445783,-4.024096385542169,-3.3280196198651133,-8.118332311465359,-3.5708154506437766,3.0,0.2572982572982573,3886.5401207937875,0.12260357788007775,0.319911427073014,0.17563079074645987,1181.6849816849815,-1.0,57.59550035153504,0.2572382637084612,
2023-08-21 17:18:44.231000,-8.27710843373494,-3.4096385542168677,-4.024096385542169,-3.3819742489270386,-8.128142244022072,-3.585530349478847,3.0,0.2572982572982573,3886.5401207937875,0.3954315016607418,0.04253831361808689,-0.268632364081347,1184.6153846153845,-1.0,57.59550035153504,0.2572386120299997,
2023-08-21 17:18:44.238000,-8.289156626506024,-3.4096385542168677,-4.0361445783132535,-3.3893316983445736,-8.054567749846719,-3.5977927651747392,3.0,0.2572982572982573,3886.5401207937875,0.376434939688829,0.07400501136297348,0.03892547054367445,1185.3479853479853,-1.0,57.59550035153504,0.257238963920271,
2023-08-21 17:18:44.246000,-8.289156626506024,-3.421686746987952,-4.0361445783132535,-3.475168608215818,-8.093807480073574,-3.5830778663396687,3.0,0.2572982572982573,3886.5401207937875,-0.053493386166308075,0.05559116601596661,-0.12878037410407336,1186.8131868131868,-1.0,57.59550035153504,0.2572393186592131,
2023-08-21 17:18:44.254000,-8.289156626506024,-3.421686746987952,-4.0361445783132535,-3.4481912936848556,-8.187001839362354,-3.6296750459840585,3.0,0.2572982572982573,3886.5401207937875,-0.05547462269098577,0.053143756191363835,-0.1256337043295847,1186.8131868131868,-1.0,57.59550035153504,0.25723967553827193,
2023-08-21 17:18:44.261000,-8.27710843373494,-3.433734939759036,-4.024096385542169,-3.3648068669527893,-8.135499693439607,-3.632127529123237,3.0,0.2572982572982573,3886.5401207937875,0.24881999883456662,-0.10080997610861794,-0.04894819649204591,1194.1391941391942,1011.1083984375,59.34081854400579,0.25724003386302186,
2023-08-21 17:18:44.269000,-8.096385542168676,-3.3012048192771086,-3.987951807228916,-3.4481912936848556,-8.0226854690374,-3.6125076640098097,3.0,0.2572982572982573,3886.5401207937875,0.3372763824951933,-0.11619369500611786,-0.06328302546471656,1194.8717948717947,-1.0,59.34081854400579,0.25724039295576395,
2023-08-21 17:18:44.277000,-8.27710843373494,-3.530120481927711,-4.048192771084338,-3.6811771919068055,-8.110974862047822,-3.666462293071735,3.0,0.2572982572982573,3886.5401207937875,-1.1760386923838946,1.6358021094341813,1.219975525901754,1195.6043956043954,-1.0,59.34081854400579,0.2572407521580868,
2023-08-21 17:18:44.284000,-8.325301204819278,-3.457831325301205,-4.0602409638554215,-3.4114040465971796,-8.172286940527284,-3.637032495401594,3.0,0.2572982572982573,3886.5401207937875,-0.3728220966144162,0.29625313210185905,-0.07144105821339074,1195.6043956043954,-1.0,59.34081854400579,0.25724111097212965,
2023-08-21 17:18:44.292000,-8.25301204819277,-3.4096385542168677,-4.0120481927710845,-3.435928877988964,-8.096259963212752,-3.624770079705702,3.0,0.2572982572982573,3886.5401207937875,-0.37049123011479596,-0.1499912592506264,-0.03939164384359866,1194.8717948717947,-1.0,59.34081854400579,0.25724146890390226,
2023-08-21 17:18:44.300000,-8.25301204819277,-3.3734939759036147,-4.024096385542169,-3.408951563458001,-8.113427345187002,-3.5511955855303494,3.0,0.2572982572982573,3886.5401207937875,0.25732766155818504,-0.14824310937591037,0.20651477186644143,1194.1391941391942,-1.0,59.34081854400579,0.2572418253380469,
2023-08-21 17:18:44.307000,-8.289156626506024,-3.385542168674699,-4.0,-3.3819742489270386,-8.09871244635193,-3.5413856529736356,3.0,0.2572982572982573,3886.5401207937875,-0.23250393333721828,-0.2556960550084499,-0.2826175630790747,1197.069597069597,-1.0,59.34081854400579,0.2572421796892203,
2023-08-21 17:18:44.315000,-8.27710843373494,-3.385542168674699,-4.0,-3.4187614960147146,-8.113427345187002,-3.5928877988963825,3.0,0.2568542568542569,3893.2584269662916,-0.04720004661733076,-0.011304702523163701,-0.004312103024299194,1200.0,-1.0,59.34081854400579,0.25724253140408304,
2023-08-21 17:18:44.323000,-8.289156626506024,-3.4096385542168677,-4.048192771084338,-3.4285714285714284,-8.123237277743716,-3.573267933782955,3.0,0.2568542568542569,3893.2584269662916,-0.030534351145038167,0.03193287104481168,-0.368160363615174,1203.6630036630036,-1.0,59.34081854400579,0.2572428798138841,
2023-08-21 17:18:44.330000,-8.325301204819278,-3.397590361445783,-4.048192771084338,-3.4015941140404657,-8.140404659717964,-3.5977927651747392,3.0,0.2572982572982573,3886.5401207937875,0.1826233902453231,0.10349047258318238,0.10815220558242539,1208.058608058608,-1.0,59.34081854400579,0.2572432241143462,
2023-08-21 17:18:44.338000,-8.313253012048193,-3.433734939759036,-4.0602409638554215,-3.4580012262415694,-8.155119558553034,-3.5830778663396687,3.0,0.2568542568542569,3893.2584269662916,0.21175922149058948,-0.1420663131519139,0.048365479867140425,1210.989010989011,-1.0,59.34081854400579,0.25724356365365364,
2023-08-21 17:18:44.346000,-8.301204819277109,-3.421686746987952,-4.0361445783132535,-3.384426732066217,-8.123237277743716,-3.56591048436542,3.0,0.2572982572982573,3886.5401207937875,0.11945690810558822,-0.19987180234252158,0.002563953149583175,1213.1868131868132,-1.0,59.34081854400579,0.2572438978046587,
2023-08-21 17:18:44.353000,-8.301204819277109,-3.421686746987952,-4.0361445783132535,-3.4163090128755362,-8.13059472716125,-3.6174126302881664,3.0,0.2572982572982573,3886.5401207937875,0.1188741914806823,-0.25802692150807005,-0.011421245848144104,1213.1868131868132,-1.0,59.34081854400579,0.2572442260932944,
2023-08-21 17:18:44.361000,-8.289156626506024,-3.421686746987952,-4.0361445783132535,-3.4285714285714284,-8.113427345187002,-3.6002452483139176,3.0,0.2572982572982573,3886.5401207937875,-0.3535924479925417,-0.16187867839869427,-0.07260649146320128,1216.117216117216,-1.0,59.34081854400579,0.25724454833799476,
2023-08-21 17:18:44.369000,-8.265060240963855,-3.4096385542168677,-4.0602409638554215,-3.4604537093807477,-8.118332311465359,-3.585530349478847,3.0,0.2572982572982573,3886.5401207937875,0.04894819649204678,-0.2785385467047372,0.050929433016724035,1216.117216117216,-1.0,59.34081854400579,0.25724486422475057,
2023-08-21 17:18:44.376000,-8.25301204819277,-3.397590361445783,-4.024096385542169,-3.396689147762109,-8.118332311465359,-3.5511955855303494,3.0,0.2572982572982573,3886.5401207937875,-0.28483188625371453,-0.10337392925820155,0.20534933861663088,1216.117216117216,-1.0,59.34081854400579,0.2572451733290138,
2023-08-21 17:18:44.384000,-8.25301204819277,-3.4096385542168677,-4.0361445783132535,-3.433476394849785,-8.091354996934395,-3.6223175965665235,3.0,0.2572982572982573,3886.5401207937875,0.10127614940854301,-0.7821222539479052,0.4349396888293222,1216.117216117216,-1.0,59.34081854400579,0.25724547526489655,
2023-08-21 17:18:44.392000,-8.265060240963855,-3.4096385542168677,-4.024096385542169,-3.4310239117106067,-8.108522378908644,-3.6345800122624157,3.0,0.2572982572982573,3886.5401207937875,0.0533768428413255,-0.32200920692267426,-0.2936891789522755,1219.047619047619,-1.0,59.34081854400579,0.2572457696849572,
2023-08-21 17:18:44.399000,-8.301204819277109,-3.421686746987952,-4.024096385542169,-3.4015941140404657,-8.079092581238504,-3.573267933782955,3.0,0.2568542568542569,3893.2584269662916,0.05384301614125059,-0.0858924305110431,0.24217702931064639,1232.967032967033,-1.0,59.34081854400579,0.25724605627987496,
2023-08-21 17:18:44.407000,-8.27710843373494,-3.421686746987952,-4.024096385542169,-3.3819742489270386,-8.059472716125077,-3.6419374616799507,3.0,0.2568542568542569,3893.2584269662916,0.25115086533418857,0.25266592855894116,0.1941611794184489,1265.2014652014652,-1.0,59.34081854400579,0.25724633462872776,
2023-08-21 17:18:44.415000,-8.132530120481928,-3.289156626506024,-3.963855421686747,-3.0901287553648067,-7.887798896382587,-3.595340282035561,3.0,0.2572982572982573,3886.5401207937875,0.12843074412913,0.6446011304702527,-0.01969582192179955,1315.018315018315,-1.0,59.34081854400579,0.25724660417659134,
2023-08-21 17:18:44.422000,-8.337349397590362,-3.4698795180722892,-3.987951807228916,-3.796443899448191,-8.22378908645003,-3.637032495401594,3.0,0.2568542568542569,3893.2584269662916,-1.1242934560923024,1.337684284132627,0.8985490356039857,1384.6153846153845,-1.0,59.34081854400579,0.2572468645202812,
2023-08-21 17:18:44.430000,-8.373493975903616,-3.5060240963855422,-4.0602409638554215,-3.467811158798283,-8.125689760882894,-3.717964438994482,3.0,0.2572982572982573,3886.5401207937875,0.6686090554163502,-0.15884855194918732,0.6022959035021266,1472.5274725274724,-1.0,59.34081854400579,0.25724711527837074,
2023-08-21 17:18:44.438000,-8.313253012048193,-3.421686746987952,-4.024096385542169,-3.3770692826486814,-8.120784794604537,-3.5462906192519923,3.0,0.2572982572982573,3886.5401207937875,-0.036244974069109565,0.7718664413495708,0.17190140434706616,1577.2893772893772,-1.0,59.34081854400579,0.25724735607873495,
2023-08-21 17:18:44.445000,-8.289156626506024,-3.421686746987952,-4.0,-3.494788473329246,-8.17964438994482,-3.6125076640098097,3.0,0.2572982572982573,3886.5401207937875,0.13449099702814563,0.260357788007692,0.1875182098945282,1697.4358974358972,-1.0,59.34081854400579,0.25724758671632025,
2023-08-21 17:18:44.453000,-8.289156626506024,-3.421686746987952,-4.0,-3.4114040465971796,-8.184549356223176,-3.548743102391171,3.0,0.2572982572982573,3886.5401207937875,0.31548278072373354,-0.09370083328477302,0.23320319328710418,1697.4358974358972,-1.0,59.34081854400579,0.25724780701301403,
2023-08-21 17:18:44.461000,-8.301204819277109,-3.397590361445783,-4.0,-3.4114040465971796,-8.074187614960147,-3.5879828326180254,3.0,0.2572982572982573,3886.5401207937875,0.022376318396363993,0.027504224695531213,0.20033797564244493,1958.2417582417581,-1.0,59.34081854400579,0.25724801681625287,
2023-08-21 17:18:44.468000,-8.289156626506024,-3.397590361445783,-3.987951807228916,-3.4015941140404657,-8.162477007970569,-3.507050889025138,3.0,0.2572982572982573,3886.5401207937875,-0.023425208321193255,-0.25021851873434015,0.10582133908280389,2083.5164835164833,-1.0,59.34081854400579,0.25724821599763925,
2023-08-21 17:18:44.476000,-8.289156626506024,-3.397590361445783,-4.0,-3.3942366646229307,-8.155119558553034,-3.5634580012262416,3.0,0.2572982572982573,3886.5401207937875,-0.37620185303886733,-0.44647747800244714,0.01410174232270855,2198.5347985347985,-1.0,59.34081854400579,0.25724840445157654,
2023-08-21 17:18:44.483000,-8.289156626506024,-3.385542168674699,-4.0120481927710845,-3.3795217657878602,-8.08399754751686,-3.5928877988963825,3.0,0.2572982572982573,3886.5401207937875,-0.03927510051861826,-0.2150224345900581,0.12376901112988742,2299.6336996336995,-1.0,59.34081854400579,0.2572485820939402,
2023-08-21 17:18:44.491000,-8.313253012048193,-3.397590361445783,-4.024096385542169,-3.4236664622930717,-8.110974862047822,-3.543838136112814,3.0,0.2572982572982573,3886.5401207937875,-0.19241302954373243,-0.18029252374570287,-0.07703513781248174,2380.9523809523807,-1.0,59.34081854400579,0.25724874886079424,
2023-08-21 17:18:44.499000,-8.289156626506024,-3.397590361445783,-4.0120481927710845,-3.384426732066217,-8.162477007970569,-3.5806253832004904,3.0,0.2568542568542569,3893.2584269662916,0.13146087057863695,-0.06992599498863726,-0.2153720645650019,2440.29304029304,-1.0,59.34081854400579,0.2572489047071672,
2023-08-21 17:18:44.506000,-8.27710843373494,-3.4096385542168677,-4.0361445783132535,-3.413856529736358,-8.142857142857142,-3.5708154506437766,3.0,0.2572982572982573,3886.5401207937875,0.09859565293397857,0.2671173008565927,-0.13891964337742524,2478.388278388278,-1.0,59.34081854400579,0.257249049595356,
2023-08-21 17:18:44.514000,-8.289156626506024,-3.397590361445783,-4.024096385542169,-3.404046597179644,-8.172286940527284,-3.6419374616799507,3.0,0.2572982572982573,3886.5401207937875,-0.13239321717848537,0.20465007866674456,-0.07190723151331495,2495.238095238095,-1.0,59.34081854400579,0.2572491836008914,
2023-08-21 17:18:44.522000,-8.265060240963855,-3.421686746987952,-4.024096385542169,-3.4064990803188224,-8.106069895769465,-3.556100551808706,3.0,0.2572982572982573,3886.5401207937875,-0.17807820057106177,0.12959617737894008,-0.043936833517860395,2492.307692307692,-1.0,59.34081854400579,0.2572493067837545,
2023-08-21 17:18:44.529000,-8.289156626506024,-3.421686746987952,-4.024096385542169,-3.4530962599632127,-8.074187614960147,-3.6223175965665235,3.0,0.2572982572982573,3886.5401207937875,-0.17376609754676214,0.12936309072897842,-0.04323757356797407,2472.5274725274726,-1.0,59.34081854400579,0.2572494190700431,
2023-08-21 17:18:44.537000,-8.27710843373494,-3.4096385542168677,-4.0120481927710845,-3.3574494175352543,-8.135499693439607,-3.6174126302881664,3.0,0.25774225774225773,3879.8449612403097,0.18040906707068372,-0.022725948371306502,-0.5180350795408192,2437.362637362637,-1.0,59.34081854400579,0.25724952039992255,
2023-08-21 17:18:44.545000,-8.204819277108435,-3.325301204819277,-4.0,-3.4996934396076025,-8.172286940527284,-3.4923359901900675,3.0,0.2572982572982573,3886.5401207937875,0.0734222947380693,-0.1287803741040725,-0.46838762309888693,2390.4761904761904,-1.0,59.34081854400579,0.2572496108757014,
2023-08-21 17:18:44.552000,-8.204819277108435,-3.325301204819277,-4.0,-3.6051502145922747,-8.221336603310851,-3.5879828326180254,3.0,0.2572982572982573,3886.5401207937875,-0.8413262630382847,0.8361983567391176,0.7109142823844762,2390.4761904761904,-1.0,59.34081854400579,0.2572496906333358,
2023-08-21 17:18:44.560000,-8.337349397590362,-3.4457831325301207,-4.0361445783132535,-3.3648068669527893,-8.140404659717964,-3.6125076640098097,3.0,0.2572982572982573,3886.5401207937875,0.12679913757939482,-0.009206922673503438,0.12388555445486868,2275.457875457875,-1.0,59.34081854400579,0.257249759821311,
2023-08-21 17:18:44.568000,-8.27710843373494,-3.397590361445783,-3.987951807228916,-3.3795217657878602,-8.091354996934395,-3.602697731453096,3.0,0.2572982572982573,3886.5401207937875,-0.1778451139211001,0.31210302429928405,-0.09078725016024691,2214.6520146520147,-1.0,59.34081854400579,0.25724981857967477,
2023-08-21 17:18:44.575000,-8.301204819277109,-3.421686746987952,-4.0361445783132535,-3.3795217657878602,-8.106069895769465,-3.6125076640098097,3.0,0.2572982572982573,3886.5401207937875,-0.022376318396363993,-0.13146087057863695,-0.594720587378358,2156.776556776557,-1.0,59.34081854400579,0.2572498669119937,
2023-08-21 17:18:44.583000,-8.289156626506024,-3.4096385542168677,-4.0361445783132535,-3.384426732066217,-8.096259963212752,-3.5511955855303494,3.0,0.2572982572982573,3886.5401207937875,0.07039216828856061,-0.08612551716100478,-0.21129304819066483,2106.227106227106,-1.0,59.34081854400579,0.2572499048341764,
2023-08-21 17:18:44.591000,-8.301204819277109,-3.385542168674699,-4.048192771084338,-3.3819742489270386,-8.061925199264255,-3.619865113427345,3.0,0.2572982572982573,3886.5401207937875,0.07214031816327662,-0.16059670182390334,0.13973544665229282,2061.5384615384614,-1.0,59.34081854400579,0.25724993237416627,
2023-08-21 17:18:44.598000,-8.27710843373494,-3.397590361445783,-4.024096385542169,-3.396689147762109,-8.11587982832618,-3.6051502145922747,3.0,0.2572982572982573,3886.5401207937875,0.12027271138045581,0.1778451139211001,0.29170794242759734,2023.4432234432234,-1.0,59.34081854400579,0.2572499495717966,
2023-08-21 17:18:44.606000,-8.27710843373494,-3.397590361445783,-4.048192771084338,-3.367259350091968,-8.11587982832618,-3.5928877988963825,3.0,0.2572982572982573,3886.5401207937875,-0.10943418215721719,-0.09766330633413015,0.0748208146378415,1990.4761904761904,-1.0,59.34081854400579,0.25724995647880944,
2023-08-21 17:18:44.614000,-8.27710843373494,-3.397590361445783,-4.024096385542169,-3.374616799509503,-8.142857142857142,-3.5879828326180254,3.0,0.2572982572982573,3886.5401207937875,0.12050579803041749,0.23751529631140295,-0.17248412097197122,1959.7069597069597,-1.0,59.34081854400579,0.25724995315903837,
2023-08-21 17:18:44.621000,-8.289156626506024,-3.397590361445783,-4.048192771084338,-3.391784181483752,-8.08399754751686,-3.6419374616799507,3.0,0.2572982572982573,3886.5401207937875,-0.12551716100460386,0.11258085193170499,-0.29450498222714305,1929.6703296703295,-1.0,59.34081854400579,0.2572499396887509,
2023-08-21 17:18:44.629000,-8.289156626506024,-3.397590361445783,-4.024096385542169,-3.4015941140404657,-8.057020232985899,-3.6100551808706314,3.0,0.2572982572982573,3886.5401207937875,-0.07820057106229227,-0.17877746052094853,-0.27842200337975637,1898.168498168498,-1.0,59.34081854400579,0.2572499161571459,
2023-08-21 17:18:44.637000,-8.301204819277109,-3.385542168674699,-4.024096385542169,-3.3721643163703248,-8.164929491109747,-3.6002452483139176,3.0,0.2572982572982573,3886.5401207937875,0.19614241594312615,-0.07225686148825747,0.04323757356797407,1867.3992673992673,-1.0,59.34081854400579,0.25724988266700394,
2023-08-21 17:18:44.644000,-8.313253012048193,-3.397590361445783,-4.0120481927710845,-3.374616799509503,-8.150214592274677,-3.6174126302881664,3.0,0.2572982572982573,3886.5401207937875,0.4373870986539245,-0.30184721170094964,-0.4646582366994932,1838.8278388278386,-1.0,59.34081854400579,0.25724983933547585,
2023-08-21 17:18:44.652000,-8.313253012048193,-3.397590361445783,-4.0120481927710845,-3.3770692826486814,-8.086450030656039,-3.5095033721643163,3.0,0.2572982572982573,3886.5401207937875,0.1865858632946802,-0.32737019987180316,-0.3692092535400033,1838.8278388278386,-1.0,59.34081854400579,0.2572497862950063,
2023-08-21 17:18:44.660000,-8.301204819277109,-3.385542168674699,-4.0361445783132535,-3.3697118332311464,-8.08399754751686,-3.5806253832004904,3.0,0.2572982572982573,3886.5401207937875,-0.05372647281626975,-0.10617096905774683,-0.18611968999475556,1764.102564102564,-1.0,59.34081854400579,0.25724972383312905,
2023-08-21 17:18:44.667000,-8.289156626506024,-3.397590361445783,-4.0,-3.3868792152053953,-8.118332311465359,-3.548743102391171,3.0,0.2568542568542569,3893.2584269662916,-0.19217994289377077,-0.10442281918303081,-0.4447293281277315,1720.8791208791208,-1.0,59.34081854400579,0.25724965237324304,
2023-08-21 17:18:44.675000,-8.27710843373494,-3.3734939759036147,-4.0120481927710845,-3.3721643163703248,-8.101164929491109,-3.556100551808706,3.0,0.2572982572982573,3886.5401207937875,-0.20348464541693448,-0.18017598042072205,-0.4414661150282616,1671.0622710622708,-1.0,59.34081854400579,0.2572495720398276,
2023-08-21 17:18:44.683000,-8.301204819277109,-3.397590361445783,-4.0361445783132535,-3.4064990803188224,-8.162477007970569,-3.614960147148988,3.0,0.2572982572982573,3886.5401207937875,-0.26222248120738884,-0.3477652817434877,-0.3329642794708933,1613.9194139194137,-1.0,59.34081854400579,0.2572494828086781,
2023-08-21 17:18:44.690000,-8.289156626506024,-3.397590361445783,-4.024096385542169,-3.3991416309012874,-8.118332311465359,-3.5977927651747392,3.0,0.2572982572982573,3886.5401207937875,-0.35091195151797727,-0.08402773731134625,-0.45358662082629203,1553.113553113553,-1.0,59.34081854400579,0.25724938481614396,
2023-08-21 17:18:44.698000,-8.27710843373494,-3.4096385542168677,-4.0361445783132535,-3.462906192519926,-8.06928264868179,-3.619865113427345,3.0,0.2572982572982573,3886.5401207937875,0.18646931996969937,-0.3246897033972387,-0.45102266767670884,1489.3772893772893,-1.0,59.34081854400579,0.2572492782212528,
2023-08-21 17:18:44.706000,-8.289156626506024,-3.421686746987952,-4.024096385542169,-3.33292458614347,-8.076640098099325,-3.644389944819129,3.0,0.2572982572982573,3886.5401207937875,-0.3042946215255524,-0.3806304993881478,-0.3271371132218402,1425.6410256410256,-1.0,59.34081854400579,0.25724916320663443,
2023-08-21 17:18:44.713000,-8.301204819277109,-3.4096385542168677,-4.0602409638554215,-3.391784181483752,-8.059472716125077,-3.619865113427345,3.0,0.2572982572982573,3886.5401207937875,-0.2098945282908926,0.14334828972670657,-0.27923780665462394,1364.8351648351647,-1.0,59.34081854400579,0.25724903997947984,
2023-08-21 17:18:44.721000,-8.289156626506024,-3.4096385542168677,-4.0602409638554215,-3.4187614960147146,-8.140404659717964,-3.62722256284488,3.0,0.2572982572982573,3886.5401207937875,0.005943709574034809,-0.11526134840626943,-0.4148942369325797,1311.3553113553112,-1.0,59.34081854400579,0.2572489087725271,
2023-08-21 17:18:44.729000,-8.313253012048193,-3.4096385542168677,-4.072289156626506,-3.342734518700184,-8.09871244635193,-3.5757204169221333,3.0,0.2572982572982573,3886.5401207937875,-0.02284249169628734,0.268632364081347,-0.5018355573684516,1265.2014652014652,-1.0,59.34081854400579,0.2572487698450575,
2023-08-21 17:18:44.736000,-8.289156626506024,-3.397590361445783,-4.072289156626506,-3.4236664622930717,-8.123237277743716,-3.585530349478847,3.0,0.2572982572982573,3886.5401207937875,-0.06934327836373134,0.11491171843132691,-0.4385525319037355,1229.3040293040292,-1.0,59.34081854400579,0.2572486234838923,
2023-08-21 17:18:44.744000,-8.27710843373494,-3.421686746987952,-4.0602409638554215,-3.4187614960147146,-8.123237277743716,-3.6517473942366645,3.0,0.2572982572982573,3886.5401207937875,0.23821455626128968,0.34100576889458706,-0.3586038109667268,1206.5934065934066,-1.0,59.34081854400579,0.2572484700043726,
2023-08-21 17:18:44.752000,-8.27710843373494,-3.421686746987952,-4.0602409638554215,-3.4285714285714284,-8.133047210300429,-3.624770079705702,3.0,0.2572982572982573,3886.5401207937875,0.37270555328943533,0.414661150282618,-0.4000932346599848,1206.5934065934066,-1.0,59.34081854400579,0.2572483097513105,
2023-08-21 17:18:44.759000,-8.27710843373494,-3.421686746987952,-4.048192771084338,-3.396689147762109,-8.061925199264255,-3.649294911097486,3.0,0.2568542568542569,3893.2584269662916,0.20371773206689614,0.4405337684284141,-0.41198065380805315,1195.6043956043954,-1.0,59.34081854400579,0.25724814309989624,
2023-08-21 17:18:44.767000,-8.289156626506024,-3.397590361445783,-4.024096385542169,-3.3942366646229307,-8.054567749846719,-3.548743102391171,3.0,0.2572982572982573,3886.5401207937875,-0.0896218169104368,0.09929491288386533,-0.4527708175514249,1200.0,-1.0,59.34081854400579,0.25724797030725294,
2023-08-21 17:18:44.775000,-8.27710843373494,-3.397590361445783,-4.0,-3.4114040465971796,-8.157572041692212,-3.5511955855303494,3.0,0.2572982572982573,3886.5401207937875,0.20255229881708603,0.4933278946448336,-0.06980945166365599,1210.2564102564102,-1.0,59.34081854400579,0.25724779164063094,
2023-08-21 17:18:44.782000,-8.313253012048193,-3.397590361445783,-4.0120481927710845,-3.374616799509503,-8.05211526670754,-3.6296750459840585,3.0,0.2572982572982573,3886.5401207937875,0.09579861313443329,-0.1661907814229939,-0.1769127673212517,1221.9780219780218,-1.0,59.34081854400579,0.257247607537034,
2023-08-21 17:18:44.790000,-8.289156626506024,-3.397590361445783,-3.987951807228916,-3.421213979153893,-8.088902513795217,-3.5830778663396687,3.0,0.2572982572982573,3886.5401207937875,-0.28669657945341137,-0.30231338500087473,-0.5124409999417281,1234.4322344322343,-1.0,59.34081854400579,0.2572474184648746,
2023-08-21 17:18:44.798000,-8.25301204819277,-3.397590361445783,-4.0120481927710845,-3.350091968117719,-8.147762109135499,-3.5634580012262416,3.0,0.2568542568542569,3893.2584269662916,-0.008624206048599255,-0.3171143872734687,-0.2955538721519723,1248.3516483516482,-1.0,59.34081854400579,0.25724722492427016,
2023-08-21 17:18:44.805000,-8.265060240963855,-3.385542168674699,-4.0,-3.3648068669527893,-8.106069895769465,-3.644389944819129,3.0,0.2568542568542569,3893.2584269662916,-0.01165433249810621,-0.3066254880251726,-0.28961016257793837,1261.5384615384614,-1.0,59.34081854400579,0.25724702729793175,
2023-08-21 17:18:44.813000,-8.27710843373494,-3.385542168674699,-4.0361445783132535,-3.3599019006744326,-8.061925199264255,-3.6002452483139176,3.0,0.2572982572982573,3886.5401207937875,-0.22178194743896051,-0.3014975817260071,-0.4125633704329582,1273.9926739926739,-1.0,59.34081854400579,0.257246825968091,
2023-08-21 17:18:44.821000,-8.265060240963855,-3.4096385542168677,-4.024096385542169,-3.4064990803188224,-8.135499693439607,-3.595340282035561,3.0,0.2572982572982573,3886.5401207937875,-0.2818017598042076,-0.31186993764932064,-0.6091719596760099,1282.7838827838827,-1.0,59.34081854400579,0.25724662158239525,
2023-08-21 17:18:44.828000,-8.289156626506024,-3.397590361445783,-4.024096385542169,-3.4064990803188224,-8.09871244635193,-3.6100551808706314,3.0,0.2572982572982573,3886.5401207937875,-0.14194976982693305,-0.5983334304527703,-0.17831128722102477,1285.7142857142856,-1.0,59.34081854400579,0.2572464149256902,
2023-08-21 17:18:44.836000,-8.27710843373494,-3.4096385542168677,-4.024096385542169,-3.3991416309012874,-8.088902513795217,-3.5193133047210297,3.0,0.2572982572982573,3886.5401207937875,-0.0476662199172541,-0.3250393333721812,-0.40603694423401876,1284.2490842490843,-1.0,59.34081854400579,0.2572462066428829,
2023-08-21 17:18:44.843000,-8.289156626506024,-3.421686746987952,-4.0120481927710845,-3.484978540772532,-8.133047210300429,-3.62722256284488,3.0,0.2572982572982573,3886.5401207937875,-0.03239904434473502,-0.4597634170502885,-0.265951867606783,1285.7142857142856,-1.0,59.34081854400579,0.25724599725934516,
2023-08-21 17:18:44.851000,-8.289156626506024,-3.421686746987952,-4.0120481927710845,-3.47271612507664,-8.106069895769465,-3.6419374616799507,3.0,0.2572982572982573,3886.5401207937875,-0.3386749023949651,-0.36513023716566706,-0.46267700017481506,1285.7142857142856,-1.0,59.34081854400579,0.2572457873285929,
2023-08-21 17:18:44.859000,-8.27710843373494,-3.421686746987952,-4.0361445783132535,-3.4015941140404657,-8.101164929491109,-3.614960147148988,3.0,0.2572982572982573,3886.5401207937875,-0.24555678573509626,-0.30161412505098795,-0.5180350795408192,1285.7142857142856,-1.0,59.34081854400579,0.25724557743053594,
2023-08-21 17:18:44.866000,-8.289156626506024,-3.433734939759036,-4.0361445783132535,-3.3648068669527893,-8.059472716125077,-3.5904353157572038,3.0,0.2572982572982573,3886.5401207937875,-0.4429811782530151,-0.5129071732416524,-0.3601188741914807,1281.3186813186812,-1.0,59.34081854400579,0.25724536830834654,
2023-08-21 17:18:44.874000,-8.27710843373494,-3.421686746987952,-4.0602409638554215,-3.3721643163703248,-8.140404659717964,-3.6223175965665235,3.0,0.2572982572982573,3886.5401207937875,-0.040557077093409194,-0.480041955596994,-0.8310704504399512,1271.7948717948716,-1.0,59.34081854400579,0.25724516070732933,
2023-08-21 17:18:44.882000,-8.289156626506024,-3.397590361445783,-4.0,-3.4481912936848556,-8.128142244022072,-3.602697731453096,3.0,0.2572982572982573,3886.5401207937875,-0.05559116601596661,-0.5230464425150042,-0.4571994639007049,1262.2710622710622,-1.0,59.34081854400579,0.2572449552451903,
2023-08-21 17:18:44.889000,-8.289156626506024,-3.4096385542168677,-4.0120481927710845,-3.455548743102391,-8.096259963212752,-3.595340282035561,3.0,0.2568542568542569,3893.2584269662916,0.021443971796515564,-0.5955363906532251,-0.28541460287862,1252.7472527472526,-1.0,59.34081854400579,0.2572447526976619,
2023-08-21 17:18:44.897000,-8.289156626506024,-3.397590361445783,-4.048192771084338,-3.3697118332311464,-8.135499693439607,-3.5585530349478844,3.0,0.2572982572982573,3886.5401207937875,0.17574733407144158,-0.25604568498339236,-0.25278247188392333,1243.2234432234432,-1.0,59.34081854400579,0.2572445538263139,
2023-08-21 17:18:44.905000,-8.289156626506024,-3.421686746987952,-4.0,-3.435928877988964,-8.140404659717964,-3.5585530349478844,3.0,0.2572982572982573,3886.5401207937875,0.2051162519666679,-0.4373870986539245,-0.4175747334071441,1233.6996336996335,-1.0,59.34081854400579,0.2572443592166314,
2023-08-21 17:18:44.912000,-8.301204819277109,-3.4096385542168677,-4.048192771084338,-3.408951563458001,-8.120784794604537,-3.5757204169221333,3.0,0.2572982572982573,3886.5401207937875,0.25196666860905614,-0.586795641279645,-0.5373812714876758,1221.9780219780218,-1.0,59.34081854400579,0.25724416945576617,
2023-08-21 17:18:44.920000,-8.289156626506024,-3.397590361445783,-4.0120481927710845,-3.4163090128755362,-8.125689760882894,-3.6125076640098097,3.0,0.2572982572982573,3886.5401207937875,0.050579803041780225,-0.231455043412389,-0.16712312802284232,1209.5238095238094,-1.0,59.34081854400579,0.25724398513977553,
2023-08-21 17:18:44.928000,-8.27710843373494,-3.421686746987952,-4.024096385542169,-3.438381361128142,-8.155119558553034,-3.5757204169221333,3.0,0.2572982572982573,3886.5401207937875,-0.2259775071382793,-0.3070916613250977,-0.3942660684109317,1200.0,-1.0,59.34081854400579,0.2572438068702846,
2023-08-21 17:18:44.935000,-8.289156626506024,-3.4096385542168677,-4.0120481927710845,-3.445738810545677,-8.081545064377682,-3.5511955855303494,3.0,0.2572982572982573,3886.5401207937875,0.01911310529689363,-0.3661791270904963,-0.29963288852630937,1192.6739926739926,-1.0,59.34081854400579,0.2572436352511361,
2023-08-21 17:18:44.943000,-8.289156626506024,-3.397590361445783,-4.024096385542169,-3.4285714285714284,-8.09871244635193,-3.573267933782955,3.0,0.2572982572982573,3886.5401207937875,-0.11677641163102377,-0.4554513140259889,-0.2829671930540177,1188.278388278388,-1.0,59.34081854400579,0.2572434708850509,
2023-08-21 17:18:44.951000,-8.289156626506024,-3.397590361445783,-4.024096385542169,-3.404046597179644,-8.120784794604537,-3.5683629675045982,3.0,0.2572982572982573,3886.5401207937875,0.021210885146553893,-0.1774954839461576,-0.1442806363265541,1188.278388278388,-1.0,59.34081854400579,0.2572433143703155,
2023-08-21 17:18:44.958000,-8.289156626506024,-3.4096385542168677,-4.0120481927710845,-3.3893316983445736,-8.113427345187002,-3.561005518087063,3.0,0.2568542568542569,3893.2584269662916,-0.16013052852397824,-0.4373870986539245,-0.5711788357321834,1181.6849816849815,-1.0,59.34081854400579,0.25724316629751953,
2023-08-21 17:18:44.966000,-8.289156626506024,-3.421686746987952,-4.0361445783132535,-3.313304721030043,-8.096259963212752,-3.5340282035561,3.0,0.2568542568542569,3893.2584269662916,-0.15849892197424306,-0.09871219625895941,-0.3232911834974652,1180.952380952381,-1.0,59.34081854400579,0.257243027235819,
2023-08-21 17:18:44.974000,-8.301204819277109,-3.4096385542168677,-4.0361445783132535,-3.4163090128755362,-8.096259963212752,-3.5830778663396687,3.0,0.2572982572982573,3886.5401207937875,-0.16129596177379008,-0.5103432200920688,-0.5309713886137176,1182.4175824175823,-1.0,59.34081854400579,0.25724289754882684,
2023-08-21 17:18:44.981000,-8.289156626506024,-3.421686746987952,-4.0120481927710845,-3.4506437768240343,-8.125689760882894,-3.5904353157572038,3.0,0.2572982572982573,3886.5401207937875,-0.39065322533651886,-0.7054367461103673,-0.3415884855194921,1182.4175824175823,-1.0,59.34081854400579,0.2572427775503568,
2023-08-21 17:18:44.989000,-8.289156626506024,-3.4096385542168677,-3.9759036144578315,-3.4114040465971796,-8.155119558553034,-3.6174126302881664,3.0,0.2572982572982573,3886.5401207937875,-0.22131577413903541,-0.6242060485985664,-0.32154303362274916,1179.4871794871794,-1.0,59.34081854400579,0.2572426676706522,
2023-08-21 17:18:44.997000,-8.325301204819278,-3.4698795180722892,-4.024096385542169,-3.484978540772532,-8.123237277743716,-3.5806253832004904,3.0,0.2572982572982573,3886.5401207937875,-0.21595478118990652,-0.694598216887127,-0.5640696929083385,1178.021978021978,-1.0,59.34081854400579,0.2572425683143477,
2023-08-21 17:18:45.004000,-8.27710843373494,-3.385542168674699,-3.963855421686747,-3.4310239117106067,-8.059472716125077,-3.5462906192519923,3.0,0.2572982572982573,3886.5401207937875,-0.2917079424275978,-0.048015849892196615,-0.3140842608239609,1178.021978021978,-1.0,59.34081854400579,0.25724247985736276,
2023-08-21 17:18:45.012000,-8.289156626506024,-3.421686746987952,-3.987951807228916,-3.4285714285714284,-8.106069895769465,-3.602697731453096,3.0,0.2572982572982573,3886.5401207937875,-0.24392517918536283,-0.2783054600547755,-0.2370491230114796,1180.2197802197802,-1.0,59.34081854400579,0.25724240264399606,
2023-08-21 17:18:45.020000,-8.337349397590362,-3.4698795180722892,-4.048192771084338,-3.5683629675045982,-8.187001839362354,-3.6002452483139176,3.0,0.2572982572982573,3886.5401207937875,0.09708058970922423,-0.22982343686265383,-0.2646698910319908,1180.2197802197802,-1.0,59.34081854400579,0.2572423369842438,
2023-08-21 17:18:45.027000,-8.265060240963855,-3.36144578313253,-4.024096385542169,-3.3476394849785405,-8.08399754751686,-3.514408338442673,3.0,0.2572982572982573,3886.5401207937875,-0.10139269273352386,-0.027853854670473722,-0.38319445253773055,1180.952380952381,-1.0,59.34081854400579,0.25724228315135883,
2023-08-21 17:18:45.035000,-8.289156626506024,-3.4096385542168677,-4.0,-3.413856529736358,-8.061925199264255,-3.578172900061312,3.0,0.2572982572982573,3886.5401207937875,-0.03997436046850501,-0.5901753977040962,-0.1355398869529749,1179.4871794871794,-1.0,59.34081854400579,0.25724224137966795,
2023-08-21 17:18:45.043000,-8.289156626506024,-3.4096385542168677,-4.048192771084338,-3.3991416309012874,-8.093807480073574,-3.4996934396076025,3.0,0.2572982572982573,3886.5401207937875,-0.054192646116193094,-0.06398228541460245,-0.36198356739117754,1180.2197802197802,-1.0,59.34081854400579,0.2572422118626648,
2023-08-21 17:18:45.050000,-8.289156626506024,-3.4096385542168677,-4.048192771084338,-3.413856529736358,-8.110974862047822,-3.5585530349478844,3.0,0.2572982572982573,3886.5401207937875,0.007691859448750828,-0.01992890857176122,-0.051861779616572026,1180.2197802197802,-1.0,59.34081854400579,0.25724219475138843,
2023-08-21 17:18:45.058000,-8.265060240963855,-3.4096385542168677,-4.0120481927710845,-3.362354383813611,-8.133047210300429,-3.5708154506437766,3.0,0.2572982572982573,3886.5401207937875,0.464192063399569,0.14731076277606195,-0.9204591807004254,1189.7435897435896,-1.0,59.34081854400579,0.2572421901531026,
2023-08-21 17:18:45.066000,-8.265060240963855,-3.4096385542168677,-4.0120481927710845,-3.433476394849785,-8.06928264868179,-3.5585530349478844,3.0,0.2572982572982573,3886.5401207937875,-0.14870928267583544,0.03915855719363742,0.2178194743896038,1192.6739926739926,-1.0,59.34081854400579,0.25724219813028354,
2023-08-21 17:18:45.073000,-8.301204819277109,-3.433734939759036,-4.0,-3.4408338442673205,-8.152667075413856,-3.5585530349478844,3.0,0.2572982572982573,3886.5401207937875,-0.16222830837363852,0.1006934327836371,-0.1185245615057398,1194.1391941391942,-1.0,59.34081854400579,0.2572422186999239,
2023-08-21 17:18:45.081000,-8.27710843373494,-3.421686746987952,-4.0361445783132535,-3.396689147762109,-8.091354996934395,-3.6125076640098097,3.0,0.2572982572982573,3886.5401207937875,-0.1596643552240549,0.1020919526834106,-0.11491171843132691,1194.8717948717947,-1.0,59.34081854400579,0.2572422518331601,
2023-08-21 17:18:45.089000,-8.27710843373494,-3.433734939759036,-4.024096385542169,-3.374616799509503,-8.110974862047822,-3.5585530349478844,3.0,0.2572982572982573,3886.5401207937875,-0.14486335295145916,-0.0012819765747909368,-0.37014160013985214,1196.3369963369962,-1.0,59.34081854400579,0.25724229745522337,
2023-08-21 17:18:45.096000,-8.289156626506024,-3.4096385542168677,-4.024096385542169,-3.455548743102391,-8.125689760882894,-3.585530349478847,3.0,0.2572982572982573,3886.5401207937875,0.056640055940795866,-0.07225686148825747,-0.3209603169978437,1197.069597069597,-1.0,59.34081854400579,0.25724235544571955,
2023-08-21 17:18:45.104000,-8.337349397590362,-3.530120481927711,-4.0843373493975905,-3.5928877988963825,-8.106069895769465,-3.6125076640098097,3.0,0.2572982572982573,3886.5401207937875,0.3336635394207805,-0.0692267350387505,-0.3755025930889806,1200.7326007326008,-1.0,59.34081854400579,0.2572424256392325,
2023-08-21 17:18:45.112000,-8.204819277108435,-3.313253012048193,-3.987951807228916,-3.3108522378908645,-8.03740036787247,-3.5708154506437766,3.0,0.2568542568542569,3893.2584269662916,0.5897092244041728,-0.06736204183905366,-0.7709340947497229,1202.9304029304028,-1.0,59.34081854400579,0.2572425078262509,
2023-08-21 17:18:45.119000,-8.337349397590362,-3.385542168674699,-3.987951807228916,-3.433476394849785,-8.157572041692212,-3.5904353157572038,3.0,0.2568542568542569,3893.2584269662916,-0.5125575432667099,0.4119806538080536,0.385874949012295,1206.5934065934066,-1.0,59.34081854400579,0.257242601743867,
2023-08-21 17:18:45.127000,-8.313253012048193,-3.4698795180722892,-4.0361445783132535,-3.3795217657878602,-8.128142244022072,-3.632127529123237,3.0,0.2572982572982573,3886.5401207937875,0.16665695472291897,-0.2498688887593959,-0.1322766738535054,1209.5238095238094,-1.0,59.34081854400579,0.25724270689632506,
2023-08-21 17:18:45.135000,-8.25301204819277,-3.385542168674699,-3.987951807228916,-3.433476394849785,-8.091354996934395,-3.514408338442673,3.0,0.2572982572982573,3886.5401207937875,0.05815511916555022,0.5019521006934329,-0.8761727172076217,1210.989010989011,-1.0,59.34081854400579,0.2572428227156164,
2023-08-21 17:18:45.142000,-8.289156626506024,-3.4457831325301207,-4.0120481927710845,-3.3721643163703248,-8.096259963212752,-3.5217657878602084,3.0,0.2572982572982573,3886.5401207937875,0.041372880368276785,-0.022959035021269912,0.30930598449973834,1213.9194139194137,-1.0,59.34081854400579,0.25724294873271997,
2023-08-21 17:18:45.150000,-8.289156626506024,-3.4457831325301207,-4.0120481927710845,-3.4015941140404657,-8.106069895769465,-3.602697731453096,3.0,0.2572982572982573,3886.5401207937875,-0.2036011887419153,-0.20336810209195189,-0.25697803158324123,1213.9194139194137,-1.0,59.34081854400579,0.25724308457946,
2023-08-21 17:18:45.158000,-8.25301204819277,-3.397590361445783,-4.0,-3.391784181483752,-8.123237277743716,-3.5119558553034946,3.0,0.2572982572982573,3886.5401207937875,0.4220033797564246,0.4251500495309124,-0.9258201736495544,1218.3150183150183,-1.0,59.34081854400579,0.2572432298315172,
2023-08-21 17:18:45.165000,-8.27710843373494,-3.433734939759036,-3.9759036144578315,-3.443286327406499,-8.155119558553034,-3.578172900061312,3.0,0.2572982572982573,3886.5401207937875,0.004661732999242137,0.0867082337859107,0.6554396596934909,1219.7802197802198,-1.0,59.34081854400579,0.2572433838832236,
2023-08-21 17:18:45.173000,-8.27710843373494,-3.421686746987952,-4.0361445783132535,-3.3991416309012874,-8.086450030656039,-3.6002452483139176,3.0,0.2572982572982573,3886.5401207937875,-0.025056814870928437,-0.0037293863993937094,-0.44822562787716314,1219.047619047619,-1.0,59.34081854400579,0.25724354609932765,
2023-08-21 17:18:45.181000,-8.265060240963855,-3.421686746987952,-4.0,-3.384426732066217,-8.113427345187002,-3.607602697731453,3.0,0.2572982572982573,3886.5401207937875,-0.2835499096789236,-0.24777110890973736,-0.19987180234252028,1215.3846153846152,-1.0,59.34081854400579,0.2572437158177088,
2023-08-21 17:18:45.188000,-8.27710843373494,-3.4096385542168677,-4.0361445783132535,-3.4580012262415694,-8.09871244635193,-3.5928877988963825,3.0,0.2572982572982573,3886.5401207937875,-0.09941145620884616,-0.19975525901753902,0.004428646349280464,1209.5238095238094,-1.0,59.34081854400579,0.2572438923523219,
2023-08-21 17:18:45.196000,-8.265060240963855,-3.421686746987952,-4.0,-3.4604537093807477,-8.020232985898222,-3.5904353157572038,3.0,0.2572982572982573,3886.5401207937875,-0.023891381621118337,-0.34123885554454875,-0.1305285239787894,1201.4652014652013,-1.0,59.34081854400579,0.25724407499635704,
2023-08-21 17:18:45.204000,-8.25301204819277,-3.4457831325301207,-4.0120481927710845,-3.342734518700184,-8.06928264868179,-3.5879828326180254,3.0,0.2572982572982573,3886.5401207937875,0.2623390245323697,-0.12936309072897842,-0.5695472291824487,1194.8717948717947,-1.0,59.34081854400579,0.2572442630255962,
2023-08-21 17:18:45.211000,-8.27710843373494,-3.3734939759036147,-4.0,-3.33292458614347,-8.169834457388106,-3.543838136112814,3.0,0.2572982572982573,3886.5401207937875,-0.15150632247538073,0.6670939921915975,0.5958860206281689,1190.4761904761904,-1.0,59.34081854400579,0.2572444557019499,
2023-08-21 17:18:45.219000,-8.289156626506024,-3.4096385542168677,-3.987951807228916,-3.435928877988964,-8.137952176578786,-3.6174126302881664,3.0,0.2572982572982573,3886.5401207937875,-0.07295612143814421,-0.6634811491171847,-0.38529223238738997,1187.5457875457876,-1.0,59.34081854400579,0.25724465227715293,
2023-08-21 17:18:45.226000,-8.289156626506024,-3.4096385542168677,-4.0120481927710845,-3.4064990803188224,-8.103617412630287,-3.6174126302881664,3.0,0.2572982572982573,3886.5401207937875,-0.0712079715634282,0.08950527358545597,0.10966726880717886,1186.080586080586,-1.0,59.34081854400579,0.2572448519965981,
2023-08-21 17:18:45.234000,-8.27710843373494,-3.433734939759036,-4.0361445783132535,-3.3868792152053953,-8.103617412630287,-3.6125076640098097,3.0,0.2572982572982573,3886.5401207937875,-0.0692267350387505,-0.12178777460521016,-0.16281102499854358,1186.080586080586,-1.0,59.34081854400579,0.25724505410328746,
2023-08-21 17:18:45.242000,-8.313253012048193,-3.5180722891566267,-4.0602409638554215,-3.619865113427345,-8.142857142857142,-3.607602697731453,3.0,0.2568542568542569,3893.2584269662916,0.22492861721344828,-0.3335469960957979,-0.07015908163859894,1186.080586080586,-1.0,59.34081854400579,0.2572452578418739,
2023-08-21 17:18:45.249000,-8.313253012048193,-3.5180722891566267,-4.0602409638554215,-3.291232372777437,-8.057020232985899,-3.5708154506437766,3.0,0.2568542568542569,3893.2584269662916,0.5930889808286223,0.3573218343919354,-1.3804556844006761,1186.080586080586,-1.0,59.34081854400579,0.2572454623134828,
2023-08-21 17:18:45.257000,-8.313253012048193,-3.4096385542168677,-4.0,-3.3991416309012874,-8.118332311465359,-3.5708154506437766,3.0,0.2572982572982573,3886.5401207937875,0.2376318396363855,0.35580677116718107,1.1195151797680791,1187.5457875457876,-1.0,59.34081854400579,0.2572456664579919,
2023-08-21 17:18:45.265000,-8.313253012048193,-3.421686746987952,-4.0120481927710845,-3.443286327406499,-8.135499693439607,-3.531575720416922,3.0,0.2568542568542569,3893.2584269662916,-0.08461045393625043,-0.33273119282093033,0.02797039799545499,1188.278388278388,-1.0,59.34081854400579,0.25724586934456467,
2023-08-21 17:18:45.272000,-8.337349397590362,-3.5421686746987953,-4.024096385542169,-3.637032495401594,-8.044757817290005,-3.666462293071735,3.0,0.2568542568542569,3893.2584269662916,-0.08146378416176263,-0.16222830837363852,-0.06235067886486857,1186.8131868131868,-1.0,59.34081854400579,0.2572460701852825,
2023-08-21 17:18:45.280000,-8.180722891566266,-3.3734939759036147,-4.0,-3.413856529736358,-8.005518087063152,-3.561005518087063,3.0,0.2572982572982573,3886.5401207937875,-0.5356331216129588,0.510692850067013,-0.014684458947614033,1183.8827838827838,-1.0,59.34081854400579,0.25724626815791973,
2023-08-21 17:18:45.288000,-8.313253012048193,-3.421686746987952,-3.987951807228916,-3.4187614960147146,-8.09871244635193,-3.585530349478847,3.0,0.2572982572982573,3886.5401207937875,0.07085834158848568,-0.6554396596934913,-0.09498280985956484,1183.150183150183,-1.0,59.34081854400579,0.25724646240930055,
2023-08-21 17:18:45.295000,-8.27710843373494,-3.457831325301205,-4.0361445783132535,-3.404046597179644,-8.088902513795217,-3.5806253832004904,3.0,0.2572982572982573,3886.5401207937875,-0.11514480508128859,-0.1128139385816684,-0.046966959967368216,1184.6153846153845,-1.0,59.34081854400579,0.25724665210047165,
2023-08-21 17:18:45.303000,-8.27710843373494,-3.433734939759036,-4.0,-3.3648068669527893,-8.113427345187002,-3.5806253832004904,3.0,0.2572982572982573,3886.5401207937875,-0.14707767612610026,-0.5700134024823733,-0.2433424625604569,1187.5457875457876,-1.0,59.34081854400579,0.25724683642009943,
2023-08-21 17:18:45.311000,-8.265060240963855,-3.433734939759036,-4.0120481927710845,-3.4236664622930717,-8.09871244635193,-3.5904353157572038,3.0,0.2572982572982573,3886.5401207937875,0.055008449391060685,-0.1687547345725775,-0.02412446827107958,1193.4065934065934,1018.768310546875,58.89464697600575,0.2572470145872449,
2023-08-21 17:18:45.318000,-8.289156626506024,-3.433734939759036,-3.987951807228916,-3.443286327406499,-8.079092581238504,-3.561005518087063,3.0,0.2572982572982573,3886.5401207937875,-0.053493386166308075,-0.39729619486043866,-0.3140842608239609,1199.2673992673992,-1.0,58.89464697600575,0.2572471858540527,
2023-08-21 17:18:45.326000,-8.289156626506024,-3.421686746987952,-4.0120481927710845,-3.462906192519926,-8.106069895769465,-3.548743102391171,3.0,0.2572982572982573,3886.5401207937875,-0.022376318396363993,-0.4695530563486979,-0.24858691218460452,1207.3260073260074,-1.0,58.89464697600575,0.25724734950833883,
2023-08-21 17:18:45.334000,-8.301204819277109,-3.433734939759036,-4.0120481927710845,-3.396689147762109,-8.14530962599632,-3.5634580012262416,3.0,0.2572982572982573,3886.5401207937875,0.03915855719363742,-0.2660684109317634,-0.07948254763708451,1216.117216117216,-1.0,58.89464697600575,0.25724750487607134,
2023-08-21 17:18:45.341000,-8.27710843373494,-3.433734939759036,-4.0120481927710845,-3.421213979153893,-8.086450030656039,-3.536480686695279,3.0,0.2572982572982573,3886.5401207937875,-0.3561564011421253,-0.2619893945574272,0.12248703455509562,1223.4432234432234,-1.0,58.89464697600575,0.25724765132372895,
2023-08-21 17:18:45.349000,-8.27710843373494,-3.433734939759036,-4.0120481927710845,-3.3991416309012874,-8.091354996934395,-3.573267933782955,3.0,0.2572982572982573,3886.5401207937875,-0.06118524561505717,-0.19870636909270975,0.0018646931996968547,1223.4432234432234,-1.0,58.89464697600575,0.2572477882605327,
2023-08-21 17:18:45.357000,-8.265060240963855,-3.4096385542168677,-4.0,-3.3819742489270386,-8.039852851011648,-3.602697731453096,3.0,0.2572982572982573,3886.5401207937875,-0.05920400909037948,-0.19742439251791882,0.00396247304935625,1235.164835164835,-1.0,58.89464697600575,0.2572479151405361,
2023-08-21 17:18:45.364000,-8.265060240963855,-3.4096385542168677,-4.0361445783132535,-3.4285714285714284,-8.157572041692212,-3.5708154506437766,3.0,0.2572982572982573,3886.5401207937875,-0.2098945282908926,-0.1355398869529749,-0.10092651943359965,1236.6300366300366,-1.0,58.89464697600575,0.2572480314645702,
2023-08-21 17:18:45.372000,-8.265060240963855,-3.433734939759036,-4.0361445783132535,-3.4481912936848556,-8.101164929491109,-3.619865113427345,3.0,0.2572982572982573,3886.5401207937875,0.04918128314200845,-0.08868947031058838,0.16094633179884626,1235.164835164835,-1.0,58.89464697600575,0.2572481367820328,
2023-08-21 17:18:45.380000,-8.120481927710843,-3.5180722891566267,-4.0602409638554215,-3.303494788473329,-8.135499693439607,-3.6909871244635193,3.0,0.2572982572982573,3886.5401207937875,0.2482372822096607,-0.18052561039566456,0.024823728220965898,1230.7692307692307,-1.0,58.89464697600575,0.25724823069251274,
2023-08-21 17:18:45.387000,-8.361445783132531,-3.325301204819277,-3.9759036144578315,-3.3648068669527893,-8.19435928877989,-3.5193133047210297,3.0,0.2568542568542569,3893.2584269662916,1.0233669366587037,2.126566050929433,0.1962589592681083,1224.9084249084249,-1.0,58.89464697600575,0.25724831284724864,
2023-08-21 17:18:45.395000,-8.349397590361447,-3.530120481927711,-4.072289156626506,-3.632127529123237,-8.054567749846719,-3.619865113427345,3.0,0.2572982572982573,3886.5401207937875,0.26874890740632784,-0.7342229473806895,0.2612901346075404,1219.047619047619,-1.0,58.89464697600575,0.2572483828011148,
2023-08-21 17:18:45.403000,-8.216867469879519,-3.433734939759036,-4.024096385542169,-3.4530962599632127,-8.103617412630287,-3.5928877988963825,3.0,0.2568542568542569,3893.2584269662916,0.6492628634694948,0.5827166249053087,-1.0385175689062407,1216.117216117216,-1.0,58.89464697600575,0.2572484401411412,
2023-08-21 17:18:45.410000,-8.337349397590362,-3.4457831325301207,-4.0,-3.4064990803188224,-8.147762109135499,-3.556100551808706,3.0,0.2572982572982573,3886.5401207937875,0.20243575549210346,0.30359536157566563,1.0802400792494609,1211.7216117216117,-1.0,58.89464697600575,0.25724848449707366,
2023-08-21 17:18:45.418000,-8.265060240963855,-3.397590361445783,-4.024096385542169,-3.4187614960147146,-8.093807480073574,-3.5928877988963825,3.0,0.2568542568542569,3893.2584269662916,0.03531262746926114,-0.23040615348755977,-0.08461045393625086,1208.7912087912086,-1.0,58.89464697600575,0.2572485155305853,
2023-08-21 17:18:45.426000,-8.265060240963855,-3.4819277108433737,-4.0602409638554215,-3.4506437768240343,-8.157572041692212,-3.5904353157572038,3.0,0.2572982572982573,3886.5401207937875,0.17388264087174474,-0.17714585397121335,0.5592914165841151,1204.3956043956043,-1.0,58.89464697600575,0.2572485330840313,
2023-08-21 17:18:45.433000,-8.313253012048193,-3.397590361445783,-4.0120481927710845,-3.3770692826486814,-8.113427345187002,-3.5830778663396687,3.0,0.2568542568542569,3893.2584269662916,0.2407785094108733,0.23227084668725662,0.2739933570304759,1201.4652014652013,-1.0,58.89464697600575,0.2572485371487325,
2023-08-21 17:18:45.441000,-8.27710843373494,-3.433734939759036,-4.0120481927710845,-3.4604537093807477,-8.088902513795217,-3.602697731453096,3.0,0.2572982572982573,3886.5401207937875,-0.10675368568265274,-0.456616747275799,0.2635044577821807,1199.2673992673992,-1.0,58.89464697600575,0.2572485275877005,
2023-08-21 17:18:45.449000,-8.27710843373494,-3.433734939759036,-4.0120481927710845,-3.4285714285714284,-8.079092581238504,-3.578172900061312,3.0,0.2572982572982573,3886.5401207937875,-0.24322591923547607,0.19509352601829688,0.35673911776702993,1199.2673992673992,-1.0,58.89464697600575,0.25724850414525813,
2023-08-21 17:18:45.456000,-8.265060240963855,-3.421686746987952,-3.987951807228916,-3.4236664622930717,-8.09871244635193,-3.578172900061312,3.0,0.2572982572982573,3886.5401207937875,0.11118233203193321,0.07470427131286024,0.29671930540178326,1210.2564102564102,-1.0,58.89464697600575,0.2572484667541937,
2023-08-21 17:18:45.464000,-8.27710843373494,-3.433734939759036,-4.0,-3.3893316983445736,-8.074187614960147,-3.5879828326180254,3.0,0.2572982572982573,3886.5401207937875,0.12843074412913,0.4105821339082801,0.2527824718839229,1230.7692307692307,-1.0,58.89464697600575,0.25724841539560434,
2023-08-21 17:18:45.472000,-8.289156626506024,-3.421686746987952,-4.0,-3.4015941140404657,-8.108522378908644,-3.607602697731453,3.0,0.2572982572982573,3886.5401207937875,-0.05512499271604152,0.6379581609463312,-0.004778276324223841,1265.9340659340658,-1.0,58.89464697600575,0.2572483500973657,
2023-08-21 17:18:45.479000,-8.27710843373494,-3.421686746987952,-3.987951807228916,-3.42611894543225,-8.088902513795217,-3.561005518087063,3.0,0.2568542568542569,3893.2584269662916,0.06771167181399616,0.5103432200920688,0.029019287920284256,1322.3443223443223,-1.0,58.89464697600575,0.2572482710712457,
2023-08-21 17:18:45.487000,-8.289156626506024,-3.433734939759036,-4.0120481927710845,-3.4800735744941753,-8.135499693439607,-3.556100551808706,3.0,0.2572982572982573,3886.5401207937875,-0.04207214031816354,0.4584814404754976,0.260357788007692,1401.4652014652013,-1.0,58.89464697600575,0.25724817840275277,
2023-08-21 17:18:45.495000,-8.180722891566266,-3.349397590361446,-3.9759036144578315,-3.1906805640711218,-8.096259963212752,-3.578172900061312,3.0,0.2572982572982573,3886.5401207937875,1.2713711322184027,0.6987937765864458,-1.707709340947497,1500.3663003663003,-1.0,58.89464697600575,0.2572480720491347,
2023-08-21 17:18:45.502000,-8.361445783132531,-3.3734939759036147,-3.951807228915663,-3.350091968117719,-8.204169221336603,-3.5340282035561,3.0,0.2572982572982573,3886.5401207937875,0.20721403181632816,0.8153371015675079,2.047666219917254,1615.3846153846152,-1.0,58.89464697600575,0.2572479521455479,
2023-08-21 17:18:45.510000,-8.301204819277109,-3.4096385542168677,-3.9759036144578315,-3.4285714285714284,-8.128142244022072,-3.585530349478847,3.0,0.2572982572982573,3886.5401207937875,-0.3426373754443222,-0.35067886486801386,0.12458481440475501,1741.3919413919414,-1.0,58.89464697600575,0.2572478188640146,
2023-08-21 17:18:45.518000,-8.313253012048193,-3.433734939759036,-4.0120481927710845,-3.3697118332311464,-8.123237277743716,-3.548743102391171,3.0,0.2572982572982573,3886.5401207937875,-0.14043470660217872,-0.268632364081347,-0.10395664588310703,1870.3296703296703,-1.0,58.89464697600575,0.2572476724111106,
2023-08-21 17:18:45.525000,-8.289156626506024,-3.433734939759036,-4.0,-3.421213979153893,-8.09871244635193,-3.5119558553034946,3.0,0.2572982572982573,3886.5401207937875,-0.03309830429462177,-0.1418332265019522,0.14299865975176274,1999.9999999999998,-1.0,58.89464697600575,0.2572475130256542,
2023-08-21 17:18:45.533000,-8.289156626506024,-3.421686746987952,-3.963855421686747,-3.47271612507664,-8.101164929491109,-3.556100551808706,3.0,0.2572982572982573,3886.5401207937875,-0.21700367111473753,-0.18448808344501993,0.14404754967659245,2122.3443223443223,-1.0,58.89464697600575,0.2572473409764131,
2023-08-21 17:18:45.541000,-8.27710843373494,-3.433734939759036,-3.9759036144578315,-3.4776210913549965,-8.113427345187002,-3.5977927651747392,3.0,0.2572982572982573,3886.5401207937875,0.027970397995454557,-0.16572460812307055,0.37410407318920796,2232.967032967033,-1.0,58.89464697600575,0.2572471565598493,
2023-08-21 17:18:45.548000,-8.27710843373494,-3.433734939759036,-3.9759036144578315,-3.465358675659105,-8.096259963212752,-3.6002452483139176,3.0,0.2572982572982573,3886.5401207937875,-0.5354000349629972,-0.16351028494842945,0.18658586329467977,2232.967032967033,-1.0,58.89464697600575,0.25724696009791737,
2023-08-21 17:18:45.556000,-8.27710843373494,-3.433734939759036,-4.024096385542169,-3.4506437768240343,-8.106069895769465,-3.56591048436542,3.0,0.2572982572982573,3886.5401207937875,-0.14870928267583544,0.15849892197424306,0.1687547345725775,2398.5347985347985,-1.0,58.89464697600575,0.2572467519359343,
2023-08-21 17:18:45.564000,-8.289156626506024,-3.433734939759036,-3.987951807228916,-3.4506437768240343,-8.189454322501533,-3.619865113427345,3.0,0.2572982572982573,3886.5401207937875,0.18227376027038059,-0.32375735679739026,0.23634986306159328,2446.153846153846,-1.0,58.89464697600575,0.25724653244053386,
2023-08-21 17:18:45.571000,-8.27710843373494,-3.433734939759036,-4.0,-3.42611894543225,-8.118332311465359,-3.561005518087063,3.0,0.2572982572982573,3886.5401207937875,-0.016316065497348348,-0.22854146028786118,0.11584406503117535,2465.201465201465,-1.0,58.89464697600575,0.25724630199772125,
2023-08-21 17:18:45.579000,-8.289156626506024,-3.433734939759036,-3.987951807228916,-3.4187614960147146,-8.106069895769465,-3.5708154506437766,3.0,0.2572982572982573,3886.5401207937875,-0.23098887011246394,0.02109434182157132,0.3610512207913291,2460.07326007326,-1.0,58.89464697600575,0.25724606114978865,
2023-08-21 17:18:45.587000,-8.265060240963855,-3.4457831325301207,-4.0,-3.4064990803188224,-8.027590435315757,-3.5511955855303494,3.0,0.2572982572982573,3886.5401207937875,0.060952158965095496,0.06701241186411114,0.4326088223297011,2433.6996336996335,-1.0,58.89464697600575,0.25724581043447714,
2023-08-21 17:18:45.594000,-8.265060240963855,-3.433734939759036,-3.9759036144578315,-3.4506437768240343,-8.123237277743716,-3.5708154506437766,3.0,0.2572982572982573,3886.5401207937875,0.015500262222480757,0.5709457490822217,0.27748965677990794,2392.6739926739924,-1.0,58.89464697600575,0.2572455502557859,
2023-08-21 17:18:45.602000,-8.27710843373494,-3.433734939759036,-3.987951807228916,-3.435928877988964,-8.086450030656039,-3.5389331698344573,3.0,0.2572982572982573,3886.5401207937875,0.16887127789755835,0.16968708117242592,0.40102558125983323,2339.194139194139,-1.0,58.89464697600575,0.25724528103163447,
2023-08-21 17:18:45.609000,-8.265060240963855,-3.457831325301205,-4.0,-3.467811158798283,-8.093807480073574,-3.573267933782955,3.0,0.2572982572982573,3886.5401207937875,0.18402191014509658,0.09463317988462146,0.5247945923897211,2277.6556776556777,-1.0,58.89464697600575,0.2572450031923796,
2023-08-21 17:18:45.617000,-8.25301204819277,-3.4457831325301207,-4.0,-3.4236664622930717,-8.03740036787247,-3.5977927651747392,3.0,0.25774225774225773,3879.8449612403097,-0.04696695996736735,0.323407726822446,0.1421828564768956,2213.9194139194137,-1.0,58.89464697600575,0.2572447171794892,
2023-08-21 17:18:45.625000,-8.301204819277109,-3.433734939759036,-4.0,-3.421213979153893,-8.123237277743716,-3.5879828326180254,3.0,0.2572982572982573,3886.5401207937875,0.275158790280286,0.43086067245498555,0.4171085601072199,2147.252747252747,-1.0,58.89464697600575,0.2572444235936714,
2023-08-21 17:18:45.632000,-8.289156626506024,-3.421686746987952,-4.0361445783132535,-3.4506437768240343,-8.16002452483139,-3.573267933782955,3.0,0.2572982572982573,3886.5401207937875,0.27236175048074074,0.4296952392051737,0.41419497698269336,2081.3186813186812,-1.0,58.89464697600575,0.2572441230664597,
2023-08-21 17:18:45.640000,-8.301204819277109,-3.421686746987952,-4.024096385542169,-3.445738810545677,-8.123237277743716,-3.5585530349478844,3.0,0.2572982572982573,3886.5401207937875,0.330983042946216,0.38051395606316696,0.12132160130528508,2021.245421245421,-1.0,58.89464697600575,0.25724381610044555,
2023-08-21 17:18:45.648000,-8.301204819277109,-3.421686746987952,-4.024096385542169,-3.42611894543225,-8.079092581238504,-3.5340282035561,3.0,0.2572982572982573,3886.5401207937875,0.29963288852631026,0.42410115960608313,0.41326263038284494,2021.245421245421,-1.0,58.89464697600575,0.2572435032075549,
2023-08-21 17:18:45.655000,-8.301204819277109,-3.421686746987952,-4.0120481927710845,-3.438381361128142,-8.11587982832618,-3.6345800122624157,3.0,0.2572982572982573,3886.5401207937875,0.3925179185362157,0.5724608123069743,0.28692966610337395,1920.8791208791208,-1.0,58.89464697600575,0.2572431849087331,
2023-08-21 17:18:45.663000,-8.27710843373494,-3.4096385542168677,-4.048192771084338,-3.3991416309012874,-8.059472716125077,-3.5389331698344573,3.0,0.2572982572982573,3886.5401207937875,0.14696113280111944,0.5209486626653457,0.574442048831653,1878.3882783882782,-1.0,58.89464697600575,0.2572428617337858,
2023-08-21 17:18:45.671000,-8.265060240963855,-3.421686746987952,-4.0120481927710845,-3.504598405885959,-8.150214592274677,-3.561005518087063,3.0,0.2572982572982573,3886.5401207937875,0.023541751646174093,0.6547403997436045,0.49472641454460714,1843.2234432234432,-1.0,58.89464697600575,0.2572425342213684,
2023-08-21 17:18:45.678000,-8.25301204819277,-3.433734939759036,-4.0120481927710845,-3.396689147762109,-8.034947884733292,-3.548743102391171,3.0,0.2572982572982573,3886.5401207937875,0.02214323174640232,0.4363382087290953,0.45941378707534514,1812.4542124542124,-1.0,58.89464697600575,0.25724220291911504,
2023-08-21 17:18:45.686000,-8.289156626506024,-3.421686746987952,-4.0,-3.404046597179644,-8.103617412630287,-3.561005518087063,3.0,0.2572982572982573,3886.5401207937875,0.020628168521647974,0.31058796107452974,0.378532719538488,1785.3479853479853,-1.0,58.89464697600575,0.25724186838389956,
2023-08-21 17:18:45.694000,-8.289156626506024,-3.433734939759036,-3.987951807228916,-3.3795217657878602,-8.123237277743716,-3.578172900061312,3.0,0.2572982572982573,3886.5401207937875,0.30872326787483284,0.2150224345900581,0.46698910319911424,1760.4395604395604,-1.0,58.89464697600575,0.25724153118221565,
2023-08-21 17:18:45.701000,-8.289156626506024,-3.421686746987952,-3.987951807228916,-3.3991416309012874,-8.103617412630287,-3.5536480686695278,3.0,0.2572982572982573,3886.5401207937875,0.029019287920283823,-0.061068702290076333,0.004195559699317924,1735.5311355311353,-1.0,58.89464697600575,0.2572411918906651,
2023-08-21 17:18:45.709000,-8.301204819277109,-3.421686746987952,-4.024096385542169,-3.4163090128755362,-8.19435928877989,-3.5928877988963825,3.0,0.2572982572982573,3886.5401207937875,0.030301264495076495,0.09055416351028524,0.20138686556727506,1706.227106227106,-1.0,58.89464697600575,0.2572408510965406,
2023-08-21 17:18:45.717000,-8.289156626506024,-3.4096385542168677,-4.0,-3.3770692826486814,-8.079092581238504,-3.607602697731453,3.0,0.2572982572982573,3886.5401207937875,-0.18588660334479346,-0.18693549326962272,0.3674611036652877,1671.0622710622708,-1.0,58.89464697600575,0.25724050939848836,
2023-08-21 17:18:45.724000,-8.301204819277109,-3.433734939759036,-4.024096385542169,-3.462906192519926,-8.101164929491109,-3.632127529123237,3.0,0.2572982572982573,3886.5401207937875,-0.323407726822446,-0.16828856127265243,0.37993123943826107,1624.1758241758241,-1.0,58.89464697600575,0.2572401674072338,
2023-08-21 17:18:45.732000,-8.27710843373494,-3.397590361445783,-4.0,-3.3868792152053953,-8.076640098099325,-3.595340282035561,3.0,0.2572982572982573,3886.5401207937875,-0.1529048423751525,-0.3196783404230523,0.13169395722859947,1572.161172161172,-1.0,58.89464697600575,0.25723982588510796,
2023-08-21 17:18:45.740000,-8.313253012048193,-3.421686746987952,-4.0,-3.4114040465971796,-8.09871244635193,-3.585530349478847,3.0,0.2572982572982573,3886.5401207937875,-0.06025289901520874,-0.024241011596060846,0.23576714643668734,1512.087912087912,-1.0,58.89464697600575,0.2572394857264715,
2023-08-21 17:18:45.747000,-8.289156626506024,-3.421686746987952,-4.024096385542169,-3.4408338442673205,-8.140404659717964,-3.656652360515021,3.0,0.2572982572982573,3886.5401207937875,0.24509061243517294,-0.20546588194161217,0.3394907056698327,1451.2820512820513,-1.0,58.89464697600575,0.2572391476717929,
2023-08-21 17:18:45.763000,-8.289156626506024,-3.433734939759036,-4.0361445783132535,-3.42611894543225,-8.128142244022072,-3.5977927651747392,3.0,0.2572982572982573,3886.5401207937875,0.21455626129013475,0.028669657945341313,0.4124468271079778,1342.8571428571427,-1.0,58.89464697600575,0.25723881232994494,
2023-08-21 17:18:45.770000,-8.289156626506024,-3.433734939759036,-4.0120481927710845,-3.438381361128142,-8.106069895769465,-3.5511955855303494,3.0,0.2572982572982573,3886.5401207937875,0.20057106229240662,0.04789930656721578,0.17912709049589234,1293.7728937728937,-1.0,58.89464697600575,0.2572384803278959,
2023-08-21 17:18:45.778000,-8.289156626506024,-3.433734939759036,-4.0120481927710845,-3.4506437768240343,-8.064377682403434,-3.5977927651747392,3.0,0.2572982572982573,3886.5401207937875,0.3380921857700592,0.021443971796515564,0.4512557543266714,1252.7472527472526,-1.0,58.89464697600575,0.25723815231106717,
2023-08-21 17:18:45.786000,-8.289156626506024,-3.4457831325301207,-4.024096385542169,-3.408951563458001,-8.110974862047822,-3.614960147148988,3.0,0.2572982572982573,3886.5401207937875,0.7624264320261057,0.2980012819765751,0.5682652526076564,1222.7106227106226,-1.0,58.89464697600575,0.2572378289436384,
2023-08-21 17:18:45.793000,-8.289156626506024,-3.421686746987952,-4.048192771084338,-3.3893316983445736,-8.162477007970569,-3.595340282035561,3.0,0.2572982572982573,3886.5401207937875,0.3002156051512144,0.11747567158091053,0.1987063690927106,1204.3956043956043,-1.0,58.89464697600575,0.2572375109087893,
2023-08-21 17:18:45.801000,-8.301204819277109,-3.433734939759036,-4.024096385542169,-3.435928877988964,-8.086450030656039,-3.595340282035561,3.0,0.2572982572982573,3886.5401207937875,0.16129596177379008,0.5287570654390773,0.2433424625604569,1195.6043956043954,-1.0,58.89464697600575,0.2572371989088579,
2023-08-21 17:18:45.809000,-8.301204819277109,-3.421686746987952,-4.024096385542169,-3.4114040465971796,-8.128142244022072,-3.573267933782955,3.0,0.2572982572982573,3886.5401207937875,0.2342520832119343,0.08088106753685671,0.19346191946856214,1195.6043956043954,-1.0,58.89464697600575,0.2572368936654086,
2023-08-21 17:18:45.816000,-8.289156626506024,-3.421686746987952,-4.0120481927710845,-3.438381361128142,-8.155119558553034,-3.5904353157572038,3.0,0.2572982572982573,3886.5401207937875,0.0949828098595657,0.14008507662723618,0.5577763533593612,1204.3956043956043,-1.0,58.89464697600575,0.25723659591919434,
2023-08-21 17:18:45.824000,-8.27710843373494,-3.421686746987952,-4.0,-3.42611894543225,-8.091354996934395,-3.5708154506437766,3.0,0.2572982572982573,3886.5401207937875,0.17050288444729353,0.015616805547461593,0.35440825126740844,1217.5824175824175,-1.0,58.89464697600575,0.25723630643000256,
2023-08-21 17:18:45.832000,-8.289156626506024,-3.433734939759036,-4.0120481927710845,-3.42611894543225,-8.093807480073574,-3.607602697731453,3.0,0.2572982572982573,3886.5401207937875,0.4575490938756474,0.3502126915680905,0.3806304993881474,1230.7692307692307,-1.0,58.89464697600575,0.25723602597636946,
2023-08-21 17:18:45.839000,-8.301204819277109,-3.4096385542168677,-3.987951807228916,-3.42611894543225,-8.155119558553034,-3.526670754138565,3.0,0.2572982572982573,3886.5401207937875,0.22283083736378978,0.2546471650836206,0.4356389487792085,1246.153846153846,-1.0,58.89464697600575,0.25723575535515875,
2023-08-21 17:18:45.847000,-8.289156626506024,-3.421686746987952,-3.987951807228916,-3.404046597179644,-8.071735131820969,-3.602697731453096,3.0,0.2568542568542569,3893.2584269662916,0.4794592389720881,0.5087116135423335,0.6155818425499676,1258.6080586080586,-1.0,58.89464697600575,0.2572354953809889,
2023-08-21 17:18:45.855000,-8.289156626506024,-3.421686746987952,-3.987951807228916,-3.4236664622930717,-8.096259963212752,-3.526670754138565,3.0,0.2568542568542569,3893.2584269662916,0.2615232212575021,0.198007109142823,0.4412330283782999,1258.6080586080586,-1.0,58.89464697600575,0.25723524673620934,
2023-08-21 17:18:45.862000,-8.27710843373494,-3.433734939759036,-3.9759036144578315,-3.4530962599632127,-8.140404659717964,-3.614960147148988,3.0,0.2572982572982573,3886.5401207937875,0.3964803915855711,0.3160654973486394,0.00967309597342765,1279.8534798534797,-1.0,58.89464697600575,0.257235010086881,
2023-08-21 17:18:45.870000,-8.27710843373494,-3.4457831325301207,-4.0120481927710845,-3.4163090128755362,-8.167381974248926,-3.56591048436542,3.0,0.2572982572982573,3886.5401207937875,0.13111124060369442,0.09801293630907265,0.23634986306159328,1287.9120879120878,-1.0,58.89464697600575,0.2572347863476847,
2023-08-21 17:18:45.878000,-8.301204819277109,-3.433734939759036,-4.0,-3.413856529736358,-8.088902513795217,-3.5119558553034946,3.0,0.2572982572982573,3886.5401207937875,0.18903327311928123,0.5538138803100058,0.20127032224229335,1294.5054945054944,-1.0,58.89464697600575,0.2572345764139411,
2023-08-21 17:18:45.885000,-8.27710843373494,-3.4457831325301207,-4.0120481927710845,-3.435928877988964,-8.133047210300429,-3.6100551808706314,3.0,0.2568542568542569,3893.2584269662916,6.992599498867545E-4,0.05792203251558681,0.12178777460521016,1301.098901098901,-1.0,58.89464697600575,0.2572343811813098,
2023-08-21 17:18:45.893000,-8.301204819277109,-3.433734939759036,-4.0,-3.435928877988964,-8.110974862047822,-3.548743102391171,3.0,0.2568542568542569,3893.2584269662916,0.183206106870229,-0.037060777343977155,-0.05232795291649711,1305.4945054945053,-1.0,58.89464697600575,0.257234201384319,
2023-08-21 17:18:45.901000,-8.289156626506024,-3.4096385542168677,-4.0,-3.4114040465971796,-8.110974862047822,-3.5095033721643163,3.0,0.2572982572982573,3886.5401207937875,-0.21595478118990652,-0.10115960608356218,0.2509177786842265,1303.2967032967033,-1.0,58.89464697600575,0.2572340374443788,
2023-08-21 17:18:45.908000,-8.27710843373494,-3.433734939759036,-4.0,-3.4506437768240343,-8.103617412630287,-3.5683629675045982,3.0,0.2572982572982573,3886.5401207937875,-0.21455626129013475,-0.10430627585804997,0.24777110890973736,1298.168498168498,-1.0,58.89464697600575,0.25723388990258816,
2023-08-21 17:18:45.916000,-8.265060240963855,-3.433734939759036,-4.048192771084338,-3.3893316983445736,-8.066830165542612,-3.573267933782955,3.0,0.2572982572982573,3886.5401207937875,0.0017481498747160184,0.1851873433949067,0.2295903502126913,1288.6446886446886,-1.0,58.89464697600575,0.2572337594367591,
2023-08-21 17:18:45.924000,-8.27710843373494,-3.4457831325301207,-4.0,-3.3893316983445736,-8.120784794604537,-3.5928877988963825,3.0,0.2572982572982573,3886.5401207937875,-0.27189557718081736,-0.20068760561738744,0.5766563720062932,1274.7252747252746,-1.0,58.89464697600575,0.25723364671920584,
2023-08-21 17:18:45.931000,-8.27710843373494,-3.433734939759036,-4.0,-3.421213979153893,-8.113427345187002,-3.5536480686695278,3.0,0.2572982572982573,3886.5401207937875,0.021793601771458074,-0.12679913757939482,-0.056989685915739684,1257.8754578754579,-1.0,58.89464697600575,0.25723355241319457,
2023-08-21 17:18:45.939000,-8.265060240963855,-3.421686746987952,-4.0120481927710845,-3.421213979153893,-8.108522378908644,-3.5683629675045982,3.0,0.2572982572982573,3886.5401207937875,0.11328011188159173,0.3155993240487144,0.248237282209662,1239.5604395604396,-1.0,58.89464697600575,0.2572334771693262,
2023-08-21 17:18:45.947000,-8.265060240963855,-3.4096385542168677,-4.0,-3.4408338442673205,-8.164929491109747,-3.5928877988963825,3.0,0.2572982572982573,3886.5401207937875,-0.22551133383835423,-0.009323465998484274,0.2287745469378237,1220.5128205128203,-1.0,58.89464697600575,0.2572334217606215,
2023-08-21 17:18:45.954000,-8.265060240963855,-3.4096385542168677,-4.0,-3.391784181483752,-8.13059472716125,-3.5683629675045982,3.0,0.2572982572982573,3886.5401207937875,0.005011362974186382,-0.14905891265077795,0.28646349280344974,1220.5128205128203,-1.0,58.89464697600575,0.257233387058454,
2023-08-21 17:18:45.962000,-8.27710843373494,-3.421686746987952,-4.0,-3.4310239117106067,-8.093807480073574,-3.5830778663396687,3.0,0.2572982572982573,3886.5401207937875,-0.04207214031816354,0.047433133267292434,0.38960433541168915,1195.6043956043954,-1.0,58.89464697600575,0.25723337374211647,
2023-08-21 17:18:45.970000,-8.289156626506024,-3.421686746987952,-4.0,-3.4776210913549965,-8.093807480073574,-3.5634580012262416,3.0,0.2572982572982573,3886.5401207937875,0.4007924946098707,0.4429811782530151,0.01969582192179955,1189.7435897435896,-1.0,58.89464697600575,0.2572333824553817,
2023-08-21 17:18:45.977000,-8.301204819277109,-3.4096385542168677,-3.9759036144578315,-3.354996934396076,-8.108522378908644,-3.6223175965665235,3.0,0.2572982572982573,3886.5401207937875,0.16712312802284232,0.039624730493560766,0.29054250917778723,1183.150183150183,-1.0,58.89464697600575,0.257233413792645,
2023-08-21 17:18:45.985000,-8.301204819277109,-3.421686746987952,-4.0361445783132535,-3.4506437768240343,-8.120784794604537,-3.5511955855303494,3.0,0.2568542568542569,3893.2584269662916,0.026804964745644456,0.573160072256861,0.1336751937532776,1180.2197802197802,-1.0,58.89464697600575,0.2572334681673555,
2023-08-21 17:18:45.992000,-8.27710843373494,-3.421686746987952,-4.024096385542169,-3.438381361128142,-8.155119558553034,-3.578172900061312,3.0,0.2572982572982573,3886.5401207937875,0.37608530971388654,0.6261872851232441,0.3580210943418213,1176.5567765567764,-1.0,58.89464697600575,0.2572335458079577,
2023-08-21 17:18:46,-8.289156626506024,-3.4096385542168677,-4.0120481927710845,-3.4187614960147146,-8.182096873083998,-3.5413856529736356,3.0,0.2572982572982573,3886.5401207937875,0.30872326787483284,0.24975234543441507,-0.043936833517860395,1172.161172161172,-1.0,58.89464697600575,0.2572336468813765,
2023-08-21 17:18:46.008000,-8.301204819277109,-3.4096385542168677,-4.0,-3.396689147762109,-8.167381974248926,-3.6394849785407724,3.0,0.2568542568542569,3893.2584269662916,-0.016432608822329185,-0.016432608822329185,0.030534351145038167,1169.230769230769,-1.0,58.89464697600575,0.25723377164816974,
2023-08-21 17:18:46.015000,-8.289156626506024,-3.421686746987952,-4.0,-3.4285714285714284,-8.142857142857142,-3.5708154506437766,3.0,0.2572982572982573,3886.5401207937875,0.01200396247304872,0.008857292698560929,0.2704970572810443,1169.9633699633698,-1.0,58.89464697600575,0.25723392017069674,
2023-08-21 17:18:46.023000,-8.27710843373494,-3.421686746987952,-4.0,-3.396689147762109,-8.110974862047822,-3.5536480686695278,3.0,0.2572982572982573,3886.5401207937875,-0.05197832294155373,-0.1596643552240549,0.11351319853155428,1170.6959706959706,-1.0,58.89464697600575,0.257234092436962,
2023-08-21 17:18:46.031000,-8.301204819277109,-3.433734939759036,-4.0,-3.3868792152053953,-8.157572041692212,-3.578172900061312,3.0,0.2572982572982573,3886.5401207937875,-0.16094633179884585,-0.22178194743896051,0.4162927568323519,1173.6263736263736,-1.0,58.89464697600575,0.257234288516222,
2023-08-21 17:18:46.038000,-8.27710843373494,-3.4096385542168677,-4.0,-3.396689147762109,-8.123237277743716,-3.543838136112814,3.0,0.2568542568542569,3893.2584269662916,-0.03752695064390224,-0.11514480508128859,0.21269156809043746,1174.3589743589744,-1.0,58.89464697600575,0.25723450841699,
2023-08-21 17:18:46.046000,-8.27710843373494,-3.433734939759036,-4.0,-3.4064990803188224,-8.106069895769465,-3.585530349478847,3.0,0.2572982572982573,3886.5401207937875,-0.0844939106112696,-0.14521298292640342,0.08600897383602307,1173.6263736263736,-1.0,58.89464697600575,0.25723475207355023,
2023-08-21 17:18:46.054000,-8.27710843373494,-3.433734939759036,-4.0,-3.465358675659105,-8.108522378908644,-3.5683629675045982,3.0,0.2572982572982573,3886.5401207937875,-0.11537789173125026,0.2481207388846799,0.22166540411397923,1173.6263736263736,-1.0,58.89464697600575,0.25723501931163517,
2023-08-21 17:18:46.061000,-8.27710843373494,-3.433734939759036,-4.0120481927710845,-3.362354383813611,-8.093807480073574,-3.573267933782955,3.0,0.2572982572982573,3886.5401207937875,-0.008740749373580091,0.21490589126507728,0.15605151214964116,1172.161172161172,-1.0,58.89464697600575,0.25723530987749144,
2023-08-21 17:18:46.069000,-8.265060240963855,-3.421686746987952,-4.0,-3.443286327406499,-8.120784794604537,-3.5708154506437766,3.0,0.2572982572982573,3886.5401207937875,-0.25359827515878963,0.02960200454518974,0.001631606549734748,1171.4285714285713,-1.0,58.89464697600575,0.2572356234461594,
2023-08-21 17:18:46.077000,-8.265060240963855,-3.421686746987952,-4.0,-3.4015941140404657,-8.13059472716125,-3.5928877988963825,3.0,0.2572982572982573,3886.5401207937875,0.010721985898257782,-3.496299749425094E-4,0.19287920284365664,1171.4285714285713,-1.0,58.89464697600575,0.25723595961961077,
2023-08-21 17:18:46.084000,-8.27710843373494,-3.4096385542168677,-4.0,-3.433476394849785,-8.054567749846719,-3.5806253832004904,3.0,0.2572982572982573,3886.5401207937875,0.05465881941611818,0.19812365246780558,0.17749548394615672,1172.8937728937728,-1.0,58.89464697600575,0.257236317786563,
2023-08-21 17:18:46.092000,-8.313253012048193,-3.433734939759036,-4.0120481927710845,-3.367259350091968,-8.09871244635193,-3.5830778663396687,3.0,0.2572982572982573,3886.5401207937875,0.2813355865042825,0.2428762892605318,-0.03880892721869361,1173.6263736263736,-1.0,58.89464697600575,0.25723669728061666,
2023-08-21 17:18:46.100000,-8.27710843373494,-3.421686746987952,-4.0120481927710845,-3.3991416309012874,-8.169834457388106,-3.5536480686695278,3.0,0.2572982572982573,3886.5401207937875,0.49099702814521345,0.22621059378824096,0.14346483305168653,1174.3589743589744,-1.0,58.89464697600575,0.25723709750733514,
2023-08-21 17:18:46.107000,-8.265060240963855,-3.421686746987952,-4.024096385542169,-3.396689147762109,-8.106069895769465,-3.5536480686695278,3.0,0.2572982572982573,3886.5401207937875,0.28692966610337306,0.4378532719538496,-0.04405337684284123,1180.952380952381,-1.0,58.89464697600575,0.25723751779508963,
2023-08-21 17:18:46.115000,-8.313253012048193,-3.4457831325301207,-4.0,-3.5119558553034946,-8.174739423666463,-3.5462906192519923,3.0,0.2568542568542569,3893.2584269662916,-0.23471825651185765,0.8916729794301033,0.16712312802284232,1186.8131868131868,-1.0,58.89464697600575,0.2572379573956802,
2023-08-21 17:18:46.123000,-8.313253012048193,-3.4457831325301207,-4.0361445783132535,-3.408951563458001,-8.076640098099325,-3.548743102391171,3.0,0.2572982572982573,3886.5401207937875,-0.1548860788998302,0.18169104364547464,0.05559116601596661,1192.6739926739926,-1.0,58.89464697600575,0.2572384153361503,
2023-08-21 17:18:46.130000,-8.289156626506024,-3.4457831325301207,-4.0,-3.47271612507664,-8.128142244022072,-3.5683629675045982,3.0,0.2572982572982573,3886.5401207937875,0.04848202319212169,-0.2481207388846799,0.09451663655964149,1197.069597069597,-1.0,58.89464697600575,0.2572388905478032,
2023-08-21 17:18:46.138000,-8.27710843373494,-3.433734939759036,-4.024096385542169,-3.4506437768240343,-8.14530962599632,-3.573267933782955,3.0,0.2572982572982573,3886.5401207937875,0.16560806479808798,0.16863819124759666,0.3097721577996621,1202.197802197802,-1.0,58.89464697600575,0.2572393820272253,
2023-08-21 17:18:46.146000,-8.27710843373494,-3.433734939759036,-4.0120481927710845,-3.4310239117106067,-8.133047210300429,-3.56591048436542,3.0,0.2572982572982573,3886.5401207937875,0.18005943709573946,0.05815511916555022,0.10721985898257652,1206.5934065934066,-1.0,58.89464697600575,0.2572398886999218,
2023-08-21 17:18:46.153000,-8.27710843373494,-3.433734939759036,-4.0120481927710845,-3.433476394849785,-8.103617412630287,-3.595340282035561,3.0,0.2572982572982573,3886.5401207937875,-0.0048948196492038095,0.061068702290076333,0.190548336344036,1206.5934065934066,-1.0,58.89464697600575,0.25724040942318355,
2023-08-21 17:18:46.161000,-8.289156626506024,-3.4457831325301207,-4.024096385542169,-3.443286327406499,-8.108522378908644,-3.561005518087063,3.0,0.2572982572982573,3886.5401207937875,0.14731076277606195,-0.2453236990851346,0.053143756191364265,1213.9194139194137,-1.0,58.89464697600575,0.2572409429894313,
2023-08-21 17:18:46.169000,-8.120481927710843,-3.325301204819277,-3.9759036144578315,-3.2397302268546904,-7.841201716738197,-3.531575720416922,3.0,0.2572982572982573,3886.5401207937875,-0.34473515529398074,0.9912009789639303,0.5842316881300622,1216.117216117216,-1.0,58.89464697600575,0.2572414881300214,
2023-08-21 17:18:46.176000,-8.397590361445783,-3.4819277108433737,-4.0361445783132535,-3.4776210913549965,-8.199264255058246,-3.637032495401594,3.0,0.2572982572982573,3886.5401207937875,0.27096323058096894,-0.8456383660625844,0.2816852164792259,1216.8498168498168,-1.0,58.89464697600575,0.25724204351950036,
2023-08-21 17:18:46.184000,-8.289156626506024,-3.4457831325301207,-4.0361445783132535,-3.435928877988964,-8.044757817290005,-3.5757204169221333,3.0,0.2572982572982573,3886.5401207937875,0.2681661907814237,-0.8389953965386628,0.2834333663539419,1218.3150183150183,-1.0,58.89464697600575,0.2572426077802891,
2023-08-21 17:18:46.192000,-8.301204819277109,-3.433734939759036,-3.987951807228916,-3.413856529736358,-8.135499693439607,-3.5683629675045982,3.0,0.2568542568542569,3893.2584269662916,0.02086125517160965,0.25091777868422516,-0.10488899248295545,1217.5824175824175,-1.0,58.89464697600575,0.2572431794877754,
2023-08-21 17:18:46.199000,-8.301204819277109,-3.4457831325301207,-4.0120481927710845,-3.4481912936848556,-8.118332311465359,-3.6100551808706314,3.0,0.2572982572982573,3886.5401207937875,0.231455043412389,0.3535924479925417,0.07645242118757668,1218.3150183150183,-1.0,58.89464697600575,0.25724375702649765,
2023-08-21 17:18:46.207000,-8.313253012048193,-3.4457831325301207,-4.024096385542169,-3.433476394849785,-8.086450030656039,-3.6002452483139176,3.0,0.2568542568542569,3893.2584269662916,0.07540353126274699,0.4405337684284141,0.21210885146553243,1219.7802197802198,-1.0,58.89464697600575,0.2572443387233994,
2023-08-21 17:18:46.215000,-8.301204819277109,-3.4457831325301207,-4.0120481927710845,-3.438381361128142,-8.152667075413856,-3.5683629675045982,3.0,0.2568542568542569,3893.2584269662916,-0.06363265543965994,0.14404754967659159,0.37620185303886733,1219.047619047619,-1.0,58.89464697600575,0.25724492300238727,
2023-08-21 17:18:46.222000,-8.265060240963855,-3.4457831325301207,-4.024096385542169,-3.4604537093807477,-8.108522378908644,-3.5536480686695278,3.0,0.2572982572982573,3886.5401207937875,0.12120505798030425,0.4161762135073706,0.24555678573509715,1216.8498168498168,-1.0,58.89464697600575,0.2572455080708562,
2023-08-21 17:18:46.230000,-8.216867469879519,-3.421686746987952,-4.024096385542169,-3.4064990803188224,-8.06928264868179,-3.607602697731453,3.0,0.2572982572982573,3886.5401207937875,-0.3244566167472753,0.20371773206689614,0.0788998310121786,1213.1868131868132,-1.0,58.89464697600575,0.25724609208498267,
2023-08-21 17:18:46.238000,-8.325301204819278,-3.5060240963855422,-4.048192771084338,-3.624770079705702,-8.292458614347026,-3.6296750459840585,3.0,0.2572982572982573,3886.5401207937875,-0.41501078025756055,0.7155760153837192,-0.10920109550725465,1207.3260073260074,-1.0,58.89464697600575,0.25724667332561724,
2023-08-21 17:18:46.245000,-8.27710843373494,-3.4457831325301207,-4.0602409638554215,-3.455548743102391,-8.113427345187002,-3.5683629675045982,3.0,0.2572982572982573,3886.5401207937875,-0.10791911893246285,-1.0608938873026041,0.3795816094633177,1200.0,-1.0,58.89464697600575,0.25724725006597343,
2023-08-21 17:18:46.253000,-8.27710843373494,-3.4457831325301207,-4.0602409638554215,-3.433476394849785,-8.09871244635193,-3.6419374616799507,3.0,0.2572982572982573,3886.5401207937875,-0.7955247363207275,-0.29112522580269184,0.16024707184895995,1200.0,-1.0,58.89464697600575,0.25724782057825696,
2023-08-21 17:18:46.261000,-8.27710843373494,-3.4698795180722892,-4.0843373493975905,-3.497240956468424,-8.110974862047822,-3.683629675045984,3.0,0.2572982572982573,3886.5401207937875,-0.9565876114445542,-0.09370083328477302,0.12644950760445187,1189.7435897435896,-1.0,58.89464697600575,0.257248383140454,
2023-08-21 17:18:46.268000,-8.204819277108435,-3.4096385542168677,-4.0602409638554215,-3.367259350091968,-7.9442060085836905,-3.644389944819129,3.0,0.2572982572982573,3886.5401207937875,-1.8005943709574035,-0.2894936192529567,0.03706077734397759,1185.3479853479853,-1.0,58.89464697600575,0.25724893604324445,
2023-08-21 17:18:46.276000,-8.325301204819278,-3.4698795180722892,-4.120481927710844,-3.438381361128142,-8.16002452483139,-3.7007970570202326,3.0,0.2568542568542569,3893.2584269662916,-1.9842666511275557,1.2108851465532307,-0.3686265369150982,1184.6153846153845,-1.0,58.89464697600575,0.25724947759700706,
2023-08-21 17:18:46.284000,-8.27710843373494,-3.457831325301205,-4.120481927710844,-3.4800735744941753,-8.096259963212752,-3.7007970570202326,3.0,0.2572982572982573,3886.5401207937875,-2.2604743313326727,1.1220791329176614,-0.5351669483130355,1184.6153846153845,-1.0,58.89464697600575,0.25725000598958864,
2023-08-21 17:18:46.291000,-8.265060240963855,-3.4698795180722892,-4.132530120481928,-3.47271612507664,-8.017780502759043,-3.7326793378295524,3.0,0.2572982572982573,3886.5401207937875,-2.213857001340248,1.8748324689703404,-1.098071207971563,1189.7435897435896,-1.0,58.89464697600575,0.25725051942080246,
2023-08-21 17:18:46.299000,-8.240963855421688,-3.493975903614458,-4.132530120481928,-3.4996934396076025,-8.044757817290005,-3.7057020232985898,3.0,0.2572982572982573,3886.5401207937875,-3.2854728745411097,2.123069751180001,-1.3815045743255059,1197.8021978021977,-1.0,58.89464697600575,0.25725101626843344,
2023-08-21 17:18:46.307000,-8.228915662650603,-3.5060240963855422,-4.132530120481928,-3.5095033721643163,-8.074187614960147,-3.708154506437768,3.0,0.2572982572982573,3886.5401207937875,-3.504457782180525,1.5359244799254117,-1.89243051104248,1207.3260073260074,-1.0,58.89464697600575,0.257251495095066,
2023-08-21 17:18:46.314000,-8.228915662650603,-3.493975903614458,-4.132530120481928,-3.4898835070508887,-8.05211526670754,-3.67381974248927,3.0,0.2572982572982573,3886.5401207937875,-3.7840452188100917,1.277781015092361,-1.8341588485519493,1219.7802197802198,-1.0,58.89464697600575,0.2572519544957023,
2023-08-21 17:18:46.322000,-8.27710843373494,-3.5421686746987953,-4.0843373493975905,-3.5291232372777435,-8.118332311465359,-3.6909871244635193,3.0,0.2572982572982573,3886.5401207937875,-3.7714585397121385,0.7279296078317122,-2.464774780024474,1235.164835164835,-1.0,58.89464697600575,0.25725239297678,
2023-08-21 17:18:46.330000,-8.25301204819277,-3.5421686746987953,-4.096385542168675,-3.531575720416922,-8.012875536480687,-3.654199877375843,3.0,0.2572982572982573,3886.5401207937875,-4.459530330400325,0.33785909912009754,-2.264436804382029,1251.2820512820513,-1.0,58.89464697600575,0.257252809111749,
2023-08-21 17:18:46.337000,-8.289156626506024,-3.5060240963855422,-4.096385542168675,-3.524218270999387,-8.054567749846719,-3.656652360515021,3.0,0.2572982572982573,3886.5401207937875,-4.51698618961599,-0.18845055649437706,-2.999009381737661,1268.131868131868,-1.0,58.89464697600575,0.2572532015471708,
2023-08-21 17:18:46.345000,-8.25301204819277,-3.493975903614458,-4.0361445783132535,-3.5291232372777435,-8.044757817290005,-3.6002452483139176,3.0,0.2568542568542569,3893.2584269662916,-4.848318862537148,0.1741157275217064,-3.116718139968533,1287.179487179487,-1.0,58.89464697600575,0.2572535691473491,
2023-08-21 17:18:46.353000,-8.25301204819277,-3.493975903614458,-4.0361445783132535,-3.467811158798283,-7.954015941140404,-3.619865113427345,3.0,0.2568542568542569,3893.2584269662916,-5.5428005360992945,-0.7012411864110486,-3.6137754210127615,1287.179487179487,-1.0,58.89464697600575,0.25725391083029314,
2023-08-21 17:18:46.360000,-8.204819277108435,-3.457831325301205,-4.0,-3.4996934396076025,-8.025137952176578,-3.526670754138565,3.0,0.2572982572982573,3886.5401207937875,-5.654565584756132,-0.7455276499038515,-4.517568906240895,1328.937728937729,-1.0,58.89464697600575,0.2572542252644597,
2023-08-21 17:18:46.368000,-8.168674698795181,-3.4819277108433737,-4.0120481927710845,-3.4285714285714284,-8.061925199264255,-3.536480686695279,3.0,0.2572982572982573,3886.5401207937875,-6.143115203076743,-1.0508711613542332,-5.357263562729444,1353.113553113553,-1.0,58.89464697600575,0.25725451118164705,
2023-08-21 17:18:46.375000,-8.156626506024097,-3.421686746987952,-3.9759036144578315,-3.421213979153893,-7.956468424279582,-3.5536480686695278,3.0,0.2572982572982573,3886.5401207937875,-6.204183905366819,-2.150107802575607,-5.204591807004253,1373.6263736263736,1049.407958984375,57.17509523948004,0.25725476755062227,
2023-08-21 17:18:46.383000,-8.180722891566266,-3.4457831325301207,-3.987951807228916,-3.475168608215818,-7.9442060085836905,-3.4996934396076025,3.0,0.2572982572982573,3886.5401207937875,-6.891206806130178,-2.7607948254763706,-5.4183322650195205,1394.8717948717947,-1.0,57.17509523948004,0.2572549934419859,
2023-08-21 17:18:46.391000,-8.108433734939759,-3.385542168674699,-3.91566265060241,-3.4015941140404657,-7.88289393010423,-3.514408338442673,3.0,0.2572982572982573,3886.5401207937875,-7.013344210710331,-3.4783520773847676,-5.235126158149291,1414.6520146520145,-1.0,57.17509523948004,0.2572551880314329,
2023-08-21 17:18:46.398000,-8.180722891566266,-3.4819277108433737,-3.91566265060241,-3.4580012262415694,-8.05211526670754,-3.4285714285714284,3.0,0.2572982572982573,3886.5401207937875,-6.998077035137811,-2.5775887186061417,-5.58627119631723,1429.3040293040292,-1.0,57.17509523948004,0.2572553506026455,
2023-08-21 17:18:46.406000,-8.228915662650603,-3.5060240963855422,-3.91566265060241,-3.543838136112814,-8.06928264868179,-3.4923359901900675,3.0,0.2572982572982573,3886.5401207937875,-6.8606724549851394,-3.2798787949420194,-5.403065089447002,1440.2930402930401,-1.0,57.17509523948004,0.25725548054980596,
2023-08-21 17:18:46.414000,-8.228915662650603,-3.4698795180722892,-3.8674698795180724,-3.5413856529736356,-8.012875536480687,-3.408951563458001,3.0,0.2572982572982573,3886.5401207937875,-6.845405279412621,-3.4478177262397294,-5.448866616164558,1447.6190476190475,-1.0,57.17509523948004,0.2572555773797202,
2023-08-21 17:18:46.421000,-8.27710843373494,-3.5180722891566267,-3.855421686746988,-3.4800735744941753,-8.19435928877989,-3.4310239117106067,3.0,0.2572982572982573,3886.5401207937875,-6.69273352368743,-3.050871161354233,-4.822912417691276,1453.4798534798533,-1.0,57.17509523948004,0.2572556407135423,
2023-08-21 17:18:46.429000,-8.313253012048193,-3.530120481927711,-3.8674698795180724,-3.5462906192519923,-8.22624156958921,-3.396689147762109,3.0,0.2572982572982573,3886.5401207937875,-6.005710622924071,-2.8523978789114848,-4.319095623798146,1456.4102564102564,-1.0,57.17509523948004,0.2572556702880937,
2023-08-21 17:18:46.437000,-8.397590361445783,-3.5783132530120483,-3.879518072289157,-3.578172900061312,-8.250766400980993,-3.4800735744941753,3.0,0.2572982572982573,3886.5401207937875,-5.440825126740865,-3.8752986422702635,-3.036652875706544,1456.4102564102564,-1.0,57.17509523948004,0.2572556660955213,
2023-08-21 17:18:46.444000,-8.361445783132531,-3.5783132530120483,-3.855421686746988,-3.5683629675045982,-8.184549356223176,-3.438381361128142,3.0,0.2572982572982573,3886.5401207937875,-5.059145737427888,-3.1272070392168283,-2.6702406619660857,1455.6776556776556,-1.0,57.17509523948004,0.25725562822466164,
2023-08-21 17:18:46.452000,-8.361445783132531,-3.5783132530120483,-3.855421686746988,-3.573267933782955,-8.187001839362354,-3.3721643163703248,3.0,0.2572982572982573,3886.5401207937875,-4.112580851931705,-1.5241536041023247,-1.8916147077676124,1455.6776556776556,-1.0,57.17509523948004,0.2572555567335075,
2023-08-21 17:18:46.460000,-8.337349397590362,-3.5662650602409642,-3.855421686746988,-3.5806253832004904,-8.263028816676885,-3.384426732066217,3.0,0.2572982572982573,3886.5401207937875,-4.112580851931705,-1.5241536041023247,-1.8916147077676124,1454.9450549450548,-1.0,57.17509523948004,0.2572554517979663,
2023-08-21 17:18:46.467000,-8.361445783132531,-3.5542168674698797,-3.9036144578313254,-3.5536480686695278,-8.169834457388106,-3.408951563458001,3.0,0.2572982572982573,3886.5401207937875,-4.341588485519491,0.04836547986714086,-1.7847444787599789,1457.142857142857,-1.0,57.17509523948004,0.25725531371091326,
2023-08-21 17:18:46.475000,-8.313253012048193,-3.5662650602409642,-3.9397590361445785,-3.56591048436542,-8.152667075413856,-3.5291232372777435,3.0,0.2572982572982573,3886.5401207937875,-3.8835732183439187,-0.2722452071557599,-1.4030650894470018,1462.2710622710622,-1.0,57.17509523948004,0.2572551428808367,
2023-08-21 17:18:46.483000,-8.265060240963855,-3.5180722891566267,-3.927710843373494,-3.548743102391171,-8.128142244022072,-3.524218270999387,3.0,0.2572982572982573,3886.5401207937875,-3.776702989336285,0.5521822737602706,-1.250393333721811,1476.923076923077,-1.0,57.17509523948004,0.2572549398300852,
2023-08-21 17:18:46.490000,-8.349397590361447,-3.5783132530120483,-3.9759036144578315,-3.548743102391171,-8.167381974248926,-3.531575720416922,3.0,0.2572982572982573,3886.5401207937875,-4.555328943534758,0.6743196783404233,-1.0061185245615056,1506.9597069597069,-1.0,57.17509523948004,0.2572547051927241,
2023-08-21 17:18:46.498000,-8.313253012048193,-3.5542168674698797,-3.9759036144578315,-3.5340282035561,-8.128142244022072,-3.548743102391171,3.0,0.2568542568542569,3893.2584269662916,-4.921741157275216,-0.5012528407435461,-1.3114620360118872,1550.9157509157508,-1.0,57.17509523948004,0.2572544397120146,
2023-08-21 17:18:46.506000,-8.27710843373494,-3.5180722891566267,-3.963855421686747,-3.514408338442673,-8.11587982832618,-3.5413856529736356,3.0,0.2568542568542569,3893.2584269662916,-5.257619019870636,-0.5775887186061416,-1.4946681428821162,1610.989010989011,-1.0,57.17509523948004,0.25725414422698195,
2023-08-21 17:18:46.513000,-8.289156626506024,-3.5180722891566267,-3.951807228915663,-3.504598405885959,-8.128142244022072,-3.5389331698344573,3.0,0.2572982572982573,3886.5401207937875,-5.5171610046034605,-0.9745352834916378,-1.418332265019521,1686.4468864468863,-1.0,57.17509523948004,0.2572538196269212,
2023-08-21 17:18:46.521000,-8.27710843373494,-3.5180722891566267,-3.987951807228916,-3.507050889025138,-8.184549356223176,-3.5340282035561,3.0,0.2572982572982573,3886.5401207937875,-6.143115203076743,-1.0966726880717903,-1.9832177612027269,1776.5567765567764,-1.0,57.17509523948004,0.2572534668474357,
2023-08-21 17:18:46.529000,-8.27710843373494,-3.5060240963855422,-3.987951807228916,-3.5462906192519923,-8.061925199264255,-3.5291232372777435,3.0,0.2572982572982573,3886.5401207937875,-6.967542683992773,-1.5088864285298056,-1.6473398986073071,1876.923076923077,-1.0,57.17509523948004,0.2572530869080297,
2023-08-21 17:18:46.536000,-8.25301204819277,-3.493975903614458,-3.987951807228916,-3.4530962599632127,-8.057020232985899,-3.5757204169221333,3.0,0.2572982572982573,3886.5401207937875,-7.227084668725598,-2.363848260590874,-2.0442864634928033,1981.6849816849815,-1.0,57.17509523948004,0.25725268091770226,
2023-08-21 17:18:46.544000,-8.240963855421688,-3.493975903614458,-4.024096385542169,-3.455548743102391,-8.032495401594113,-3.5879828326180254,3.0,0.2572982572982573,3886.5401207937875,-7.639298409183613,-2.7302604743313323,-2.563370432958452,2081.3186813186812,-1.0,57.17509523948004,0.25725225006973756,
2023-08-21 17:18:46.552000,-8.240963855421688,-3.493975903614458,-4.024096385542169,-3.4530962599632127,-8.044757817290005,-3.6051502145922747,3.0,0.2572982572982573,3886.5401207937875,-7.883573218343918,-3.8294971155527064,-2.899248295553872,2081.3186813186812,-1.0,57.17509523948004,0.257251795636264,
2023-08-21 17:18:46.559000,-8.168674698795181,-3.4457831325301207,-4.024096385542169,-3.443286327406499,-7.934396076026977,-3.5830778663396687,3.0,0.2572982572982573,3886.5401207937875,-8.03624497406911,-4.089039100285531,-3.3572635627294445,2245.421245421245,-1.0,57.17509523948004,0.2572513189626141,
2023-08-21 17:18:46.567000,-8.180722891566266,-3.4457831325301207,-4.024096385542169,-3.433476394849785,-7.978540772532188,-3.6002452483139176,3.0,0.2572982572982573,3886.5401207937875,-8.280519783229414,-4.531787191888585,-3.7389429520424216,2301.8315018315016,-1.0,57.17509523948004,0.25725082146151285,
2023-08-21 17:18:46.575000,-8.168674698795181,-3.4457831325301207,-4.024096385542169,-3.4825260576333537,-7.949110974862047,-3.6125076640098097,3.0,0.2572982572982573,3886.5401207937875,-8.52479459238972,-5.722626886545073,-4.181691043645475,2337.7289377289376,-1.0,57.17509523948004,0.257250304607125,
2023-08-21 17:18:46.582000,-8.19277108433735,-3.457831325301205,-4.0120481927710845,-3.4506437768240343,-8.057020232985899,-3.5928877988963825,3.0,0.2572982572982573,3886.5401207937875,-8.478993065672162,-5.783695588835149,-4.441233028378299,2356.776556776557,-1.0,57.17509523948004,0.25724976992899445,
2023-08-21 17:18:46.590000,-8.228915662650603,-3.4819277108433737,-4.0120481927710845,-3.531575720416922,-8.054567749846719,-3.5585530349478844,3.0,0.2572982572982573,3886.5401207937875,-8.69273352368743,-6.287512382728279,-4.685507837538604,2355.3113553113553,-1.0,57.17509523948004,0.25724921900590414,
2023-08-21 17:18:46.598000,-8.240963855421688,-3.4698795180722892,-4.0,-3.3868792152053953,-8.047210300429184,-3.543838136112814,3.0,0.2572982572982573,3886.5401207937875,-8.784336577122545,-6.134840627003088,-4.807645242118757,2339.9267399267396,-1.0,57.17509523948004,0.2572486534596846,
2023-08-21 17:18:46.605000,-8.168674698795181,-3.4457831325301207,-3.855421686746988,-3.6689147762109133,-8.24095646842428,-3.391784181483752,3.0,0.2572982572982573,3886.5401207937875,-10.906473981702696,-1.218810092651943,-5.387797913874482,2311.355311355311,-1.0,57.17509523948004,0.257248074949007,
2023-08-21 17:18:46.613000,-8.397590361445783,-3.5903614457831328,-4.0361445783132535,-3.5217657878602084,-8.17964438994482,-3.654199877375843,3.0,0.2572982572982573,3886.5401207937875,-10.082046500786667,-4.165374978148126,-5.097721577996619,2273.9926739926736,-1.0,57.17509523948004,0.25724748516318374,
2023-08-21 17:18:46.621000,-8.325301204819278,-3.5542168674698797,-3.987951807228916,-3.644389944819129,-8.142857142857142,-3.5511955855303494,3.0,0.2572982572982573,3886.5401207937875,-11.36448924887827,-3.050871161354233,-5.6473398986073065,2232.234432234432,-1.0,57.17509523948004,0.25724688581600874,
2023-08-21 17:18:46.628000,-8.349397590361447,-3.5542168674698797,-3.9759036144578315,-3.548743102391171,-8.118332311465359,-3.556100551808706,3.0,0.2572982572982573,3886.5401207937875,-10.799603752695063,-4.470718489598508,-5.723675776469902,2186.813186813187,-1.0,57.17509523948004,0.25724627863966393,
2023-08-21 17:18:46.636000,-8.289156626506024,-3.530120481927711,-3.951807228915663,-3.5634580012262416,-8.125689760882894,-3.548743102391171,3.0,0.2572982572982573,3886.5401207937875,-11.547695355748498,-4.089039100285531,-5.509935318454635,2139.9267399267396,-1.0,57.17509523948004,0.25724566537871957,
2023-08-21 17:18:46.644000,-8.337349397590362,-3.530120481927711,-3.963855421686747,-3.56591048436542,-8.128142244022072,-3.526670754138565,3.0,0.2572982572982573,3886.5401207937875,-11.593496882466056,-4.165374978148126,-5.433599440592039,2090.10989010989,-1.0,57.17509523948004,0.25724504778425267,
2023-08-21 17:18:46.651000,-8.337349397590362,-3.530120481927711,-3.963855421686747,-3.644389944819129,-8.245861434702636,-3.6100551808706314,3.0,0.2572982572982573,3886.5401207937875,-11.578229706893536,-4.333313909445836,-5.097721577996619,2090.10989010989,-1.0,57.17509523948004,0.25724442760810784,
2023-08-21 17:18:46.659000,-8.3855421686747,-3.5542168674698797,-3.9759036144578315,-3.5413856529736356,-8.120784794604537,-3.543838136112814,3.0,0.2572982572982573,3886.5401207937875,-11.471359477885903,-5.310413146087058,-5.616805547462269,1993.4065934065932,-1.0,57.17509523948004,0.2572438067360746,
2023-08-21 17:18:46.667000,-8.325301204819278,-3.5060240963855422,-3.927710843373494,-3.5193133047210297,-8.137952176578786,-3.514408338442673,3.0,0.2572982572982573,3886.5401207937875,-11.303420546588193,-4.623390245323699,-5.448866616164558,1953.8461538461538,-1.0,57.17509523948004,0.25724318716212063,
2023-08-21 17:18:46.674000,-8.301204819277109,-3.5060240963855422,-3.927710843373494,-3.5193133047210297,-8.184549356223176,-3.5683629675045982,3.0,0.2572982572982573,3886.5401207937875,-11.883573218343919,-4.852397878911485,-5.097721577996619,1917.216117216117,-1.0,57.17509523948004,0.2572425706964705,
2023-08-21 17:18:46.682000,-8.27710843373494,-3.4698795180722892,-3.9397590361445785,-3.4996934396076025,-8.164929491109747,-3.548743102391171,3.0,0.2572982572982573,3886.5401207937875,-12.097313676359185,-5.050871161354233,-5.891614707767612,1885.7142857142856,-1.0,57.17509523948004,0.25724195898213204,
2023-08-21 17:18:46.690000,-8.301204819277109,-3.4698795180722892,-3.91566265060241,-3.4776210913549965,-8.152667075413856,-3.443286327406499,3.0,0.2572982572982573,3886.5401207937875,-11.8683060427714,-5.050871161354233,-6.120622341355398,1857.8754578754576,-1.0,57.17509523948004,0.2572413536390812,
2023-08-21 17:18:46.697000,-8.27710843373494,-3.4698795180722892,-3.927710843373494,-3.5340282035561,-8.059472716125077,-3.531575720416922,3.0,0.2572982572982573,3886.5401207937875,-12.356855661092009,-5.447817726239729,-5.92214905891265,1832.234432234432,-1.0,57.17509523948004,0.2572407562594089,
2023-08-21 17:18:46.705000,-8.240963855421688,-3.4819277108433737,-3.9397590361445785,-3.4776210913549965,-8.076640098099325,-3.5291232372777435,3.0,0.2572982572982573,3886.5401207937875,-12.631664821397353,-6.165374978148126,-6.135889516927917,1806.5934065934064,-1.0,57.17509523948004,0.25724016840274416,
2023-08-21 17:18:46.713000,-8.240963855421688,-3.493975903614458,-3.951807228915663,-3.5217657878602084,-8.005518087063152,-3.4800735744941753,3.0,0.2572982572982573,3886.5401207937875,-13.089680088572926,-6.150107802575607,-6.502301730668375,1782.4175824175823,-1.0,57.17509523948004,0.25723959159196363,
