Shimmer_F5D4_Timestamp_FormattedUnix_CAL,Shimmer_F5D4_Accel_LN_X_CAL,Shimmer_F5D4_Accel_LN_Y_CAL,Shimmer_F5D4_Accel_LN_Z_CAL,Shimmer_F5D4_Accel_WR_X_CAL,Shimmer_F5D4_Accel_WR_Y_CAL,Shimmer_F5D4_Accel_WR_Z_CAL,Shimmer_F5D4_GSR_Range_CAL,Shimmer_F5D4_GSR_Skin_Conductance_CAL,Shimmer_F5D4_GSR_Skin_Resistance_CAL,Shimmer_F5D4_Gyro_X_CAL,Shimmer_F5D4_Gyro_Y_CAL,Shimmer_F5D4_Gyro_Z_CAL,Shimmer_F5D4_PPG_A13_CAL,Shimmer_F5D4_PPG_IBI_CAL,Shimmer_F5D4_PPGtoHR_CAL,Shimmer_F5D4_GSR_Skin_Conductance_LPF_CAL,Shimmer_F5D4_GSR_Skin_Resistance_LPF_CAL,
yyyy/mm/dd hh:mm:ss.000,m/(s^2),m/(s^2),m/(s^2),m/(s^2),m/(s^2),m/(s^2),no_units,uS,kOhms,deg/s,deg/s,deg/s,mV,ms,BPM,uS,kOhms,
2023-12-18 15:11:42.888000,-6.795180722891566,-6.096385542168675,-3.734939759036145,-6.121397915389331,-6.548743102391171,-3.283874923359902,2.0,3.0673992673992676,326.0090757105326,-0.06036944234018958,-0.8153371015675079,0.1411339665520659,1200.0,-1.0,97.91235059760956,3.055400911934467,327.3015663239775,
2023-12-18 15:11:42.896000,-6.807228915662651,-6.096385542168675,-3.7590361445783134,-6.214592274678111,-6.585530349478847,-3.2985898221949723,2.0,3.0673992673992676,326.0090757105326,-0.06176796223996309,-0.8042654856943076,0.13938581667734987,1203.6630036630036,-1.0,97.91235059760956,3.055997360372003,327.23736646993063,
2023-12-18 15:11:42.903000,-6.83132530120482,-6.1084337349397595,-3.7469879518072293,-6.153280196198651,-6.619865113427345,-3.2691600245248313,2.0,3.0673992673992676,326.0090757105326,-0.16747275799778483,-0.3830779092127506,-0.10791911893246328,1214.6520146520145,-1.0,97.91235059760956,3.0565842556551024,327.1742156835208,
2023-12-18 15:11:42.911000,-6.795180722891566,-6.096385542168675,-3.7469879518072293,-6.148375229920294,-6.541385652973635,-3.2887798896382585,2.0,3.0659340659340657,326.16487455197137,-0.19579278596818364,-0.3469494784686201,0.06001981236524664,1230.03663003663,-1.0,97.91235059760956,3.057161488496735,327.11212458663067,
2023-12-18 15:11:42.919000,-6.807228915662651,-6.1084337349397595,-3.7590361445783134,-6.160637645616186,-6.509503372164316,-3.261802575107296,2.0,3.0659340659340657,326.16487455197137,-0.026105704795757703,-0.019229648621874467,0.21234193811549454,1249.084249084249,597.47314453125,100.42292368985596,3.0577289509388774,327.05110366742264,
2023-12-18 15:11:42.926000,-6.807228915662651,-6.1084337349397595,-3.7951807228915664,-6.172900061312078,-6.59534028203556,-3.2299202942979766,2.0,3.0659340659340657,326.16487455197137,-0.2552298817085248,-0.016898782122254267,-0.20068760561738833,1271.062271062271,-1.0,100.42292368985596,3.058286536025739,326.9911633196407,
2023-12-18 15:11:42.934000,-6.795180722891566,-6.120481927710844,-3.771084337349398,-6.145922746781116,-6.538933169834457,-3.320662170447578,2.0,3.0659340659340657,326.16487455197137,-0.43459005885437924,0.5028844472932813,0.106054425732766,1293.7728937728937,-1.0,100.42292368985596,3.0588341376880286,326.93231386182885,
2023-12-18 15:11:42.942000,-6.783132530120482,-6.096385542168675,-3.7469879518072293,-6.131207847946045,-6.4996934396076025,-3.3083997547516857,2.0,3.0659340659340657,326.16487455197137,-0.1559349688246612,0.6687255987413327,-0.047899306567216644,1317.216117216117,-1.0,100.42292368985596,3.0593716515765323,326.87456544492886,
2023-12-18 15:11:42.949000,-6.795180722891566,-6.096385542168675,-3.7590361445783134,-6.190067443286327,-6.546290619251992,-3.254445125689761,2.0,3.0659340659340657,326.16487455197137,-0.3054600547753625,0.5130237165666331,0.08892255696055006,1343.5897435897434,-1.0,100.42292368985596,3.0598989754034127,326.81792801597845,
2023-12-18 15:11:42.957000,-6.771084337349398,-6.096385542168675,-3.771084337349398,-6.148375229920294,-6.5364806866952785,-3.3108522378908645,2.0,3.0659340659340657,326.16487455197137,-0.3630324573160068,0.10978381213215971,0.24124468271079752,1367.7655677655678,-1.0,100.42292368985596,3.0604160092829362,326.7624112818742,
2023-12-18 15:11:42.965000,-6.795180722891566,-6.096385542168675,-3.7590361445783134,-6.155732679337829,-6.497240956468424,-3.3648068669527893,2.0,3.0659340659340657,326.16487455197137,-0.3732882699143412,0.5491521473107619,0.026571878095681917,1389.7435897435896,-1.0,100.42292368985596,3.0609226560706486,326.7080246733066,
2023-12-18 15:11:42.972000,-6.795180722891566,-6.096385542168675,-3.771084337349398,-6.175352544451257,-6.5144083384426725,-3.261802575107296,2.0,3.0644688644688642,326.320822376285,-0.21665404113979328,-0.22026688421420615,0.06747858516403492,1414.6520146520145,-1.0,100.42292368985596,3.061418821700033,326.65477730896976,
2023-12-18 15:11:42.980000,-6.771084337349398,-6.096385542168675,-3.7469879518072293,-6.138565297363581,-6.51931330472103,-3.3059472716125073,2.0,3.0644688644688642,326.320822376285,-0.21385700134024802,-0.08309539071149782,-0.02319212167123115,1435.8974358974358,-1.0,100.42292368985596,3.0619044154808948,326.6026779608278,
2023-12-18 15:11:42.988000,-6.807228915662651,-6.1084337349397595,-3.7831325301204823,-6.18516247700797,-6.5070508890251375,-3.2691600245248313,2.0,3.0644688644688642,326.320822376285,-0.10652059903269108,-0.0363615173940904,0.12994580735388347,1455.6776556776556,-1.0,100.42292368985596,3.0623793502886896,326.55173503450965,
2023-12-18 15:11:42.995000,-6.771084337349398,-6.1084337349397595,-3.7951807228915664,-6.180257510729613,-6.541385652973635,-3.254445125689761,2.0,3.0644688644688642,326.320822376285,-0.1210885146553234,-0.0015150632247543454,0.09684750305926212,1470.3296703296703,-1.0,100.42292368985596,3.0628435428518865,326.50195654204424,
2023-12-18 15:11:43.003000,-6.759036144578314,-6.120481927710844,-3.7590361445783134,-6.219497240956468,-6.553648068669528,-3.3108522378908645,2.0,3.0644688644688642,326.320822376285,-0.33179884622108186,-0.31862945049822305,-0.3786492628634693,1481.3186813186812,-1.0,100.42292368985596,3.063296914066624,326.4533500683954,
2023-12-18 15:11:43.011000,-6.771084337349398,-6.120481927710844,-3.771084337349398,-6.256284488044145,-6.5364806866952785,-3.325567136725935,2.0,3.0644688644688642,326.320822376285,-0.08461045393625043,-0.4200221432317469,-0.06992599498863683,1487.9120879120878,-1.0,100.42292368985596,3.0637393893029907,326.4059227388884,
2023-12-18 15:11:43.018000,-6.783132530120482,-6.120481927710844,-3.7590361445783134,-6.187614960147148,-6.526670754138565,-3.350091968117719,2.0,3.0644688644688642,326.320822376285,-0.2971854787017075,-0.5482198007109135,0.05244449624147795,1490.8424908424906,-1.0,100.42292368985596,3.064170898702181,326.3596811876225,
2023-12-18 15:11:43.026000,-6.795180722891566,-6.120481927710844,-3.771084337349398,-6.214592274678111,-6.497240956468424,-3.261802575107296,2.0,3.0630036630036632,326.4769193972734,-0.13973544665229368,-0.18949944641920632,0.11374628518151596,1491.5750915750914,-1.0,100.42292368985596,3.0645913774636493,326.31463152694374,
2023-12-18 15:11:43.034000,-6.783132530120482,-6.1084337349397595,-3.7831325301204823,-6.18516247700797,-6.575720416922134,-3.3525444512568976,2.0,3.0630036630036632,326.4769193972734,-0.02925237457024723,-0.15360410232503927,0.4045218810092653,1489.3772893772893,-1.0,100.42292368985596,3.0650007656289664,326.2707793705452,
2023-12-18 15:11:43.041000,-6.807228915662651,-6.1084337349397595,-3.7951807228915664,-6.212139791538933,-6.590435315757204,-3.2593500919681175,2.0,3.0630036630036632,326.4769193972734,-0.14812656605092953,-0.36244974069110264,0.021560515121496402,1484.9816849816848,-1.0,100.42292368985596,3.0653990087326504,326.2281297615804,
2023-12-18 15:11:43.049000,-6.795180722891566,-6.1084337349397595,-3.7469879518072293,-6.12385039852851,-6.587982832618025,-3.2985898221949723,2.0,3.0615384615384613,326.63316582914575,0.14544606957636508,-0.3854087757123708,-0.08391119398636454,1480.5860805860805,-1.0,100.42292368985596,3.0657860579824976,326.18668715652916,
2023-12-18 15:11:43.057000,-6.783132530120482,-6.120481927710844,-3.7469879518072293,-6.194972409564684,-6.511955855303494,-3.2691600245248313,2.0,3.0630036630036632,326.4769193972734,0.07062525493852402,-0.3657129537905712,-0.11048307208204645,1475.4578754578754,-1.0,100.42292368985596,3.0661618700380666,326.1464554488083,
2023-12-18 15:11:43.064000,-6.783132530120482,-6.096385542168675,-3.734939759036145,-6.133660331085223,-6.568362967504598,-3.2593500919681175,2.0,3.0615384615384613,326.63316582914575,0.08752403706077655,-0.1309946972787136,-0.13775421012761513,1467.3992673992673,-1.0,100.42292368985596,3.066526408076597,326.10743785284086,
2023-12-18 15:11:43.072000,-6.783132530120482,-6.096385542168675,-3.734939759036145,-6.180257510729613,-6.489883507050888,-3.274064990803188,2.0,3.0615384615384613,326.63316582914575,0.04242177029310605,-0.21956762426431942,-0.11759221490589136,1457.8754578754579,-1.0,100.42292368985596,3.0668796420001994,326.0696368823048,
2023-12-18 15:11:43.080000,-6.783132530120482,-6.0843373493975905,-3.734939759036145,-6.145922746781116,-6.541385652973635,-3.274064990803188,2.0,3.0600732600732603,326.7895618865214,0.21140959151564523,-0.10896800885729212,0.20779674844123322,1447.6190476190475,-1.0,100.42292368985596,3.06722154803288,326.0330543935644,
2023-12-18 15:11:43.087000,-6.783132530120482,-6.0843373493975905,-3.734939759036145,-6.1704475781729,-6.561005518087063,-3.291232372777437,2.0,3.0600732600732603,326.7895618865214,0.2251617038634117,0.22982343686265383,-0.09812947963405393,1435.164835164835,-1.0,100.42292368985596,3.06755210837062,325.9976916257025,
2023-12-18 15:11:43.095000,-6.783132530120482,-6.096385542168675,-3.7590361445783134,-6.177805027590435,-6.546290619251992,-3.3083997547516857,2.0,3.0600732600732603,326.7895618865214,0.13309247712837213,0.22900763358778625,-0.05034671639181855,1422.7106227106226,-1.0,100.42292368985596,3.067871311269677,325.9635491911211,
2023-12-18 15:11:43.103000,-6.807228915662651,-6.1084337349397595,-3.7469879518072293,-6.163090128755364,-6.524218270999387,-3.3010423053341507,2.0,3.0600732600732603,326.7895618865214,-0.004778276324222974,0.3352951459705139,-0.11048307208204645,1410.989010989011,-1.0,100.42292368985596,3.068179151642172,325.93062701198517,
2023-12-18 15:11:43.110000,-6.807228915662651,-6.1325301204819285,-3.734939759036145,-6.153280196198651,-6.610055180870631,-3.2985898221949723,2.0,3.0600732600732603,326.7895618865214,-0.06538080531437596,0.5153545830662551,-0.07820057106229227,1398.5347985347985,-1.0,100.42292368985596,3.068475631175884,325.8989243074479,
2023-12-18 15:11:43.118000,-6.819277108433735,-6.096385542168675,-3.7590361445783134,-6.150827713059472,-6.556100551808706,-3.33292458614347,2.0,3.0600732600732603,326.7895618865214,0.39321717848610244,0.4619777402249279,-0.06083561564011423,1388.278388278388,-1.0,100.42292368985596,3.0687607588939656,325.86843953177697,
2023-12-18 15:11:43.126000,-6.795180722891566,-6.096385542168675,-3.7590361445783134,-6.131207847946045,-6.538933169834457,-3.256897608828939,2.0,3.0600732600732603,326.7895618865214,0.07283957811316338,0.4544024241011596,-0.3502126915680905,1378.7545787545787,-1.0,100.42292368985596,3.0690345511717503,325.8391703729191,
2023-12-18 15:11:43.133000,-6.783132530120482,-6.096385542168675,-3.771084337349398,-6.175352544451257,-6.546290619251992,-3.2887798896382585,2.0,3.0586080586080584,326.94610778443115,0.3476487384185069,0.23331973661208588,-0.1931122894936192,1369.230769230769,-1.0,100.42292368985596,3.069297031314698,325.81111379983406,
2023-12-18 15:11:43.141000,-6.795180722891566,-6.096385542168675,-3.7590361445783134,-6.141017780502759,-6.51931330472103,-3.320662170447578,2.0,3.0586080586080584,326.94610778443115,0.45277081755142445,0.3659460404405329,-0.11281393858166752,1359.7069597069597,-1.0,100.42292368985596,3.0695482291182956,325.78426610945905,
2023-12-18 15:11:43.149000,-6.783132530120482,-6.1084337349397595,-3.771084337349398,-6.204782342121398,-6.5364806866952785,-3.261802575107296,2.0,3.0586080586080584,326.94610778443115,0.11514480508128859,0.04020744711846669,-0.3236408134724086,1347.985347985348,-1.0,100.42292368985596,3.0697881808306327,325.7586229306357,
2023-12-18 15:11:43.156000,-6.783132530120482,-6.096385542168675,-3.7590361445783134,-6.180257510729613,-6.59534028203556,-3.266707541385653,2.0,3.0586080586080584,326.94610778443115,0.34391935201911317,0.10197540935842977,-0.25686148825826,1334.7985347985348,-1.0,100.42292368985596,3.070016930079927,325.7341791230448,
2023-12-18 15:11:43.164000,-6.795180722891566,-6.096385542168675,-3.7469879518072293,-6.1066830165542605,-6.504598405885959,-3.325567136725935,2.0,3.057142857142857,327.1028037383178,0.2346017131868768,0.22586096381329673,-0.23763183963638465,1323.8095238095236,-1.0,100.42292368985596,3.070234527801493,325.7109287852307,
2023-12-18 15:11:43.172000,-6.771084337349398,-6.096385542168675,-3.7831325301204823,-6.207234825260576,-6.587982832618025,-3.325567136725935,2.0,3.057142857142857,327.1028037383178,0.23320319328710504,0.22621059378824096,-0.23262047666219912,1315.7509157509157,-1.0,100.42292368985596,3.070441031233878,325.6888653638349,
2023-12-18 15:11:43.179000,-6.807228915662651,-6.096385542168675,-3.7831325301204823,-6.207234825260576,-6.570815450643776,-3.313304721030043,2.0,3.057142857142857,327.1028037383178,-0.1513897791503999,0.34881417166831696,-0.25791037818308965,1309.1575091575091,-1.0,100.42292368985596,3.070636503811067,325.667981664955,
2023-12-18 15:11:43.187000,-6.807228915662651,-6.1084337349397595,-3.771084337349398,-6.18516247700797,-6.568362967504598,-3.28632740649908,2.0,3.057142857142857,327.1028037383178,0.032865217644660105,0.18308956354524816,-0.10150923605850469,1304.7619047619046,-1.0,100.42292368985596,3.0708210155627884,325.64826981114646,
2023-12-18 15:11:43.195000,-6.83132530120482,-6.120481927710844,-3.7469879518072293,-6.194972409564684,-6.546290619251992,-3.337829552421827,2.0,3.057142857142857,327.1028037383178,-0.07307266476312506,-0.1499912592506264,-0.28238447642911263,1304.7619047619046,-1.0,100.42292368985596,3.070994643498528,325.6297211985125,
2023-12-18 15:11:43.202000,-6.819277108433735,-6.1084337349397595,-3.771084337349398,-6.1704475781729,-6.583077866339669,-3.256897608828939,2.0,3.0556776556776555,327.2596499640374,0.2936891789522755,-0.05116251966668614,-0.24544024241011586,1307.6923076923076,-1.0,100.42292368985596,3.071157471450947,325.61232651351133,
2023-12-18 15:11:43.210000,-6.795180722891566,-6.096385542168675,-3.807228915662651,-6.160637645616186,-6.548743102391171,-3.2691600245248313,2.0,3.0556776556776555,327.2596499640374,0.1537206456500201,-0.4534700775013112,-0.34601713186877214,1314.2857142857142,-1.0,100.42292368985596,3.071309589448803,325.5960758000199,
2023-12-18 15:11:43.217000,-6.819277108433735,-6.1084337349397595,-3.7831325301204823,-6.153280196198651,-6.538933169834457,-3.2887798896382585,2.0,3.0542124542124545,327.4166466778604,0.2607074179826345,-0.10558825243284264,0.025056814870928437,1322.3443223443223,-1.0,100.42292368985596,3.071451093005698,325.580958536932,
2023-12-18 15:11:43.225000,-6.807228915662651,-6.1084337349397595,-3.7469879518072293,-6.155732679337829,-6.592887798896382,-3.320662170447578,2.0,3.0542124542124545,327.4166466778604,0.10418973253306914,-0.5082454402424103,0.409999417283375,1332.6007326007325,-1.0,100.42292368985596,3.071582082989203,325.56696365186576,
2023-12-18 15:11:43.233000,-6.795180722891566,-6.096385542168675,-3.7590361445783134,-6.096873083997547,-6.568362967504598,-3.2985898221949723,2.0,3.0542124542124545,327.4166466778604,0.04323757356797364,-0.4505564943767851,0.1491754559757588,1346.5201465201465,-1.0,100.42292368985596,3.071702665827649,325.5540794972919,
2023-12-18 15:11:43.240000,-6.807228915662651,-6.1084337349397595,-3.7831325301204823,-6.12385039852851,-6.600245248313917,-3.251992642550582,2.0,3.0542124542124545,327.4166466778604,-0.035196084144280305,-0.3497465182681654,0.3937998951110075,1370.6959706959706,-1.0,100.42292368985596,3.0718129537736605,325.5422938220936,
2023-12-18 15:11:43.248000,-6.807228915662651,-6.096385542168675,-3.7831325301204823,-6.145922746781116,-6.637032495401594,-3.2814224402207235,2.0,3.0542124542124545,327.4166466778604,0.4368043820290186,-0.40428879435930276,0.19276265951867624,1408.058608058608,-1.0,100.42292368985596,3.071913064665372,325.53159379696876,
2023-12-18 15:11:43.256000,-6.795180722891566,-6.072289156626506,-3.7951807228915664,-6.163090128755364,-6.524218270999387,-3.3599019006744326,2.0,3.0542124542124545,327.4166466778604,0.14229939980187556,-0.735854553930423,0.037760037293863916,1457.8754578754579,-1.0,100.42292368985596,3.072003121255737,325.52196608731964,
2023-12-18 15:11:43.263000,-6.783132530120482,-6.096385542168675,-3.7951807228915664,-6.0919681177191904,-6.624770079705701,-3.28632740649908,2.0,3.0542124542124545,327.4166466778604,0.12738185420430073,-0.5885437911543611,0.06957636501369388,1516.4835164835163,-1.0,100.42292368985596,3.072083251024268,325.51339687293216,
2023-12-18 15:11:43.271000,-6.807228915662651,-6.1084337349397595,-3.771084337349398,-6.150827713059472,-6.526670754138565,-3.313304721030043,2.0,3.0527472527472526,327.5737940964723,0.3560398578171427,-0.84295786958802,-0.020628168521647974,1583.150183150183,-1.0,100.42292368985596,3.072153585979797,325.505871868596,
2023-12-18 15:11:43.279000,-6.783132530120482,-6.096385542168675,-3.7469879518072293,-6.217044757817289,-6.558553034947884,-3.3108522378908645,2.0,3.0527472527472526,327.5737940964723,0.23297010663714163,-0.5793368684808575,0.0885729269856071,1654.9450549450548,-1.0,100.42292368985596,3.0722142624207662,325.49937634816206,
2023-12-18 15:11:43.286000,-6.783132530120482,-6.1084337349397595,-3.734939759036145,-6.18516247700797,-6.5659104843654195,-3.3304721030042916,2.0,3.0527472527472526,327.5737940964723,0.01841384534700861,-0.9882873958394025,-0.04894819649204591,1726.7399267399267,-1.0,100.42292368985596,3.072265420584451,325.4938951818066,
2023-12-18 15:11:43.294000,-6.759036144578314,-6.0843373493975905,-3.7469879518072293,-6.1704475781729,-6.5291232372777435,-3.2201103617412628,2.0,3.051282051282051,327.7310924369748,0.4467105646524088,-0.6306159314725246,-0.018180758697045635,1793.4065934065932,-1.0,100.42292368985596,3.0723072048523186,325.4894128135792,
2023-12-18 15:11:43.302000,-6.746987951807229,-6.0843373493975905,-3.7228915662650603,-6.182709993868792,-6.521765787860208,-3.367259350091968,2.0,3.051282051282051,327.7310924369748,0.3513781248179006,-0.42841326263038276,-0.01771458539712142,1846.8864468864467,-1.0,100.42292368985596,3.072339762967347,325.4859133449786,
2023-12-18 15:11:43.309000,-6.795180722891566,-6.096385542168675,-3.7228915662650603,-6.145922746781116,-6.5732679337829545,-3.296137339055794,2.0,3.051282051282051,327.7310924369748,0.276207680205117,-0.14940854262572048,0.17854437387098643,1884.9816849816848,-1.0,100.42292368985596,3.072363245704827,325.48338056979,
2023-12-18 15:11:43.317000,-6.783132530120482,-6.120481927710844,-3.7108433734939763,-6.153280196198651,-6.538933169834457,-3.2789699570815447,2.0,3.0498168498168496,327.8885419168869,0.12388555445486868,-0.30161412505098795,-0.09603169978439496,1906.227106227106,-1.0,100.42292368985596,3.0723778070321437,325.48179795642534,
2023-12-18 15:11:43.325000,-6.795180722891566,-6.1325301204819285,-3.7108433734939763,-6.1287553648068664,-6.548743102391171,-3.215205395462906,2.0,3.0498168498168496,327.8885419168869,0.21397354466522883,0.024940271545947603,0.041722510343220165,1911.3553113553112,-1.0,100.42292368985596,3.0723836028945306,325.4811487786878,
2023-12-18 15:11:43.332000,-6.795180722891566,-6.120481927710844,-3.7228915662650603,-6.158185162477007,-6.585530349478847,-3.283874923359902,2.0,3.048351648351648,328.04614275414565,0.10815220558242453,0.1364722335528233,0.177612027271138,1899.6336996336995,-1.0,100.42292368985596,3.0723807913701693,325.48141609753435,
2023-12-18 15:11:43.340000,-6.807228915662651,-6.1084337349397595,-3.7469879518072293,-6.153280196198651,-6.538933169834457,-3.2716125076640097,2.0,3.0498168498168496,327.8885419168869,0.15383718897500093,0.18565351669483177,-0.1441640930015733,1871.7948717948716,-1.0,100.42292368985596,3.072369532331625,325.48258279691,
2023-12-18 15:11:43.348000,-6.807228915662651,-6.0843373493975905,-3.734939759036145,-6.199877375843041,-6.526670754138565,-3.283874923359902,2.0,3.048351648351648,328.04614275414565,0.12365246780490702,0.06654623856418607,-0.034729910844356525,1832.234432234432,-1.0,100.42292368985596,3.0723499871417945,325.484631616519,
2023-12-18 15:11:43.355000,-6.807228915662651,-6.072289156626506,-3.7590361445783134,-6.1361128142244015,-6.610055180870631,-3.261802575107296,2.0,3.048351648351648,328.04614275414565,0.15476953557484935,0.36058504749140574,0.012819765747916744,1784.6153846153845,-1.0,100.42292368985596,3.0723223189127147,325.48754512249644,
2023-12-18 15:11:43.363000,-6.807228915662651,-6.0843373493975905,-3.7469879518072293,-6.155732679337829,-6.521765787860208,-3.2716125076640097,2.0,3.048351648351648,328.04614275414565,0.13903618670240694,-0.04696695996736735,0.1515063224753803,1732.6007326007325,-1.0,100.42292368985596,3.0722866916790657,325.4913057956412,
2023-12-18 15:11:43.371000,-6.795180722891566,-6.0843373493975905,-3.7228915662650603,-6.111587982832618,-6.5364806866952785,-3.2348252605763332,2.0,3.046886446886447,328.2038951671075,0.09195268341005701,0.2800536099294916,-0.24660567565992642,1676.1904761904761,-1.0,100.42292368985596,3.07224327013649,325.4958960594971,
2023-12-18 15:11:43.378000,-6.795180722891566,-6.0843373493975905,-3.7228915662650603,-6.0993255671367255,-6.5070508890251375,-3.264255058246474,2.0,3.046886446886447,328.2038951671075,0.3499796049181288,0.2384476429112531,-0.16793893129770993,1619.047619047619,-1.0,100.42292368985596,3.0721922198413827,325.5012982568878,
2023-12-18 15:11:43.386000,-6.795180722891566,-6.072289156626506,-3.7228915662650603,-6.177805027590435,-6.570815450643776,-3.251992642550582,2.0,3.046886446886447,328.2038951671075,0.24112813938581582,0.13367519375327805,-0.24497406911019165,1561.1721611721612,-1.0,100.42292368985596,3.072133706785705,325.50749469510265,
2023-12-18 15:11:43.394000,-6.807228915662651,-6.072289156626506,-3.7590361445783134,-6.234212139791539,-6.5732679337829545,-3.342734518700184,2.0,3.0454212454212453,328.361799374549,0.37736728628867744,0.12167123128022758,-0.029835091195151847,1502.5641025641025,-1.0,100.42292368985596,3.0720678971179227,325.5144676758252,
2023-12-18 15:11:43.401000,-6.807228915662651,-6.0843373493975905,-3.771084337349398,-6.158185162477007,-6.570815450643776,-3.293684855916615,2.0,3.0454212454212453,328.361799374549,0.32958452304644253,0.4582483538255342,-0.19858982576772935,1446.153846153846,-1.0,100.42292368985596,3.071994956378899,325.52219957671275,
2023-12-18 15:11:43.409000,-6.795180722891566,-6.072289156626506,-3.771084337349398,-6.143470263641937,-6.62722256284488,-3.313304721030043,2.0,3.0454212454212453,328.361799374549,0.5109259367169746,0.21059378824077765,-0.5185012528407433,1393.4065934065934,-1.0,100.42292368985596,3.0719150487435187,325.5306729327992,
2023-12-18 15:11:43.417000,-6.819277108433735,-6.072289156626506,-3.7590361445783134,-6.182709993868792,-6.563458001226241,-3.313304721030043,2.0,3.0454212454212453,328.361799374549,0.6588194161179425,0.2115261348406278,-0.7151098420837946,1345.054945054945,-1.0,100.42292368985596,3.07182833728636,325.5398704069897,
2023-12-18 15:11:43.424000,-6.807228915662651,-6.060240963855422,-3.771084337349398,-6.150827713059472,-6.5732679337829545,-3.266707541385653,2.0,3.0454212454212453,328.361799374549,0.9246547403997443,-0.006876056173883237,-0.7342229473806886,1301.098901098901,-1.0,100.42292368985596,3.0717349842546904,325.54977475944537,
2023-12-18 15:11:43.432000,-6.819277108433735,-6.060240963855422,-3.7469879518072293,-6.133660331085223,-6.570815450643776,-3.291232372777437,2.0,3.043956043956044,328.5198555956679,1.2542392634461867,-0.28331682302896016,-0.6366761843715402,1264.4688644688645,-1.0,100.42292368985596,3.0716351508247257,325.5603688731068,
2023-12-18 15:11:43.440000,-6.819277108433735,-6.060240963855422,-3.7228915662650603,-6.160637645616186,-6.610055180870631,-3.261802575107296,2.0,3.043956043956044,328.5198555956679,1.1672979430103143,-0.268632364081347,-0.8445894761377543,1234.4322344322343,-1.0,100.42292368985596,3.0715289964113657,325.57163582742123,
2023-12-18 15:11:43.447000,-6.819277108433735,-6.060240963855422,-3.7469879518072293,-6.133660331085223,-6.639484978540772,-3.2716125076640097,2.0,3.043956043956044,328.5198555956679,1.159256453586621,-0.26921508070625294,-0.8374803333139094,1210.2564102564102,-1.0,100.42292368985596,3.071416678375717,325.58355892914597,
2023-12-18 15:11:43.455000,-6.819277108433735,-6.048192771084338,-3.734939759036145,-6.1066830165542605,-6.651747394236664,-3.303494788473329,2.0,3.043956043956044,328.5198555956679,0.8146378416176211,-0.10267466930831479,-0.5409941145620886,1189.7435897435896,-1.0,100.42292368985596,3.071298352304496,325.5961216815045,
2023-12-18 15:11:43.463000,-6.867469879518072,-6.060240963855422,-3.7469879518072293,-6.116492949110975,-6.600245248313917,-3.2495401594114037,2.0,3.043956043956044,328.5198555956679,1.1767379523337795,-0.029951634520132248,-0.8889924829555389,1179.4871794871794,-1.0,100.42292368985596,3.0711741722672543,325.6093077555261,
2023-12-18 15:11:43.470000,-6.855421686746988,-6.060240963855422,-3.7469879518072293,-6.153280196198651,-6.632127529123237,-3.296137339055794,2.0,3.043956043956044,328.5198555956679,0.9388730260474324,-0.3211934036478067,-0.9458656255462968,1178.021978021978,-1.0,100.42292368985596,3.07104429013847,325.62310106272764,
2023-12-18 15:11:43.478000,-6.879518072289157,-6.060240963855422,-3.7590361445783134,-6.114040465971796,-6.583077866339669,-3.251992642550582,2.0,3.043956043956044,328.5198555956679,1.390245323699085,-0.335761319270439,-0.6490297768195323,1184.6153846153845,-1.0,100.42292368985596,3.0709088550024384,325.63748581879764,
2023-12-18 15:11:43.486000,-6.879518072289157,-6.072289156626506,-3.7469879518072293,-6.148375229920294,-6.646842427958307,-3.2691600245248313,2.0,3.0424908424908423,328.6780640500843,1.2564535866208262,-0.39508187168579934,-0.6751354816152905,1197.069597069597,-1.0,100.42292368985596,3.070768013520047,325.65244650320113,
2023-12-18 15:11:43.493000,-6.867469879518072,-6.072289156626506,-3.734939759036145,-6.138565297363581,-6.59534028203556,-3.283874923359902,2.0,3.0424908424908423,328.6780640500843,1.3220674785851638,-0.22364664063865736,-0.6710564652409533,1215.3846153846152,-1.0,100.42292368985596,3.0706219092897964,325.667967927514,
2023-12-18 15:11:43.501000,-6.843373493975904,-6.060240963855422,-3.734939759036145,-6.133660331085223,-6.683629675045983,-3.2127529123237277,2.0,3.0424908424908423,328.6780640500843,1.7847444787599784,-0.5915739176038697,-0.4227026397063105,1238.8278388278388,-1.0,100.42292368985596,3.070470682678706,325.68403525309213,
2023-12-18 15:11:43.509000,-6.867469879518072,-6.048192771084338,-3.7228915662650603,-6.111587982832618,-6.610055180870631,-3.2078479460453706,2.0,3.0424908424908423,328.6780640500843,1.7258900996445432,-0.2089621816910442,-0.7555503758522234,1265.9340659340658,589.813232421875,101.72711750400994,3.070314471157865,325.7006339542266,
2023-12-18 15:11:43.516000,-6.855421686746988,-6.060240963855422,-3.698795180722892,-6.074800735744941,-6.632127529123237,-3.2176578786020844,2.0,3.0424908424908423,328.6780640500843,1.6173882640871744,0.1252840743546422,-0.2309888701124648,1297.4358974358975,-1.0,101.72711750400994,3.0701534092293508,325.71774982549675,
2023-12-18 15:11:43.524000,-6.867469879518072,-6.048192771084338,-3.698795180722892,-6.197424892703863,-6.67381974248927,-3.227467811158798,2.0,3.0395604395604394,328.9949385394071,1.8800769185944883,-0.3038284482256273,-0.3172309305984504,1329.6703296703297,-1.0,101.72711750400994,3.0699876283330467,325.7353689912707,
2023-12-18 15:11:43.532000,-6.867469879518072,-6.072289156626506,-3.698795180722892,-6.114040465971796,-6.610055180870631,-3.2004904966278356,2.0,3.0395604395604394,328.9949385394071,1.970514538779791,0.215605151214964,-0.19206339956878948,1362.6373626373625,-1.0,101.72711750400994,3.0698172558176444,325.7534780164864,
2023-12-18 15:11:43.539000,-6.855421686746988,-6.060240963855422,-3.6867469879518073,-6.138565297363581,-6.659104843654199,-3.2053954629061923,2.0,3.0395604395604394,328.9949385394071,2.1513897791503998,-0.14078433657712294,-0.03682769069401549,1393.4065934065934,-1.0,101.72711750400994,3.069642415190522,325.7720638792787,
2023-12-18 15:11:43.547000,-6.867469879518072,-6.048192771084338,-3.698795180722892,-6.133660331085223,-6.654199877375842,-3.222562844880441,2.0,3.0395604395604394,328.9949385394071,1.918652759163218,0.34706602179360097,-0.11176504865683783,1421.245421245421,-1.0,101.72711750400994,3.069463226483204,325.7911139308431,
2023-12-18 15:11:43.555000,-6.819277108433735,-6.072289156626506,-3.6746987951807233,-6.1361128142244015,-6.563458001226241,-3.2495401594114037,2.0,3.0395604395604394,328.9949385394071,1.9477885904084846,0.646815453644892,-0.3403065089447003,1446.8864468864467,-1.0,101.72711750400994,3.0692798057838506,325.8106159453761,
2023-12-18 15:11:43.562000,-6.819277108433735,-6.060240963855422,-3.662650602409639,-6.10913549969344,-6.58062538320049,-3.2103004291845494,2.0,3.0395604395604394,328.9949385394071,2.1728337509469138,1.0504049880543098,0.16689004137288022,1468.8644688644688,-1.0,101.72711750400994,3.06909226527328,325.8305581157335,
2023-12-18 15:11:43.570000,-6.819277108433735,-6.0843373493975905,-3.6746987951807233,-6.067443286327406,-6.637032495401594,-3.2299202942979766,2.0,3.0395604395604394,328.9949385394071,2.505448400442865,1.235941961424159,-0.1390361867024065,1484.9816849816848,-1.0,101.72711750400994,3.068900713729961,325.8509289987207,
2023-12-18 15:11:43.578000,-6.819277108433735,-6.060240963855422,-3.6867469879518073,-6.143470263641937,-6.61250766400981,-3.2078479460453706,2.0,3.038095238095238,329.153605015674,2.820465007866675,1.543965969349105,-0.1088514655323117,1496.7032967032967,-1.0,101.72711750400994,3.0687052565211923,325.8717175156787,
2023-12-18 15:11:43.585000,-6.819277108433735,-6.060240963855422,-3.6746987951807233,-6.074800735744941,-6.597792765174739,-3.173513182096873,2.0,3.038095238095238,329.153605015674,2.44461278480275,1.6659868306042769,0.19672513256803206,1506.227106227106,-1.0,101.72711750400994,3.068505995149811,325.89291300130265,
2023-12-18 15:11:43.593000,-6.819277108433735,-6.060240963855422,-3.7108433734939763,-6.145922746781116,-6.61250766400981,-3.2103004291845494,2.0,3.0366300366300365,329.3124246079614,3.046792144979897,1.6823028961016253,-0.09591515645941369,1511.3553113553112,-1.0,101.72711750400994,3.068303027199886,325.91450520921416,
2023-12-18 15:11:43.600000,-6.843373493975904,-6.072289156626506,-3.6867469879518073,-6.160637645616186,-6.668914776210913,-3.28632740649908,2.0,3.038095238095238,329.153605015674,3.3422294738068885,1.8641104830720825,-0.03368102091952726,1513.5531135531135,-1.0,101.72711750400994,3.068096446361991,325.9364843090739,
2023-12-18 15:11:43.608000,-6.855421686746988,-6.0843373493975905,-3.6746987951807233,-6.121397915389331,-6.659104843654199,-3.2004904966278356,2.0,3.0366300366300365,329.3124246079614,3.3130936425616238,1.7702931064623268,0.11829147485577725,1514.2857142857142,-1.0,101.72711750400994,3.067886342891124,325.9588408366979,
2023-12-18 15:11:43.616000,-6.855421686746988,-6.0843373493975905,-3.662650602409639,-6.163090128755364,-6.575720416922134,-3.215205395462906,2.0,3.0366300366300365,329.3124246079614,3.6683176971038987,1.9235475788124237,-0.23273701998718038,1513.5531135531135,-1.0,101.72711750400994,3.0676728037225276,325.98156568137165,
2023-12-18 15:11:43.623000,-6.855421686746988,-6.072289156626506,-3.6746987951807233,-6.145922746781116,-6.617412630288166,-3.261802575107296,2.0,3.0366300366300365,329.3124246079614,3.605267758289145,2.0181807586970453,0.05943709574034159,1511.3553113553112,-1.0,101.72711750400994,3.0674559124596272,326.0046500875369,
2023-12-18 15:11:43.631000,-6.855421686746988,-6.072289156626506,-3.6746987951807233,-6.153280196198651,-6.600245248313917,-3.144083384426732,2.0,3.0366300366300365,329.3124246079614,3.9699318221548867,2.2188683643144342,0.3341297127207038,1505.4945054945053,-1.0,101.72711750400994,3.0672357494072333,326.02808565046814,
2023-12-18 15:11:43.639000,-6.879518072289157,-6.0843373493975905,-3.6506024096385543,-6.138565297363581,-6.664009809932557,-3.2397302268546904,2.0,3.035164835164835,329.47139753801594,3.8764640755200754,2.246838762309889,0.0884563836606254,1495.970695970696,-1.0,101.72711750400994,3.0670123916841634,326.05186430402006,
2023-12-18 15:11:43.646000,-6.891566265060241,-6.0843373493975905,-3.6506024096385543,-6.143470263641937,-6.678724708767627,-3.202942979767014,2.0,3.035164835164835,329.47139753801594,3.8913816211176484,2.3083736378998885,0.22609405046325926,1483.5164835164835,-1.0,101.72711750400994,3.0667859128178527,326.07597836451055,
2023-12-18 15:11:43.654000,-6.855421686746988,-6.0843373493975905,-3.6385542168674703,-6.180257510729613,-6.678724708767627,-3.227467811158798,2.0,3.035164835164835,329.47139753801594,4.407552007458771,2.3820290192879194,0.43995105180350813,1469.5970695970695,-1.0,101.72711750400994,3.066556382345403,326.10042057331697,
2023-12-18 15:11:43.662000,-6.903614457831326,-6.072289156626506,-3.662650602409639,-6.172900061312078,-6.632127529123237,-3.180870631514408,2.0,3.035164835164835,329.47139753801594,4.735155293980536,2.4862187518209904,0.5609230231338498,1457.8754578754579,-1.0,101.72711750400994,3.0663238668959556,326.12518398020046,
2023-12-18 15:11:43.669000,-6.903614457831326,-6.072289156626506,-3.6506024096385543,-6.114040465971796,-6.683629675045983,-3.2004904966278356,2.0,3.035164835164835,329.47139753801594,4.723967134782357,2.2534817318338103,0.8648680146844588,1444.6886446886447,-1.0,101.72711750400994,3.0660884302956757,326.1502619318822,
2023-12-18 15:11:43.677000,-6.843373493975904,-6.0843373493975905,-3.6385542168674703,-6.165542611894543,-6.622317596566523,-3.2176578786020844,2.0,3.0336996336996336,329.6305240280126,4.8766388905075475,2.177145853971215,0.6205932055241535,1434.4322344322343,-1.0,101.72711750400994,3.065850133714969,326.1756480561631,
2023-12-18 15:11:43.685000,-6.843373493975904,-6.0843373493975905,-3.626506024096386,-6.101778050275904,-6.646842427958307,-3.2127529123237277,2.0,3.0336996336996336,329.6305240280126,5.029310646232738,2.0855428005361003,0.8648680146844588,1426.3736263736262,-1.0,101.72711750400994,3.0656090352953216,326.20133630247085,
2023-12-18 15:11:43.692000,-6.891566265060241,-6.072289156626506,-3.6506024096385543,-6.060085836909871,-6.688534641324341,-3.13182096873084,2.0,3.0322344322344317,329.7898043005557,4.9987762950877,2.467222189849078,1.231280228424917,1418.3150183150183,-1.0,101.72711750400994,3.065365190237986,326.2273209323782,
2023-12-18 15:11:43.700000,-6.879518072289157,-6.072289156626506,-3.6506024096385543,-6.148375229920294,-6.632127529123237,-3.1980380134886572,2.0,3.0336996336996336,329.6305240280126,5.136180875240372,2.4519550142765585,1.0480741215546878,1408.7912087912086,-1.0,101.72711750400994,3.0651186508958936,326.2535965097275,
2023-12-18 15:11:43.708000,-6.879518072289157,-6.0843373493975905,-3.6385542168674703,-6.138565297363581,-6.649294911097486,-3.1416309012875536,2.0,3.0336996336996336,329.6305240280126,5.716333546996097,2.8794359303070927,1.3381504574325505,1400.0,-1.0,101.72711750400994,3.0648694669028145,326.2801578857999,
2023-12-18 15:11:43.715000,-6.867469879518072,-6.0843373493975905,-3.626506024096386,-6.060085836909871,-6.656652360515021,-3.139178418148375,2.0,3.0336996336996336,329.6305240280126,5.792669424858692,2.92523745702465,1.7503641978905657,1394.139194139194,-1.0,101.72711750400994,3.0646176863594428,326.3070000716169,
2023-12-18 15:11:43.723000,-6.867469879518072,-6.072289156626506,-3.6024096385542173,-6.133660331085223,-6.590435315757204,-3.1244635193133043,2.0,3.0322344322344317,329.7898043005557,5.792669424858692,2.92523745702465,1.7503641978905657,1388.278388278388,-1.0,101.72711750400994,3.0643633559714867,326.3341182240794,
2023-12-18 15:11:43.731000,-6.855421686746988,-6.096385542168675,-3.5783132530120483,-6.187614960147148,-6.632127529123237,-3.1367259350091965,2.0,3.0322344322344317,329.7898043005557,6.021677058446479,3.322184021910146,2.00990618262339,1382.4175824175823,-1.0,101.72711750400994,3.064106520208882,326.36150773642396,
2023-12-18 15:11:43.738000,-6.83132530120482,-6.0843373493975905,-3.5421686746987953,-6.094420600858369,-6.590435315757204,-3.1489883507050886,2.0,3.0322344322344317,329.7898043005557,5.869005302721288,3.322184021910146,1.9183031291882757,1377.2893772893772,-1.0,101.72711750400994,3.0638472214163057,326.3891642264684,
2023-12-18 15:11:43.746000,-6.843373493975904,-6.072289156626506,-3.5783132530120483,-6.131207847946045,-6.600245248313917,-3.0901287553648067,2.0,3.0322344322344317,329.7898043005557,6.204883165316708,3.322184021910146,2.0862420604859855,1372.8937728937728,-1.0,101.72711750400994,3.063585500416409,326.41708347118055,
2023-12-18 15:11:43.754000,-6.843373493975904,-6.060240963855422,-3.6144578313253013,-6.148375229920294,-6.541385652973635,-3.1833231146535867,2.0,3.0322344322344317,329.7898043005557,6.449157974477013,3.9176038692383903,2.3915855719363672,1370.6959706959706,-1.0,101.72711750400994,3.0633213966918658,326.4452613871672,
2023-12-18 15:11:43.761000,-6.867469879518072,-6.0843373493975905,-3.626506024096386,-6.175352544451257,-6.668914776210913,-3.1882280809319434,2.0,3.030769230769231,329.9492385786802,6.189615989744189,4.177145853971215,2.528990152089039,1367.7655677655678,-1.0,101.72711750400994,3.0630549485342002,326.47369401465204,
2023-12-18 15:11:43.769000,-6.843373493975904,-6.072289156626506,-3.626506024096386,-6.104230533415082,-6.656652360515021,-3.1882280809319434,2.0,3.0322344322344317,329.7898043005557,6.204883165316708,4.024474098246024,2.162577938348581,1364.102564102564,-1.0,101.72711750400994,3.0627861927358637,326.50237755129405,
2023-12-18 15:11:43.777000,-6.879518072289157,-6.0843373493975905,-3.626506024096386,-6.1287553648068664,-6.607602697731453,-3.1367259350091965,2.0,3.030769230769231,329.9492385786802,6.51022667676709,4.329817609696406,2.6816619078142296,1359.7069597069597,-1.0,101.72711750400994,3.062515165161487,326.5313082902065,
2023-12-18 15:11:43.784000,-6.879518072289157,-6.1084337349397595,-3.6506024096385543,-6.165542611894543,-6.715511955855303,-3.1416309012875536,2.0,3.030769230769231,329.9492385786802,7.059844997377777,4.131344327253657,2.6816619078142296,1357.5091575091574,-1.0,101.72711750400994,3.062241900965651,326.560482596582,
2023-12-18 15:11:43.792000,-6.891566265060241,-6.120481927710844,-3.6144578313253013,-6.244022072348252,-6.637032495401594,-3.1538933169834458,2.0,3.0293040293040288,330.1088270858525,7.16671522638541,4.421420663131521,3.0633412971272067,1356.7765567765566,-1.0,101.72711750400994,3.06196643421347,326.589896949159,
2023-12-18 15:11:43.800000,-6.855421686746988,-6.1325301204819285,-3.626506024096386,-6.131207847946045,-6.641937461679951,-3.2004904966278356,2.0,3.030769230769231,329.9492385786802,7.349921333255639,4.421420663131521,3.124409999417283,1357.5091575091574,-1.0,101.72711750400994,3.0616887980253797,326.6195479248427,
2023-12-18 15:11:43.807000,-6.891566265060241,-6.120481927710844,-3.6144578313253013,-6.18516247700797,-6.646842427958307,-3.0950337216431634,2.0,3.0293040293040288,330.1088270858525,7.578928966843425,4.742031350154421,3.2312802284249167,1358.974358974359,-1.0,101.72711750400994,3.061409025599121,326.64943208895534,
2023-12-18 15:11:43.815000,-6.891566265060241,-6.120481927710844,-3.6024096385542173,-6.192519926425505,-6.717964438994482,-3.1538933169834458,2.0,3.0293040293040288,330.1088270858525,7.746867898141135,4.421420663131521,3.6129596177378938,1361.904761904762,-1.0,101.72711750400994,3.061127149893363,326.6795460284659,
2023-12-18 15:11:43.823000,-6.903614457831326,-6.120481927710844,-3.626506024096386,-6.1704475781729,-6.700797057020233,-3.1195585530349477,2.0,3.0293040293040288,330.1088270858525,7.853738127148769,4.558825243284192,3.7503641978905655,1367.7655677655678,-1.0,101.72711750400994,3.06084320373205,326.7098863423382,
2023-12-18 15:11:43.830000,-6.903614457831326,-6.096385542168675,-3.6024096385542173,-6.153280196198651,-6.656652360515021,-3.1122011036174126,2.0,3.027838827838828,330.26857004597144,7.8842724782938065,4.513023716566635,4.055707709340948,1379.4871794871794,-1.0,101.72711750400994,3.0605572203289104,326.7404495844307,
2023-12-18 15:11:43.838000,-6.891566265060241,-6.096385542168675,-3.6024096385542173,-6.153280196198651,-6.708154506437768,-3.1293684855916615,2.0,3.027838827838828,330.26857004597144,8.113280111881593,4.558825243284192,4.254180991783695,1401.4652014652013,-1.0,101.72711750400994,3.0602692329297785,326.7712323027423,
2023-12-18 15:11:43.846000,-6.903614457831326,-6.096385542168675,-3.6024096385542173,-6.133660331085223,-6.686082158185162,-3.1465358675659103,2.0,3.027838827838828,330.26857004597144,7.975875531728922,4.619893945574268,4.162577938348581,1438.095238095238,-1.0,101.72711750400994,3.059979274804161,326.8022310403632,
2023-12-18 15:11:43.853000,-6.867469879518072,-6.072289156626506,-3.6024096385542173,-6.133660331085223,-6.654199877375842,-3.1171060698957693,2.0,3.027838827838828,330.26857004597144,7.960608356156403,5.26111531962007,4.299982518501253,1490.10989010989,-1.0,101.72711750400994,3.059687379370768,326.8334423206098,
2023-12-18 15:11:43.861000,-6.891566265060241,-6.096385542168675,-3.5783132530120483,-6.12385039852851,-6.67381974248927,-3.1072961373390555,2.0,3.027838827838828,330.26857004597144,8.678165608064798,5.200046617329994,4.66639473224171,1553.113553113553,-1.0,101.72711750400994,3.0593935807753563,326.86486258567083,
2023-12-18 15:11:43.869000,-6.855421686746988,-6.096385542168675,-3.5421686746987953,-6.155732679337829,-6.641937461679951,-3.072961373390558,2.0,3.027838827838828,330.26857004597144,8.433890798904494,5.734397762368161,4.742730610104306,1620.5128205128203,-1.0,101.72711750400994,3.059097913514674,326.8964882362531,
2023-12-18 15:11:43.876000,-6.855421686746988,-6.096385542168675,-3.5542168674698797,-6.138565297363581,-6.632127529123237,-3.063151440833844,2.0,3.027838827838828,330.26857004597144,8.617096905774723,6.482489365421596,4.712196258959268,1687.179487179487,-1.0,101.72711750400994,3.0588004125818062,326.92831561605294,
2023-12-18 15:11:43.884000,-6.855421686746988,-6.072289156626506,-3.5542168674698797,-6.177805027590435,-6.59534028203556,-3.0876762722256283,2.0,3.0263736263736263,330.42846768336966,8.83083736378999,6.803100052444497,4.483188625371482,1746.5201465201465,-1.0,101.72711750400994,3.0585011140285534,326.96034095209507,
2023-12-18 15:11:43.892000,-6.867469879518072,-6.096385542168675,-3.5542168674698797,-6.204782342121398,-6.632127529123237,-3.097486204782342,2.0,3.0263736263736263,330.42846768336966,8.64763125691976,7.077909212749841,4.834333663539421,1795.6043956043954,-1.0,101.72711750400994,3.0582000545387804,326.992560401373,
2023-12-18 15:11:43.899000,-6.855421686746988,-6.120481927710844,-3.5662650602409642,-6.239117106069895,-6.641937461679951,-3.0656039239730224,2.0,3.0263736263736263,330.42846768336966,8.678165608064798,7.6733290600780855,5.18547870170736,1833.6996336996335,-1.0,101.72711750400994,3.0578972714182373,327.0249700520235,
2023-12-18 15:11:43.907000,-6.879518072289157,-6.120481927710844,-3.5421686746987953,-6.187614960147148,-6.617412630288166,-3.1489883507050886,2.0,3.0263736263736263,330.42846768336966,9.105646524095334,7.291649670765108,4.9717382436920925,1857.8754578754576,-1.0,101.72711750400994,3.0575928031046793,327.05756586771247,
2023-12-18 15:11:43.915000,-6.867469879518072,-6.096385542168675,-3.530120481927711,-6.155732679337829,-6.659104843654199,-3.08522378908645,2.0,3.0263736263736263,330.42846768336966,8.739234310354876,7.841267991375795,5.093875648272245,1868.8644688644688,-1.0,101.72711750400994,3.057286689215073,327.09034368252776,
2023-12-18 15:11:43.922000,-6.855421686746988,-6.120481927710844,-3.5662650602409642,-6.1704475781729,-6.649294911097486,-3.0901287553648067,2.0,3.0263736263736263,330.42846768336966,9.059844997377777,7.596993182215489,4.910669541402016,1863.7362637362637,-1.0,101.72711750400994,3.0569789701297703,327.12329924482793,
2023-12-18 15:11:43.930000,-6.867469879518072,-6.144578313253012,-3.5783132530120483,-6.172900061312078,-6.659104843654199,-3.0680564071122007,2.0,3.0249084249084253,330.5885202228142,9.30411980653808,7.8870695180933525,5.4297535108676644,1845.4212454212452,-1.0,101.72711750400994,3.0566696870965377,327.15642820613675,
2023-12-18 15:11:43.938000,-6.867469879518072,-6.144578313253012,-3.6024096385542173,-6.212139791538933,-6.614960147148988,-3.109748620478234,2.0,3.0249084249084253,330.5885202228142,9.395722859973196,8.039741273818542,5.032806945982169,1816.8498168498168,-1.0,101.72711750400994,3.0563588822577112,327.18972611989665,
2023-12-18 15:11:43.945000,-6.855421686746988,-6.120481927710844,-3.5542168674698797,-6.167995095033722,-6.575720416922134,-3.0361741263028814,2.0,3.0249084249084253,330.5885202228142,9.945341180583883,7.215313792902513,5.368684808577589,1780.9523809523807,-1.0,101.72711750400994,3.0560465986004597,327.2231884468837,
2023-12-18 15:11:43.953000,-6.879518072289157,-6.1325301204819285,-3.5542168674698797,-6.219497240956468,-6.646842427958307,-3.063151440833844,2.0,3.0249084249084253,330.5885202228142,9.884272478293807,7.215313792902513,5.612959617737894,1739.9267399267399,-1.0,101.72711750400994,3.055732880426844,327.25681050382497,
2023-12-18 15:11:43.961000,-6.843373493975904,-6.120481927710844,-3.6024096385542173,-6.209687308399754,-6.617412630288166,-3.1465358675659103,2.0,3.0234432234432234,330.74872788950813,9.97587553172892,6.833634403589535,5.475555037585222,1696.7032967032967,-1.0,101.72711750400994,3.055417773360752,327.29058746259636,
2023-12-18 15:11:43.968000,-6.843373493975904,-6.120481927710844,-3.5903614457831328,-6.256284488044145,-6.651747394236664,-3.0827713059472717,2.0,3.0234432234432234,330.74872788950813,10.281219043179304,6.971038983742207,5.216013052852397,1652.0146520146518,-1.0,101.72711750400994,3.0551013238569977,327.3245144038403,
2023-12-18 15:11:43.976000,-6.83132530120482,-6.1084337349397595,-3.5783132530120483,-6.192519926425505,-6.656652360515021,-3.0999386879215205,2.0,3.0234432234432234,330.74872788950813,10.403356447759455,6.848901579162055,5.032806945982169,1605.8608058608058,-1.0,101.72711750400994,3.05478357912589,327.3585863251436,
2023-12-18 15:11:43.983000,-6.843373493975904,-6.1084337349397595,-3.5542168674698797,-6.175352544451257,-6.619865113427345,-3.126916002452483,2.0,3.020512820512821,331.06960950764005,10.586562554629685,6.864168754734574,5.33815045743255,1558.974358974359,-1.0,101.72711750400994,3.0544645871195337,327.3927981407498,
2023-12-18 15:11:43.991000,-6.879518072289157,-6.1084337349397595,-3.5662650602409642,-6.219497240956468,-6.617412630288166,-3.126916002452483,2.0,3.0219780219780215,330.90909090909093,10.632364081347243,6.467222189849077,5.322883281860031,1515.018315018315,-1.0,101.72711750400994,3.054144396510543,327.4271446875542,
2023-12-18 15:11:43.999000,-6.879518072289157,-6.1325301204819285,-3.530120481927711,-6.219497240956468,-6.617412630288166,-3.0827713059472717,2.0,3.0219780219780215,330.90909090909093,10.632364081347243,6.467222189849077,5.322883281860031,1472.5274725274724,-1.0,101.72711750400994,3.0538230569123472,327.4616207004935,
2023-12-18 15:11:44.006000,-6.891566265060241,-6.1325301204819285,-3.530120481927711,-6.229307173513182,-6.686082158185162,-3.0950337216431634,2.0,3.0219780219780215,330.90909090909093,11.227783928675485,6.1160771516811385,5.063341297127207,1433.6996336996335,-1.0,101.72711750400994,3.0535006189141294,327.4962208050936,
2023-12-18 15:11:44.014000,-6.891566265060241,-6.144578313253012,-3.5542168674698797,-6.217044757817289,-6.659104843654199,-3.1072961373390555,2.0,3.0219780219780215,330.90909090909093,11.105646524095334,6.818367228017016,5.154944350562321,1400.7326007326005,-1.0,101.72711750400994,3.053177134075717,327.53093951977957,
2023-12-18 15:11:44.022000,-6.903614457831326,-6.1325301204819285,-3.5662650602409642,-6.219497240956468,-6.668914776210913,-3.134273451870018,2.0,3.0219780219780215,330.90909090909093,10.815570188217471,6.635161121146788,5.735097022318047,1372.8937728937728,-1.0,101.72711750400994,3.0528526548830373,327.56577126060523,
2023-12-18 15:11:44.029000,-6.879518072289157,-6.1325301204819285,-3.5542168674698797,-6.199877375843041,-6.676272225628448,-3.08522378908645,2.0,3.0219780219780215,330.90909090909093,11.33465415768312,6.90997028145213,5.612959617737894,1351.6483516483515,-1.0,101.72711750400994,3.052527234699355,327.6007103464363,
2023-12-18 15:11:44.037000,-6.903614457831326,-6.1325301204819285,-3.5903614457831328,-6.172900061312078,-6.681177191906805,-3.0999386879215205,2.0,3.0219780219780215,330.90909090909093,10.968241943942662,6.90997028145213,6.162577938348581,1331.135531135531,-1.0,101.72711750400994,3.0522009277127613,327.6357510045338,
2023-12-18 15:11:44.045000,-6.891566265060241,-6.1325301204819285,-3.5542168674698797,-6.24647455548743,-6.703249540159411,-3.092581238503985,2.0,3.020512820512821,331.06960950764005,11.472058737835791,6.513023716566635,6.1778451139211,1313.5531135531135,-1.0,101.72711750400994,3.0518737888803584,327.67088737649266,
2023-12-18 15:11:44.052000,-6.867469879518072,-6.1325301204819285,-3.5542168674698797,-6.253832004904966,-6.664009809932557,-3.0361741263028814,2.0,3.020512820512821,331.06960950764005,11.807936600431212,6.803100052444497,6.254180991783695,1301.098901098901,-1.0,101.72711750400994,3.0515458733769627,327.70611357845297,
2023-12-18 15:11:44.060000,-6.891566265060241,-6.144578313253012,-3.5060240963855422,-6.190067443286327,-6.656652360515021,-3.0533415082771302,2.0,3.020512820512821,331.06960950764005,11.762135073713655,6.864168754734574,6.223646640638657,1294.5054945054944,-1.0,101.72711750400994,3.0512172360041205,327.7414237638537,
2023-12-18 15:11:44.068000,-6.903614457831326,-6.1807228915662655,-3.5060240963855422,-6.212139791538933,-6.656652360515021,-3.043531575720417,2.0,3.020512820512821,331.06960950764005,12.128547287454111,7.169512266184955,6.544257327661557,1292.3076923076922,-1.0,101.72711750400994,3.050887932104878,327.77681202508563,
2023-12-18 15:11:44.075000,-6.843373493975904,-6.0843373493975905,-3.530120481927711,-6.138565297363581,-6.610055180870631,-3.0533415082771302,2.0,3.020512820512821,331.06960950764005,12.189615989744189,6.7878328768719784,6.559524503234077,1295.2380952380952,-1.0,101.72711750400994,3.0505580179147875,327.8122723564889,
2023-12-18 15:11:44.083000,-6.855421686746988,-6.096385542168675,-3.5180722891566267,-6.219497240956468,-6.656652360515021,-3.055793991416309,2.0,3.020512820512821,331.06960950764005,11.945341180583883,7.108443563894879,6.544257327661557,1303.2967032967033,-1.0,101.72711750400994,3.050227549998529,327.84779871393954,
2023-12-18 15:11:44.091000,-6.855421686746988,-6.096385542168675,-3.5542168674698797,-6.155732679337829,-6.624770079705701,-3.0386266094420598,2.0,3.019047619047619,331.2302839116719,12.00640988287396,7.627527533360528,6.834333663539421,1313.5531135531135,-1.0,101.72711750400994,3.0498965847206274,327.88338507083233,
2023-12-18 15:11:44.098000,-6.855421686746988,-6.072289156626506,-3.530120481927711,-6.133660331085223,-6.59534028203556,-3.0484365419987736,2.0,3.019047619047619,331.2302839116719,11.807936600431212,8.161878678398695,6.467921449798962,1330.4029304029302,589.813232421875,101.72711750400994,3.049565178206374,327.91902542427647,
2023-12-18 15:11:44.106000,-6.927710843373494,-6.1807228915662655,-3.5180722891566267,-6.329858982219497,-6.757204169221336,-3.0459840588595952,2.0,3.019047619047619,331.2302839116719,12.861371714935029,7.932871044810909,6.269448167356215,1349.4505494505493,-1.0,101.72711750400994,3.0492333866196892,327.95471376611454,
2023-12-18 15:11:44.114000,-6.891566265060241,-6.048192771084338,-3.5060240963855422,-6.064990803188228,-6.587982832618025,-3.0386266094420598,2.0,3.019047619047619,331.2302839116719,12.754501485927394,6.833634403589535,6.467921449798962,1371.4285714285713,-1.0,101.72711750400994,3.048901266053377,327.9904440927669,
2023-12-18 15:11:44.121000,-6.903614457831326,-6.0843373493975905,-3.5060240963855422,-6.143470263641937,-6.639484978540772,-2.982219497240956,2.0,3.019047619047619,331.2302839116719,12.739234310354876,7.169512266184955,6.620593205524154,1394.139194139194,-1.0,101.72711750400994,3.0485688724551543,328.02621041314256,
2023-12-18 15:11:44.129000,-6.867469879518072,-6.0843373493975905,-3.5060240963855422,-6.187614960147148,-6.666462293071735,-2.982219497240956,2.0,3.019047619047619,331.2302839116719,12.830837363789989,7.871802342520833,6.33051686964629,1416.8498168498168,-1.0,101.72711750400994,3.048236261555264,328.0620067563824,
2023-12-18 15:11:44.137000,-6.9397590361445785,-6.1807228915662655,-3.530120481927711,-6.347026364193746,-6.732679337829552,-2.9895769466584916,2.0,3.0175824175824175,331.39111434814276,13.288852630965563,8.207680205116253,6.544257327661557,1435.164835164835,-1.0,101.72711750400994,3.0479034887961935,328.09782717937554,
2023-12-18 15:11:44.144000,-6.91566265060241,-6.060240963855422,-3.530120481927711,-6.015941140404659,-6.632127529123237,-2.9993868792152054,2.0,3.0175824175824175,331.39111434814276,13.777402249286173,7.169512266184955,6.467921449798962,1453.4798534798533,-1.0,101.72711750400994,3.047570609230316,328.1336657796581,
2023-12-18 15:11:44.152000,-6.891566265060241,-6.1084337349397595,-3.4457831325301207,-6.160637645616186,-6.634580012262416,-2.9699570815450644,2.0,3.0175824175824175,331.39111434814276,13.777402249286173,7.352718373055184,6.727463434531787,1468.131868131868,-1.0,101.72711750400994,3.047237677316081,328.16951671733057,
2023-12-18 15:11:44.160000,-6.903614457831326,-6.1807228915662655,-3.457831325301205,-6.194972409564684,-6.737584304107909,-2.984671980380135,2.0,3.0175824175824175,331.39111434814276,13.701066371423577,7.551191655497933,6.620593205524154,1479.8534798534797,-1.0,101.72711750400994,3.0469047468213426,328.20537422352623,
2023-12-18 15:11:44.167000,-6.91566265060241,-6.096385542168675,-3.4457831325301207,-6.221949724095647,-6.730226854690374,-3.0190067443286326,2.0,3.0175824175824175,331.39111434814276,13.426257211118234,8.284016082978848,7.18547870170736,1490.10989010989,-1.0,101.72711750400994,3.0465718707644314,328.2412326067337,
2023-12-18 15:11:44.175000,-6.891566265060241,-6.144578313253012,-3.4457831325301207,-6.221949724095647,-6.641937461679951,-2.9601471489883506,2.0,3.0175824175824175,331.39111434814276,14.098012936309074,7.658061884505566,7.017539770409649,1497.4358974358972,-1.0,101.72711750400994,3.046239101358705,328.2770862587465,
2023-12-18 15:11:44.183000,-6.91566265060241,-6.1325301204819285,-3.4457831325301207,-6.150827713059472,-6.700797057020233,-2.9380748007357447,2.0,3.0175824175824175,331.39111434814276,14.036944234018998,8.222947380688773,7.780898549035603,1500.3663003663003,-1.0,101.72711750400994,3.0459064899610393,328.31292966019225,
2023-12-18 15:11:44.190000,-6.927710843373494,-6.120481927710844,-3.4457831325301207,-6.192519926425505,-6.742489270386265,-2.9012875536480687,2.0,3.0175824175824175,331.39111434814276,13.869005302721288,8.574092418856711,7.84196725132568,1497.4358974358972,-1.0,101.72711750400994,3.0455740870247108,328.34875738559003,
2023-12-18 15:11:44.198000,-6.879518072289157,-6.144578313253012,-3.457831325301205,-6.251379521765788,-6.62722256284488,-2.979767014101778,2.0,3.016117216117216,331.55210104444984,14.128547287454111,8.23821455626129,8.070974884913467,1490.8424908424906,-1.0,101.72711750400994,3.0452419420571024,328.3845641078881,
2023-12-18 15:11:44.206000,-6.91566265060241,-6.096385542168675,-3.457831325301205,-6.158185162477007,-6.683629675045983,-2.9724095646842428,2.0,3.0175824175824175,331.39111434814276,14.51022667676709,8.680962647864344,8.040440533768429,1483.5164835164835,-1.0,101.72711750400994,3.0449101030899803,328.42034465657395,
2023-12-18 15:11:44.213000,-6.903614457831326,-6.120481927710844,-3.433734939759036,-6.145922746781116,-6.737584304107909,-2.8963825873697115,2.0,3.016117216117216,331.55210104444984,14.372822096614417,8.75729852572694,7.872501602470718,1476.923076923077,-1.0,101.72711750400994,3.0445786170685114,328.45609397485026,
2023-12-18 15:11:44.221000,-6.91566265060241,-6.1325301204819285,-3.433734939759036,-6.1704475781729,-6.700797057020233,-2.9650521152667073,2.0,3.016117216117216,331.55210104444984,14.785035837072433,9.001573334887246,8.147310762776062,1469.5970695970695,-1.0,101.72711750400994,3.0442475298575826,328.4918071188747,
2023-12-18 15:11:44.229000,-6.903614457831326,-6.1325301204819285,-3.433734939759036,-6.221949724095647,-6.737584304107909,-2.9380748007357447,2.0,3.016117216117216,331.55210104444984,15.181982401957928,9.520657304352895,7.689295495600489,1465.201465201465,-1.0,101.72711750400994,3.0439168856918495,328.5274793181346,
2023-12-18 15:11:44.236000,-6.951807228915663,-6.156626506024097,-3.397590361445783,-6.202329858982219,-6.67381974248927,-2.891477621091355,2.0,3.016117216117216,331.55210104444984,15.075112172950295,9.276382495192589,7.9793718314783515,1459.3406593406592,-1.0,101.72711750400994,3.0435867280725812,328.563105878724,
2023-12-18 15:11:44.244000,-6.951807228915663,-6.1325301204819285,-3.4096385542168677,-6.236664622930717,-6.722869405272839,-2.911097486204782,2.0,3.0146520146520146,331.7132442284326,15.288852630965563,9.795466464658238,8.208379465066137,1452.014652014652,-1.0,101.72711750400994,3.0432570996876613,328.5986821918446,
2023-12-18 15:11:44.252000,-6.9397590361445785,-6.144578313253012,-3.385542168674699,-6.190067443286327,-6.759656652360515,-2.9552421827099935,2.0,3.0146520146520146,331.7132442284326,15.212516753102967,9.810733640230756,8.376318396363848,1442.4908424908424,-1.0,101.72711750400994,3.0429280414241617,328.6342038403687,
2023-12-18 15:11:44.259000,-6.951807228915663,-6.1325301204819285,-3.385542168674699,-6.150827713059472,-6.749846719803801,-2.952789699570815,2.0,3.0146520146520146,331.7132442284326,15.807936600431212,9.948138220383429,9.00227259483713,1434.4322344322343,-1.0,101.72711750400994,3.0425995922999745,328.66966660638764,
2023-12-18 15:11:44.267000,-6.9397590361445785,-6.144578313253012,-3.433734939759036,-6.224402207234825,-6.717964438994482,-2.891477621091355,2.0,3.0146520146520146,331.7132442284326,15.578928966843424,9.551191655497933,8.880135190256977,1427.106227106227,-1.0,101.72711750400994,3.042271790383846,328.7050663719261,
2023-12-18 15:11:44.275000,-6.927710843373494,-6.144578313253012,-3.385542168674699,-6.258736971183323,-6.732679337829552,-2.881667688534641,2.0,3.0146520146520146,331.7132442284326,15.578928966843424,9.551191655497933,8.880135190256977,1423.4432234432234,-1.0,101.72711750400994,3.04194467273795,328.7403991250414,
2023-12-18 15:11:44.282000,-6.9397590361445785,-6.144578313253012,-3.385542168674699,-6.1704475781729,-6.698344573881054,-2.8375229920294296,2.0,3.0146520146520146,331.7132442284326,15.716333546996099,9.627527533360528,9.582425266592855,1421.245421245421,-1.0,101.72711750400994,3.0416182749449696,328.77566100993073,
2023-12-18 15:11:44.290000,-6.91566265060241,-6.156626506024097,-3.36144578313253,-6.217044757817289,-6.703249540159411,-2.8669527896995706,2.0,3.011721611721612,332.03600097299926,15.701066371423579,10.192413029543733,9.567158091020337,1419.047619047619,-1.0,101.72711750400994,3.0412926311328965,328.8108483243027,
2023-12-18 15:11:44.298000,-6.91566265060241,-6.144578313253012,-3.3373493975903616,-6.236664622930717,-6.749846719803801,-2.793378295524218,2.0,3.013186813186813,331.87454412837343,16.15908163859915,10.360351960841443,9.750364197890566,1413.9194139194137,-1.0,101.72711750400994,3.040967773477463,328.84595757618206,
2023-12-18 15:11:44.305000,-6.9397590361445785,-6.156626506024097,-3.3012048192771086,-6.10913549969344,-6.717964438994482,-2.827713059472716,2.0,3.013186813186813,331.87454412837343,16.128547287454115,10.665695472291825,9.612959617737893,1408.7912087912086,-1.0,101.72711750400994,3.0406437325181863,328.8809854489282,
2023-12-18 15:11:44.313000,-6.951807228915663,-6.156626506024097,-3.289156626506024,-6.175352544451257,-6.678724708767627,-2.903740036787247,2.0,3.013186813186813,331.87454412837343,15.960608356156404,11.322184021910147,9.551890915447817,1402.9304029304028,-1.0,101.72711750400994,3.0403205376868887,328.9159287411501,
2023-12-18 15:11:44.321000,-6.9397590361445785,-6.120481927710844,-3.3012048192771086,-6.158185162477007,-6.59534028203556,-2.940527283874923,2.0,3.013186813186813,331.87454412837343,16.20488316531671,11.734397762368161,9.780898549035603,1394.8717948717947,-1.0,101.72711750400994,3.039998216891876,328.9507844127017,
2023-12-18 15:11:44.328000,-6.903614457831326,-6.120481927710844,-3.3734939759036147,-6.18516247700797,-6.705702023298589,-2.8424279583077863,2.0,3.013186813186813,331.87454412837343,15.136180875240372,13.764932113513199,9.124409999417283,1387.5457875457876,-1.0,101.72711750400994,3.0396767965637603,328.9855495798078,
2023-12-18 15:11:44.336000,-6.903614457831326,-6.1084337349397595,-3.36144578313253,-6.153280196198651,-6.641937461679951,-2.8056407112201103,2.0,3.011721611721612,332.03600097299926,16.632364081347244,13.56645883107045,9.597692442165375,1379.4871794871794,-1.0,101.72711750400994,3.0393563017051037,329.02022150978377,
2023-12-18 15:11:44.343000,-6.903614457831326,-6.096385542168675,-3.3734939759036147,-6.133660331085223,-6.656652360515021,-2.891477621091355,2.0,3.011721611721612,332.03600097299926,16.38808927218694,13.322184021910147,10.284715342928733,1371.4285714285713,-1.0,101.72711750400994,3.0390367559089606,329.054797621045,
2023-12-18 15:11:44.351000,-6.927710843373494,-6.120481927710844,-3.385542168674699,-6.192519926425505,-6.730226854690374,-2.886572654812998,2.0,3.011721611721612,332.03600097299926,16.81557018821747,13.444321426490298,10.299982518501253,1367.032967032967,-1.0,101.72711750400994,3.0387181812764794,329.08927549211654,
2023-12-18 15:11:44.359000,-6.927710843373494,-6.156626506024097,-3.385542168674699,-6.197424892703863,-6.659104843654199,-2.8718577559779277,2.0,3.011721611721612,332.03600097299926,16.9987762950877,13.948138220383429,9.918303129188276,1366.3003663003662,-1.0,101.72711750400994,3.038400598441466,329.1236528571502,
2023-12-18 15:11:44.366000,-6.91566265060241,-6.0843373493975905,-3.349397590361446,-6.155732679337829,-6.690987124463519,-2.8301655426118946,2.0,3.011721611721612,332.03600097299926,17.50259308898083,14.818367228017015,9.780898549035603,1364.102564102564,-1.0,101.72711750400994,3.038084026632003,329.15792759936295,
2023-12-18 15:11:44.374000,-6.927710843373494,-6.1325301204819285,-3.3373493975903616,-6.165542611894543,-6.708154506437768,-2.9282648681790313,2.0,3.011721611721612,332.03600097299926,17.67053202027854,13.91760386923839,9.704562671173008,1364.102564102564,-1.0,101.72711750400994,3.037768483734256,329.1920977442391,
2023-12-18 15:11:44.382000,-6.903614457831326,-6.144578313253012,-3.36144578313253,-6.1704475781729,-6.693439607602698,-2.8841201716738194,2.0,3.011721611721612,332.03600097299926,17.68579919585106,14.268748907406328,9.17021152613484,1365.5677655677655,-1.0,101.72711750400994,3.037453986816276,329.22616140385975,
2023-12-18 15:11:44.389000,-6.867469879518072,-6.144578313253012,-3.36144578313253,-6.221949724095647,-6.654199877375842,-2.9356223175965663,2.0,3.011721611721612,332.03600097299926,18.38808927218694,13.688596235650603,9.277081755142474,1369.230769230769,-1.0,101.72711750400994,3.0371405521287143,329.26011677679446,
2023-12-18 15:11:44.397000,-6.891566265060241,-6.120481927710844,-3.385542168674699,-6.224402207234825,-6.661557326793378,-2.8767627222562844,2.0,3.011721611721612,332.03600097299926,17.945341180583885,14.039741273818542,9.292348930714994,1378.021978021978,-1.0,101.72711750400994,3.036828194686386,329.2939621925146,
2023-12-18 15:11:44.405000,-6.891566265060241,-6.1325301204819285,-3.4096385542168677,-6.177805027590435,-6.740036787247087,-2.9184549356223175,2.0,3.011721611721612,332.03600097299926,18.20488316531671,14.10080997610862,8.880135190256977,1394.8717948717947,-1.0,101.72711750400994,3.036516928343743,329.3276961033297,
2023-12-18 15:11:44.412000,-6.91566265060241,-6.096385542168675,-3.3734939759036147,-6.145922746781116,-6.705702023298589,-2.952789699570815,2.0,3.011721611721612,332.03600097299926,17.83847095157625,14.833634403589535,8.910669541402015,1424.1758241758241,-1.0,101.72711750400994,3.03620676587151,329.36131707619535,
2023-12-18 15:11:44.420000,-6.951807228915663,-6.144578313253012,-3.4096385542168677,-6.217044757817289,-6.744941753525445,-2.920907418761496,2.0,3.01025641025641,332.1976149914821,17.258318279820525,16.039741273818542,8.483188625371481,1464.4688644688645,-1.0,101.72711750400994,3.035897719034405,329.39482378439845,
2023-12-18 15:11:44.428000,-6.91566265060241,-6.1084337349397595,-3.4096385542168677,-6.153280196198651,-6.730226854690374,-2.89883507050889,2.0,3.01025641025641,332.1976149914821,18.20488316531671,16.650428296719305,9.17021152613484,1517.9487179487178,-1.0,101.72711750400994,3.035589798177208,329.428215053471,
2023-12-18 15:11:44.435000,-6.807228915662651,-6.1325301204819285,-3.385542168674699,-6.167995095033722,-6.568362967504598,-2.9061925199264254,2.0,3.01025641025641,332.1976149914821,18.082745760736557,16.46722218984908,9.643493968882932,1579.4871794871794,-1.0,101.72711750400994,3.035283012232242,329.46148986061604,
2023-12-18 15:11:44.443000,-6.746987951807229,-6.1807228915662655,-3.3734939759036147,-6.221949724095647,-6.5070508890251375,-2.903740036787247,2.0,3.0087912087912088,332.35938641344046,17.899539653866327,17.016840510459765,9.17021152613484,1646.153846153846,-1.0,101.72711750400994,3.034977369252225,329.4946472761832,
2023-12-18 15:11:44.451000,-6.783132530120482,-6.204819277108434,-3.3734939759036147,-6.256284488044145,-6.6026977314530955,-2.832618025751073,2.0,3.0087912087912088,332.35938641344046,16.678165608064802,17.719130586795643,9.093875648272245,1717.9487179487178,-1.0,101.72711750400994,3.0346728764506326,329.52768646133313,
2023-12-18 15:11:44.458000,-6.807228915662651,-6.253012048192772,-3.385542168674699,-6.317596566523605,-6.585530349478847,-2.8718577559779277,2.0,3.0087912087912088,332.35938641344046,17.54839461569839,17.322184021910147,9.322883281860031,1788.278388278388,-1.0,101.72711750400994,3.0343695401375705,329.560606675092,
2023-12-18 15:11:44.466000,-6.795180722891566,-6.240963855421687,-3.421686746987952,-6.302881667688534,-6.58062538320049,-2.8767627222562844,2.0,3.0087912087912088,332.35938641344046,16.983509119515183,16.787832876871978,8.528990152089039,1849.8168498168498,-1.0,101.72711750400994,3.0340673657591206,329.5934072682635,
2023-12-18 15:11:44.474000,-6.783132530120482,-6.216867469879518,-3.4096385542168677,-6.327406499080318,-6.5291232372777435,-2.8767627222562844,2.0,3.0087912087912088,332.35938641344046,16.067478585164036,19.41378707534526,6.880135190256977,1898.168498168498,-1.0,101.72711750400994,3.0337663579702916,329.62608767563137,
2023-12-18 15:11:44.481000,-6.72289156626506,-6.289156626506024,-3.457831325301205,-6.3666462293071735,-6.511955855303494,-2.9969343960760266,2.0,3.0087912087912088,332.35938641344046,17.639997669133503,17.856535166948312,6.788532136821863,1934.065934065934,-1.0,101.72711750400994,3.033466520706792,329.65864740828334,
2023-12-18 15:11:44.489000,-6.650602409638554,-6.253012048192772,-3.4819277108433737,-6.347026364193746,-6.247087676272225,-3.102391171060699,2.0,3.0087912087912088,332.35938641344046,16.937707592797626,17.61226035778801,6.1778451139211,1954.5787545787543,-1.0,101.72711750400994,3.033167857255624,329.6910860460606,
2023-12-18 15:11:44.497000,-6.650602409638554,-6.289156626506024,-3.5421686746987953,-6.427958307786634,-6.396689147762109,-2.9478847332924585,2.0,3.0087912087912088,332.35938641344046,16.479692325622054,19.23058096847503,4.208379465066138,1961.172161172161,-1.0,101.72711750400994,3.032870370324542,329.7234032301243,
2023-12-18 15:11:44.504000,-6.626506024096386,-6.265060240963856,-3.493975903614458,-6.378908645003065,-6.293684855916616,-3.161250766400981,2.0,3.0087912087912088,332.35938641344046,17.34992133325564,17.367985548627704,3.6587611444554513,1952.3809523809523,-1.0,101.72711750400994,3.0325740621104043,329.75559865563577,
2023-12-18 15:11:44.512000,-6.710843373493976,-6.349397590361446,-3.493975903614458,-6.457388105456775,-6.511955855303494,-2.9944819129368483,2.0,3.0073260073260073,332.5213154689403,16.69343278363732,18.100809976108618,2.7732649612493443,1931.135531135531,-1.0,101.72711750400994,3.032278934824367,329.7876720158137,
2023-12-18 15:11:44.520000,-6.710843373493976,-6.27710843373494,-3.493975903614458,-6.339668914776211,-6.34763948497854,-3.2201103617412628,2.0,3.0073260073260073,332.5213154689403,16.433890798904496,18.131344327253657,2.5137229765165197,1896.7032967032965,-1.0,101.72711750400994,3.031984990198298,329.8196230564278,
2023-12-18 15:11:44.527000,-6.734939759036145,-6.36144578313253,-3.5180722891566267,-6.481912936848559,-6.4923359901900675,-3.0165542611894542,2.0,3.0073260073260073,332.5213154689403,15.914806829438847,18.20768020511625,0.9564710681195734,1852.0146520146518,-1.0,101.72711750400994,3.031692228989646,329.8514516287421,
2023-12-18 15:11:44.535000,-6.662650602409639,-6.313253012048193,-3.5542168674698797,-6.376456161863887,-6.318209687308399,-3.1195585530349477,2.0,3.0073260073260073,332.5213154689403,15.380455684400676,17.7649321135132,0.4373870986539245,1799.2673992673992,-1.0,101.72711750400994,3.0314006515019876,329.88315763220606,
2023-12-18 15:11:44.543000,-6.626506024096386,-6.301204819277109,-3.5903614457831328,-6.437768240343347,-6.354996934396076,-2.9993868792152054,2.0,3.0073260073260073,332.5213154689403,15.472058737835791,16.406153487559,0.10150923605850469,1739.9267399267399,-1.0,101.72711750400994,3.0311102576457207,329.9147410079619,
2023-12-18 15:11:44.550000,-6.626506024096386,-6.313253012048193,-3.5662650602409642,-6.388718577559779,-6.39423666462293,-3.1661557326793375,2.0,3.0073260073260073,332.5213154689403,15.472058737835791,16.406153487559,0.10150923605850469,1677.6556776556774,-1.0,101.72711750400994,3.0308210469968446,329.9462017325509,
2023-12-18 15:11:44.558000,-6.710843373493976,-6.373493975903615,-3.5783132530120483,-6.501532801961986,-6.465358675659105,-3.114653586756591,2.0,3.0073260073260073,332.5213154689403,14.449157974477012,16.039741273818542,0.16257793834858103,1617.5824175824175,-1.0,101.72711750400994,3.0305330188540363,329.9775398118014,
2023-12-18 15:11:44.566000,-6.674698795180723,-6.349397590361446,-3.6144578313253013,-6.388718577559779,-6.433476394849785,-3.114653586756591,2.0,3.0058608058608054,332.68340238849623,14.617096905774723,14.177145853971215,-0.43284190897966324,1560.4395604395604,-1.0,101.72711750400994,3.0302461727519767,330.00875522610755,
2023-12-18 15:11:44.573000,-6.698795180722892,-6.421686746987952,-3.5783132530120483,-6.496627835683629,-6.5070508890251375,-3.144083384426732,2.0,3.0058608058608054,332.68340238849623,13.090379348522815,14.726764174581902,-0.20383427539187698,1506.9597069597069,-1.0,101.72711750400994,3.0299605079554683,330.0398479863009,
2023-12-18 15:11:44.581000,-6.650602409638554,-6.409638554216868,-3.5783132530120483,-6.457388105456775,-6.364806866952789,-3.109748620478234,2.0,3.0058608058608054,332.68340238849623,14.128547287454111,11.93287104481091,0.040440533768428356,1458.6080586080584,-1.0,101.72711750400994,3.029676022951637,330.0708181880052,
2023-12-18 15:11:44.589000,-6.63855421686747,-6.325301204819278,-3.5542168674698797,-6.46474555487431,-6.408951563458001,-3.0705088902513795,2.0,3.0058608058608054,332.68340238849623,13.059844997377777,10.90997028145213,0.6358603810966726,1416.8498168498168,-1.0,101.72711750400994,3.0293927164154293,330.10166590683895,
2023-12-18 15:11:44.596000,-6.602409638554217,-6.481927710843374,-3.5903614457831328,-6.638871857755977,-6.357449417535254,-3.109748620478234,2.0,3.004395604395605,332.8456474030724,11.762135073713655,11.59699318221549,-0.21910145096439607,1380.2197802197802,-1.0,101.72711750400994,3.0291105867320605,330.13239124932534,
2023-12-18 15:11:44.604000,-6.626506024096386,-6.433734939759036,-3.5662650602409642,-6.496627835683629,-6.337829552421827,-3.1367259350091965,2.0,3.004395604395605,332.8456474030724,12.250684692034264,9.688596235650603,0.13204358720354287,1346.5201465201465,-1.0,101.72711750400994,3.0288296315867136,330.1629943986453,
2023-12-18 15:11:44.612000,-6.614457831325302,-6.445783132530121,-3.5662650602409642,-6.580012262415695,-6.325567136725935,-3.0999386879215205,2.0,3.004395604395605,332.8456474030724,11.120913699667852,9.016840510459764,0.23891381621117644,1317.9487179487178,-1.0,101.72711750400994,3.028549848360985,330.1934755726403,
2023-12-18 15:11:44.619000,-6.626506024096386,-6.530120481927711,-3.5060240963855422,-6.673206621704475,-6.467811158798283,-3.0410790925812385,2.0,3.004395604395605,332.8456474030724,11.15144805081289,8.222947380688773,-0.32597167997202964,1294.5054945054944,-1.0,101.72711750400994,3.0282712345964122,330.2238349724615,
2023-12-18 15:11:44.627000,-6.590361445783133,-6.542168674698796,-3.5783132530120483,-6.57265481299816,-6.288779889638258,-3.0999386879215205,2.0,3.0058608058608054,332.68340238849623,10.937707592797624,6.772565701299459,-0.06642969523920522,1274.7252747252746,-1.0,101.72711750400994,3.0279937879651526,330.2540727857074,
2023-12-18 15:11:44.635000,-6.614457831325302,-6.457831325301205,-3.530120481927711,-6.597179644389945,-6.401594114040465,-2.9282648681790313,2.0,3.004395604395605,332.8456474030724,10.036944234018998,7.108443563894879,0.3610512207913291,1260.07326007326,-1.0,101.72711750400994,3.027717506309977,330.28418918019185,
2023-12-18 15:11:44.642000,-6.506024096385542,-6.626506024096386,-3.5903614457831328,-6.656039239730227,-6.28632740649908,-3.126916002452483,2.0,3.004395604395605,332.8456474030724,10.220150340889226,5.841267991375795,-0.6618495425674494,1253.4798534798533,-1.0,101.72711750400994,3.0274423872612113,330.31418434651636,
2023-12-18 15:11:44.650000,-6.590361445783133,-6.578313253012048,-3.6024096385542173,-6.631514408338442,-6.4114040465971796,-3.0018393623543838,2.0,3.004395604395605,332.8456474030724,10.265951867606784,5.016840510459764,1.3839519841501078,1254.212454212454,-1.0,101.72711750400994,3.027168427747357,330.3440585523994,
2023-12-18 15:11:44.658000,-6.55421686746988,-6.481927710843374,-3.5060240963855422,-6.467198038013488,-6.0410790925812385,-3.256897608828939,2.0,3.004395604395605,332.8456474030724,9.914806829438845,4.284016082978849,0.6511275566691916,1262.2710622710622,-1.0,101.72711750400994,3.0268956244867753,330.3738120883661,
2023-12-18 15:11:44.665000,-6.614457831325302,-6.445783132530121,-3.493975903614458,-6.7075413856529735,-6.313304721030042,-2.916002452483139,2.0,3.004395604395605,332.8456474030724,4.922440417225105,11.184779441757474,-0.9977274051628693,1276.923076923077,-1.0,101.72711750400994,3.026623974019828,330.4034452643095,
2023-12-18 15:11:44.673000,-6.409638554216868,-6.710843373493976,-3.6024096385542173,-6.825260576333537,-6.259350091968117,-3.13182096873084,2.0,3.004395604395605,332.8456474030724,7.777402249286173,8.23821455626129,-1.5320785502010372,1297.4358974358975,-1.0,101.72711750400994,3.0263534731976134,330.4329583572674,
2023-12-18 15:11:44.681000,-6.493975903614458,-6.63855421686747,-3.5783132530120483,-6.71244635193133,-6.33292458614347,-3.063151440833844,2.0,3.004395604395605,332.8456474030724,7.83847095157625,6.268748907406329,1.8877687780432375,1322.3443223443223,-1.0,101.72711750400994,3.0260841191445977,330.46235161540335,
2023-12-18 15:11:44.688000,-6.518072289156627,-6.506024096385542,-3.530120481927711,-6.560392397302268,-6.291232372777436,-3.114653586756591,2.0,3.004395604395605,332.8456474030724,7.899539653866326,6.161878678398696,2.6816619078142296,1352.3809523809523,-1.0,101.72711750400994,3.0258159087995455,330.49162530704217,
2023-12-18 15:11:44.696000,-6.578313253012048,-6.445783132530121,-3.5060240963855422,-6.518700183936235,-6.274064990803188,-3.1293684855916615,2.0,3.002930402930403,333.0080507440839,6.388089272186937,7.474855777635337,2.3915855719363672,1383.8827838827838,589.813232421875,101.72711750400994,3.025548838948177,330.52077971715795,
2023-12-18 15:11:44.704000,-6.46987951807229,-6.63855421686747,-3.5662650602409642,-6.7737584304107905,-6.220110361741263,-3.156345800122624,2.0,3.002930402930403,333.0080507440839,5.472058737835792,7.932871044810909,1.7503641978905657,1416.117216117216,-1.0,101.72711750400994,3.02528290622046,330.54981514956063,
2023-12-18 15:11:44.711000,-6.457831325301205,-6.542168674698796,-3.626506024096386,-6.658491722869405,-6.215205395462906,-3.156345800122624,2.0,3.002930402930403,333.0080507440839,5.288852630965563,8.146611502826177,2.483188625371482,1446.8864468864467,-1.0,101.72711750400994,3.025018106983025,330.57873193865345,
2023-12-18 15:11:44.719000,-6.626506024096386,-6.385542168674699,-3.5180722891566267,-6.261189454322501,-6.511955855303494,-3.114653586756591,2.0,3.002930402930403,333.0080507440839,4.815570188217471,8.528290892139154,2.6511275566691914,1475.4578754578754,-1.0,101.72711750400994,3.024754437335052,330.6075304480774,
2023-12-18 15:11:44.726000,-6.421686746987952,-6.662650602409639,-3.698795180722892,-6.908645003065604,-6.151440833844267,-3.0827713059472717,2.0,3.002930402930403,333.0080507440839,1.7774022492861736,10.039741273818542,0.9259367169745352,1501.8315018315018,-1.0,101.72711750400994,3.024491893138097,330.63621106750054,
2023-12-18 15:11:44.734000,-6.421686746987952,-6.686746987951808,-3.7108433734939763,-6.739423666462293,-6.266707541385653,-3.266707541385653,2.0,3.002930402930403,333.0080507440839,3.716333546996097,8.222947380688773,2.1320435872035426,1526.007326007326,-1.0,101.72711750400994,3.024230470045433,330.66477420945796,
2023-12-18 15:11:44.742000,-6.481927710843374,-6.518072289156627,-3.7228915662650603,-6.555487431023911,-6.247087676272225,-3.264255058246474,2.0,3.002930402930403,333.0080507440839,2.937707592797624,6.665695472291826,2.910669541402016,1549.4505494505493,-1.0,101.72711750400994,3.0239701639891075,330.693220257187,
2023-12-18 15:11:44.749000,-6.481927710843374,-6.55421686746988,-3.6746987951807233,-6.675659104843654,-6.212752912323728,-3.2421827099938687,2.0,3.001465201465202,333.1706126433976,2.7086999592098375,6.879435930307093,1.8572344268981993,1567.7655677655678,-1.0,101.72711750400994,3.0237109711420542,330.7215495686514,
2023-12-18 15:11:44.757000,-6.566265060240964,-6.530120481927711,-3.6506024096385543,-6.577559779276517,-6.330472103004292,-3.2372777437155116,2.0,3.001465201465202,333.1706126433976,2.372822096614418,5.8870695180933525,1.7961657246081228,1578.7545787545787,-1.0,101.72711750400994,3.023452887424781,330.7497625311846,
2023-12-18 15:11:44.765000,-6.445783132530121,-6.542168674698796,-3.7228915662650603,-6.648681790312692,-6.1587982832618025,-3.2887798896382585,2.0,3.001465201465202,333.1706126433976,0.6781656080647995,5.719130586795642,0.7885321368218634,1582.4175824175823,-1.0,101.72711750400994,3.023195908400284,330.77785957298494,
2023-12-18 15:11:44.772000,-6.445783132530121,-6.614457831325302,-3.7590361445783134,-6.697731453096259,-6.168608215818516,-3.244635193133047,2.0,3.001465201465202,333.1706126433976,1.3804556844006775,5.077909212749841,0.8343336635394207,1580.9523809523807,-1.0,101.72711750400994,3.0229400292727746,330.8058411614829,
2023-12-18 15:11:44.780000,-6.493975903614458,-6.590361445783133,-3.7108433734939763,-6.646229307173513,-6.242182709993869,-3.2053954629061923,2.0,3.001465201465202,333.1706126433976,0.6934327836373186,3.3679855486277037,0.8343336635394207,1574.3589743589744,-1.0,101.72711750400994,3.022685244920755,330.8337077997666,
2023-12-18 15:11:44.788000,-6.493975903614458,-6.55421686746988,-3.7228915662650603,-6.653586756591048,-6.266707541385653,-3.261802575107296,2.0,3.001465201465202,333.1706126433976,0.1743488141716698,2.4977565409941156,0.6663947322417108,1564.102564102564,-1.0,101.72711750400994,3.02243154992987,330.8614600230242,
2023-12-18 15:11:44.795000,-6.518072289156627,-6.457831325301205,-3.698795180722892,-6.57265481299816,-6.293684855916616,-3.222562844880441,2.0,3.001465201465202,333.1706126433976,-1.642445078958101,1.3069168463376273,-0.4023075578346251,1551.6483516483515,-1.0,101.72711750400994,3.022178938625929,330.88909839496336,
2023-12-18 15:11:44.803000,-6.530120481927711,-6.397590361445784,-3.6867469879518073,-6.562844880441447,-6.323114653586757,-3.1906805640711218,2.0,3.001465201465202,333.1706126433976,-4.405803857584055,2.375619136413963,-2.0969640463842434,1539.9267399267399,-1.0,101.72711750400994,3.0219274051083267,330.9166235041798,
2023-12-18 15:11:44.811000,-6.385542168674699,-6.807228915662651,-3.807228915662651,-6.859595340282035,-6.134273451870018,-3.313304721030043,2.0,3.0,333.3333333333333,-1.0164908804848187,0.6351611211467876,-0.9213915273002738,1526.007326007326,-1.0,101.72711750400994,3.0216769437420723,330.94403591133624,
2023-12-18 15:11:44.818000,-6.457831325301205,-6.63855421686747,-3.771084337349398,-6.697731453096259,-6.28632740649908,-3.283874923359902,2.0,3.0,333.3333333333333,-1.627177903385582,-1.8075869704562657,-0.1885670998193579,1510.6227106227104,-1.0,101.72711750400994,3.021427548633044,330.9713362072574,
2023-12-18 15:11:44.826000,-6.518072289156627,-6.55421686746988,-3.7228915662650603,-6.656039239730227,-6.207847946045371,-3.2421827099938687,2.0,3.0,333.3333333333333,-1.627177903385582,-1.8075869704562657,-0.1885670998193579,1493.7728937728937,-1.0,101.72711750400994,3.021179213103851,330.99852506935923,
2023-12-18 15:11:44.834000,-6.518072289156627,-6.566265060240964,-3.698795180722892,-6.614347026364193,-6.180870631514408,-3.2078479460453706,2.0,3.0,333.3333333333333,-1.9325214148359637,-2.6930831536623727,-0.4175747334071441,1476.923076923077,-1.0,101.72711750400994,3.0209319306456113,331.02560315772564,
2023-12-18 15:11:44.841000,-6.518072289156627,-6.55421686746988,-3.6746987951807233,-6.66584917228694,-6.247087676272225,-3.1710606989576946,2.0,3.0,333.3333333333333,-2.344735155293979,-3.334304527708174,-0.8145212982926403,1463.003663003663,-1.0,101.72711750400994,3.0206856948872347,331.0525711183574,
2023-12-18 15:11:44.849000,-6.602409638554217,-6.493975903614458,-3.6144578313253013,-6.562844880441447,-6.310852237890864,-3.2103004291845494,2.0,3.0,333.3333333333333,-2.772216071324513,-4.525144222364663,-0.9519258784453121,1451.2820512820513,-1.0,101.72711750400994,3.020440499144312,331.07942963154716,
2023-12-18 15:11:44.857000,-6.506024096385542,-6.542168674698796,-3.6385542168674703,-6.685469037400368,-6.188228080931943,-3.185775597792765,2.0,3.0,333.3333333333333,-3.795116834683292,-5.792319794883746,-1.852689237223938,1441.7582417582416,-1.0,101.72711750400994,3.020196336918853,331.10617935812144,
2023-12-18 15:11:44.864000,-6.542168674698796,-6.385542168674699,-3.6144578313253013,-6.58982219497241,-6.215205395462906,-3.1489883507050886,2.0,3.0,333.3333333333333,-4.207330575141307,-4.876289260532602,-2.8145212982926404,1432.2344322344322,-1.0,101.72711750400994,3.019953201874457,331.1328209420488,
2023-12-18 15:11:44.872000,-6.409638554216868,-6.795180722891566,-3.7228915662650603,-6.935622317596566,-6.180870631514408,-3.254445125689761,2.0,3.0,333.3333333333333,-7.260765689645123,-4.6625488025173345,-4.234368626536915,1422.7106227106226,-1.0,101.72711750400994,3.019711087848965,331.1593550089661,
2023-12-18 15:11:44.880000,-6.481927710843374,-6.626506024096386,-3.6746987951807233,-6.624156958920907,-6.276517473942366,-3.2053954629061923,2.0,2.9985347985347985,333.49621304666505,-4.100460346133674,-5.471709107860846,-4.020628168521648,1413.9194139194137,-1.0,101.72711750400994,3.0194699883770784,331.1857822174618,
2023-12-18 15:11:44.887000,-6.530120481927711,-6.566265060240964,-3.5903614457831328,-6.670754138565297,-6.251992642550582,-3.114653586756591,2.0,2.9985347985347985,333.49621304666505,-4.726414544606956,-7.425907581143289,-2.6618495425674493,1405.8608058608058,-1.0,101.72711750400994,3.019229896282671,331.21210330463094,
2023-12-18 15:11:44.895000,-6.530120481927711,-6.566265060240964,-3.5662650602409642,-6.670754138565297,-6.256897608828939,-3.0680564071122007,2.0,3.0,333.3333333333333,-4.985956529339781,-6.922090787250158,-2.951925878445312,1399.2673992673992,-1.0,101.72711750400994,3.0189908040802527,331.2383190430755,
2023-12-18 15:11:44.903000,-6.542168674698796,-6.566265060240964,-3.5542168674698797,-6.643776824034334,-6.291232372777436,-3.102391171060699,2.0,2.9985347985347985,333.49621304666505,-5.581376376668024,-6.754151855952449,-3.0435289318804264,1391.9413919413919,-1.0,101.72711750400994,3.018752704480625,331.26443018302876,
2023-12-18 15:11:44.910000,-6.542168674698796,-6.55421686746988,-3.5542168674698797,-6.614347026364193,-6.288779889638258,-3.139178418148375,2.0,2.9985347985347985,333.49621304666505,-6.772216071324513,-6.570945749082219,-2.98246022959035,1385.3479853479853,-1.0,101.72711750400994,3.0185155904757903,331.29043744462325,
2023-12-18 15:11:44.918000,-6.542168674698796,-6.566265060240964,-3.5542168674698797,-6.609442060085836,-6.318209687308399,-3.0459840588595952,2.0,2.9985347985347985,333.49621304666505,-6.7874832468970325,-6.799953382670006,-3.15039916088806,1379.4871794871794,-1.0,101.72711750400994,3.0182794547946155,331.31634157826875,
2023-12-18 15:11:44.926000,-6.566265060240964,-6.530120481927711,-3.530120481927711,-6.614347026364193,-6.310852237890864,-3.0827713059472717,2.0,2.9985347985347985,333.49621304666505,-7.520307674377948,-6.799953382670006,-2.8297884738651593,1374.3589743589744,-1.0,101.72711750400994,3.0180442899204136,331.3421433610869,
2023-12-18 15:11:44.933000,-6.542168674698796,-6.518072289156627,-3.530120481927711,-6.60453709380748,-6.315757204169221,-3.1122011036174126,2.0,2.9985347985347985,333.49621304666505,-8.253132101858863,-6.9984266651127545,-3.2114678631781364,1369.9633699633698,-1.0,101.72711750400994,3.0178100886007737,331.36784354190104,
2023-12-18 15:11:44.941000,-6.566265060240964,-6.493975903614458,-3.5421686746987953,-6.58982219497241,-6.359901900674433,-3.0901287553648067,2.0,2.997069597069597,333.65925201662185,-8.83328477361459,-6.906823611677639,-2.921391527300274,1366.3003663003662,-1.0,101.72711750400994,3.017576843831944,331.3934428428453,
2023-12-18 15:11:44.949000,-6.590361445783133,-6.518072289156627,-3.5060240963855422,-6.629061925199264,-6.359901900674433,-3.0484365419987736,2.0,2.997069597069597,333.65925201662185,-9.077559582774894,-7.135831245265426,-3.15039916088806,1362.6373626373625,-1.0,101.72711750400994,3.0173445479293,331.4189420611935,
2023-12-18 15:11:44.956000,-6.590361445783133,-6.506024096385542,-3.5421686746987953,-6.638871857755977,-6.406499080318823,-3.055793991416309,2.0,2.997069597069597,333.65925201662185,-9.627177903385581,-7.5480449857234415,-3.1656663364605793,1360.4395604395604,-1.0,101.72711750400994,3.0171131925103083,331.44434207136914,
2023-12-18 15:11:44.964000,-6.602409638554217,-6.481927710843374,-3.5060240963855422,-6.545677498467198,-6.350091968117719,-3.0459840588595952,2.0,2.997069597069597,333.65925201662185,-9.901987063690925,-8.204533535341762,-3.089330458597984,1360.4395604395604,-1.0,101.72711750400994,3.01688276900147,331.4696437686445,
2023-12-18 15:11:44.972000,-6.602409638554217,-6.506024096385542,-3.5421686746987953,-6.58736971183323,-6.377069282648681,-3.0876762722256283,2.0,2.997069597069597,333.65925201662185,-10.14626187285123,-8.021327428471533,-2.6771167181399687,1364.102564102564,-1.0,101.72711750400994,3.0166532691442898,331.49484801450114,
2023-12-18 15:11:44.979000,-6.590361445783133,-6.457831325301205,-3.530120481927711,-6.4990803188228075,-6.396689147762109,-3.0876762722256283,2.0,2.997069597069597,333.65925201662185,-10.329467979721459,-8.525144222364663,-2.9977274051628693,1375.091575091575,-1.0,101.72711750400994,3.0164246849753127,331.51995563872407,
2023-12-18 15:11:44.987000,-6.626506024096386,-6.530120481927711,-3.530120481927711,-6.626609442060086,-6.4114040465971796,-3.0606989576946657,2.0,2.997069597069597,333.65925201662185,-11.505040498805428,-8.586212924654738,-2.600780840277373,1397.069597069597,-1.0,101.72711750400994,3.0161970083843697,331.5449674869932,
2023-12-18 15:11:44.995000,-6.63855421686747,-6.457831325301205,-3.5421686746987953,-6.565297363580625,-6.433476394849785,-3.043531575720417,2.0,2.997069597069597,333.65925201662185,-11.428704620942833,-8.479342695647105,-2.15803274867432,1430.7692307692307,-1.0,101.72711750400994,3.0159702311643697,331.56988441544604,
2023-12-18 15:11:45.002000,-6.614457831325302,-6.433734939759036,-3.5421686746987953,-6.580012262415695,-6.458001226241569,-3.050889025137952,2.0,2.997069597069597,333.65925201662185,-12.543208437736727,-8.464075520074585,-2.2649029776819534,1478.3882783882782,-1.0,101.72711750400994,3.015744345060118,331.5947072853486,
2023-12-18 15:11:45.010000,-6.662650602409639,-6.457831325301205,-3.5421686746987953,-6.565297363580625,-6.431023911710606,-3.0288166768853464,2.0,2.997069597069597,333.65925201662185,-12.49740691101917,-8.784686207097486,-2.035895344094167,1536.9963369963368,-1.0,101.72711750400994,3.0155193418163306,331.61943695784663,
2023-12-18 15:11:45.018000,-6.686746987951808,-6.445783132530121,-3.5662650602409642,-6.496627835683629,-6.465358675659105,-3.0680564071122007,2.0,2.9956043956043956,333.82245047688923,-12.772216071324513,-8.738884680379929,-1.7152846570712663,1603.6630036630036,-1.0,101.72711750400994,3.015295213225012,331.64407428878684,
2023-12-18 15:11:45.025000,-6.626506024096386,-6.433734939759036,-3.5060240963855422,-6.550582464745554,-6.4629061925199265,-3.0606989576946657,2.0,2.9956043956043956,333.82245047688923,-13.795116834683292,-7.990793077326495,-2.066429695239205,1674.7252747252746,-1.0,101.72711750400994,3.015071951137561,331.6686201290202,
2023-12-18 15:11:45.033000,-6.686746987951808,-6.433734939759036,-3.5060240963855422,-6.530962599632127,-6.51931330472103,-3.050889025137952,2.0,2.9956043956043956,333.82245047688923,-13.901987063690925,-8.616747275799776,-1.684750305926228,1745.7875457875457,-1.0,101.72711750400994,3.0148495473719263,331.69307533460466,
2023-12-18 15:11:45.041000,-6.674698795180723,-6.385542168674699,-3.5060240963855422,-6.454935622317596,-6.374616799509503,-3.0827713059472717,2.0,2.9956043956043956,333.82245047688923,-14.069925994988635,-8.25033506205932,-1.5931472524911137,1812.4542124542124,-1.0,101.72711750400994,3.0146279937229616,331.7174407640746,
2023-12-18 15:11:45.048000,-6.686746987951808,-6.409638554216868,-3.5060240963855422,-6.614347026364193,-6.504598405885959,-3.009196811771919,2.0,2.9956043956043956,333.82245047688923,-15.077559582774894,-7.517510634578403,-1.8068877105063808,1868.131868131868,-1.0,101.72711750400994,3.014407282006325,331.74171727365024,
2023-12-18 15:11:45.056000,-6.710843373493976,-6.421686746987952,-3.4819277108433737,-6.454935622317596,-6.455548743102391,-3.0705088902513795,2.0,2.9941391941391937,333.98580866161,-15.184429811782529,-8.051861779616571,-1.1809335120330984,1910.6227106227104,-1.0,101.72711750400994,3.0141874041012633,331.76590571256537,
2023-12-18 15:11:45.064000,-6.698795180722892,-6.349397590361446,-3.5060240963855422,-6.442673206621704,-6.399141630901287,-3.072961373390558,2.0,2.9941391941391937,333.98580866161,-15.718780956820694,-8.173999184196724,-1.2267350387506555,1938.4615384615383,-1.0,101.72711750400994,3.0139683524155347,331.7900068744012,
2023-12-18 15:11:45.071000,-6.674698795180723,-6.373493975903615,-3.5180722891566267,-6.523605150214592,-6.4629061925199265,-3.0876762722256283,2.0,2.9956043956043956,333.82245047688923,-16.100460346133673,-7.822854146028785,-1.684750305926228,1947.2527472527472,-1.0,101.72711750400994,3.013750119719794,331.81402151519075,
2023-12-18 15:11:45.079000,-6.710843373493976,-6.397590361445784,-3.5180722891566267,-6.442673206621704,-6.4481912936848556,-3.080318822808093,2.0,2.9941391941391937,333.98580866161,-15.642445078958099,-8.479342695647105,-1.3183380921857701,1936.263736263736,-1.0,101.72711750400994,3.0135326991562894,331.8379503492569,
2023-12-18 15:11:45.087000,-6.698795180722892,-6.337349397590362,-3.5542168674698797,-6.369098712446352,-6.4996934396076025,-3.104843654199877,2.0,2.9956043956043956,333.82245047688923,-15.856185536973365,-8.112930481906647,-1.6389487792086708,1906.227106227106,-1.0,101.72711750400994,3.0133160838595314,331.86179409161565,
2023-12-18 15:11:45.094000,-6.650602409638554,-6.313253012048193,-3.5783132530120483,-6.4255058246474555,-6.453096259963212,-3.021459227467811,2.0,2.9956043956043956,333.82245047688923,-16.253132101858863,-7.89919002389138,-2.081696870811724,1862.2710622710622,-1.0,101.72711750400994,3.013100266963435,331.8855534572812,
2023-12-18 15:11:45.102000,-6.686746987951808,-6.385542168674699,-3.5783132530120483,-6.513795217657878,-6.521765787860208,-3.1195585530349477,2.0,2.9941391941391937,333.98580866161,-16.253132101858863,-7.89919002389138,-2.081696870811724,1808.058608058608,-1.0,101.72711750400994,3.0128852421690038,331.9092290980727,
2023-12-18 15:11:45.109000,-6.710843373493976,-6.337349397590362,-3.5662650602409642,-6.423053341508277,-6.423666462293071,-3.139178418148375,2.0,2.9941391941391937,333.98580866161,-16.45160538430161,-8.632014451372296,-1.7458190082163043,1747.2527472527472,-1.0,101.72711750400994,3.0126710028352046,331.93282170406627,
2023-12-18 15:11:45.117000,-6.63855421686747,-6.27710843373494,-3.530120481927711,-6.3740036787247085,-6.406499080318823,-3.043531575720417,2.0,2.9941391941391937,333.98580866161,-16.45160538430161,-8.998426665112754,-2.2649029776819534,1684.9816849816848,-1.0,101.72711750400994,3.012457542405078,331.95633195763793,
2023-12-18 15:11:45.125000,-6.674698795180723,-6.373493975903615,-3.5542168674698797,-6.528510116492948,-6.4849785407725316,-3.026364193746168,2.0,2.9941391941391937,333.98580866161,-17.42870462094283,-8.296136588776877,-2.554979313559816,1621.245421245421,-1.0,101.72711750400994,3.012244854830482,331.97976048597565,
2023-12-18 15:11:45.132000,-6.710843373493976,-6.337349397590362,-3.5903614457831328,-6.393623543838136,-6.475168608215818,-3.1784181483752296,2.0,2.9941391941391937,333.98580866161,-17.031758056057335,-8.723617504807411,-2.6618495425674493,1558.2417582417581,-1.0,101.72711750400994,3.0120329345745,332.0031078607414,
2023-12-18 15:11:45.140000,-6.698795180722892,-6.289156626506024,-3.5783132530120483,-6.329858982219497,-6.428571428571428,-3.151440833844267,2.0,2.9941391941391937,333.98580866161,-17.230231338500083,-9.303770176563136,-2.2954373288269916,1499.6336996336995,-1.0,101.72711750400994,3.011821776121908,332.02637465110826,
2023-12-18 15:11:45.148000,-6.698795180722892,-6.385542168674699,-3.5783132530120483,-6.452483139178418,-6.516860821581851,-3.1244635193133043,2.0,2.9941391941391937,333.98580866161,-17.856185536973367,-8.57094574908222,-2.3565060311170676,1443.956043956044,-1.0,101.72711750400994,3.011611374050079,332.04956141604737,
2023-12-18 15:11:45.155000,-6.734939759036145,-6.337349397590362,-3.6144578313253013,-6.474555487431023,-6.504598405885959,-3.1661557326793375,2.0,2.9941391941391937,333.98580866161,-17.795116834683288,-8.448808344502067,-2.219101450964396,1391.2087912087911,-1.0,101.72711750400994,3.0114017234867254,332.0726686546827,
2023-12-18 15:11:45.163000,-6.710843373493976,-6.27710843373494,-3.6385542168674703,-6.332311465358675,-6.48743102391171,-3.2201103617412628,2.0,2.9926739926739927,334.14932680538556,-18.08519317056115,-8.723617504807411,-1.7458190082163043,1342.8571428571427,-1.0,101.72711750400994,3.011192819652854,332.0956968558018,
2023-12-18 15:11:45.171000,-6.662650602409639,-6.27710843373494,-3.6024096385542173,-6.3740036787247085,-6.465358675659105,-3.092581238503985,2.0,2.9926739926739927,334.14932680538556,-18.360002330866497,-8.128197657479166,-2.234368626536915,1301.098901098901,-1.0,101.72711750400994,3.010984657404313,332.1186465490964,
2023-12-18 15:11:45.178000,-6.734939759036145,-6.325301204819278,-3.6506024096385543,-6.322501532801962,-6.551195585530349,-3.1931330472103,2.0,2.9926739926739927,334.14932680538556,-18.024124468271076,-7.700716741448632,-2.15803274867432,1265.9340659340658,-1.0,101.72711750400994,3.0107772316505277,332.141518259922,
2023-12-18 15:11:45.186000,-6.734939759036145,-6.228915662650603,-3.698795180722892,-6.302881667688534,-6.475168608215818,-3.283874923359902,2.0,2.9926739926739927,334.14932680538556,-18.46687255987413,-8.280869413204357,-2.1122312219567623,1238.095238095238,-1.0,101.72711750400994,3.010570537771625,332.1643124626034,
2023-12-18 15:11:45.194000,-6.674698795180723,-6.168674698795181,-3.662650602409639,-6.270999386879215,-6.423666462293071,-3.2593500919681175,2.0,2.9926739926739927,334.14932680538556,-18.879086300332144,-8.143464833051686,-2.5091777868422587,1216.117216117216,-1.0,101.72711750400994,3.010364571155239,332.1870296306723,
2023-12-18 15:11:45.201000,-6.734939759036145,-6.27710843373494,-3.6506024096385543,-6.400980993255671,-6.497240956468424,-3.2299202942979766,2.0,2.9926739926739927,334.14932680538556,-18.95542217819474,-7.914457199463899,-2.3565060311170676,1199.2673992673992,-1.0,101.72711750400994,3.010159327224236,332.20967023384156,
2023-12-18 15:11:45.209000,-6.734939759036145,-6.204819277108434,-3.698795180722892,-6.27835683629675,-6.504598405885959,-3.291232372777437,2.0,2.9912087912087912,334.313005143277,-18.63481149117184,-8.967892313967717,-2.4786434356972205,1187.5457875457876,-1.0,101.72711750400994,3.0099548014629494,332.2322347351346,
2023-12-18 15:11:45.217000,-6.746987951807229,-6.168674698795181,-3.6867469879518073,-6.300429184549356,-6.5070508890251375,-3.2053954629061923,2.0,2.9912087912087912,334.313005143277,-18.680613017889396,-9.88392284831886,-2.219101450964396,1184.6153846153845,-1.0,101.72711750400994,3.0097509894074013,332.25472359346134,
2023-12-18 15:11:45.224000,-6.662650602409639,-6.1325301204819285,-3.7108433734939763,-6.204782342121398,-6.428571428571428,-3.256897608828939,2.0,2.9912087912087912,334.313005143277,-19.016490880484817,-9.838121321601303,-2.539712137987297,1186.080586080586,-1.0,101.72711750400994,3.0095478865299037,332.2771372763507,
2023-12-18 15:11:45.232000,-6.734939759036145,-6.204819277108434,-3.7590361445783134,-6.302881667688534,-6.521765787860208,-3.2985898221949723,2.0,2.9912087912087912,334.313005143277,-18.97068935376726,-10.067128955189089,-2.98246022959035,1191.2087912087911,-1.0,101.72711750400994,3.0093454886842084,332.2994762101285,
2023-12-18 15:11:45.240000,-6.759036144578314,-6.156626506024097,-3.771084337349398,-6.253832004904966,-6.531575720416922,-3.337829552421827,2.0,2.9912087912087912,334.313005143277,-18.80275042246955,-11.471709107860846,-2.6618495425674493,1203.6630036630036,-1.0,101.72711750400994,3.0091437916007497,332.32174083478276,
2023-12-18 15:11:45.247000,-6.72289156626506,-6.120481927710844,-3.7590361445783134,-6.148375229920294,-6.458001226241569,-3.2887798896382585,2.0,2.9912087912087912,334.313005143277,-18.665345842316878,-11.88392284831886,-2.7229182448575258,1221.245421245421,-1.0,101.72711750400994,3.0089427904844905,332.3439316476742,
2023-12-18 15:11:45.255000,-6.674698795180723,-6.072289156626506,-3.734939759036145,-6.050275904353157,-6.413856529736358,-3.320662170447578,2.0,2.9912087912087912,334.313005143277,-19.2454985140726,-11.792319794883745,-3.5778800769185946,1244.6886446886447,-1.0,101.72711750400994,3.0087424805247807,332.36604914810005,
2023-12-18 15:11:45.263000,-6.771084337349398,-6.1084337349397595,-3.7228915662650603,-6.204782342121398,-6.531575720416922,-3.303494788473329,2.0,2.9912087912087912,334.313005143277,-18.833284773614587,-11.257968649845578,-3.8374220616514187,1270.3296703296703,-1.0,101.72711750400994,3.008542857369614,332.3880937857284,
2023-12-18 15:11:45.270000,-6.795180722891566,-6.096385542168675,-3.7831325301204823,-6.163090128755364,-6.570815450643776,-3.354996934396076,2.0,2.9912087912087912,334.313005143277,-18.985956529339777,-12.693083153662371,-4.3717732066895865,1297.4358974358975,597.47314453125,100.42292368985596,3.008343917074246,332.4100659661693,
2023-12-18 15:11:45.278000,-6.746987951807229,-6.096385542168675,-3.771084337349398,-6.209687308399754,-6.5144083384426725,-3.3108522378908645,2.0,2.9912087912087912,334.313005143277,-18.665345842316878,-13.792319794883745,-3.9748266418040905,1327.4725274725274,-1.0,100.42292368985596,3.008145655628501,332.43196610234634,
2023-12-18 15:11:45.286000,-6.83132530120482,-6.048192771084338,-3.7108433734939763,-6.089515634580012,-6.605150214592275,-3.1906805640711218,2.0,2.9912087912087912,334.313005143277,-18.985956529339777,-13.257968649845578,-5.043528931880426,1359.7069597069597,-1.0,100.42292368985596,3.0079480689761846,332.45379461236615,
2023-12-18 15:11:45.293000,-6.795180722891566,-6.096385542168675,-3.7590361445783134,-6.101778050275904,-6.605150214592275,-3.2765174739423664,2.0,2.9912087912087912,334.313005143277,-19.199696987355047,-13.502243459005884,-5.684750305926228,1388.278388278388,-1.0,100.42292368985596,3.0077511530342567,332.4755519174136,
2023-12-18 15:11:45.301000,-6.807228915662651,-6.0361445783132535,-3.734939759036145,-6.101778050275904,-6.453096259963212,-3.296137339055794,2.0,2.9912087912087912,334.313005143277,-19.12336110949245,-13.71598391702115,-6.051162519666686,1414.6520146520145,-1.0,100.42292368985596,3.0075549041699046,332.4972383898143,
2023-12-18 15:11:45.309000,-6.746987951807229,-6.0843373493975905,-3.734939759036145,-6.199877375843041,-6.5291232372777435,-3.2078479460453706,2.0,2.9912087912087912,334.313005143277,-18.711147369034435,-14.051861779616571,-6.158032748674319,1436.6300366300366,-1.0,100.42292368985596,3.007359318694963,332.5188544080233,
2023-12-18 15:11:45.316000,-6.891566265060241,-6.0843373493975905,-3.6867469879518073,-6.172900061312078,-6.678724708767627,-3.180870631514408,2.0,2.9912087912087912,334.313005143277,-19.367635918652756,-14.952625138395197,-6.096964046384243,1454.9450549450548,-1.0,100.42292368985596,3.0071643929227956,332.54040035040396,
2023-12-18 15:11:45.324000,-6.867469879518072,-6.024096385542169,-3.6746987951807233,-6.126302881667688,-6.592887798896382,-3.2372777437155116,2.0,2.9912087912087912,334.313005143277,-18.756948895751993,-14.189266359769242,-6.570246489132335,1466.6666666666665,-1.0,100.42292368985596,3.0069701236140736,332.56187654668526,
2023-12-18 15:11:45.332000,-6.783132530120482,-5.987951807228916,-3.662650602409639,-6.028203556100552,-6.4996934396076025,-3.1980380134886572,2.0,2.98974358974359,334.47684391080617,-19.321834391935198,-13.71598391702115,-7.043528931880426,1470.3296703296703,-1.0,100.42292368985596,3.006776507967752,332.58328327885596,
2023-12-18 15:11:45.339000,-6.759036144578314,-6.168674698795181,-3.734939759036145,-6.26364193746168,-6.641937461679951,-3.266707541385653,2.0,2.9912087912087912,334.313005143277,-18.726414544606953,-14.112930481906647,-7.196200687605617,1468.8644688644688,-1.0,100.42292368985596,3.0065835426297696,332.60462089052436,
2023-12-18 15:11:45.347000,-6.927710843373494,-6.072289156626506,-3.6746987951807233,-6.0625383200490495,-6.715511955855303,-3.2078479460453706,2.0,2.9912087912087912,334.313005143277,-18.65007866674436,-15.670182390303593,-6.4786434356972205,1464.4688644688645,-1.0,100.42292368985596,3.0063912241777024,332.6258897328635,
2023-12-18 15:11:45.355000,-6.855421686746988,-6.072289156626506,-3.6506024096385543,-6.118945432250153,-6.563458001226241,-3.161250766400981,2.0,2.9912087912087912,334.313005143277,-18.207330575141306,-15.090029718547868,-6.6923838937124875,1458.6080586080584,-1.0,100.42292368985596,3.0061995500985983,332.647090056534,
2023-12-18 15:11:45.362000,-6.759036144578314,-6.0361445783132535,-3.626506024096386,-6.248927038626609,-6.538933169834457,-3.1072961373390555,2.0,2.9882783882783883,334.6408433439569,-19.016490880484817,-13.39537322999825,-6.845055649437678,1449.8168498168498,-1.0,100.42292368985596,3.006008517871382,332.6682221129024,
2023-12-18 15:11:45.370000,-6.879518072289157,-6.0843373493975905,-3.6385542168674703,-6.1704475781729,-6.632127529123237,-3.1784181483752296,2.0,2.9882783882783883,334.6408433439569,-18.756948895751993,-14.128197657479166,-6.967193054017831,1440.2930402930401,-1.0,100.42292368985596,3.0058181244732345,332.68928621061013,
2023-12-18 15:11:45.378000,-6.83132530120482,-6.0361445783132535,-3.6506024096385543,-6.148375229920294,-6.538933169834457,-3.215205395462906,2.0,2.98974358974359,334.47684391080617,-18.756948895751993,-14.128197657479166,-6.967193054017831,1432.2344322344322,-1.0,100.42292368985596,3.0056283662028793,332.71028273519244,
2023-12-18 15:11:45.385000,-6.807228915662651,-6.048192771084338,-3.6385542168674703,-6.121397915389331,-6.605150214592275,-3.114653586756591,2.0,2.98974358974359,334.47684391080617,-18.78748324689703,-13.990793077326494,-7.089330458597984,1424.1758241758241,-1.0,100.42292368985596,3.005439239625606,332.7312120419715,
2023-12-18 15:11:45.393000,-6.746987951807229,-6.0,-3.6506024096385543,-6.067443286327406,-6.4114040465971796,-3.1931330472103,2.0,2.98974358974359,334.47684391080617,-18.604277140026802,-13.517510634578402,-7.196200687605617,1419.047619047619,-1.0,100.42292368985596,3.005250741674238,332.7520744448054,
2023-12-18 15:11:45.401000,-6.819277108433735,-6.0843373493975905,-3.6144578313253013,-6.18516247700797,-6.664009809932557,-3.22501532801962,2.0,2.98974358974359,334.47684391080617,-18.237864926286342,-13.593846512440997,-6.875590000582716,1413.1868131868132,-1.0,100.42292368985596,3.0050628692252443,332.77287026357925,
2023-12-18 15:11:45.408000,-6.879518072289157,-6.048192771084338,-3.6506024096385543,-6.150827713059472,-6.75229920294298,-3.144083384426732,2.0,2.98974358974359,334.47684391080617,-18.360002330866497,-13.685449565876112,-7.440475496765923,1406.5934065934066,-1.0,100.42292368985596,3.0048756191331836,332.7935998203953,
2023-12-18 15:11:45.416000,-6.819277108433735,-6.048192771084338,-3.5783132530120483,-6.158185162477007,-6.59534028203556,-3.173513182096873,2.0,2.98974358974359,334.47684391080617,-18.176796223996266,-12.983159489540235,-7.65421595478119,1400.7326007326005,-1.0,100.42292368985596,3.004688988265718,332.81426343569734,
2023-12-18 15:11:45.424000,-6.783132530120482,-5.975903614457832,-3.6385542168674703,-6.0110361741263025,-6.553648068669528,-3.126916002452483,2.0,2.98974358974359,334.47684391080617,-18.390536682011533,-12.525144222364663,-8.066429695239204,1392.6739926739926,-1.0,100.42292368985596,3.004502973997226,332.8348613743437,
2023-12-18 15:11:45.431000,-6.855421686746988,-6.096385542168675,-3.6506024096385543,-6.175352544451257,-6.634580012262416,-3.1955855303494785,2.0,2.98974358974359,334.47684391080617,-18.63481149117184,-11.196899947555503,-8.203834275391877,1384.6153846153845,-1.0,100.42292368985596,3.00431757417812,332.8553938488952,
2023-12-18 15:11:45.439000,-6.867469879518072,-6.0361445783132535,-3.662650602409639,-6.074800735744941,-6.610055180870631,-3.1980380134886572,2.0,2.9882783882783883,334.6408433439569,-18.13099469727871,-11.822854146028785,-8.280170153254472,1375.091575091575,-1.0,100.42292368985596,3.004132786683998,332.87586106875216,
2023-12-18 15:11:45.447000,-6.855421686746988,-6.024096385542169,-3.6144578313253013,-6.10913549969344,-6.622317596566523,-3.1784181483752296,2.0,2.98974358974359,334.47684391080617,-17.795116834683288,-12.357205291066952,-7.929025115086533,1366.3003663003662,-1.0,100.42292368985596,3.0039486089651635,332.8962632906279,
2023-12-18 15:11:45.454000,-6.891566265060241,-6.048192771084338,-3.626506024096386,-6.10913549969344,-6.676272225628448,-3.1710606989576946,2.0,2.98974358974359,334.47684391080617,-17.62717790338558,-11.975525901753976,-7.883223588368976,1358.2417582417581,-1.0,100.42292368985596,3.003765038509765,332.91660076675834,
2023-12-18 15:11:45.462000,-6.903614457831326,-6.060240963855422,-3.6746987951807233,-6.101778050275904,-6.698344573881054,-3.185775597792765,2.0,2.9882783882783883,334.6408433439569,-17.382903094225274,-11.960258726181456,-7.852689237223938,1351.6483516483515,-1.0,100.42292368985596,3.0035820734114673,332.93687368141184,
2023-12-18 15:11:45.470000,-6.927710843373494,-6.0120481927710845,-3.6746987951807233,-6.006131207847946,-6.717964438994482,-3.185775597792765,2.0,2.9882783882783883,334.6408433439569,-16.08519317056115,-12.357205291066952,-6.936658702872792,1345.7875457875457,-1.0,100.42292368985596,3.0033997119199283,332.9570822024856,
2023-12-18 15:11:45.477000,-6.891566265060241,-5.927710843373494,-3.626506024096386,-5.917841814837523,-6.583077866339669,-3.2176578786020844,2.0,2.9882783882783883,334.6408433439569,-17.062292407202374,-12.952625138395197,-7.348872443330808,1342.1245421245421,-1.0,100.42292368985596,3.003217952345136,332.9772264920777,
2023-12-18 15:11:45.485000,-6.91566265060241,-6.096385542168675,-3.6746987951807233,-6.24647455548743,-6.8111587982832615,-3.2127529123237277,2.0,2.9882783882783883,334.6408433439569,-17.688246605675655,-11.822854146028785,-8.005360992949129,1339.194139194139,-1.0,100.42292368985596,3.0030367930657937,332.99730670428056,
2023-12-18 15:11:45.492000,-7.0,-6.048192771084338,-3.7108433734939763,-6.0919681177191904,-6.75229920294298,-3.2103004291845494,2.0,2.9882783882783883,334.6408433439569,-16.863819124759626,-13.028961016257792,-7.669483130353709,1336.9963369963368,-1.0,100.42292368985596,3.002856232571924,333.01732298046784,
2023-12-18 15:11:45.500000,-6.951807228915663,-5.987951807228916,-3.6746987951807233,-5.98405885959534,-6.666462293071735,-3.261802575107296,2.0,2.9882783882783883,334.6408433439569,-16.573742788881763,-13.502243459005884,-7.226735038750656,1336.9963369963368,-1.0,100.42292368985596,3.0026762699648017,333.0372753945772,
2023-12-18 15:11:45.508000,-6.9397590361445785,-6.0843373493975905,-3.6506024096385543,-6.160637645616186,-6.789086450030656,-3.163703249540159,2.0,2.9882783882783883,334.6408433439569,-16.695880193461914,-13.013693840685272,-7.31833809218577,1339.9267399267399,-1.0,100.42292368985596,3.0024969049312307,333.0571639558674,
2023-12-18 15:11:45.515000,-6.9397590361445785,-5.963855421686747,-3.6867469879518073,-5.9448191293684856,-6.769466584917228,-3.256897608828939,2.0,2.986813186813187,334.80500367917585,-15.3218343919352,-12.601480100227258,-6.081696870811724,1343.5897435897434,-1.0,100.42292368985596,3.0023181372962147,333.076988657777,
2023-12-18 15:11:45.523000,-6.975903614457832,-5.951807228915663,-3.662650602409639,-6.067443286327406,-6.796443899448191,-3.1906805640711218,2.0,2.986813186813187,334.80500367917585,-16.65007866674436,-12.754151855952449,-6.707651069285006,1347.2527472527472,-1.0,100.42292368985596,3.0021399674902214,333.0967494279611,
2023-12-18 15:11:45.531000,-6.927710843373494,-6.0,-3.6867469879518073,-6.020846106683016,-6.639484978540772,-3.2127529123237277,2.0,2.986813186813187,334.80500367917585,-16.45160538430161,-12.296136588776877,-7.043528931880426,1348.7179487179487,-1.0,100.42292368985596,3.001962395927696,333.1164461965056,
2023-12-18 15:11:45.538000,-6.891566265060241,-5.975903614457832,-3.7228915662650603,-6.096873083997547,-6.659104843654199,-3.2495401594114037,2.0,2.986813186813187,334.80500367917585,-16.329467979721457,-11.86865567274634,-6.539712137987297,1348.7179487179487,-1.0,100.42292368985596,3.0017854225918232,333.13607894019816,
2023-12-18 15:11:45.546000,-6.91566265060241,-6.024096385542169,-3.7228915662650603,-6.052728387492336,-6.664009809932557,-3.1906805640711218,2.0,2.986813186813187,334.80500367917585,-16.222597750713824,-12.326670939921915,-6.295437328826991,1348.7179487179487,-1.0,100.42292368985596,3.001609047564884,333.1556476243954,
2023-12-18 15:11:45.554000,-6.855421686746988,-6.024096385542169,-3.7469879518072293,-6.1066830165542605,-6.727774371551195,-3.2421827099938687,2.0,2.986813186813187,334.80500367917585,-15.184429811782529,-12.2350678864868,-5.532078550201037,1350.18315018315,-1.0,100.42292368985596,3.0014332710636364,333.1751521991224,
2023-12-18 15:11:45.561000,-6.951807228915663,-5.879518072289157,-3.6385542168674703,-5.939914163090129,-6.75229920294298,-3.261802575107296,2.0,2.986813186813187,334.80500367917585,-15.16916263621001,-12.57094574908222,-4.997727405162869,1351.6483516483515,-1.0,100.42292368985596,3.001258093472438,333.1945925954179,
2023-12-18 15:11:45.569000,-6.9397590361445785,-5.903614457831326,-3.6867469879518073,-5.942366646229307,-6.703249540159411,-3.202942979767014,2.0,2.986813186813187,334.80500367917585,-16.176796223996266,-10.89155643610512,-5.638948779208671,1358.974358974359,-1.0,100.42292368985596,3.0010835153742192,333.2139687219194,
2023-12-18 15:11:45.577000,-6.891566265060241,-5.867469879518072,-3.7228915662650603,-5.92274678111588,-6.708154506437768,-3.2201103617412628,2.0,2.986813186813187,334.80500367917585,-15.993590117126038,-10.280869413204357,-5.837422061651418,1375.091575091575,-1.0,100.42292368985596,3.0009095375793624,333.2332804616778,
2023-12-18 15:11:45.584000,-6.951807228915663,-6.0120481927710845,-3.734939759036145,-6.064990803188228,-6.727774371551195,-3.232372777437155,2.0,2.986813186813187,334.80500367917585,-15.230231338500085,-11.242701474273058,-5.65421595478119,1400.7326007326005,-1.0,100.42292368985596,3.0007361616104884,333.25252761902937,
2023-12-18 15:11:45.592000,-7.024096385542169,-5.927710843373494,-3.7469879518072293,-5.991416309012875,-6.931330472103004,-3.1833231146535867,2.0,2.986813186813187,334.80500367917585,-14.512674086591689,-11.639648039158555,-4.829788473865159,1438.095238095238,-1.0,100.42292368985596,3.0005633896602393,333.2717099242042,
2023-12-18 15:11:45.600000,-7.024096385542169,-5.819277108433735,-3.6867469879518073,-5.856529736358063,-6.784181483752299,-3.2127529123237277,2.0,2.986813186813187,334.80500367917585,-14.894353475904666,-12.494609871219625,-5.272536565468212,1489.3772893772893,-1.0,100.42292368985596,3.000391224126166,333.29082708426523,
2023-12-18 15:11:45.607000,-7.0,-5.879518072289157,-3.7228915662650603,-5.915389331698345,-6.717964438994482,-3.266707541385653,2.0,2.986813186813187,334.80500367917585,-14.863819124759628,-11.319037352135656,-5.944292290659052,1553.113553113553,-1.0,100.42292368985596,3.0002196676360144,333.30987878032664,
2023-12-18 15:11:45.615000,-6.975903614457832,-5.867469879518072,-3.7831325301204823,-5.9742489270386265,-6.779276517473942,-3.274064990803188,2.0,2.986813186813187,334.80500367917585,-14.65007866674436,-11.777052619311227,-6.295437328826991,1627.8388278388277,-1.0,100.42292368985596,3.000048723070819,333.32886466501145,
2023-12-18 15:11:45.623000,-6.963855421686747,-5.855421686746988,-3.7469879518072293,-5.947271612507664,-6.73513182096873,-3.293684855916615,2.0,2.985347985347986,334.9693251533742,-14.268399277431383,-12.784686207097486,-6.829788473865159,1704.0293040293038,-1.0,100.42292368985596,2.9998783935859716,333.3477843601348,
2023-12-18 15:11:45.630000,-6.987951807228916,-5.891566265060241,-3.6867469879518073,-5.9742489270386265,-6.703249540159411,-3.1882280809319434,2.0,2.985347985347986,334.9693251533742,-13.932521414835962,-13.456441932288326,-6.600780840277373,1776.5567765567764,-1.0,100.42292368985596,2.9997086825955974,333.36663745963745,
2023-12-18 15:11:45.638000,-6.975903614457832,-5.879518072289157,-3.6746987951807233,-5.868792152053954,-6.7743715511955855,-3.2127529123237277,2.0,2.985347985347986,334.9693251533742,-13.932521414835962,-13.349571703280693,-6.203834275391877,1842.4908424908424,-1.0,100.42292368985596,2.999539593650536,333.38542354314245,
2023-12-18 15:11:45.646000,-7.0,-5.903614457831326,-3.6867469879518073,-6.008583690987124,-6.781729000613121,-3.232372777437155,2.0,2.986813186813187,334.80500367917585,-13.718780956820696,-14.158732008624204,-6.0358953440941665,1894.5054945054944,-1.0,100.42292368985596,2.9993711304180968,333.4041421770449,
2023-12-18 15:11:45.653000,-6.975903614457832,-5.903614457831326,-3.662650602409639,-5.998773758430411,-6.784181483752299,-3.251992642550582,2.0,2.985347985347986,334.9693251533742,-13.718780956820696,-14.158732008624204,-6.0358953440941665,1929.6703296703295,-1.0,100.42292368985596,2.9992032971865834,333.42279285797434,
2023-12-18 15:11:45.661000,-6.987951807228916,-5.891566265060241,-3.662650602409639,-5.925199264255058,-6.742489270386265,-3.1980380134886572,2.0,2.986813186813187,334.80500367917585,-13.535574849950468,-14.204533535341762,-6.158032748674319,1945.7875457875457,-1.0,100.42292368985596,2.999036098454161,333.4413750589408,
2023-12-18 15:11:45.669000,-6.987951807228916,-5.891566265060241,-3.662650602409639,-5.93746167995095,-6.727774371551195,-3.122011036174126,2.0,2.983882783882784,335.1338080039283,-13.123361109492452,-14.494609871219623,-6.051162519666686,1942.124542124542,-1.0,100.42292368985596,2.998869538904066,333.45988823215094,
2023-12-18 15:11:45.676000,-6.963855421686747,-5.867469879518072,-3.6506024096385543,-5.925199264255058,-6.715511955855303,-3.156345800122624,2.0,2.985347985347986,334.9693251533742,-12.756948895751993,-13.929724375036418,-6.280170153254472,1920.8791208791208,-1.0,100.42292368985596,2.9987036234127618,333.4783318092711,
2023-12-18 15:11:45.684000,-6.891566265060241,-5.795180722891566,-3.626506024096386,-5.851624770079705,-6.585530349478847,-3.1686082158185163,2.0,2.985347985347986,334.9693251533742,-12.48213973544665,-13.609113688013517,-6.158032748674319,1883.5164835164833,-1.0,100.42292368985596,2.9985383568823347,333.4967052200472,
2023-12-18 15:11:45.692000,-7.0120481927710845,-6.0361445783132535,-3.6506024096385543,-6.207234825260576,-6.9068056407112195,-3.13182096873084,2.0,2.985347985347986,334.9693251533742,-12.634811491171842,-11.73125109259367,-7.089330458597984,1832.9670329670328,-1.0,100.42292368985596,2.9983737447370817,333.5150078354173,
2023-12-18 15:11:45.699000,-7.0361445783132535,-5.91566265060241,-3.6385542168674703,-5.964438994481912,-6.850398528510116,-3.1465358675659103,2.0,2.985347985347986,334.9693251533742,-11.505040498805428,-12.708350329234891,-6.31070450439951,1775.8241758241757,-1.0,100.42292368985596,2.9982097924698223,333.53323901847773,
2023-12-18 15:11:45.707000,-7.0120481927710845,-5.843373493975904,-3.626506024096386,-5.9816063764561616,-6.789086450030656,-3.13182096873084,2.0,2.985347985347986,334.9693251533742,-11.6424450789581,-12.5556785735097,-5.944292290659052,1713.5531135531135,-1.0,100.42292368985596,2.998046505644211,333.5513981242519,
2023-12-18 15:11:45.715000,-6.975903614457832,-5.9397590361445785,-3.5542168674698797,-6.001226241569589,-6.754751686082158,-3.08522378908645,2.0,2.985347985347986,334.9693251533742,-11.184429811782529,-11.654915214731075,-6.005360992949129,1648.3516483516482,-1.0,100.42292368985596,2.997883889895463,333.56948449963664,
2023-12-18 15:11:45.722000,-6.987951807228916,-5.879518072289157,-3.6506024096385543,-5.903126916002452,-6.759656652360515,-3.1367259350091965,2.0,2.985347985347986,334.9693251533742,-11.108093933919934,-10.341938115494433,-5.5778800769185946,1584.6153846153845,-1.0,100.42292368985596,2.9977219509297304,333.58749748349607,
2023-12-18 15:11:45.730000,-6.987951807228916,-5.91566265060241,-3.6144578313253013,-5.9448191293684856,-6.816063764561618,-3.1293684855916615,2.0,2.985347985347986,334.9693251533742,-10.83328477361459,-9.593846512440999,-5.776353359361343,1521.6117216117216,-1.0,100.42292368985596,2.997560694522392,333.60543640687405,
