Shimmer_F5D4_Timestamp_FormattedUnix_CAL,Shimmer_F5D4_Accel_LN_X_CAL,Shimmer_F5D4_Accel_LN_Y_CAL,Shimmer_F5D4_Accel_LN_Z_CAL,Shimmer_F5D4_Accel_WR_X_CAL,Shimmer_F5D4_Accel_WR_Y_CAL,Shimmer_F5D4_Accel_WR_Z_CAL,Shimmer_F5D4_GSR_Range_CAL,Shimmer_F5D4_GSR_Skin_Conductance_CAL,Shimmer_F5D4_GSR_Skin_Resistance_CAL,Shimmer_F5D4_Gyro_X_CAL,Shimmer_F5D4_Gyro_Y_CAL,Shimmer_F5D4_Gyro_Z_CAL,Shimmer_F5D4_PPG_A13_CAL,Shimmer_F5D4_PPG_IBI_CAL,Shimmer_F5D4_PPGtoHR_CAL,Shimmer_F5D4_GSR_Skin_Conductance_LPF_CAL,
yyyy/mm/dd hh:mm:ss.000,m/(s^2),m/(s^2),m/(s^2),m/(s^2),m/(s^2),m/(s^2),no_units,uS,kOhms,deg/s,deg/s,deg/s,mV,ms,BPM,uS,
2023-08-17 10:44:46.572000,-8.144578313253012,0.5542168674698795,5.204819277108434,0.82158185162477,-8.196811771919068,5.7290006131207845,3.0,1.3495393495393495,740.9935844711301,-0.004428646349280464,-0.0666627818891669,0.2186352776644714,1350.9157509157508,-1.0,92.15280056245606,1.3502288263908748,
2023-08-17 10:44:46.580000,-8.132530120481928,0.5542168674698795,5.19277108433735,0.7823421213979154,-8.133047210300429,5.7363580625383195,3.0,1.3499833499833502,740.7498766650222,0.3476487384185069,0.17248412097197122,0.3821455626129013,1384.6153846153845,-1.0,92.15280056245606,1.350216369219769,
2023-08-17 10:44:46.587000,-8.156626506024097,0.5662650602409639,5.216867469879518,0.8068669527896996,-8.243408951563458,5.704475781729,3.0,1.348651348651349,741.4814814814814,0.3453178719188867,0.16607423809801306,0.3927510051861782,1421.245421245421,-1.0,92.15280056245606,1.3502039454344517,
2023-08-17 10:44:46.595000,-8.156626506024097,0.5783132530120483,5.168674698795181,0.8044144696505211,-8.204169221336603,5.672593500919681,3.0,1.348651348651349,741.4814814814814,-0.08729095041081487,0.24019579278596737,0.4616281102499854,1462.2710622710622,-1.0,92.15280056245606,1.3501915546464223,
2023-08-17 10:44:46.603000,-8.156626506024097,0.5662650602409639,5.168674698795181,0.7896995708154506,-8.164929491109747,5.763335377069282,3.0,1.3490953490953492,741.2374526904722,-0.0737719247130118,0.2989336285764235,0.6393566808461046,1504.0293040293038,-1.0,92.15280056245606,1.3501791962071945,
2023-08-17 10:44:46.610000,-8.156626506024097,0.5903614457831325,5.168674698795181,0.7529123237277743,-8.22378908645003,5.716738197424893,3.0,1.3495393495393495,740.9935844711301,0.15208903910028493,0.11293048190664923,0.40300681778451136,1543.5897435897434,-1.0,92.15280056245606,1.3501668695043876,
2023-08-17 10:44:46.618000,-8.144578313253012,0.5903614457831325,5.1807228915662655,0.7381974248927038,-8.169834457388106,5.7069282648681785,3.0,1.3495393495393495,740.9935844711301,-0.024124468271080012,0.11106578870695237,0.2741099003554572,1579.4871794871794,-1.0,92.15280056245606,1.3501545741497338,
2023-08-17 10:44:46.626000,-8.120481927710843,0.6144578313253012,5.156626506024097,0.7823421213979154,-8.167381974248926,5.716738197424893,3.0,1.3495393495393495,740.9935844711301,0.21140959151564523,-0.03239904434473502,0.31093759104947266,1608.058608058608,-1.0,92.15280056245606,1.3501423100283514,
2023-08-17 10:44:46.633000,-8.084337349397591,0.6265060240963856,5.168674698795181,0.8657265481299815,-8.184549356223176,5.697118332311465,3.0,1.3495393495393495,740.9935844711301,0.0476662199172541,-0.14253248645183897,0.19252957286871414,1629.3040293040292,-1.0,92.15280056245606,1.3501300771567224,
2023-08-17 10:44:46.641000,-8.132530120481928,0.6265060240963856,5.1807228915662655,0.8534641324340895,-8.22624156958921,5.731453096259963,3.0,1.3490953490953492,741.2374526904722,0.41792436338208666,-0.4812073888468041,0.08787366703572036,1643.2234432234432,-1.0,92.15280056245606,1.3501178755612235,
2023-08-17 10:44:46.649000,-8.144578313253012,0.6265060240963856,5.216867469879518,0.8313917841814837,-8.196811771919068,5.741263028816676,3.0,1.3490953490953492,741.2374526904722,0.20581551191655467,-0.4999708641687552,0.21420663131519138,1652.7472527472526,-1.0,92.15280056245606,1.3501057052835854,
2023-08-17 10:44:46.656000,-8.132530120481928,0.6265060240963856,5.19277108433735,0.8142244022072348,-8.182096873083998,5.679950950337216,3.0,1.3490953490953492,741.2374526904722,0.0427714002680503,-0.48761727172076225,-0.009789639298409356,1652.7472527472526,-1.0,92.15280056245606,1.3500935663640072,
2023-08-17 10:44:46.664000,-8.120481927710843,0.6265060240963856,5.204819277108434,0.8559166155732679,-8.162477007970569,5.679950950337216,3.0,1.3495393495393495,740.9935844711301,-0.16141250509877092,-0.2132742847153421,0.041722510343220165,1646.153846153846,-1.0,92.15280056245606,1.350081458982692,
2023-08-17 10:44:46.672000,-8.108433734939759,0.6144578313253012,5.1807228915662655,0.8362967504598405,-8.196811771919068,5.7290006131207845,3.0,1.3490953490953492,741.2374526904722,0.08018180758696997,-0.22947380688771132,0.01223704912301126,1635.8974358974358,-1.0,92.15280056245606,1.3500693837499862,
2023-08-17 10:44:46.679000,-8.132530120481928,0.6144578313253012,5.168674698795181,0.851011649294911,-8.164929491109747,5.746167995095034,3.0,1.3495393495393495,740.9935844711301,-0.39752928151040207,-0.13484062700308813,-0.3241069867723328,1623.4432234432234,-1.0,92.15280056245606,1.3500573414212185,
2023-08-17 10:44:46.687000,-8.144578313253012,0.6024096385542169,5.156626506024097,0.8338442673206621,-8.213979153893316,5.714285714285714,3.0,1.3495393495393495,740.9935844711301,-0.2018530388671993,0.20628168521647974,0.10465590583299378,1613.9194139194137,-1.0,92.15280056245606,1.3500453327601187,
2023-08-17 10:44:46.694000,-8.168674698795181,0.6144578313253012,5.132530120481928,0.8706315144083384,-8.263028816676885,5.675045984058859,3.0,1.3495393495393495,740.9935844711301,-0.099527999533827,0.08717440708583403,-0.06666278188916733,1602.9304029304028,-1.0,92.15280056245606,1.3500333588486957,
2023-08-17 10:44:46.702000,-8.19277108433735,0.6024096385542169,5.144578313253012,0.8412017167381973,-8.233599019006745,5.726548129981606,3.0,1.3495393495393495,740.9935844711301,0.14043470660217872,0.3359944059204007,-0.10011071615873206,1588.278388278388,-1.0,92.15280056245606,1.3500214209494277,
2023-08-17 10:44:46.710000,-8.19277108433735,0.6024096385542169,5.168674698795181,0.7847946045370937,-8.25567136725935,5.748620478234212,3.0,1.3495393495393495,740.9935844711301,0.012703222422935475,0.2615232212575021,-0.1616455917487326,1575.091575091575,-1.0,92.15280056245606,1.3500095206444258,
2023-08-17 10:44:46.717000,-8.19277108433735,0.5783132530120483,5.156626506024097,0.7676272225628449,-8.19435928877989,5.630901287553648,3.0,1.3490953490953492,741.2374526904722,-0.035429170794241974,0.18786783986947114,-0.05698968591573925,1561.1721611721612,-1.0,92.15280056245606,1.349997659814961,
2023-08-17 10:44:46.725000,-8.180722891566266,0.5783132530120483,5.156626506024097,0.8117719190680563,-8.184549356223176,5.716738197424893,3.0,1.3490953490953492,741.2374526904722,-0.4315599324048723,-0.28017015325447236,-0.0758697045626712,1545.7875457875457,-1.0,92.15280056245606,1.3499858402048215,
2023-08-17 10:44:46.733000,-8.168674698795181,0.5903614457831325,5.168674698795181,0.7847946045370937,-8.177191906805641,5.6848559166155725,3.0,1.3495393495393495,740.9935844711301,-0.21292465474039957,-0.28576423285356295,0.011188159198181996,1526.7399267399267,-1.0,92.15280056245606,1.349974063557552,
2023-08-17 10:44:46.740000,-8.168674698795181,0.5662650602409639,5.168674698795181,0.7774371551195585,-8.187001839362354,5.697118332311465,3.0,1.3482073482073482,741.7256710027992,0.01794767204708353,-0.41361226035778875,0.021210885146553025,1505.4945054945053,-1.0,92.15280056245606,1.34996233202971,
2023-08-17 10:44:46.748000,-8.144578313253012,0.5903614457831325,5.19277108433735,0.8436541998773758,-8.218884120171673,5.7363580625383195,3.0,1.348651348651349,741.4814814814814,-0.11712604160596629,-0.20465007866674456,0.047433133267291996,1488.6446886446886,-1.0,92.15280056245606,1.3499506478899885,
2023-08-17 10:44:46.756000,-8.156626506024097,0.6024096385542169,5.1807228915662655,0.8240343347639485,-8.20907418761496,5.726548129981606,3.0,1.3490953490953492,741.2374526904722,-0.04020744711846669,0.04556844006759558,-0.006992599498863639,1473.260073260073,658.75244140625,91.08125636986937,1.3499390132823792,
2023-08-17 10:44:46.763000,-8.144578313253012,0.5783132530120483,5.1807228915662655,0.8412017167381973,-8.152667075413856,5.714285714285714,3.0,1.3490953490953492,741.2374526904722,-0.08297884738651524,-0.21385700134024802,0.014567915622632762,1458.6080586080584,-1.0,91.08125636986937,1.3499274303912736,
2023-08-17 10:44:46.771000,-8.144578313253012,0.5903614457831325,5.156626506024097,0.7823421213979154,-8.140404659717964,5.716738197424893,3.0,1.3490953490953492,741.2374526904722,-0.1712021443971803,-0.12015616805547498,0.05116251966668614,1444.6886446886447,-1.0,91.08125636986937,1.3499159014877198,
2023-08-17 10:44:46.779000,-8.144578313253012,0.5903614457831325,5.156626506024097,0.7946045370938074,-8.211526670754138,5.711833231146535,3.0,1.3495393495393495,740.9935844711301,-0.19462735271837353,-0.10267466930831479,-0.06479808868947047,1432.2344322344322,-1.0,91.08125636986937,1.3499044289326563,
2023-08-17 10:44:46.786000,-8.120481927710843,0.6144578313253012,5.204819277108434,0.8313917841814837,-8.19435928877989,5.760882893930104,3.0,1.3490953490953492,741.2374526904722,0.012353592447992964,0.010605442573276946,-0.14929199930074008,1423.4432234432234,-1.0,91.08125636986937,1.3498930153181923,
2023-08-17 10:44:46.794000,-8.120481927710843,0.6024096385542169,5.19277108433735,0.8191293684855916,-8.206621704475781,5.68976088289393,3.0,1.3490953490953492,741.2374526904722,-0.1798263504457778,0.07691859448750134,-0.172017947672047,1416.8498168498168,-1.0,91.08125636986937,1.3498816633315078,
2023-08-17 10:44:46.802000,-8.168674698795181,0.5783132530120483,5.168674698795181,0.8117719190680563,-8.231146535867566,5.733905579399141,3.0,1.3490953490953492,741.2374526904722,-0.0363615173940904,0.31175339432433985,0.14148359652700884,1413.1868131868132,-1.0,91.08125636986937,1.349870375586648,
2023-08-17 10:44:46.809000,-8.180722891566266,0.5903614457831325,5.156626506024097,0.8068669527896996,-8.285101164929491,5.709380748007357,3.0,1.3490953490953492,741.2374526904722,0.07318920808810589,0.6684925120913693,0.025756074820814327,1409.5238095238094,-1.0,91.08125636986937,1.3498591547536358,
2023-08-17 10:44:46.817000,-8.156626506024097,0.5903614457831325,5.1807228915662655,0.8019619865113427,-8.17964438994482,5.716738197424893,3.0,1.3490953490953492,741.2374526904722,-0.03169978439484827,0.3214264902977683,-0.19660858924305122,1405.8608058608058,-1.0,91.08125636986937,1.34984800354836,
2023-08-17 10:44:46.825000,-8.180722891566266,0.5903614457831325,5.1807228915662655,0.762722256284488,-8.206621704475781,5.724095646842428,3.0,1.3490953490953492,741.2374526904722,0.12202086125517184,0.03752695064390224,-0.062234135539887304,1401.4652014652013,-1.0,91.08125636986937,1.3498369247220403,
2023-08-17 10:44:46.832000,-8.156626506024097,0.5903614457831325,5.168674698795181,0.8093194359288779,-8.19435928877989,5.78295524218271,3.0,1.3490953490953492,741.2374526904722,0.19963871569255817,-0.30674203135015515,0.10384010255812576,1397.069597069597,-1.0,91.08125636986937,1.3498259210503347,
2023-08-17 10:44:46.840000,-8.144578313253012,0.5903614457831325,5.216867469879518,0.8191293684855916,-8.184549356223176,5.778050275904353,3.0,1.3490953490953492,741.2374526904722,0.07575316123768949,-0.9237223937998958,0.006526426198939426,1393.4065934065934,-1.0,91.08125636986937,1.349814995322175,
2023-08-17 10:44:46.848000,-8.144578313253012,0.5903614457831325,5.1807228915662655,0.8534641324340895,-8.169834457388106,5.75107296137339,3.0,1.3490953490953492,741.2374526904722,0.19858982576772893,-0.7464599965036999,-0.13402482372822097,1389.7435897435896,-1.0,91.08125636986937,1.3498041503283686,
2023-08-17 10:44:46.855000,-8.132530120481928,0.5903614457831325,5.1807228915662655,0.82158185162477,-8.142857142857142,5.7069282648681785,3.0,1.3490953490953492,741.2374526904722,-0.06421537206456586,-0.583765514830138,-0.18099178369558877,1384.6153846153845,-1.0,91.08125636986937,1.3497933888500755,
2023-08-17 10:44:46.863000,-8.132530120481928,0.5903614457831325,5.156626506024097,0.82158185162477,-8.152667075413856,5.714285714285714,3.0,1.3490953490953492,741.2374526904722,-0.06701241186411114,-0.5795699551308192,-0.18052561039566456,1380.2197802197802,-1.0,91.08125636986937,1.349782713647209,
2023-08-17 10:44:46.871000,-8.120481927710843,0.5903614457831325,5.168674698795181,0.7823421213979154,-8.147762109135499,5.741263028816676,3.0,1.3490953490953492,741.2374526904722,0.09661441640930088,-0.4372705553289437,0.03461336751937525,1377.2893772893772,-1.0,91.08125636986937,1.349772127585576,
2023-08-17 10:44:46.878000,-8.120481927710843,0.5783132530120483,5.204819277108434,0.8117719190680563,-8.182096873083998,5.716738197424893,3.0,1.3490953490953492,741.2374526904722,-0.018880018646931958,0.010022725948371029,0.1276149408542624,1373.6263736263736,-1.0,91.08125636986937,1.3497616336049876,
2023-08-17 10:44:46.886000,-8.156626506024097,0.5783132530120483,5.19277108433735,0.8019619865113427,-8.167381974248926,5.697118332311465,3.0,1.3495393495393495,740.9935844711301,0.11642678165608127,0.05768894586562513,0.2478876522347182,1370.6959706959706,-1.0,91.08125636986937,1.349751234421121,
2023-08-17 10:44:46.894000,-8.144578313253012,0.5783132530120483,5.156626506024097,0.7651747394236664,-8.184549356223176,5.743715511955855,3.0,1.3482073482073482,741.7256710027992,-0.10080997610861794,0.3179301905483363,0.06747858516403492,1364.8351648351647,-1.0,91.08125636986937,1.3497409326851433,
2023-08-17 10:44:46.901000,-8.144578313253012,0.5662650602409639,5.144578313253012,0.8019619865113427,-8.164929491109747,5.645616186388718,3.0,1.348651348651349,741.4814814814814,-0.009440009323466846,0.6080065264261989,0.08554280053609929,1358.974358974359,-1.0,91.08125636986937,1.3497307309732123,
2023-08-17 10:44:46.909000,-8.180722891566266,0.5783132530120483,5.168674698795181,0.7210300429184548,-8.191906805640711,5.68976088289393,3.0,1.348651348651349,741.4814814814814,-0.1491754559757588,0.16036361517394165,0.2263271371132218,1353.113553113553,-1.0,91.08125636986937,1.3497206315426562,
2023-08-17 10:44:46.917000,-8.180722891566266,0.5662650602409639,5.1807228915662655,0.7896995708154506,-8.243408951563458,5.694665849172287,3.0,1.3490953490953492,741.2374526904722,-0.3777169162636217,0.358137637666803,-5.827166249050502E-4,1347.985347985348,-1.0,91.08125636986937,1.3497106366195442,
2023-08-17 10:44:46.924000,-8.216867469879519,0.5662650602409639,5.168674698795181,0.7725321888412017,-8.245861434702636,5.709380748007357,3.0,1.3490953490953492,741.2374526904722,0.0397412738185416,0.14241594312685812,0.3058096847503059,1344.3223443223442,-1.0,91.08125636986937,1.349700748388412,
2023-08-17 10:44:46.932000,-8.180722891566266,0.5662650602409639,5.144578313253012,0.7578172900061312,-8.253218884120171,5.675045984058859,3.0,1.3490953490953492,741.2374526904722,-0.035545714119224546,-0.0882232970106633,0.30441116485053327,1342.1245421245421,-1.0,91.08125636986937,1.3496909688757086,
2023-08-17 10:44:46.940000,-8.180722891566266,0.5783132530120483,5.156626506024097,0.7749846719803801,-8.25567136725935,5.741263028816676,3.0,1.3490953490953492,741.2374526904722,-0.3380921857700592,-0.3323815628459878,0.22667676708816517,1339.9267399267399,-1.0,91.08125636986937,1.3496812999512653,
2023-08-17 10:44:46.947000,-8.168674698795181,0.6024096385542169,5.156626506024097,0.7774371551195585,-8.24095646842428,5.721643163703249,3.0,1.3490953490953492,741.2374526904722,-0.1962589592681087,-0.4231688130062347,0.08880601363556921,1337.7289377289376,-1.0,91.08125636986937,1.3496717431809897,
2023-08-17 10:44:46.955000,-8.168674698795181,0.5903614457831325,5.1807228915662655,0.82158185162477,-8.22378908645003,5.6848559166155725,3.0,1.3490953490953492,741.2374526904722,-0.14812656605092953,-0.5715284657071259,0.2576772915331276,1336.9963369963368,-1.0,91.08125636986937,1.3496622998392522,
2023-08-17 10:44:46.963000,-8.132530120481928,0.6144578313253012,5.168674698795181,0.8461066830165542,-8.167381974248926,5.738810545677498,3.0,1.3490953490953492,741.2374526904722,0.21968416758930198,-0.26163976458248295,0.5300390420138688,1336.263736263736,-1.0,91.08125636986937,1.349652971049545,
2023-08-17 10:44:46.970000,-8.120481927710843,0.6144578313253012,5.1807228915662655,0.8853464132434089,-8.177191906805641,5.758430410790925,3.0,1.3490953490953492,741.2374526904722,0.3119864809743015,-0.44601130470252376,-0.039158557193636555,1336.263736263736,-1.0,91.08125636986937,1.3496437579154932,
2023-08-17 10:44:46.978000,-8.096385542168676,0.6385542168674699,5.228915662650603,0.8289393010423053,-8.118332311465359,5.768240343347639,3.0,1.3490953490953492,741.2374526904722,0.18728512324456695,0.12003962473049413,0.009440009323465979,1337.7289377289376,-1.0,91.08125636986937,1.3496346614936927,
2023-08-17 10:44:46.986000,-8.108433734939759,0.6144578313253012,5.228915662650603,0.8191293684855916,-8.103617412630287,5.819742489270386,3.0,1.3490953490953492,741.2374526904722,0.12656605092943313,0.2607074179826345,0.24031233611094907,1337.7289377289376,-1.0,91.08125636986937,1.3496256826399609,
2023-08-17 10:44:46.993000,-8.132530120481928,0.6024096385542169,5.216867469879518,0.8338442673206621,-8.172286940527284,5.746167995095034,3.0,1.3490953490953492,741.2374526904722,0.1409008799021038,0.3675776469902681,0.3027795583007985,1335.5311355311355,-1.0,91.08125636986937,1.3496168220057287,
2023-08-17 10:44:47.001000,-8.144578313253012,0.6024096385542169,5.19277108433735,0.8117719190680563,-8.24095646842428,5.6848559166155725,3.0,1.3490953490953492,741.2374526904722,-0.04673387331740568,0.4852864052211403,0.24171085601072215,1332.6007326007325,-1.0,91.08125636986937,1.3496080801740833,
2023-08-17 10:44:47.009000,-8.156626506024097,0.6144578313253012,5.19277108433735,0.8412017167381973,-8.162477007970569,5.716738197424893,3.0,1.3490953490953492,741.2374526904722,0.16432608822329706,0.5267758289143997,0.013985198997727278,1329.6703296703297,-1.0,91.08125636986937,1.3495994574988661,
2023-08-17 10:44:47.016000,-8.132530120481928,0.5903614457831325,5.19277108433735,0.8559166155732679,-8.16002452483139,5.697118332311465,3.0,1.348651348651349,741.4814814814814,0.02703805139560613,0.37247246663947364,-0.02995163452013268,1327.4725274725274,-1.0,91.08125636986937,1.3495909539762343,
2023-08-17 10:44:47.024000,-8.120481927710843,0.5903614457831325,5.144578313253012,0.8657265481299815,-8.174739423666463,5.748620478234212,3.0,1.3490953490953492,741.2374526904722,0.39193520191130976,0.1889167297943004,0.23320319328710462,1323.8095238095236,-1.0,91.08125636986937,1.3495825692446253,
2023-08-17 10:44:47.032000,-8.120481927710843,0.6024096385542169,5.19277108433735,0.8068669527896996,-8.147762109135499,5.755977927651747,3.0,1.3490953490953492,741.2374526904722,0.4200221432317469,0.2660684109317634,-0.28436571295379076,1320.14652014652,-1.0,91.08125636986937,1.349574302713128,
2023-08-17 10:44:47.039000,-8.132530120481928,0.6144578313253012,5.19277108433735,0.7970570202329859,-8.177191906805641,5.755977927651747,3.0,1.348651348651349,741.4814814814814,0.35580677116718107,0.02109434182157132,0.11934036478060739,1315.018315018315,-1.0,91.08125636986937,1.3495661537223809,
2023-08-17 10:44:47.047000,-8.132530120481928,0.6024096385542169,5.19277108433735,0.8338442673206621,-8.164929491109747,5.758430410790925,3.0,1.3482073482073482,741.7256710027992,0.29205757240254027,-0.13041198065380769,-0.09067070683526607,1308.4249084249084,-1.0,91.08125636986937,1.3495581211205698,
2023-08-17 10:44:47.054000,-8.156626506024097,0.6024096385542169,5.1807228915662655,0.8019619865113427,-8.231146535867566,5.7290006131207845,3.0,1.3482073482073482,741.7256710027992,0.11980653808053073,-0.08437736728628875,-0.27142940388089276,1304.7619047619046,-1.0,91.08125636986937,1.3495502035326967,
2023-08-17 10:44:47.062000,-8.156626506024097,0.6144578313253012,5.1807228915662655,0.8559166155732679,-8.211526670754138,5.6922133660331085,3.0,1.348651348651349,741.4814814814814,0.17901054717091022,-0.315133150748791,-0.0844939106112696,1301.098901098901,-1.0,91.08125636986937,1.3495423994286975,
2023-08-17 10:44:47.070000,-8.156626506024097,0.6024096385542169,5.168674698795181,0.8142244022072348,-8.213979153893316,5.726548129981606,3.0,1.3490953490953492,741.2374526904722,-0.14276557310180063,0.0026804964745644456,-0.43435697220441716,1298.168498168498,-1.0,91.08125636986937,1.3495347069890553,
2023-08-17 10:44:47.077000,-8.120481927710843,0.5903614457831325,5.1807228915662655,0.7995095033721643,-8.206621704475781,5.738810545677498,3.0,1.3490953490953492,741.2374526904722,-0.17143523104714195,-0.003962473049355383,-0.7346891206806129,1295.2380952380952,-1.0,91.08125636986937,1.3495271244292741,
2023-08-17 10:44:47.085000,-8.108433734939759,0.5903614457831325,5.156626506024097,0.8706315144083384,-8.196811771919068,5.775597792765175,3.0,1.3490953490953492,741.2374526904722,0.13775421012761427,0.5094108734922204,-0.2728279237806654,1292.3076923076922,-1.0,91.08125636986937,1.3495196497503816,
2023-08-17 10:44:47.093000,-8.120481927710843,0.5903614457831325,5.168674698795181,0.851011649294911,-8.147762109135499,5.795217657878601,3.0,1.3490953490953492,741.2374526904722,0.16689004137288066,0.24264320261057015,-0.13262630382844834,1291.5750915750914,-1.0,91.08125636986937,1.3495122807677278,
2023-08-17 10:44:47.100000,-8.132530120481928,0.5783132530120483,5.1807228915662655,0.8191293684855916,-8.17964438994482,5.7290006131207845,3.0,1.348651348651349,741.4814814814814,0.486568381795933,0.51372297651652,-0.11712604160596715,1291.5750915750914,-1.0,91.08125636986937,1.3495050151090586,
2023-08-17 10:44:47.108000,-8.19277108433735,0.6024096385542169,5.168674698795181,0.8240343347639485,-8.221336603310851,5.724095646842428,3.0,1.3490953490953492,741.2374526904722,-0.11223122195676248,0.44542858807761787,0.21886836431443396,1292.3076923076922,-1.0,91.08125636986937,1.3494978500852235,
2023-08-17 10:44:47.116000,-8.216867469879519,0.5783132530120483,5.204819277108434,0.8142244022072348,-8.326793378295523,5.704475781729,3.0,1.348651348651349,741.4814814814814,0.08694132043587237,0.36419789056581864,0.3403065089447003,1293.7728937728937,-1.0,91.08125636986937,1.3494907829561171,
2023-08-17 10:44:47.123000,-8.204819277108435,0.5662650602409639,5.156626506024097,0.7700797057020232,-8.314530962599632,5.726548129981606,3.0,1.348651348651349,741.4814814814814,-0.11188159198181996,-0.021560515121496402,0.14031816327719832,1292.3076923076922,-1.0,91.08125636986937,1.3494838108028393,
2023-08-17 10:44:47.131000,-8.204819277108435,0.5662650602409639,5.19277108433735,0.7798896382587369,-8.22624156958921,5.697118332311465,3.0,1.3490953490953492,741.2374526904722,-0.09754676300914931,-0.18949944641920632,0.29170794242759734,1290.10989010989,-1.0,91.08125636986937,1.3494769303793743,
2023-08-17 10:44:47.139000,-8.156626506024097,0.5783132530120483,5.156626506024097,0.7504598405885959,-8.191906805640711,5.709380748007357,3.0,1.3490953490953492,741.2374526904722,-0.0953324398345082,-0.18903327311928123,0.28856127265310866,1287.9120879120878,-1.0,91.08125636986937,1.349470138411882,
2023-08-17 10:44:47.146000,-8.132530120481928,0.5903614457831325,5.1807228915662655,0.8019619865113427,-8.157572041692212,5.738810545677498,3.0,1.3490953490953492,741.2374526904722,0.02960200454518974,-0.6484470601946273,-0.1883340131693958,1287.9120879120878,-1.0,91.08125636986937,1.3494634314934948,
2023-08-17 10:44:47.154000,-8.084337349397591,0.5783132530120483,5.19277108433735,0.8142244022072348,-8.164929491109747,5.726548129981606,3.0,1.3490953490953492,741.2374526904722,0.21350737136530548,-0.4919293747450619,0.009789639298409356,1287.9120879120878,-1.0,91.08125636986937,1.3494568061184262,
2023-08-17 10:44:47.162000,-8.084337349397591,0.6024096385542169,5.1807228915662655,0.8436541998773758,-8.118332311465359,5.75107296137339,3.0,1.3490953490953492,741.2374526904722,0.36629567041547717,-0.18565351669483177,0.20709748849134646,1287.9120879120878,-1.0,91.08125636986937,1.349450258823838,
2023-08-17 10:44:47.169000,-8.096385542168676,0.6024096385542169,5.204819277108434,0.8461066830165542,-8.133047210300429,5.726548129981606,3.0,1.3490953490953492,741.2374526904722,-0.04778276324223494,0.5474039974360476,0.46698910319911424,1287.9120879120878,-1.0,91.08125636986937,1.3494437859167254,
2023-08-17 10:44:47.177000,-8.144578313253012,0.6024096385542169,5.19277108433735,0.8289393010423053,-8.216431637032494,5.697118332311465,3.0,1.348651348651349,741.4814814814814,-0.06200104888992476,1.0269797797331166,0.05256103956645878,1283.5164835164835,-1.0,91.08125636986937,1.3494373836483975,
2023-08-17 10:44:47.185000,-8.156626506024097,0.5903614457831325,5.19277108433735,0.762722256284488,-8.260576333537706,5.753525444512569,3.0,1.348651348651349,741.4814814814814,-0.2619893945574272,0.9428354990967894,0.23565060311170694,1280.5860805860805,-1.0,91.08125636986937,1.3494310482085157,
2023-08-17 10:44:47.192000,-8.19277108433735,0.6024096385542169,5.168674698795181,0.7798896382587369,-8.233599019006745,5.768240343347639,3.0,1.3490953490953492,741.2374526904722,-0.33785909912009754,1.0571645009032105,0.29357263562729463,1276.923076923077,-1.0,91.08125636986937,1.3494247755701547,
2023-08-17 10:44:47.200000,-8.19277108433735,0.5903614457831325,5.168674698795181,0.7896995708154506,-8.294911097486205,5.758430410790925,3.0,1.348651348651349,741.4814814814814,-0.0015150632247543454,0.29765165200163085,0.30499388147543827,1273.260073260073,-1.0,91.08125636986937,1.3494185617926444,
2023-08-17 10:44:47.208000,-8.19277108433735,0.5903614457831325,5.204819277108434,0.8117719190680563,-8.221336603310851,5.7363580625383195,3.0,1.3490953490953492,741.2374526904722,-0.16852164792261584,-0.3341297127207038,0.13484062700308858,1272.5274725274724,-1.0,91.08125636986937,1.3494124030476877,
2023-08-17 10:44:47.215000,-8.144578313253012,0.5903614457831325,5.168674698795181,0.7725321888412017,-8.150214592274677,5.714285714285714,3.0,1.348651348651349,741.4814814814814,0.18413845347007743,-0.4083678107336407,0.20861255171610038,1274.7252747252746,-1.0,91.08125636986937,1.3494062956040869,
2023-08-17 10:44:47.223000,-8.120481927710843,0.5783132530120483,5.19277108433735,0.8044144696505211,-8.135499693439607,5.760882893930104,3.0,1.3490953490953492,741.2374526904722,-0.04370374686789872,-0.6490297768195331,0.20826292174115743,1279.120879120879,-1.0,91.08125636986937,1.3494002355671315,
2023-08-17 10:44:47.231000,-8.120481927710843,0.5903614457831325,5.204819277108434,0.8313917841814837,-8.128142244022072,5.714285714285714,3.0,1.3490953490953492,741.2374526904722,-0.012120505798029556,-0.5028844472932813,0.040790163743371737,1284.9816849816848,-1.0,91.08125636986937,1.3493942189050816,
2023-08-17 10:44:47.238000,-8.072289156626507,0.5783132530120483,5.1807228915662655,0.7872470876762722,-8.093807480073574,5.721643163703249,3.0,1.348651348651349,741.4814814814814,0.06468154536448921,0.03892547054367401,0.4709515762484705,1294.5054945054944,-1.0,91.08125636986937,1.3493882417732739,
2023-08-17 10:44:47.246000,-8.108433734939759,0.6024096385542169,5.19277108433735,0.7406499080318822,-8.113427345187002,5.760882893930104,3.0,1.348651348651349,741.4814814814814,-0.17970980712079695,0.4537031641512729,0.3342462560456851,1306.9597069597069,-1.0,91.08125636986937,1.3493823002416663,
2023-08-17 10:44:47.254000,-8.096385542168676,0.5903614457831325,5.204819277108434,0.7725321888412017,-8.172286940527284,5.778050275904353,3.0,1.348651348651349,741.4814814814814,-0.07039216828856061,0.7519375327778096,0.40766855078375397,1320.14652014652,-1.0,91.08125636986937,1.3493763902883888,
2023-08-17 10:44:47.261000,-8.120481927710843,0.5662650602409639,5.204819277108434,0.8436541998773758,-8.231146535867566,5.7657878602084605,3.0,1.348651348651349,741.4814814814814,0.022959035021269912,0.7539187693024874,0.31280228424916995,1338.4615384615383,-1.0,91.08125636986937,1.34937050795202,
2023-08-17 10:44:47.269000,-8.168674698795181,0.5783132530120483,5.216867469879518,0.7921520539546291,-8.213979153893316,5.716738197424893,3.0,1.348651348651349,741.4814814814814,0.2989336285764235,0.5418099178369553,0.3426373754443214,1360.4395604395604,-1.0,91.08125636986937,1.349364649344647,
2023-08-17 10:44:47.277000,-8.156626506024097,0.5903614457831325,5.204819277108434,0.7357449417535254,-8.211526670754138,5.714285714285714,3.0,1.348651348651349,741.4814814814814,0.46465823669949236,0.8229124176912762,0.33832527242002175,1386.8131868131868,-1.0,91.08125636986937,1.349358810664436,
2023-08-17 10:44:47.284000,-8.180722891566266,0.5783132530120483,5.204819277108434,0.7725321888412017,-8.221336603310851,5.748620478234212,3.0,1.348651348651349,741.4814814814814,0.06421537206456586,0.3243400734222945,0.3058096847503059,1415.3846153846152,-1.0,91.08125636986937,1.3493529882076438,
2023-08-17 10:44:47.292000,-8.168674698795181,0.5662650602409639,5.240963855421687,0.7529123237277743,-8.177191906805641,5.755977927651747,3.0,1.348651348651349,741.4814814814814,-0.2581434648330509,0.3507954081929964,-0.08973836023541765,1446.153846153846,-1.0,91.08125636986937,1.3493471783800366,
2023-08-17 10:44:47.300000,-8.168674698795181,0.5783132530120483,5.1807228915662655,0.7798896382587369,-8.152667075413856,5.733905579399141,3.0,1.348651348651349,741.4814814814814,0.26024124468271115,-0.42526659285589496,0.12528407435464134,1474.7252747252746,-1.0,91.08125636986937,1.3493413777076904,
2023-08-17 10:44:47.307000,-8.156626506024097,0.6024096385542169,5.168674698795181,0.8362967504598405,-8.169834457388106,5.719190680564071,3.0,1.348651348651349,741.4814814814814,0.17772857059611927,-0.38704038226210596,-0.18122487034555088,1503.2967032967033,-1.0,91.08125636986937,1.3493355828471203,
2023-08-17 10:44:47.315000,-8.120481927710843,0.6024096385542169,5.1807228915662655,0.82158185162477,-8.135499693439607,5.716738197424893,3.0,1.348651348651349,741.4814814814814,0.37002505681487086,-0.31862945049822305,-0.16479226152322127,1532.6007326007325,-1.0,91.08125636986937,1.3493297905947188,
2023-08-17 10:44:47.323000,-8.120481927710843,0.6265060240963856,5.156626506024097,0.8313917841814837,-8.196811771919068,5.719190680564071,3.0,1.348651348651349,741.4814814814814,0.05698968591573838,-0.06747858516403449,0.17213449099702785,1559.7069597069597,-1.0,91.08125636986937,1.3493239978954745,
2023-08-17 10:44:47.330000,-8.144578313253012,0.6385542168674699,5.120481927710844,0.8608215818516247,-8.152667075413856,5.6922133660331085,3.0,1.348651348651349,741.4814814814814,0.2075636617912707,0.2097779849659118,-0.07272303478818254,1584.6153846153845,-1.0,91.08125636986937,1.3493182018509402,
2023-08-17 10:44:47.338000,-8.132530120481928,0.6385542168674699,5.156626506024097,0.9074187614960146,-8.20907418761496,5.711833231146535,3.0,1.348651348651349,741.4814814814814,0.4190897966318985,0.37608530971388654,0.1587320086242056,1603.6630036630036,-1.0,91.08125636986937,1.3493123997264416,
2023-08-17 10:44:47.346000,-8.144578313253012,0.6144578313253012,5.144578313253012,0.8485591661557327,-8.19435928877989,5.724095646842428,3.0,1.348651348651349,741.4814814814814,0.32492279004720037,0.5098770467921454,0.05104597634170487,1615.3846153846152,-1.0,91.08125636986937,1.3493065889575049,
2023-08-17 10:44:47.353000,-8.156626506024097,0.6265060240963856,5.168674698795181,0.8362967504598405,-8.155119558553034,5.704475781729,3.0,1.3482073482073482,741.7256710027992,-0.24147776936076004,0.38237864926286386,0.2950876988520481,1620.5128205128203,-1.0,91.08125636986937,1.3493007671554893,
2023-08-17 10:44:47.361000,-8.144578313253012,0.6265060240963856,5.156626506024097,0.82158185162477,-8.16002452483139,5.694665849172287,3.0,1.3482073482073482,741.7256710027992,0.033564477594545124,0.16397645824835452,0.1877512965444903,1624.1758241758241,-1.0,91.08125636986937,1.34929493224063,
2023-08-17 10:44:47.369000,-8.168674698795181,0.6265060240963856,5.168674698795181,0.7921520539546291,-8.201716738197424,5.650521152667075,3.0,1.3482073482073482,741.7256710027992,0.14171668317697136,0.008857292698560929,-0.025872618145795594,1620.5128205128203,-1.0,91.08125636986937,1.349289082383435,
2023-08-17 10:44:47.376000,-8.180722891566266,0.6144578313253012,5.156626506024097,0.8068669527896996,-8.231146535867566,5.702023298589822,3.0,1.348651348651349,741.4814814814814,0.004079016374337954,-0.28483188625371453,0.18845055649437661,1615.3846153846152,-1.0,91.08125636986937,1.3492832157102412,
2023-08-17 10:44:47.384000,-8.180722891566266,0.6144578313253012,5.156626506024097,0.7651747394236664,-8.263028816676885,5.64316370324954,3.0,1.348651348651349,741.4814814814814,-0.4380863586038113,-0.11782530155585304,0.06642969523920522,1604.3956043956043,-1.0,91.08125636986937,1.3492773304756502,
2023-08-17 10:44:47.392000,-8.144578313253012,0.6024096385542169,5.156626506024097,0.82158185162477,-8.169834457388106,5.6774984671980375,3.0,1.348651348651349,741.4814814814814,-0.3278363731717265,-0.26921508070625294,0.03764349396888308,1589.7435897435896,-1.0,91.08125636986937,1.3492714252338014,
2023-08-17 10:44:47.399000,-8.120481927710843,0.6024096385542169,5.132530120481928,0.8044144696505211,-8.22624156958921,5.719190680564071,3.0,1.348651348651349,741.4814814814814,-0.21828564768952846,-0.08391119398636367,-0.08542625721111802,1574.3589743589744,-1.0,91.08125636986937,1.34926549870028,
2023-08-17 10:44:47.407000,-8.120481927710843,0.5903614457831325,5.168674698795181,0.7700797057020232,-8.128142244022072,5.770692826486818,3.0,1.348651348651349,741.4814814814814,0.0867082337859107,0.10011071615873118,0.20360118874191444,1559.7069597069597,-1.0,91.08125636986937,1.3492595496131043,
2023-08-17 10:44:47.415000,-8.108433734939759,0.5903614457831325,5.156626506024097,0.7798896382587369,-8.142857142857142,5.741263028816676,3.0,1.348651348651349,741.4814814814814,0.08402773731134625,0.09999417283375035,0.1994056290425965,1544.3223443223442,-1.0,91.08125636986937,1.3492535768907212,
2023-08-17 10:44:47.422000,-8.132530120481928,0.6024096385542169,5.19277108433735,0.8191293684855916,-8.133047210300429,5.741263028816676,3.0,1.348651348651349,741.4814814814814,0.17248412097197122,0.36198356739117754,-0.20208612551716096,1530.4029304029302,-1.0,91.08125636986937,1.3492475796188976,
2023-08-17 10:44:47.430000,-8.144578313253012,0.6024096385542169,5.1807228915662655,0.8117719190680563,-8.25567136725935,5.763335377069282,3.0,1.348651348651349,741.4814814814814,0.5055649437678458,0.2851815162286588,-0.23541751646174483,1516.4835164835163,-1.0,91.08125636986937,1.3492415570579928,
2023-08-17 10:44:47.437000,-8.156626506024097,0.5903614457831325,5.204819277108434,0.7847946045370937,-8.204169221336603,5.7657878602084605,3.0,1.348651348651349,741.4814814814814,0.2396130761610632,0.5293397820639816,-0.4676883631490006,1504.0293040293038,-1.0,91.08125636986937,1.3492355087672674,
2023-08-17 10:44:47.445000,-8.168674698795181,0.6024096385542169,5.19277108433735,0.8191293684855916,-8.22624156958921,5.755977927651747,3.0,1.348651348651349,741.4814814814814,-0.4059204009090379,0.49542567449449393,0.06608006526426184,1491.5750915750914,674.072265625,89.0112278160087,1.3492294344518034,
2023-08-17 10:44:47.453000,-8.180722891566266,0.5903614457831325,5.204819277108434,0.7725321888412017,-8.22624156958921,5.792765174739423,3.0,1.348651348651349,741.4814814814814,-0.15978089854903574,0.32107686032282584,0.043936833517860395,1482.051282051282,-1.0,89.0112278160087,1.3492233339580728,
2023-08-17 10:44:47.460000,-8.180722891566266,0.6024096385542169,5.1807228915662655,0.8461066830165542,-8.199264255058246,5.755977927651747,3.0,1.348651348651349,741.4814814814814,0.1899656197191314,0.3614008507662716,-0.08344502068644033,1471.7948717948716,-1.0,89.0112278160087,1.3492172071301929,
2023-08-17 10:44:47.468000,-8.156626506024097,0.5783132530120483,5.1807228915662655,0.8044144696505211,-8.204169221336603,5.711833231146535,3.0,1.348651348651349,741.4814814814814,-0.11665986830604294,-0.16409300157333537,-0.1928792028436571,1462.2710622710622,-1.0,89.0112278160087,1.3492110539635431,
2023-08-17 10:44:47.476000,-8.132530120481928,0.6024096385542169,5.1807228915662655,0.8289393010423053,-8.19435928877989,5.724095646842428,3.0,1.348651348651349,741.4814814814814,0.437037468678982,-0.2399627061360057,-0.07307266476312549,1454.212454212454,-1.0,89.0112278160087,1.349204874587653,
2023-08-17 10:44:47.483000,-8.144578313253012,0.6024096385542169,5.19277108433735,0.7823421213979154,-8.172286940527284,5.6774984671980375,3.0,1.348651348651349,741.4814814814814,0.5484528873608769,-0.3262047666219913,-0.21269156809043746,1445.4212454212454,-1.0,89.0112278160087,1.3491986692698807,
2023-08-17 10:44:47.491000,-8.108433734939759,0.6265060240963856,5.156626506024097,0.7725321888412017,-8.172286940527284,5.714285714285714,3.0,1.348651348651349,741.4814814814814,0.4127964570829212,0.11048307208204645,0.107802575607482,1435.8974358974358,-1.0,89.0112278160087,1.3491924383977798,
2023-08-17 10:44:47.499000,-8.132530120481928,0.6024096385542169,5.144578313253012,0.7970570202329859,-8.201716738197424,5.724095646842428,3.0,1.348651348651349,741.4814814814814,0.5341180583882063,0.48050812889691735,-0.1713186877221607,1427.106227106227,-1.0,89.0112278160087,1.3491861824823779,
2023-08-17 10:44:47.506000,-8.132530120481928,0.5903614457831325,5.144578313253012,0.8485591661557327,-8.250766400980993,5.719190680564071,3.0,1.347763347763348,741.9700214132762,0.0427714002680503,0.23856418623623393,0.010139269273352298,1417.5824175824175,-1.0,89.0112278160087,1.3491799021402828,
2023-08-17 10:44:47.514000,-8.144578313253012,0.6024096385542169,5.204819277108434,0.8093194359288779,-8.19435928877989,5.704475781729,3.0,1.3482073482073482,741.7256710027992,0.2126915680904379,0.39484878503583765,-0.3272536565468214,1411.7216117216117,-1.0,89.0112278160087,1.3491735980757258,
2023-08-17 10:44:47.522000,-8.132530120481928,0.6024096385542169,5.1807228915662655,0.7896995708154506,-8.189454322501533,5.721643163703249,3.0,1.3482073482073482,741.7256710027992,-0.19917254239263485,0.5033506205932047,0.06969290833867473,1406.5934065934066,-1.0,89.0112278160087,1.3491672711274232,
2023-08-17 10:44:47.529000,-8.168674698795181,0.5903614457831325,5.168674698795181,0.8362967504598405,-8.201716738197424,5.7363580625383195,3.0,1.3482073482073482,741.7256710027992,-0.04020744711846669,-0.20313501544199022,0.006642969523920696,1400.7326007326005,-1.0,89.0112278160087,1.3491609219943261,
2023-08-17 10:44:47.537000,-8.156626506024097,0.6024096385542169,5.1807228915662655,0.7946045370938074,-8.233599019006745,5.675045984058859,3.0,1.348651348651349,741.4814814814814,-0.45102266767670846,-0.21898490763941522,-0.2861138628285063,1394.8717948717947,-1.0,89.0112278160087,1.3491545512588172,
2023-08-17 10:44:47.545000,-8.144578313253012,0.5783132530120483,5.1807228915662655,0.7553648068669527,-8.174739423666463,5.697118332311465,3.0,1.348651348651349,741.4814814814814,0.05792203251558681,-0.4056873142590763,-0.2999825185012528,1389.0109890109889,-1.0,89.0112278160087,1.3491481596759947,
2023-08-17 10:44:47.552000,-8.132530120481928,0.6024096385542169,5.144578313253012,0.7749846719803801,-8.152667075413856,5.6848559166155725,3.0,1.3482073482073482,741.7256710027992,-0.3283025464716516,-0.3464833051686968,-0.23833109958627138,1380.952380952381,-1.0,89.0112278160087,1.3491417481862387,
2023-08-17 10:44:47.560000,-8.144578313253012,0.5783132530120483,5.168674698795181,0.82158185162477,-8.182096873083998,5.6995708154506435,3.0,1.348651348651349,741.4814814814814,-0.026688421420663622,-0.2251617038634117,-0.008391119398636281,1372.8937728937728,-1.0,89.0112278160087,1.3491353176195986,
2023-08-17 10:44:47.568000,-8.132530120481928,0.5542168674698795,5.19277108433735,0.8142244022072348,-8.152667075413856,5.682403433476394,3.0,1.348651348651349,741.4814814814814,0.09265194335994377,0.0924188567099821,-0.3462502185187342,1367.032967032967,-1.0,89.0112278160087,1.34912886881596,
2023-08-17 10:44:47.575000,-8.132530120481928,0.5783132530120483,5.168674698795181,0.8166768853464133,-8.172286940527284,5.7069282648681785,3.0,1.3482073482073482,741.7256710027992,0.17877746052094853,0.11910727813064571,-0.37468678981411346,1361.904761904762,-1.0,89.0112278160087,1.3491224027770976,
2023-08-17 10:44:47.583000,-8.168674698795181,0.5903614457831325,5.168674698795181,0.851011649294911,-8.20907418761496,5.7069282648681785,3.0,1.348651348651349,741.4814814814814,0.1611794184488075,0.10232503933337228,-0.12633296427947102,1358.2417582417581,-1.0,89.0112278160087,1.3491159203719991,
2023-08-17 10:44:47.591000,-8.168674698795181,0.5903614457831325,5.168674698795181,0.8730839975475169,-8.24095646842428,5.697118332311465,3.0,1.3482073482073482,741.7256710027992,0.11584406503117535,0.4081347240836773,-0.1687547345725775,1356.7765567765566,-1.0,89.0112278160087,1.3491094225968765,
2023-08-17 10:44:47.598000,-8.168674698795181,0.6024096385542169,5.156626506024097,0.7872470876762722,-8.213979153893316,5.746167995095034,3.0,1.348651348651349,741.4814814814814,0.04032399044344752,0.22306392401375144,0.06398228541460288,1357.5091575091574,-1.0,89.0112278160087,1.3491029104200802,
2023-08-17 10:44:47.606000,-8.168674698795181,0.6265060240963856,5.168674698795181,0.7823421213979154,-8.20907418761496,5.748620478234212,3.0,1.348651348651349,741.4814814814814,0.11479517510634608,0.10104306275858134,-0.14731076277606195,1357.5091575091574,-1.0,89.0112278160087,1.3490963846379254,
2023-08-17 10:44:47.614000,-8.132530120481928,0.6024096385542169,5.19277108433735,0.7700797057020232,-8.086450030656039,5.785407725321888,3.0,1.348651348651349,741.4814814814814,0.5246780490647394,-0.26385408775712405,-0.21828564768952846,1357.5091575091574,-1.0,89.0112278160087,1.3490898461781504,
2023-08-17 10:44:47.621000,-8.108433734939759,0.6024096385542169,5.19277108433735,0.7774371551195585,-8.152667075413856,5.768240343347639,3.0,1.348651348651349,741.4814814814814,0.3835440825126739,0.13600606025289824,-0.015733348872443296,1356.0439560439559,-1.0,89.0112278160087,1.3490832959568548,
2023-08-17 10:44:47.629000,-8.120481927710843,0.6265060240963856,5.1807228915662655,0.8093194359288779,-8.118332311465359,5.724095646842428,3.0,1.348651348651349,741.4814814814814,0.19637550259308956,-0.2610570479575788,-0.39589767496066647,1350.18315018315,-1.0,89.0112278160087,1.3490767348749038,
2023-08-17 10:44:47.637000,-8.108433734939759,0.6265060240963856,5.19277108433735,0.8313917841814837,-8.201716738197424,5.743715511955855,3.0,1.348651348651349,741.4814814814814,0.14987471592564555,0.15302138570013335,-0.009556552648447248,1346.5201465201465,-1.0,89.0112278160087,1.349070163815059,
2023-08-17 10:44:47.644000,-8.156626506024097,0.6024096385542169,5.216867469879518,0.8264868179031268,-8.206621704475781,5.743715511955855,3.0,1.3482073482073482,741.7256710027992,-0.08064798088689504,0.18145795699551298,-0.1614125050987705,1345.054945054945,-1.0,89.0112278160087,1.3490635836398672,
2023-08-17 10:44:47.652000,-8.132530120481928,0.5903614457831325,5.156626506024097,0.8461066830165542,-8.196811771919068,5.719190680564071,3.0,1.3504273504273505,740.506329113924,-0.0927684866849246,0.08496008391119467,-0.03810966726880729,1344.3223443223442,-1.0,89.0112278160087,1.3490569951797715,
2023-08-17 10:44:47.660000,-8.168674698795181,0.5783132530120483,5.168674698795181,0.7725321888412017,-8.167381974248926,5.667688534641324,3.0,1.3482073482073482,741.7256710027992,0.13798729677757768,0.09591515645941413,-0.449157974477012,1342.1245421245421,-1.0,89.0112278160087,1.3490503997980121,
2023-08-17 10:44:47.667000,-8.144578313253012,0.6024096385542169,5.1807228915662655,0.8632740649908032,-8.164929491109747,5.6848559166155725,3.0,1.3473193473193474,742.2145328719723,-5.82716624905918E-4,0.04580152671755725,-0.21758638773964215,1340.6593406593406,-1.0,89.0112278160087,1.3490437990406987,
2023-08-17 10:44:47.675000,-8.156626506024097,0.5662650602409639,5.216867469879518,0.8093194359288779,-8.184549356223176,5.731453096259963,3.0,1.347763347763348,741.9700214132762,0.2115261348406278,0.2576772915331276,0.1499912592506264,1339.9267399267399,-1.0,89.0112278160087,1.3490371936509893,
2023-08-17 10:44:47.683000,-8.144578313253012,0.5903614457831325,5.1807228915662655,0.7847946045370937,-8.221336603310851,5.7657878602084605,3.0,1.3482073482073482,741.7256710027992,0.08799021036070162,0.05559116601596661,0.04125633704329595,1339.9267399267399,-1.0,89.0112278160087,1.3490305839340773,
2023-08-17 10:44:47.690000,-8.144578313253012,0.6024096385542169,5.19277108433735,0.8044144696505211,-8.17964438994482,5.711833231146535,3.0,1.3482073482073482,741.7256710027992,0.08391119398636367,0.054192646116193094,0.03764349396888308,1339.9267399267399,-1.0,89.0112278160087,1.3490239702260465,
2023-08-17 10:44:47.698000,-8.132530120481928,0.5903614457831325,5.168674698795181,0.7725321888412017,-8.218884120171673,5.672593500919681,3.0,1.348651348651349,741.4814814814814,0.5240953324398352,-0.11258085193170499,-0.1306450673037702,1339.194139194139,-1.0,89.0112278160087,1.3490173529262406,
2023-08-17 10:44:47.706000,-8.120481927710843,0.6024096385542169,5.156626506024097,0.8485591661557327,-8.233599019006745,5.724095646842428,3.0,1.3482073482073482,741.7256710027992,-0.01538371889749992,0.1637433715983911,-0.31420080414894214,1335.5311355311355,-1.0,89.0112278160087,1.3490107325095781,
2023-08-17 10:44:47.713000,-8.144578313253012,0.5903614457831325,5.144578313253012,0.8240343347639485,-8.157572041692212,5.711833231146535,3.0,1.3482073482073482,741.7256710027992,-0.2283083736378995,0.5467047374861609,-0.20651477186644143,1328.937728937729,-1.0,89.0112278160087,1.349004109401237,
2023-08-17 10:44:47.721000,-8.120481927710843,0.6144578313253012,5.132530120481928,0.7406499080318822,-8.213979153893316,5.716738197424893,3.0,1.3482073482073482,741.7256710027992,-0.028320027970398804,0.4986888875939625,-0.20698094516636564,1319.4139194139193,-1.0,89.0112278160087,1.3489974838201138,
2023-08-17 10:44:47.729000,-8.120481927710843,0.6144578313253012,5.156626506024097,0.8338442673206621,-8.142857142857142,5.694665849172287,3.0,1.348651348651349,741.4814814814814,0.1545364489248877,0.45043995105180423,0.25138395198415026,1309.89010989011,-1.0,89.0112278160087,1.3489908557817019,
2023-08-17 10:44:47.736000,-8.156626506024097,0.6144578313253012,5.1807228915662655,0.8093194359288779,-8.189454322501533,5.6774984671980375,3.0,1.3482073482073482,741.7256710027992,0.27189557718081736,0.32259192354757843,-0.17936017714585403,1303.2967032967033,-1.0,89.0112278160087,1.3489842254096638,
2023-08-17 10:44:47.744000,-8.180722891566266,0.6024096385542169,5.1807228915662655,0.8191293684855916,-8.167381974248926,5.687308399754752,3.0,1.3482073482073482,741.7256710027992,0.05407610279121226,0.5925062642037181,0.23355282326204754,1298.168498168498,-1.0,89.0112278160087,1.3489775929394219,
2023-08-17 10:44:47.752000,-8.19277108433735,0.6024096385542169,5.144578313253012,0.8068669527896996,-8.238503985285101,5.697118332311465,3.0,1.3482073482073482,741.7256710027992,-0.08402773731134625,0.7218693549326965,0.18542043004486924,1293.7728937728937,-1.0,89.0112278160087,1.3489709584137526,
2023-08-17 10:44:47.759000,-8.180722891566266,0.5783132530120483,5.1807228915662655,0.8117719190680563,-8.25567136725935,5.6701410177805025,3.0,1.3482073482073482,741.7256710027992,0.006876056173883237,0.05780548919060597,0.04626770001748146,1293.040293040293,-1.0,89.0112278160087,1.348964321825752,
2023-08-17 10:44:47.767000,-8.168674698795181,0.5662650602409639,5.144578313253012,0.7823421213979154,-8.263028816676885,5.731453096259963,3.0,1.3482073482073482,741.7256710027992,-0.2534817318338088,0.31664821397354537,0.3200279703979957,1294.5054945054944,-1.0,89.0112278160087,1.348957683123235,
2023-08-17 10:44:47.775000,-8.156626506024097,0.5783132530120483,5.168674698795181,0.8044144696505211,-8.231146535867566,5.679950950337216,3.0,1.3482073482073482,741.7256710027992,-0.1610628751238267,-0.1307616106287519,-0.07983217761202745,1298.168498168498,-1.0,89.0112278160087,1.3489510422132671,
2023-08-17 10:44:47.782000,-8.156626506024097,0.5903614457831325,5.156626506024097,0.7823421213979154,-8.20907418761496,5.7290006131207845,3.0,1.3482073482073482,741.7256710027992,-0.37538604976399975,-0.26874890740632784,-0.3083736378998895,1301.098901098901,-1.0,89.0112278160087,1.3489443989668426,
2023-08-17 10:44:47.790000,-8.156626506024097,0.6024096385542169,5.168674698795181,0.86817903126916,-8.213979153893316,5.743715511955855,3.0,1.3482073482073482,741.7256710027992,-0.14556261290134592,-0.2681661907814237,0.08997144688537975,1301.8315018315018,-1.0,89.0112278160087,1.3489377532236317,
2023-08-17 10:44:47.798000,-8.144578313253012,0.6144578313253012,5.156626506024097,0.8019619865113427,-8.20907418761496,5.667688534641324,3.0,1.348651348651349,741.4814814814814,0.09929491288386533,-0.2515004953091311,0.22516170386341128,1301.098901098901,-1.0,89.0112278160087,1.3489311047968147,
2023-08-17 10:44:47.805000,-8.144578313253012,0.5903614457831325,5.1807228915662655,0.8289393010423053,-8.150214592274677,5.733905579399141,3.0,1.3482073482073482,741.7256710027992,0.05069634636676106,-0.2802866965794532,0.038575840568731506,1299.6336996336995,-1.0,89.0112278160087,1.3489244536272362,
2023-08-17 10:44:47.813000,-8.120481927710843,0.5903614457831325,5.19277108433735,0.7995095033721643,-8.14530962599632,5.6922133660331085,3.0,1.3473193473193474,742.2145328719723,-0.011770875823087047,-0.0170153254472351,0.3291183497465183,1296.7032967032967,-1.0,89.0112278160087,1.3489177996608637,
2023-08-17 10:44:47.820000,-8.120481927710843,0.6024096385542169,5.168674698795181,0.8313917841814837,-8.152667075413856,5.768240343347639,3.0,1.347763347763348,741.9700214132762,0.1865858632946802,0.21642095448983162,0.3265543965969347,1294.5054945054944,-1.0,89.0112278160087,1.3489111426736236,
2023-08-17 10:44:47.828000,-8.144578313253012,0.6144578313253012,5.1807228915662655,0.8436541998773758,-8.211526670754138,5.733905579399141,3.0,1.3482073482073482,741.7256710027992,0.12306975118000109,0.26222248120738884,-0.2883281860031466,1291.5750915750914,-1.0,89.0112278160087,1.3489044823411853,
2023-08-17 10:44:47.836000,-8.132530120481928,0.6265060240963856,5.19277108433735,0.8559166155732679,-8.174739423666463,5.702023298589822,3.0,1.3482073482073482,741.7256710027992,0.07645242118757625,0.16805547462269074,-0.16467571819824042,1289.3772893772893,-1.0,89.0112278160087,1.3488978184135818,
2023-08-17 10:44:47.843000,-8.144578313253012,0.6265060240963856,5.19277108433735,0.838749233599019,-8.182096873083998,5.721643163703249,3.0,1.3482073482073482,741.7256710027992,0.04603461336751892,0.041372880368276785,-0.2696812540061767,1285.7142857142856,-1.0,89.0112278160087,1.3488911506125514,
2023-08-17 10:44:47.851000,-8.120481927710843,0.5903614457831325,5.156626506024097,0.7921520539546291,-8.150214592274677,5.758430410790925,3.0,1.3482073482073482,741.7256710027992,0.10652059903269108,-0.13495717032806898,-0.20663131519142225,1284.9816849816848,-1.0,89.0112278160087,1.3488844785180376,
2023-08-17 10:44:47.859000,-8.132530120481928,0.5903614457831325,5.156626506024097,0.8362967504598405,-8.22624156958921,5.753525444512569,3.0,1.3482073482073482,741.7256710027992,0.16747275799778483,-0.07971563428704662,-0.37410407318920796,1285.7142857142856,-1.0,89.0112278160087,1.3488778017207357,
2023-08-17 10:44:47.866000,-8.144578313253012,0.6144578313253012,5.120481927710844,0.8436541998773758,-8.133047210300429,5.716738197424893,3.0,1.3482073482073482,741.7256710027992,0.10384010255812663,0.4037060777343986,-0.28110249985432084,1283.5164835164835,-1.0,89.0112278160087,1.3488711198252248,
2023-08-17 10:44:47.874000,-8.120481927710843,0.6024096385542169,5.144578313253012,0.8264868179031268,-8.174739423666463,5.6922133660331085,3.0,1.3482073482073482,741.7256710027992,-0.1119981353068008,0.22690985373812772,-0.6926169803624498,1282.051282051282,-1.0,89.0112278160087,1.348864432452954,
2023-08-17 10:44:47.882000,-8.144578313253012,0.6144578313253012,5.156626506024097,0.82158185162477,-8.243408951563458,5.68976088289393,3.0,1.3482073482073482,741.7256710027992,0.43843598857875377,0.06771167181399616,-0.4581318105005538,1281.3186813186812,-1.0,89.0112278160087,1.3488577392451075,
2023-08-17 10:44:47.889000,-8.19277108433735,0.6024096385542169,5.168674698795181,0.8313917841814837,-8.258123850398528,5.704475781729,3.0,1.3482073482073482,741.7256710027992,0.2510343220092077,0.11153196200687572,-0.10255812598333439,1279.8534798534797,-1.0,89.0112278160087,1.3488510398653089,
2023-08-17 10:44:47.897000,-8.19277108433735,0.6265060240963856,5.168674698795181,0.8142244022072348,-8.290006131207848,5.724095646842428,3.0,1.3482073482073482,741.7256710027992,0.14241594312685812,-0.3331973661208554,-0.298350911951518,1279.8534798534797,-1.0,89.0112278160087,1.3488443340021954,
2023-08-17 10:44:47.905000,-8.180722891566266,0.6024096385542169,5.156626506024097,0.7872470876762722,-8.201716738197424,5.672593500919681,3.0,1.3482073482073482,741.7256710027992,0.06351611211467911,-0.3908863119864805,-0.234485169861896,1279.8534798534797,-1.0,89.0112278160087,1.3488376213718298,
2023-08-17 10:44:47.912000,-8.156626506024097,0.6144578313253012,5.19277108433735,0.8608215818516247,-8.187001839362354,5.675045984058859,3.0,1.3482073482073482,741.7256710027992,-0.014101742322708983,-0.003146669774489527,-0.07936600431210324,1281.3186813186812,-1.0,89.0112278160087,1.3488309017199782,
2023-08-17 10:44:47.920000,-8.132530120481928,0.6265060240963856,5.204819277108434,0.7676272225628449,-8.16002452483139,5.78295524218271,3.0,1.3482073482073482,741.7256710027992,0.24369209253539942,0.14929199930073964,-0.13810384010255808,1284.2490842490843,-1.0,89.0112278160087,1.3488241748242242,
2023-08-17 10:44:47.928000,-8.108433734939759,0.6144578313253012,5.168674698795181,0.8264868179031268,-8.17964438994482,5.697118332311465,3.0,1.3482073482073482,741.7256710027992,0.16187867839869427,-0.09486626653458487,-0.16758930132276653,1288.6446886446886,-1.0,89.0112278160087,1.3488174404959468,
2023-08-17 10:44:47.935000,-8.132530120481928,0.6144578313253012,5.204819277108434,0.851011649294911,-8.14530962599632,5.709380748007357,3.0,1.3482073482073482,741.7256710027992,0.26700075753161184,0.47036885962356545,0.18716857991958524,1296.7032967032967,-1.0,89.0112278160087,1.348810698582143,
2023-08-17 10:44:47.943000,-8.120481927710843,0.5903614457831325,5.19277108433735,0.7921520539546291,-8.216431637032494,5.704475781729,3.0,1.3482073482073482,741.7256710027992,-0.1636268282734103,0.5562612901346068,0.11176504865683826,1307.6923076923076,-1.0,89.0112278160087,1.3488039491058692,
2023-08-17 10:44:47.951000,-8.144578313253012,0.5903614457831325,5.19277108433735,0.8264868179031268,-8.201716738197424,5.7290006131207845,3.0,1.347763347763348,741.9700214132762,-0.5169861896159903,0.3189790804731656,-0.33005069634636675,1319.4139194139193,-1.0,89.0112278160087,1.3487971921086483,
2023-08-17 10:44:47.958000,-8.19277108433735,0.5662650602409639,5.1807228915662655,0.7995095033721643,-8.191906805640711,5.724095646842428,3.0,1.3482073482073482,741.7256710027992,-0.6986772332614649,0.17434881417166806,-0.05197832294155373,1336.9963369963368,-1.0,89.0112278160087,1.348790427374975,
2023-08-17 10:44:47.966000,-8.19277108433735,0.5542168674698795,5.156626506024097,0.7210300429184548,-8.260576333537706,5.702023298589822,3.0,1.3473193473193474,742.2145328719723,-0.5580094400093228,-0.12306975118000109,0.05733931589068219,1358.2417582417581,-1.0,89.0112278160087,1.3487836547101124,
2023-08-17 10:44:47.974000,-8.180722891566266,0.5421686746987953,5.156626506024097,0.7529123237277743,-8.22378908645003,5.731453096259963,3.0,1.347763347763348,741.9700214132762,-0.5529980770351381,-0.12586679097954637,0.061068702290076333,1386.080586080586,-1.0,89.0112278160087,1.3487768740788968,
2023-08-17 10:44:47.981000,-8.156626506024097,0.5301204819277109,5.19277108433735,0.7308399754751685,-8.196811771919068,5.758430410790925,3.0,1.347763347763348,741.9700214132762,-0.028203484645416232,-0.32853563312161327,-0.10745294563253864,1417.5824175824175,-1.0,89.0112278160087,1.3487700855324267,
2023-08-17 10:44:47.989000,-8.168674698795181,0.5421686746987953,5.168674698795181,0.8093194359288779,-8.16002452483139,5.75107296137339,3.0,1.347763347763348,741.9700214132762,0.01841384534700861,-0.37270555328943533,0.1073364023075578,1451.2820512820513,-1.0,89.0112278160087,1.3487632890698875,
2023-08-17 10:44:47.997000,-8.132530120481928,0.5542168674698795,5.1807228915662655,0.7823421213979154,-8.125689760882894,5.694665849172287,3.0,1.347763347763348,741.9700214132762,-0.21059378824077765,-0.5070800069926001,-0.22737602703805151,1485.7142857142856,-1.0,89.0112278160087,1.348756484382056,
2023-08-17 10:44:48.004000,-8.132530120481928,0.5662650602409639,5.204819277108434,0.8068669527896996,-8.17964438994482,5.763335377069282,3.0,1.347763347763348,741.9700214132762,-0.08659169046092811,-0.08997144688537932,-0.009440009323465979,1521.6117216117216,-1.0,89.0112278160087,1.34874967115841,
2023-08-17 10:44:48.012000,-8.132530120481928,0.5903614457831325,5.240963855421687,0.7921520539546291,-8.16002452483139,5.787860208461066,3.0,1.347763347763348,741.9700214132762,0.06561389196433763,0.15698385874949047,0.1605967018239029,1553.113553113553,-1.0,89.0112278160087,1.3487428490742615,
2023-08-17 10:44:48.020000,-8.120481927710843,0.5783132530120483,5.216867469879518,0.7406499080318822,-8.213979153893316,5.714285714285714,3.0,1.347763347763348,741.9700214132762,0.1877512965444903,0.005477536274109728,-0.008274576073655443,1578.7545787545787,-1.0,89.0112278160087,1.3487360176599508,
2023-08-17 10:44:48.027000,-8.144578313253012,0.5662650602409639,5.156626506024097,0.7896995708154506,-8.201716738197424,5.6922133660331085,3.0,1.347763347763348,741.9700214132762,0.13996853330225537,0.08297884738651524,-0.20674785851640354,1597.069597069597,-1.0,89.0112278160087,1.3487291765853477,
2023-08-17 10:44:48.035000,-8.180722891566266,0.5903614457831325,5.156626506024097,0.8240343347639485,-8.236051502145923,5.719190680564071,3.0,1.347763347763348,741.9700214132762,0.49227900472000435,0.20430044869180033,0.0868247771108911,1610.989010989011,-1.0,89.0112278160087,1.3487223254971024,
2023-08-17 10:44:48.043000,-8.156626506024097,0.5903614457831325,5.144578313253012,0.8534641324340895,-8.16002452483139,5.773145309625996,3.0,1.3482073482073482,741.7256710027992,0.21618786783986993,0.6458831070450436,0.05360992949128848,1620.5128205128203,-1.0,89.0112278160087,1.3487154638873466,
2023-08-17 10:44:48.050000,-8.19277108433735,0.5903614457831325,5.168674698795181,0.8706315144083384,-8.253218884120171,5.709380748007357,3.0,1.3482073482073482,741.7256710027992,0.23180467338733154,0.3341297127207038,0.22213157741390388,1627.106227106227,-1.0,89.0112278160087,1.3487085913884045,
2023-08-17 10:44:48.058000,-8.132530120481928,0.6024096385542169,5.156626506024097,0.8166768853464133,-8.164929491109747,5.675045984058859,3.0,1.3482073482073482,741.7256710027992,0.5216479226152324,-0.12913000407901673,0.18926635976924422,1630.03663003663,-1.0,89.0112278160087,1.3487017077908217,
2023-08-17 10:44:48.066000,-8.108433734939759,0.6265060240963856,5.156626506024097,0.8951563458001226,-8.137952176578786,5.6922133660331085,3.0,1.347763347763348,741.9700214132762,0.15150632247538073,-0.1610628751238267,0.048365479867140425,1629.3040293040292,-1.0,89.0112278160087,1.3486948129025507,
2023-08-17 10:44:48.073000,-8.180722891566266,0.6385542168674699,5.120481927710844,0.8902513795217657,-8.275291232372776,5.709380748007357,3.0,1.347763347763348,741.9700214132762,0.028902744595302985,0.003962473049355383,0.12365246780490657,1626.3736263736262,-1.0,89.0112278160087,1.3486879063979071,
2023-08-17 10:44:48.081000,-8.168674698795181,0.6506024096385542,5.144578313253012,0.8436541998773758,-8.233599019006745,5.682403433476394,3.0,1.347763347763348,741.9700214132762,-0.2936891789522755,-0.04358720354291789,-0.12493444437969795,1620.5128205128203,-1.0,89.0112278160087,1.3486809877942978,
2023-08-17 10:44:48.089000,-8.168674698795181,0.6385542168674699,5.156626506024097,0.8338442673206621,-8.260576333537706,5.682403433476394,3.0,1.347763347763348,741.9700214132762,-0.2629217411572756,0.13822038342753934,0.1603636151739408,1612.4542124542124,-1.0,89.0112278160087,1.3486740565882818,
2023-08-17 10:44:48.096000,-8.180722891566266,0.6265060240963856,5.156626506024097,0.8632740649908032,-8.216431637032494,5.738810545677498,3.0,1.347763347763348,741.9700214132762,-0.1689878212225392,0.0019812365246776914,0.3706077734397759,1602.197802197802,-1.0,89.0112278160087,1.3486671122531042,
2023-08-17 10:44:48.104000,-8.156626506024097,0.6144578313253012,5.156626506024097,0.8559166155732679,-8.204169221336603,5.721643163703249,3.0,1.347763347763348,741.9700214132762,-0.5182681661907812,-0.18099178369558963,0.13752112347765302,1591.2087912087911,-1.0,89.0112278160087,1.3486601542365166,
2023-08-17 10:44:48.112000,-8.144578313253012,0.5903614457831325,5.120481927710844,0.7872470876762722,-8.201716738197424,5.719190680564071,3.0,1.347763347763348,741.9700214132762,-0.2822679331041309,-0.16199522172367511,-0.292174115727522,1575.8241758241757,-1.0,89.0112278160087,1.3486531819588823,
2023-08-17 10:44:48.119000,-8.132530120481928,0.5903614457831325,5.144578313253012,0.8044144696505211,-8.157572041692212,5.741263028816676,3.0,1.346875346875347,742.4592055381572,-0.0983625662840169,0.1006934327836371,-0.22749257036303278,1556.0439560439559,-1.0,89.0112278160087,1.3486461946728836,
2023-08-17 10:44:48.127000,-8.132530120481928,0.6265060240963856,5.19277108433735,0.8436541998773758,-8.16002452483139,5.702023298589822,3.0,1.3473193473193474,742.2145328719723,0.07039216828856061,0.25394790513373383,0.08192995746168641,1538.4615384615383,-1.0,89.0112278160087,1.3486391916003642,
2023-08-17 10:44:48.135000,-8.120481927710843,0.6265060240963856,5.19277108433735,0.8779889638258737,-8.189454322501533,5.7363580625383195,3.0,1.347763347763348,741.9700214132762,0.06841093176388291,0.06724549851407281,0.21956762426432028,1523.0769230769229,-1.0,89.0112278160087,1.3486321721239334,
2023-08-17 10:44:48.142000,-8.168674698795181,0.6144578313253012,5.1807228915662655,0.8068669527896996,-8.199264255058246,5.753525444512569,3.0,1.347763347763348,741.9700214132762,-0.025056814870928437,0.5982168871277895,0.09777984965911098,1513.5531135531135,-1.0,89.0112278160087,1.3486251356480286,
2023-08-17 10:44:48.150000,-8.19277108433735,0.6144578313253012,5.204819277108434,0.8068669527896996,-8.191906805640711,5.724095646842428,3.0,1.347763347763348,741.9700214132762,-0.30103140842608206,0.36175048074121585,0.022725948371306936,1502.5641025641025,689.39208984375,87.0332005312085,1.3486180813640722,
2023-08-17 10:44:48.158000,-8.19277108433735,0.5903614457831325,5.1807228915662655,0.8142244022072348,-8.20907418761496,5.760882893930104,3.0,1.347763347763348,741.9700214132762,-0.34496824194394243,0.10826874890740709,-0.19276265951867583,1493.7728937728937,-1.0,87.0332005312085,1.3486110082820535,
2023-08-17 10:44:48.165000,-8.144578313253012,0.6144578313253012,5.19277108433735,0.7847946045370937,-8.184549356223176,5.760882893930104,3.0,1.347763347763348,741.9700214132762,-0.24975234543441507,0.2852980595536396,-0.3898374220616513,1482.051282051282,-1.0,87.0332005312085,1.3486039153794818,
2023-08-17 10:44:48.173000,-8.120481927710843,0.6144578313253012,5.168674698795181,0.8657265481299815,-8.189454322501533,5.746167995095034,3.0,1.347763347763348,741.9700214132762,-0.15407027562496434,-0.45277081755142445,-0.08006526426198957,1469.5970695970695,-1.0,87.0332005312085,1.3485968016015655,
2023-08-17 10:44:48.181000,-8.096385542168676,0.6144578313253012,5.132530120481928,0.8534641324340895,-8.16002452483139,5.770692826486818,3.0,1.347763347763348,741.9700214132762,0.28891090262805247,-0.5231629858399868,0.10721985898257697,1457.8754578754579,-1.0,87.0332005312085,1.3485896660006775,
2023-08-17 10:44:48.188000,-8.084337349397591,0.6144578313253012,5.168674698795181,0.8755364806866952,-8.142857142857142,5.6701410177805025,3.0,1.347763347763348,741.9700214132762,0.3772507429636966,-0.07015908163859894,-0.3512615814929202,1447.6190476190475,-1.0,87.0332005312085,1.3485825077172593,
2023-08-17 10:44:48.196000,-8.096385542168676,0.6385542168674699,5.144578313253012,0.8804414469650521,-8.169834457388106,5.716738197424893,3.0,1.347763347763348,741.9700214132762,0.12749839752928155,0.25674494493327915,-0.13309247712837255,1438.095238095238,-1.0,87.0332005312085,1.34857532583367,
2023-08-17 10:44:48.203000,-8.132530120481928,0.6626506024096386,5.144578313253012,0.7774371551195585,-8.177191906805641,5.721643163703249,3.0,1.347763347763348,741.9700214132762,-0.21257502476545706,0.5057980304178075,-0.19089796631897896,1428.5714285714284,-1.0,87.0332005312085,1.3485681192389778,
2023-08-17 10:44:48.211000,-8.156626506024097,0.6024096385542169,5.1807228915662655,0.8608215818516247,-8.182096873083998,5.743715511955855,3.0,1.347763347763348,741.9700214132762,-0.2421770293106468,0.5182681661907812,0.04195559699318227,1420.5128205128203,-1.0,87.0332005312085,1.3485608867920054,
2023-08-17 10:44:48.219000,-8.168674698795181,0.5903614457831325,5.168674698795181,0.8240343347639485,-8.204169221336603,5.714285714285714,3.0,1.347763347763348,741.9700214132762,-0.21175922149058948,0.20523279529165048,-0.07936600431210324,1413.9194139194137,-1.0,87.0332005312085,1.3485536273145162,
2023-08-17 10:44:48.226000,-8.180722891566266,0.5903614457831325,5.144578313253012,0.8044144696505211,-8.228694052728388,5.682403433476394,3.0,1.347763347763348,741.9700214132762,-0.2399627061360057,-0.19765747916788048,-0.44344735155293974,1405.8608058608058,-1.0,87.0332005312085,1.3485463394672004,
2023-08-17 10:44:48.234000,-8.168674698795181,0.5903614457831325,5.156626506024097,0.7480073574494175,-8.204169221336603,5.719190680564071,3.0,1.3473193473193474,742.2145328719723,0.2036011887419153,-0.3245731600722561,-0.36198356739117754,1397.069597069597,-1.0,87.0332005312085,1.3485390219029607,
2023-08-17 10:44:48.242000,-8.144578313253012,0.5783132530120483,5.1807228915662655,0.8117719190680563,-8.150214592274677,5.702023298589822,3.0,1.347763347763348,741.9700214132762,0.21653749781481246,-0.8311869937649329,-0.3129188275741508,1389.0109890109889,-1.0,87.0332005312085,1.3485316731221946,
2023-08-17 10:44:48.249000,-8.132530120481928,0.6024096385542169,5.1807228915662655,0.8166768853464133,-8.147762109135499,5.697118332311465,3.0,1.3473193473193474,742.2145328719723,0.2146728046151156,-0.8260590874657657,-0.3067420313501543,1380.2197802197802,-1.0,87.0332005312085,1.3485242916053541,
2023-08-17 10:44:48.257000,-8.144578313253012,0.5783132530120483,5.120481927710844,0.8264868179031268,-8.17964438994482,5.6922133660331085,3.0,1.3473193473193474,742.2145328719723,0.4857525785210654,-0.3292348930715,-0.2252782471883921,1373.6263736263736,-1.0,87.0332005312085,1.348516875967036,
2023-08-17 10:44:48.265000,-8.132530120481928,0.5903614457831325,5.132530120481928,0.8877988963825874,-8.177191906805641,5.709380748007357,3.0,1.347763347763348,741.9700214132762,0.037993123943825584,0.0745877279878794,-0.31175339432434024,1369.230769230769,-1.0,87.0332005312085,1.3485094247810332,
2023-08-17 10:44:48.272000,-8.144578313253012,0.5783132530120483,5.1807228915662655,0.8534641324340895,-8.221336603310851,5.709380748007357,3.0,1.3473193473193474,742.2145328719723,0.0981294796340535,0.1548860788998302,-0.29135831245265437,1363.3699633699632,-1.0,87.0332005312085,1.3485019365865156,
2023-08-17 10:44:48.280000,-8.156626506024097,0.5783132530120483,5.156626506024097,0.8779889638258737,-8.196811771919068,5.704475781729,3.0,1.346875346875347,742.4592055381572,0.19043179301905475,0.2178194743896051,-0.3929840918361399,1358.2417582417581,-1.0,87.0332005312085,1.3484944102035457,
2023-08-17 10:44:48.288000,-8.168674698795181,0.5783132530120483,5.144578313253012,0.7774371551195585,-8.174739423666463,5.6922133660331085,3.0,1.346875346875347,742.4592055381572,-0.0983625662840169,-0.29765165200163085,-0.15791620534933845,1356.7765567765566,-1.0,87.0332005312085,1.3484868443793383,
2023-08-17 10:44:48.295000,-8.204819277108435,0.6024096385542169,5.144578313253012,0.7725321888412017,-8.243408951563458,5.709380748007357,3.0,1.3473193473193474,742.2145328719723,0.19217994289377077,0.026804964745644456,-0.26070741798263497,1357.5091575091574,-1.0,87.0332005312085,1.3484792373483279,
2023-08-17 10:44:48.303000,-8.180722891566266,0.6024096385542169,5.204819277108434,0.7946045370938074,-8.248313917841815,5.716738197424893,3.0,1.3473193473193474,742.2145328719723,0.21851873433949015,-0.2921741157275211,-0.3504457782180526,1360.4395604395604,-1.0,87.0332005312085,1.3484715872959914,
2023-08-17 10:44:48.311000,-8.156626506024097,0.6144578313253012,5.168674698795181,0.8142244022072348,-8.191906805640711,5.724095646842428,3.0,1.3473193473193474,742.2145328719723,0.32492279004720037,-0.23297010663714163,-0.33098304294621517,1364.8351648351647,-1.0,87.0332005312085,1.3484638925344485,
2023-08-17 10:44:48.318000,-8.132530120481928,0.5903614457831325,5.144578313253012,0.8559166155732679,-8.218884120171673,5.6774984671980375,3.0,1.3473193473193474,742.2145328719723,-0.10442281918303081,-0.03659460404405381,-0.4361051220791327,1370.6959706959706,-1.0,87.0332005312085,1.3484561512309081,
2023-08-17 10:44:48.326000,-8.132530120481928,0.5903614457831325,5.144578313253012,0.8362967504598405,-8.164929491109747,5.719190680564071,3.0,1.3473193473193474,742.2145328719723,-0.23891381621117644,0.1434648330516874,-0.387623098887011,1376.5567765567764,-1.0,87.0332005312085,1.3484483615727372,
2023-08-17 10:44:48.334000,-8.120481927710843,0.5783132530120483,5.144578313253012,0.7578172900061312,-8.199264255058246,5.733905579399141,3.0,1.3473193473193474,742.2145328719723,-0.2678165608064794,0.2934560923023138,-0.2758580502301732,1381.6849816849815,-1.0,87.0332005312085,1.3484405219009974,
2023-08-17 10:44:48.341000,-8.156626506024097,0.5903614457831325,5.156626506024097,0.8117719190680563,-8.22624156958921,5.672593500919681,3.0,1.347763347763348,741.9700214132762,-0.17318338092185798,0.2917079424275978,0.1385700134024823,1384.6153846153845,-1.0,87.0332005312085,1.348432630567259,
2023-08-17 10:44:48.349000,-8.19277108433735,0.5903614457831325,5.156626506024097,0.7578172900061312,-8.206621704475781,5.68976088289393,3.0,1.347763347763348,741.9700214132762,0.1513897791503999,0.33704329584522996,0.07831711438727354,1383.8827838827838,-1.0,87.0332005312085,1.3484246860889513,
2023-08-17 10:44:48.357000,-8.19277108433735,0.5783132530120483,5.156626506024097,0.8068669527896996,-8.216431637032494,5.655426118945432,3.0,1.347763347763348,741.9700214132762,-0.06153487559000141,-0.12073888468037916,0.002447409824602339,1380.2197802197802,-1.0,87.0332005312085,1.3484166871772523,
2023-08-17 10:44:48.364000,-8.180722891566266,0.6024096385542169,5.144578313253012,0.7847946045370937,-8.324340895156345,5.697118332311465,3.0,1.3473193473193474,742.2145328719723,-0.30767437795000363,0.3553405978672577,-0.13204358720354287,1375.091575091575,-1.0,87.0332005312085,1.3484086326059814,
2023-08-17 10:44:48.372000,-8.180722891566266,0.5783132530120483,5.168674698795181,0.7210300429184548,-8.199264255058246,5.773145309625996,3.0,1.3473193473193474,742.2145328719723,0.16770584464774824,0.03228250101975418,0.023774838296136636,1367.7655677655678,-1.0,87.0332005312085,1.3484005210700545,
2023-08-17 10:44:48.380000,-8.156626506024097,0.5903614457831325,5.168674698795181,0.8117719190680563,-8.22378908645003,5.716738197424893,3.0,1.347763347763348,741.9700214132762,0.1364722335528233,-0.25895926810791847,0.283666453003904,1361.1721611721612,-1.0,87.0332005312085,1.348392351171449,
2023-08-17 10:44:48.387000,-8.168674698795181,0.5783132530120483,5.19277108433735,0.7504598405885959,-8.191906805640711,5.7290006131207845,3.0,1.3473193473193474,742.2145328719723,0.22656022376318347,-0.13798729677757768,0.2989336285764231,1353.8461538461538,-1.0,87.0332005312085,1.348384121713472,
2023-08-17 10:44:48.395000,-8.156626506024097,0.5903614457831325,5.144578313253012,0.8019619865113427,-8.22624156958921,5.6995708154506435,3.0,1.347763347763348,741.9700214132762,-0.008041489423693338,-0.459413787075346,0.14521298292640297,1346.5201465201465,-1.0,87.0332005312085,1.3483758315794276,
2023-08-17 10:44:48.403000,-8.156626506024097,0.5783132530120483,5.156626506024097,0.7553648068669527,-8.204169221336603,5.733905579399141,3.0,1.347763347763348,741.9700214132762,-0.11794184488083388,-0.1994056290425965,-0.12971272070392179,1343.5897435897434,-1.0,87.0332005312085,1.3483674797289067,
2023-08-17 10:44:48.410000,-8.156626506024097,0.5662650602409639,5.156626506024097,0.7798896382587369,-8.260576333537706,5.719190680564071,3.0,1.3473193473193474,742.2145328719723,-0.16514189149816463,-0.09265194335994377,0.19194685624380867,1339.9267399267399,-1.0,87.0332005312085,1.3483590653643542,
2023-08-17 10:44:48.418000,-8.144578313253012,0.5542168674698795,5.156626506024097,0.7553648068669527,-8.231146535867566,5.702023298589822,3.0,1.3473193473193474,742.2145328719723,-0.10279121263329563,-0.1074529456325395,0.4065031175339434,1334.7985347985348,-1.0,87.0332005312085,1.3483505876504729,
2023-08-17 10:44:48.426000,-8.132530120481928,0.5783132530120483,5.156626506024097,0.7749846719803801,-8.16002452483139,5.711833231146535,3.0,1.3464313464313464,742.7040395713108,0.09649787308431831,0.030534351145038167,0.10034380280869416,1330.4029304029302,-1.0,87.0332005312085,1.3483420455610173,
2023-08-17 10:44:48.433000,-8.132530120481928,0.5662650602409639,5.132530120481928,0.7676272225628449,-8.172286940527284,5.733905579399141,3.0,1.346875346875347,742.4592055381572,-0.025639531495834356,-0.15115669250043648,0.12936309072897842,1325.2747252747251,-1.0,87.0332005312085,1.3483334381612686,
2023-08-17 10:44:48.441000,-8.144578313253012,0.6024096385542169,5.156626506024097,0.8313917841814837,-8.187001839362354,5.7069282648681785,3.0,1.346875346875347,742.4592055381572,-0.20534933861663132,0.20231921216712262,0.44799254122720106,1320.8791208791208,-1.0,87.0332005312085,1.3483247646671144,
2023-08-17 10:44:48.449000,-8.132530120481928,0.5783132530120483,5.1807228915662655,0.8117719190680563,-8.206621704475781,5.6774984671980375,3.0,1.3473193473193474,742.2145328719723,0.36244974069110264,0.03589534409416706,0.10593788240778515,1317.9487179487178,-1.0,87.0332005312085,1.3483160243215038,
2023-08-17 10:44:48.456000,-8.156626506024097,0.5903614457831325,5.19277108433735,0.7970570202329859,-8.218884120171673,5.714285714285714,3.0,1.3473193473193474,742.2145328719723,0.31035487442456805,-0.16001398519899743,-0.15313792902511505,1316.4835164835165,-1.0,87.0332005312085,1.3483072164194545,
2023-08-17 10:44:48.464000,-8.156626506024097,0.5903614457831325,5.19277108433735,0.8608215818516247,-8.20907418761496,5.778050275904353,3.0,1.3473193473193474,742.2145328719723,0.22993998018763467,-0.11141541868189489,0.1392692733523686,1314.2857142857142,-1.0,87.0332005312085,1.3482983403535598,
2023-08-17 10:44:48.472000,-8.144578313253012,0.6265060240963856,5.156626506024097,0.8093194359288779,-8.169834457388106,5.709380748007357,3.0,1.3473193473193474,742.2145328719723,0.36652875706543886,-0.368160363615174,0.32165957694773045,1310.6227106227104,-1.0,87.0332005312085,1.3482893956274966,
2023-08-17 10:44:48.479000,-8.156626506024097,0.6024096385542169,5.1807228915662655,0.8191293684855916,-8.135499693439607,5.716738197424893,3.0,1.3473193473193474,742.2145328719723,0.05698968591573838,-0.5047491404929781,0.28809509935318445,1302.5641025641025,-1.0,87.0332005312085,1.3482803818587281,
2023-08-17 10:44:48.487000,-8.156626506024097,0.6144578313253012,5.204819277108434,0.8436541998773758,-8.211526670754138,5.6922133660331085,3.0,1.3473193473193474,742.2145328719723,-0.16968708117242592,-0.274459530330401,0.11829147485577769,1294.5054945054944,-1.0,87.0332005312085,1.3482712987809238,
2023-08-17 10:44:48.495000,-8.168674698795181,0.6265060240963856,5.156626506024097,0.7823421213979154,-8.172286940527284,5.711833231146535,3.0,1.3473193473193474,742.2145328719723,0.04894819649204678,-0.5198997727405165,0.1471942194510811,1286.4468864468863,-1.0,87.0332005312085,1.348262146246116,
2023-08-17 10:44:48.502000,-8.132530120481928,0.6144578313253012,5.168674698795181,0.8927038626609441,-8.191906805640711,5.679950950337216,3.0,1.347763347763348,741.9700214132762,-0.22364664063865736,-0.3174640172484112,0.14777693607598616,1280.5860805860805,-1.0,87.0332005312085,1.3482529242266061,
2023-08-17 10:44:48.510000,-8.120481927710843,0.6265060240963856,5.168674698795181,0.7896995708154506,-8.125689760882894,5.785407725321888,3.0,1.347763347763348,741.9700214132762,0.28541460287862047,-0.1290134607540359,-0.11328011188159218,1276.923076923077,-1.0,87.0332005312085,1.348243632965899,
2023-08-17 10:44:48.518000,-8.108433734939759,0.6024096385542169,5.1807228915662655,0.8485591661557327,-8.196811771919068,5.741263028816676,3.0,1.347763347763348,741.9700214132762,0.038808927218693175,0.13250976050346794,0.20919526834100588,1276.1904761904761,-1.0,87.0332005312085,1.3482342730019905,
2023-08-17 10:44:48.525000,-8.108433734939759,0.6144578313253012,5.1807228915662655,0.8338442673206621,-8.187001839362354,5.758430410790925,3.0,1.347763347763348,741.9700214132762,0.039624730493560766,0.13367519375327805,0.2060485985665172,1279.8534798534797,-1.0,87.0332005312085,1.3482248450314618,
2023-08-17 10:44:48.533000,-8.120481927710843,0.6024096385542169,5.19277108433735,0.7578172900061312,-8.24095646842428,5.7069282648681785,3.0,1.347763347763348,741.9700214132762,0.022026688421421484,0.4562671173008565,-0.09941145620884573,1283.5164835164835,-1.0,87.0332005312085,1.3482153499122964,
2023-08-17 10:44:48.541000,-8.168674698795181,0.5903614457831325,5.156626506024097,0.7921520539546291,-8.253218884120171,5.741263028816676,3.0,1.3473193473193474,742.2145328719723,-0.07062525493852402,0.08402773731134625,0.19241302954373288,1287.179487179487,-1.0,87.0332005312085,1.348205788666642,
2023-08-17 10:44:48.548000,-8.180722891566266,0.5903614457831325,5.144578313253012,0.8044144696505211,-8.245861434702636,5.748620478234212,3.0,1.3473193473193474,742.2145328719723,-0.2878620127032232,0.40149175455975744,-0.1614125050987705,1290.10989010989,-1.0,87.0332005312085,1.3481961623342347,
2023-08-17 10:44:48.556000,-8.19277108433735,0.5903614457831325,5.144578313253012,0.8093194359288779,-8.22624156958921,5.714285714285714,3.0,1.347763347763348,741.9700214132762,0.08053143756191421,0.24182739933570255,-0.100460346133675,1290.10989010989,-1.0,87.0332005312085,1.3481864720919314,
2023-08-17 10:44:48.564000,-8.168674698795181,0.5783132530120483,5.156626506024097,0.8166768853464133,-8.16002452483139,5.78295524218271,3.0,1.347763347763348,741.9700214132762,0.38214556261290217,0.037993123943825584,-0.1616455917487326,1288.6446886446886,-1.0,87.0332005312085,1.348176719383551,
2023-08-17 10:44:48.571000,-8.180722891566266,0.5903614457831325,5.156626506024097,0.8338442673206621,-8.22624156958921,5.68976088289393,3.0,1.347763347763348,741.9700214132762,0.5768894586562548,-0.19392809276848677,-0.11374628518151639,1288.6446886446886,-1.0,87.0332005312085,1.3481669058147931,
2023-08-17 10:44:48.579000,-8.168674698795181,0.6024096385542169,5.156626506024097,0.7872470876762722,-8.245861434702636,5.679950950337216,3.0,1.346875346875347,742.4592055381572,0.7252491113571478,-0.07050871161354318,0.2060485985665172,1288.6446886446886,-1.0,87.0332005312085,1.348157033304434,
2023-08-17 10:44:48.586000,-8.144578313253012,0.5903614457831325,5.156626506024097,0.8264868179031268,-8.204169221336603,5.694665849172287,3.0,1.346875346875347,742.4592055381572,0.3082570945749078,0.036944234018996325,-0.07225686148825833,1290.10989010989,-1.0,87.0332005312085,1.3481471039059303,
2023-08-17 10:44:48.594000,-8.156626506024097,0.5903614457831325,5.168674698795181,0.7774371551195585,-8.187001839362354,5.6922133660331085,3.0,1.3473193473193474,742.2145328719723,0.21490589126507728,0.250335062059321,0.12668259425441397,1293.040293040293,-1.0,87.0332005312085,1.3481371195970375,
2023-08-17 10:44:48.602000,-8.156626506024097,0.5903614457831325,5.168674698795181,0.8534641324340895,-8.216431637032494,5.697118332311465,3.0,1.3473193473193474,742.2145328719723,0.2287745469378246,0.052211409591515406,0.03368102091952683,1296.7032967032967,-1.0,87.0332005312085,1.3481270824192404,
2023-08-17 10:44:48.609000,-8.144578313253012,0.5903614457831325,5.168674698795181,0.8289393010423053,-8.233599019006745,5.7290006131207845,3.0,1.347763347763348,741.9700214132762,-0.032865217644660105,0.0374104073189214,0.01946273527183744,1300.3663003663003,-1.0,87.0332005312085,1.348116994381052,
2023-08-17 10:44:48.617000,-8.168674698795181,0.6144578313253012,5.168674698795181,0.7847946045370937,-8.189454322501533,5.682403433476394,3.0,1.347763347763348,741.9700214132762,0.05920400909037948,-0.08507662723617551,-0.3016141250509875,1303.2967032967033,-1.0,87.0332005312085,1.34810685763757,
2023-08-17 10:44:48.625000,-8.156626506024097,0.6024096385542169,5.19277108433735,0.8853464132434089,-8.221336603310851,5.672593500919681,3.0,1.347763347763348,741.9700214132762,0.016316065497348348,0.01957927859681871,0.1730668375968767,1303.2967032967033,-1.0,87.0332005312085,1.3480966746591916,
2023-08-17 10:44:48.632000,-8.180722891566266,0.6144578313253012,5.156626506024097,0.8117719190680563,-8.245861434702636,5.665236051502146,3.0,1.347763347763348,741.9700214132762,-0.27154594720587316,-0.1636268282734103,-0.10244158265835313,1306.9597069597069,-1.0,87.0332005312085,1.3480864480918378,
2023-08-17 10:44:48.640000,-8.156626506024097,0.6024096385542169,5.168674698795181,0.8313917841814837,-8.221336603310851,5.733905579399141,3.0,1.3473193473193474,742.2145328719723,-0.3143173474739234,-0.6080065264261989,0.29298991900238913,1310.6227106227104,-1.0,87.0332005312085,1.3480761808946082,
2023-08-17 10:44:48.648000,-8.132530120481928,0.6024096385542169,5.168674698795181,0.7798896382587369,-8.182096873083998,5.770692826486818,3.0,1.3473193473193474,742.2145328719723,-0.40289027445953096,-0.4809743021968424,-0.04451955014276544,1317.216117216117,-1.0,87.0332005312085,1.3480658760301967,
2023-08-17 10:44:48.655000,-8.144578313253012,0.5903614457831325,5.156626506024097,0.8412017167381973,-8.140404659717964,5.709380748007357,3.0,1.3473193473193474,742.2145328719723,-0.5688479692325614,-0.40044286463492823,-0.014218285647689385,1326.007326007326,-1.0,87.0332005312085,1.3480555364529183,
2023-08-17 10:44:48.663000,-8.144578313253012,0.5903614457831325,5.1807228915662655,0.8142244022072348,-8.120784794604537,5.721643163703249,3.0,1.3473193473193474,742.2145328719723,-0.4740982460229592,-0.24485752578521125,0.32212575024765466,1336.263736263736,-1.0,87.0332005312085,1.348045165373196,
2023-08-17 10:44:48.671000,-8.144578313253012,0.5783132530120483,5.168674698795181,0.7210300429184548,-8.189454322501533,5.704475781729,3.0,1.347763347763348,741.9700214132762,-0.28669657945341137,0.07761785443738635,0.1336751937532776,1348.7179487179487,-1.0,87.0332005312085,1.348034765967365,
2023-08-17 10:44:48.678000,-8.156626506024097,0.5542168674698795,5.156626506024097,0.7259350091968118,-8.211526670754138,5.7363580625383195,3.0,1.347763347763348,741.9700214132762,0.050929433016724465,0.1988229124176906,0.574325505506672,1364.8351648351647,-1.0,87.0332005312085,1.348024341544752,
2023-08-17 10:44:48.686000,-8.144578313253012,0.5662650602409639,5.19277108433735,0.7798896382587369,-8.152667075413856,5.731453096259963,3.0,1.347763347763348,741.9700214132762,-0.2688654507313087,0.4733989860730724,0.48004195559699314,1383.8827838827838,-1.0,87.0332005312085,1.348013895714502,
2023-08-17 10:44:48.694000,-8.120481927710843,0.5662650602409639,5.1807228915662655,0.7087676272225628,-8.189454322501533,5.704475781729,3.0,1.347763347763348,741.9700214132762,-0.03752695064390224,0.22527824718839254,0.09556552648447075,1410.989010989011,-1.0,87.0332005312085,1.348003432243915,
2023-08-17 10:44:48.701000,-8.168674698795181,0.5783132530120483,5.204819277108434,0.8166768853464133,-8.164929491109747,5.724095646842428,3.0,1.347763347763348,741.9700214132762,0.2836664530039044,0.20802983509119577,-0.11805838820581559,1440.2930402930401,-1.0,87.0332005312085,1.347992955055491,
2023-08-17 10:44:48.709000,-8.156626506024097,0.5783132530120483,5.1807228915662655,0.7602697731453096,-8.233599019006745,5.75107296137339,3.0,1.347763347763348,741.9700214132762,0.05617388264087252,0.29648621875182074,0.0961482431093758,1471.062271062271,-1.0,87.0332005312085,1.347982468223908,
2023-08-17 10:44:48.717000,-8.180722891566266,0.5903614457831325,5.204819277108434,0.7725321888412017,-8.204169221336603,5.733905579399141,3.0,1.347763347763348,741.9700214132762,0.31490006409882937,-0.2548802517335823,-0.028553114620360042,1503.2967032967033,-1.0,87.0332005312085,1.347971976111697,
2023-08-17 10:44:48.724000,-8.168674698795181,0.6024096385542169,5.1807228915662655,0.7651747394236664,-8.233599019006745,5.650521152667075,3.0,1.347763347763348,741.9700214132762,0.1119981353068008,-0.5090612435172778,-0.04463609346774672,1532.6007326007325,-1.0,87.0332005312085,1.3479614833457159,
2023-08-17 10:44:48.732000,-8.144578313253012,0.5903614457831325,5.156626506024097,0.8142244022072348,-8.167381974248926,5.726548129981606,3.0,1.346875346875347,742.4592055381572,-0.10314084260823987,-0.42573276615581834,0.1073364023075578,1556.7765567765566,-1.0,87.0332005312085,1.3479509945271877,
2023-08-17 10:44:48.740000,-8.144578313253012,0.6024096385542169,5.19277108433735,0.8289393010423053,-8.187001839362354,5.704475781729,3.0,1.3473193473193474,742.2145328719723,0.14276557310180063,-0.31280228424916906,-0.47118466289843264,1576.5567765567764,-1.0,87.0332005312085,1.3479405140900373,
2023-08-17 10:44:48.747000,-8.096385542168676,0.6265060240963856,5.19277108433735,0.8264868179031268,-8.142857142857142,5.748620478234212,3.0,1.347763347763348,741.9700214132762,0.08239613076161106,-0.09474972320960402,-0.17831128722102432,1590.4761904761904,-1.0,87.0332005312085,1.3479300463928,
2023-08-17 10:44:48.755000,-8.144578313253012,0.6265060240963856,5.1807228915662655,0.9074187614960146,-8.150214592274677,5.763335377069282,3.0,1.347763347763348,741.9700214132762,0.5094108734922204,-0.15104014917545566,-0.22038342753918785,1601.4652014652013,-1.0,87.0332005312085,1.3479195961711368,
2023-08-17 10:44:48.763000,-8.120481927710843,0.6385542168674699,5.156626506024097,0.8583690987124463,-8.169834457388106,5.746167995095034,3.0,1.347763347763348,741.9700214132762,0.22982343686265383,0.14532952625138426,0.01235359244799253,1610.2564102564102,-1.0,87.0332005312085,1.347909168404836,
2023-08-17 10:44:48.770000,-8.144578313253012,0.6385542168674699,5.144578313253012,0.8853464132434089,-8.22378908645003,5.778050275904353,3.0,1.347763347763348,741.9700214132762,-0.12330283782996276,0.19019870636909308,-0.01724841209719721,1619.047619047619,-1.0,87.0332005312085,1.347898768046547,
2023-08-17 10:44:48.778000,-8.156626506024097,0.6265060240963856,5.132530120481928,0.8461066830165542,-8.28755364806867,5.68976088289393,3.0,1.347763347763348,741.9700214132762,-0.10931763883223636,0.41990559990676607,0.10815220558242539,1624.9084249084249,-1.0,87.0332005312085,1.3478884003045954,
2023-08-17 10:44:48.786000,-8.168674698795181,0.6144578313253012,5.156626506024097,0.8044144696505211,-8.265481299816063,5.68976088289393,3.0,1.347763347763348,741.9700214132762,-0.1100168987821231,0.3391410756948902,-0.16735621467280443,1626.3736263736262,-1.0,87.0332005312085,1.347878070617265,
2023-08-17 10:44:48.793000,-8.180722891566266,0.6024096385542169,5.168674698795181,0.7995095033721643,-8.243408951563458,5.743715511955855,3.0,1.347763347763348,741.9700214132762,-0.24975234543441507,0.1052386224578984,-0.15243866907522874,1624.1758241758241,-1.0,87.0332005312085,1.3478677844993177,
2023-08-17 10:44:48.801000,-8.19277108433735,0.5783132530120483,5.132530120481928,0.7970570202329859,-8.211526670754138,5.711833231146535,3.0,1.3482073482073482,741.7256710027992,-0.24928617213449172,0.1020919526834106,-0.14987471592564555,1619.047619047619,-1.0,87.0332005312085,1.34785754753748,
2023-08-17 10:44:48.809000,-8.168674698795181,0.5903614457831325,5.156626506024097,0.8240343347639485,-8.22378908645003,5.7657878602084605,3.0,1.3482073482073482,741.7256710027992,-0.29275683235242705,0.2211992308140546,-0.14626187285123224,1607.3260073260071,-1.0,87.0332005312085,1.347847365534874,
2023-08-17 10:44:48.816000,-8.168674698795181,0.5783132530120483,5.156626506024097,0.7970570202329859,-8.191906805640711,5.711833231146535,3.0,1.3482073482073482,741.7256710027992,-0.13775421012761427,0.1712021443971803,-0.20511625196666877,1592.6739926739926,-1.0,87.0332005312085,1.3478372445276738,
2023-08-17 10:44:48.824000,-8.168674698795181,0.5662650602409639,5.156626506024097,0.8608215818516247,-8.125689760882894,5.738810545677498,3.0,1.3482073482073482,741.7256710027992,-0.24392517918536283,0.01666569547229259,0.15092360585047482,1579.4871794871794,-1.0,87.0332005312085,1.3478271906424688,
2023-08-17 10:44:48.832000,-8.19277108433735,0.5783132530120483,5.156626506024097,0.8264868179031268,-8.277743715511955,5.694665849172287,3.0,1.3482073482073482,741.7256710027992,-0.04242177029310605,-0.07388846803799265,-0.0758697045626712,1569.230769230769,-1.0,87.0332005312085,1.3478172100921944,
2023-08-17 10:44:48.839000,-8.180722891566266,0.6024096385542169,5.156626506024097,0.7602697731453096,-8.260576333537706,5.665236051502146,3.0,1.3482073482073482,741.7256710027992,-0.1177087582308722,-0.07179068818833412,0.13717149350270966,1558.2417582417581,-1.0,87.0332005312085,1.347807309171862,
2023-08-17 10:44:48.847000,-8.180722891566266,0.5783132530120483,5.120481927710844,0.82158185162477,-8.238503985285101,5.726548129981606,3.0,1.347763347763348,741.9700214132762,-0.20802983509119577,-0.009323465998484274,0.2426432026105706,1547.2527472527472,704.7119140625,85.14117443270396,1.3477974942541033,
2023-08-17 10:44:48.855000,-8.156626506024097,0.6024096385542169,5.144578313253012,0.8436541998773758,-8.196811771919068,5.733905579399141,3.0,1.3482073482073482,741.7256710027992,0.12959617737894008,0.005943709574034809,0.2090787250160246,1535.5311355311355,-1.0,85.14117443270396,1.3477877716351843,
2023-08-17 10:44:48.862000,-8.156626506024097,0.5903614457831325,5.156626506024097,0.8240343347639485,-8.182096873083998,5.721643163703249,3.0,1.3482073482073482,741.7256710027992,-0.023425208321193255,-0.5603403065089447,0.11514480508128903,1523.0769230769229,-1.0,85.14117443270396,1.3477781476575141,
2023-08-17 10:44:48.870000,-8.120481927710843,0.6144578313253012,5.1807228915662655,0.8534641324340895,-8.09871244635193,5.792765174739423,3.0,1.3482073482073482,741.7256710027992,0.29846745527649843,-0.5569605500844936,0.06642969523920522,1509.89010989011,-1.0,85.14117443270396,1.3477686288634227,
2023-08-17 10:44:48.878000,-8.144578313253012,0.6144578313253012,5.1807228915662655,0.8436541998773758,-8.17964438994482,5.704475781729,3.0,1.3482073482073482,741.7256710027992,0.3579045510168413,-0.2597750713827861,0.1256337043295847,1499.6336996336995,-1.0,85.14117443270396,1.347759221850819,
2023-08-17 10:44:48.885000,-8.156626506024097,0.6144578313253012,5.168674698795181,0.8436541998773758,-8.206621704475781,5.741263028816676,3.0,1.3473193473193474,742.2145328719723,0.2778392867548505,-0.1798263504457778,-0.1241186411048308,1486.4468864468863,-1.0,85.14117443270396,1.3477499332673335,
2023-08-17 10:44:48.893000,-8.156626506024097,0.6144578313253012,5.144578313253012,0.9074187614960146,-8.250766400980993,5.6995708154506435,3.0,1.347763347763348,741.9700214132762,0.12621642095449062,0.24951925878445338,0.25569605500844944,1473.9926739926739,-1.0,85.14117443270396,1.347740769644353,
2023-08-17 10:44:48.901000,-8.180722891566266,0.6024096385542169,5.168674698795181,0.8191293684855916,-8.250766400980993,5.719190680564071,3.0,1.347763347763348,741.9700214132762,-0.07144105821339161,-0.1942777227434293,-0.18914981644426293,1460.8058608058607,-1.0,85.14117443270396,1.3477317374757842,
2023-08-17 10:44:48.908000,-8.144578313253012,0.5903614457831325,5.132530120481928,0.8461066830165542,-8.189454322501533,5.724095646842428,3.0,1.3482073482073482,741.7256710027992,-0.40580385758405707,-0.05792203251558681,0.1006934327836371,1447.6190476190475,-1.0,85.14117443270396,1.3477228433593658,
2023-08-17 10:44:48.916000,-8.144578313253012,0.5903614457831325,5.156626506024097,0.8166768853464133,-8.113427345187002,5.694665849172287,3.0,1.3482073482073482,741.7256710027992,-0.32597167997202964,0.031117067769944086,0.25138395198415026,1438.095238095238,-1.0,85.14117443270396,1.3477140938605296,
2023-08-17 10:44:48.924000,-8.120481927710843,0.5783132530120483,5.156626506024097,0.8044144696505211,-8.167381974248926,5.716738197424893,3.0,1.3482073482073482,741.7256710027992,0.07330575141308847,-0.16770584464774824,-0.010139269273352298,1432.9670329670328,-1.0,85.14117443270396,1.3477054955460532,
2023-08-17 10:44:48.931000,-8.120481927710843,0.5903614457831325,5.168674698795181,0.8559166155732679,-8.135499693439607,5.694665849172287,3.0,1.3482073482073482,741.7256710027992,0.013519025697803066,0.21630441116485077,-0.1174756715809101,1430.7692307692307,-1.0,85.14117443270396,1.3476970549857252,
2023-08-17 10:44:48.939000,-8.156626506024097,0.5903614457831325,5.1807228915662655,0.8142244022072348,-8.093807480073574,5.714285714285714,3.0,1.3482073482073482,741.7256710027992,-0.3059262280752876,0.21385700134024802,0.050579803041780655,1426.3736263736262,-1.0,85.14117443270396,1.3476887787432268,
2023-08-17 10:44:48.946000,-8.180722891566266,0.5903614457831325,5.120481927710844,0.7872470876762722,-8.221336603310851,5.726548129981606,3.0,1.3482073482073482,741.7256710027992,-0.05722277256570179,0.06304993881475403,-0.024241011596060846,1421.9780219780218,-1.0,85.14117443270396,1.347680673366743,
2023-08-17 10:44:48.954000,-8.180722891566266,0.5903614457831325,5.156626506024097,0.7872470876762722,-8.213979153893316,5.6848559166155725,3.0,1.3482073482073482,741.7256710027992,-0.1495250859507013,-0.4523046442515011,0.4352893188042656,1414.6520146520145,-1.0,85.14117443270396,1.3476727453793653,
2023-08-17 10:44:48.962000,-8.168674698795181,0.5903614457831325,5.168674698795181,0.8142244022072348,-8.216431637032494,5.773145309625996,3.0,1.3482073482073482,741.7256710027992,-0.07586970456267034,0.08799021036070162,-0.19602587261814575,1405.8608058608058,-1.0,85.14117443270396,1.3476650012692633,
2023-08-17 10:44:48.969000,-8.168674698795181,0.5542168674698795,5.1807228915662655,0.7774371551195585,-8.169834457388106,5.726548129981606,3.0,1.348651348651349,741.4814814814814,0.10267466930831479,-0.21653749781481246,-0.08764058038575825,1394.8717948717947,-1.0,85.14117443270396,1.3476574474796468,
2023-08-17 10:44:48.977000,-8.144578313253012,0.5662650602409639,5.168674698795181,0.8044144696505211,-8.14530962599632,5.697118332311465,3.0,1.348651348651349,741.4814814814814,0.051861779616572894,-0.27667385350504037,-0.07085834158848568,1386.080586080586,-1.0,85.14117443270396,1.347650090547856,
2023-08-17 10:44:48.985000,-8.132530120481928,0.5903614457831325,5.156626506024097,0.8019619865113427,-8.152667075413856,5.687308399754752,3.0,1.348651348651349,741.4814814814814,0.32200920692267426,-0.3363440358953449,-0.06945982168871262,1378.021978021978,-1.0,85.14117443270396,1.3476429371168417,
2023-08-17 10:44:48.992000,-8.156626506024097,0.5783132530120483,5.144578313253012,0.7847946045370937,-8.19435928877989,5.675045984058859,3.0,1.348651348651349,741.4814814814814,0.27341064040557,-0.25965852805780526,-0.1304119806538081,1369.9633699633698,-1.0,85.14117443270396,1.3476359937875617,
2023-08-17 10:44:49,-8.144578313253012,0.6024096385542169,5.168674698795181,0.8289393010423053,-8.155119558553034,5.687308399754752,3.0,1.348651348651349,741.4814814814814,0.07283957811316338,-0.2907755958277493,0.1771458539712138,1362.6373626373625,-1.0,85.14117443270396,1.347629267110188,
2023-08-17 10:44:49.008000,-8.144578313253012,0.6024096385542169,5.132530120481928,0.762722256284488,-8.182096873083998,5.694665849172287,3.0,1.348651348651349,741.4814814814814,-0.08216304411164765,-0.20057106229240662,-0.11561097838121324,1356.7765567765566,-1.0,85.14117443270396,1.3476227635753641,
2023-08-17 10:44:49.015000,-8.144578313253012,0.5903614457831325,5.168674698795181,0.8044144696505211,-8.216431637032494,5.719190680564071,3.0,1.348651348651349,741.4814814814814,0.055008449391060685,-0.18425499679505827,0.038226210593788126,1352.3809523809523,-1.0,85.14117443270396,1.347616489605532,
2023-08-17 10:44:49.023000,-8.180722891566266,0.5662650602409639,5.168674698795181,0.7700797057020232,-8.292458614347026,5.726548129981606,3.0,1.3490953490953492,741.2374526904722,0.2838995396538661,0.13915273002738776,0.008973836023541765,1347.985347985348,-1.0,85.14117443270396,1.3476104515463565,
2023-08-17 10:44:49.031000,-8.144578313253012,0.5662650602409639,5.120481927710844,0.7872470876762722,-8.238503985285101,5.694665849172287,3.0,1.3490953490953492,741.2374526904722,-0.14451372297651666,9.323465998484274E-4,-0.15873200862420606,1344.3223443223442,-1.0,85.14117443270396,1.347604655807509,
2023-08-17 10:44:49.038000,-8.156626506024097,0.5783132530120483,5.144578313253012,0.7896995708154506,-8.189454322501533,5.59656652360515,3.0,1.3482073482073482,741.7256710027992,0.1628110249985427,0.03228250101975418,-0.09766330633412972,1339.194139194139,-1.0,85.14117443270396,1.3475991088761394,
2023-08-17 10:44:49.046000,-8.156626506024097,0.5903614457831325,5.156626506024097,0.82158185162477,-8.162477007970569,5.714285714285714,3.0,1.348651348651349,741.4814814814814,0.05827166249053105,0.14066779325214213,0.1788940038459298,1340.6593406593406,-1.0,85.14117443270396,1.3475938171504138,
2023-08-17 10:44:49.054000,-8.19277108433735,0.6144578313253012,5.19277108433735,0.8338442673206621,-8.265481299816063,5.6922133660331085,3.0,1.348651348651349,741.4814814814814,-0.2918244857525786,-0.40487151098420865,-0.03542917079424284,1345.054945054945,-1.0,85.14117443270396,1.3475887868592098,
2023-08-17 10:44:49.061000,-8.180722891566266,0.6024096385542169,5.168674698795181,0.7602697731453096,-8.25567136725935,5.702023298589822,3.0,1.3490953490953492,741.2374526904722,-0.39484878503583765,-0.15465299224986853,0.10430627585805041,1348.7179487179487,-1.0,85.14117443270396,1.3475840240764434,
2023-08-17 10:44:49.069000,-8.156626506024097,0.5783132530120483,5.168674698795181,0.8166768853464133,-8.184549356223176,5.719190680564071,3.0,1.3490953490953492,741.2374526904722,0.008973836023541765,-0.07773439776236893,0.09008799021036058,1353.113553113553,-1.0,85.14117443270396,1.347579534873973,
2023-08-17 10:44:49.077000,-8.168674698795181,0.6024096385542169,5.156626506024097,0.7847946045370937,-8.221336603310851,5.7290006131207845,3.0,1.3490953490953492,741.2374526904722,0.010022725948371029,-0.0779674844123306,0.09020453353534186,1356.7765567765566,-1.0,85.14117443270396,1.347575325197662,
2023-08-17 10:44:49.084000,-8.180722891566266,0.5903614457831325,5.168674698795181,0.82158185162477,-8.231146535867566,5.6701410177805025,3.0,1.3495393495393495,740.9935844711301,-0.14253248645183897,-0.16852164792261584,-0.06176796223996266,1360.4395604395604,-1.0,85.14117443270396,1.3475714007435424,
2023-08-17 10:44:49.092000,-8.156626506024097,0.5903614457831325,5.144578313253012,0.82158185162477,-8.243408951563458,5.743715511955855,3.0,1.3495393495393495,740.9935844711301,-0.17423227084668724,-0.5335353417633003,0.014567915622632762,1361.904761904762,-1.0,85.14117443270396,1.3475677673884565,
2023-08-17 10:44:49.100000,-8.156626506024097,0.5542168674698795,5.144578313253012,0.851011649294911,-8.169834457388106,5.743715511955855,3.0,1.3495393495393495,740.9935844711301,0.16094633179884585,-0.6653458423168815,0.41314608705786365,1361.904761904762,-1.0,85.14117443270396,1.3475644310463912,
2023-08-17 10:44:49.107000,-8.144578313253012,0.5783132530120483,5.168674698795181,0.82158185162477,-8.140404659717964,5.709380748007357,3.0,1.3495393495393495,740.9935844711301,0.08204650078666682,-0.35440825126740927,0.2149058912650777,1360.4395604395604,-1.0,85.14117443270396,1.3475613973976472,
2023-08-17 10:44:49.115000,-8.156626506024097,0.5783132530120483,5.19277108433735,0.7676272225628449,-8.155119558553034,5.726548129981606,3.0,1.3495393495393495,740.9935844711301,0.138453470077501,-0.2914748557776361,0.275974593555154,1357.5091575091574,-1.0,85.14117443270396,1.3475586721726787,
2023-08-17 10:44:49.123000,-8.120481927710843,0.5662650602409639,5.156626506024097,0.8166768853464133,-8.103617412630287,5.753525444512569,3.0,1.3495393495393495,740.9935844711301,0.11980653808053073,-0.2288910902628054,-0.155235708874774,1353.113553113553,-1.0,85.14117443270396,1.3475562609891811,
2023-08-17 10:44:49.130000,-8.132530120481928,0.5783132530120483,5.19277108433735,0.8068669527896996,-8.199264255058246,5.760882893930104,3.0,1.3495393495393495,740.9935844711301,0.33168230289610107,-0.13425791037818222,-0.017831128722102258,1346.5201465201465,-1.0,85.14117443270396,1.3475541693598494,
2023-08-17 10:44:49.138000,-8.132530120481928,0.5903614457831325,5.204819277108434,0.7847946045370937,-8.155119558553034,5.775597792765175,3.0,1.3495393495393495,740.9935844711301,-0.18961598974418717,0.02191014509643891,0.36513023716566617,1336.9963369963368,-1.0,85.14117443270396,1.347552402679354,
2023-08-17 10:44:49.146000,-8.144578313253012,0.5903614457831325,5.168674698795181,0.7872470876762722,-8.211526670754138,5.741263028816676,3.0,1.3495393495393495,740.9935844711301,0.22434590058854412,-0.587844531204476,0.043936833517860395,1327.4725274725274,-1.0,85.14117443270396,1.3475509660938818,
2023-08-17 10:44:49.153000,-8.168674698795181,0.5783132530120483,5.156626506024097,0.7651747394236664,-8.14530962599632,5.704475781729,3.0,1.3499833499833502,740.7498766650222,0.008507662723616683,0.03251558766971586,0.1364722335528233,1319.4139194139193,-1.0,85.14117443270396,1.347549864647708,
2023-08-17 10:44:49.161000,-8.156626506024097,0.5662650602409639,5.132530120481928,0.7553648068669527,-8.164929491109747,5.716738197424893,3.0,1.3495393495393495,740.9935844711301,0.15861546529922566,-0.25429753510867636,0.013985198997727278,1314.2857142857142,-1.0,85.14117443270396,1.3475491034300504,
2023-08-17 10:44:49.169000,-8.168674698795181,0.5903614457831325,5.144578313253012,0.82158185162477,-8.245861434702636,5.697118332311465,3.0,1.3499833499833502,740.7498766650222,0.41407843365771213,-0.12854728745411081,0.3182798205232797,1313.5531135531135,-1.0,85.14117443270396,1.3475486874454525,
2023-08-17 10:44:49.176000,-8.156626506024097,0.5903614457831325,5.144578313253012,0.8461066830165542,-8.17964438994482,5.716738197424893,3.0,1.3499833499833502,740.7498766650222,-0.17143523104714195,-0.15500262222481276,-0.08356156401142116,1315.7509157509157,-1.0,85.14117443270396,1.3475486216021493,
2023-08-17 10:44:49.184000,-8.168674698795181,0.6024096385542169,5.132530120481928,0.8044144696505211,-8.19435928877989,5.7069282648681785,3.0,1.3499833499833502,740.7498766650222,0.1794767204708353,-0.1562845987996037,0.10011071615873206,1319.4139194139193,-1.0,85.14117443270396,1.3475489110097882,
2023-08-17 10:44:49.192000,-8.156626506024097,0.6265060240963856,5.168674698795181,0.7946045370938074,-8.216431637032494,5.6848559166155725,3.0,1.3490953490953492,741.2374526904722,0.25627877163335405,-0.005477536274109728,0.22271429403880894,1317.9487179487178,-1.0,85.14117443270396,1.3475495601267038,
2023-08-17 10:44:49.199000,-8.168674698795181,0.6144578313253012,5.156626506024097,0.8313917841814837,-8.184549356223176,5.68976088289393,3.0,1.3490953490953492,741.2374526904722,0.25686148825826,-0.050929433016724465,0.1118815919818191,1312.8205128205127,-1.0,85.14117443270396,1.3475505731093615,
2023-08-17 10:44:49.207000,-8.156626506024097,0.6385542168674699,5.19277108433735,0.9245861434702636,-8.172286940527284,5.694665849172287,3.0,1.3499833499833502,740.7498766650222,0.13344210710331636,0.0896218169104368,-0.10337392925820155,1307.6923076923076,-1.0,85.14117443270396,1.3475519546858434,
2023-08-17 10:44:49.215000,-8.156626506024097,0.6024096385542169,5.1807228915662655,0.8461066830165542,-8.245861434702636,5.775597792765175,3.0,1.3499833499833502,740.7498766650222,-0.23588368976166948,-0.1048889924829559,0.018413845347007744,1303.2967032967033,-1.0,85.14117443270396,1.3475537098051547,
2023-08-17 10:44:49.222000,-8.156626506024097,0.6265060240963856,5.1807228915662655,0.8534641324340895,-8.184549356223176,5.6995708154506435,3.0,1.3499833499833502,740.7498766650222,-0.28203484645416926,-0.007691859448750828,0.2478876522347182,1301.8315018315018,-1.0,85.14117443270396,1.3475558432653016,
2023-08-17 10:44:49.230000,-8.132530120481928,0.6024096385542169,5.156626506024097,0.8240343347639485,-8.199264255058246,5.721643163703249,3.0,1.3504273504273505,740.506329113924,-0.6940155002622228,-0.09673095973428172,-0.013868655672746442,1299.6336996336995,-1.0,85.14117443270396,1.3475583596078595,
2023-08-17 10:44:49.238000,-8.132530120481928,0.6144578313253012,5.168674698795181,0.7896995708154506,-8.19435928877989,5.733905579399141,3.0,1.3504273504273505,740.506329113924,-0.46186119689994704,-0.3713070333896618,0.2426432026105706,1297.4358974358975,-1.0,85.14117443270396,1.3475612632784424,
2023-08-17 10:44:49.245000,-8.144578313253012,0.5903614457831325,5.1807228915662655,0.7651747394236664,-8.169834457388106,5.738810545677498,3.0,1.3504273504273505,740.506329113924,-0.625021851873434,-0.3241069867723328,0.16187867839869471,1298.168498168498,-1.0,85.14117443270396,1.347564558808028,
2023-08-17 10:44:49.253000,-8.156626506024097,0.5903614457831325,5.156626506024097,0.7700797057020232,-8.189454322501533,5.743715511955855,3.0,1.3504273504273505,740.506329113924,-0.7257152846570711,-0.06736204183905366,-0.0553580793660045,1299.6336996336995,-1.0,85.14117443270396,1.3475682508034597,
2023-08-17 10:44:49.261000,-8.132530120481928,0.5783132530120483,5.156626506024097,0.8166768853464133,-8.213979153893316,5.721643163703249,3.0,1.3504273504273505,740.506329113924,-0.2607074179826345,-0.22481207388846747,0.2633879144571994,1303.2967032967033,-1.0,85.14117443270396,1.3475723437997316,
2023-08-17 10:44:49.268000,-8.144578313253012,0.5783132530120483,5.1807228915662655,0.7823421213979154,-8.265481299816063,5.733905579399141,3.0,1.3504273504273505,740.506329113924,-0.17877746052094853,0.12644950760445228,0.13752112347765302,1308.4249084249084,-1.0,85.14117443270396,1.347576842122531,
2023-08-17 10:44:49.276000,-8.144578313253012,0.5662650602409639,5.204819277108434,0.7725321888412017,-8.231146535867566,5.731453096259963,3.0,1.3504273504273505,740.506329113924,-0.20768020511625152,0.23378590991200923,-0.1713186877221607,1311.3553113553112,-1.0,85.14117443270396,1.3475817500482823,
2023-08-17 10:44:49.284000,-8.144578313253012,0.5542168674698795,5.144578313253012,0.7921520539546291,-8.157572041692212,5.746167995095034,3.0,1.3504273504273505,740.506329113924,0.03892547054367401,-0.1934619194685617,-0.18763475321950945,1312.8205128205127,-1.0,85.14117443270396,1.3475870719322476,
2023-08-17 10:44:49.291000,-8.144578313253012,0.5662650602409639,5.19277108433735,0.7774371551195585,-8.22378908645003,5.814837522992029,3.0,1.3504273504273505,740.506329113924,0.11642678165608127,-0.28110249985432084,-0.12831420080414915,1313.5531135531135,-1.0,85.14117443270396,1.347592812059439,
2023-08-17 10:44:49.299000,-8.168674698795181,0.5542168674698795,5.19277108433735,0.7995095033721643,-8.182096873083998,5.763335377069282,3.0,1.3504273504273505,740.506329113924,-0.12947963405395924,-0.29567041547695316,-0.06771167181399702,1312.087912087912,-1.0,85.14117443270396,1.3475989746442605,
2023-08-17 10:44:49.307000,-8.144578313253012,0.5903614457831325,5.144578313253012,0.7504598405885959,-8.128142244022072,5.721643163703249,3.0,1.3504273504273505,740.506329113924,0.2851815162286588,-0.06339956878969827,0.006876056173882803,1309.89010989011,-1.0,85.14117443270396,1.347605563829573,
2023-08-17 10:44:49.314000,-8.132530120481928,0.5903614457831325,5.168674698795181,0.7823421213979154,-8.191906805640711,5.655426118945432,3.0,1.3504273504273505,740.506329113924,0.5595245032340772,-0.30860672454985205,0.11071615873200856,1307.6923076923076,-1.0,85.14117443270396,1.3476125836850814,
2023-08-17 10:44:49.322000,-8.120481927710843,0.6024096385542169,5.1084337349397595,0.8730839975475169,-8.182096873083998,5.657878602084611,3.0,1.350871350871351,740.2629416598191,0.6951809335120329,0.15080706252549397,-0.12202086125517139,1304.7619047619046,-1.0,85.14117443270396,1.3476200382050234,
2023-08-17 10:44:49.329000,-8.132530120481928,0.6024096385542169,5.156626506024097,0.8264868179031268,-8.206621704475781,5.6333537706928265,3.0,1.350871350871351,740.2629416598191,0.5669832760328646,0.15022434590058806,-0.12481790105471711,1297.4358974358975,-1.0,85.14117443270396,1.3476279314544064,
2023-08-17 10:44:49.337000,-8.144578313253012,0.6024096385542169,5.156626506024097,0.8485591661557327,-8.184549356223176,5.694665849172287,3.0,1.350871350871351,740.2629416598191,0.6218751820989444,0.12050579803041749,0.08647514713594771,1288.6446886446886,-1.0,85.14117443270396,1.3476362674482691,
2023-08-17 10:44:49.345000,-8.144578313253012,0.6144578313253012,5.168674698795181,0.8289393010423053,-8.182096873083998,5.682403433476394,3.0,1.3499833499833502,740.7498766650222,0.5233960724899485,0.2753918769302494,-0.03892547054367445,1281.3186813186812,-1.0,85.14117443270396,1.3476450501690656,
2023-08-17 10:44:49.352000,-8.156626506024097,0.6265060240963856,5.120481927710844,0.9368485591661557,-8.22624156958921,5.697118332311465,3.0,1.3499833499833502,740.7498766650222,0.5179185362158387,0.2764407668550787,-0.03810966726880729,1278.3882783882782,-1.0,85.14117443270396,1.3476542836695096,
2023-08-17 10:44:49.360000,-8.168674698795181,0.6385542168674699,5.156626506024097,0.8877988963825874,-8.263028816676885,5.748620478234212,3.0,1.350871350871351,740.2629416598191,0.20954489831594839,0.07936600431210238,-0.1446302663014975,1276.923076923077,-1.0,85.14117443270396,1.3476639716958274,
2023-08-17 10:44:49.368000,-8.168674698795181,0.6385542168674699,5.156626506024097,0.8804414469650521,-8.155119558553034,5.7290006131207845,3.0,1.350871350871351,740.2629416598191,-0.4034729910844352,0.0787832876871982,0.039158557193636555,1276.1904761904761,-1.0,85.14117443270396,1.34767411784118,
2023-08-17 10:44:49.375000,-8.144578313253012,0.6385542168674699,5.168674698795181,0.8019619865113427,-8.196811771919068,5.724095646842428,3.0,1.350871350871351,740.2629416598191,-0.37247246663947364,0.11234776528174331,-0.43598857875415187,1279.8534798534797,-1.0,85.14117443270396,1.3476847257505424,
2023-08-17 10:44:49.383000,-8.132530120481928,0.6265060240963856,5.156626506024097,0.8142244022072348,-8.167381974248926,5.726548129981606,3.0,1.350871350871351,740.2629416598191,-0.49076394149525004,-0.07050871161354318,-0.555212400209778,1286.4468864468863,-1.0,85.14117443270396,1.3476957989846807,
2023-08-17 10:44:49.391000,-8.132530120481928,0.6265060240963856,5.168674698795181,0.8362967504598405,-8.17964438994482,5.645616186388718,3.0,1.350871350871351,740.2629416598191,-0.7610279121263323,0.0816968708117243,-0.45778218052561037,1293.7728937728937,-1.0,85.14117443270396,1.3477073410115676,
2023-08-17 10:44:49.398000,-8.168674698795181,0.6024096385542169,5.168674698795181,0.8093194359288779,-8.191906805640711,5.738810545677498,3.0,1.350871350871351,740.2629416598191,-0.7231513315074874,-0.27014742730610136,-0.1471942194510811,1303.2967032967033,-1.0,85.14117443270396,1.3477193551970224,
2023-08-17 10:44:49.406000,-8.180722891566266,0.6024096385542169,5.1807228915662655,0.7921520539546291,-8.204169221336603,5.741263028816676,3.0,1.350871350871351,740.2629416598191,-0.32084377367286243,-0.026338791445719375,0.3278363731717265,1316.4835164835165,-1.0,85.14117443270396,1.347731844794591,
2023-08-17 10:44:49.414000,-8.180722891566266,0.5783132530120483,5.19277108433735,0.8289393010423053,-8.236051502145923,5.748620478234212,3.0,1.350871350871351,740.2629416598191,-0.1513897791503999,0.1412505098770463,0.11013344210710352,1335.5311355311355,-1.0,85.14117443270396,1.3477448129346683,
2023-08-17 10:44:49.421000,-8.180722891566266,0.5542168674698795,5.1807228915662655,0.7946045370938074,-8.189454322501533,5.770692826486818,3.0,1.350871350871351,740.2629416598191,-0.38051395606316696,0.01829730202202604,0.0644484587145271,1357.5091575091574,-1.0,85.14117443270396,1.3477582626128892,
2023-08-17 10:44:49.429000,-8.144578313253012,0.5542168674698795,5.204819277108434,0.8240343347639485,-8.199264255058246,5.716738197424893,3.0,1.3513153513153515,740.0197141448989,-0.25627877163335405,-0.0427714002680503,-0.009789639298409356,1380.2197802197802,-1.0,85.14117443270396,1.347772196677789,
2023-08-17 10:44:49.437000,-8.120481927710843,0.5783132530120483,5.228915662650603,0.7872470876762722,-8.191906805640711,5.7363580625383195,3.0,1.3513153513153515,740.0197141448989,-0.14672804615115603,0.15721694539945213,-0.05524153604102323,1403.6630036630036,-1.0,85.14117443270396,1.3477866179670839,
2023-08-17 10:44:49.444000,-8.096385542168676,0.5783132530120483,5.216867469879518,0.7749846719803801,-8.16002452483139,5.787860208461066,3.0,1.3513153513153515,740.0197141448989,0.0374104073189214,-0.3632655439659685,-0.19171376959384656,1431.5018315018315,-1.0,85.14117443270396,1.3478015293158583,
2023-08-17 10:44:49.452000,-8.084337349397591,0.5783132530120483,5.204819277108434,0.7872470876762722,-8.133047210300429,5.778050275904353,3.0,1.3513153513153515,740.0197141448989,0.23401899656197264,-0.19008216304411224,-0.21781947438960425,1460.8058608058607,-1.0,85.14117443270396,1.3478169334051937,
2023-08-17 10:44:49.460000,-8.108433734939759,0.5662650602409639,5.1807228915662655,0.7847946045370937,-8.164929491109747,5.795217657878601,3.0,1.3513153513153515,740.0197141448989,0.25021851873434015,-0.15686731542450963,-0.032515587669716295,1490.8424908424906,-1.0,85.14117443270396,1.3478328327491567,
2023-08-17 10:44:49.467000,-8.120481927710843,0.5903614457831325,5.19277108433735,0.8117719190680563,-8.174739423666463,5.714285714285714,3.0,1.350871350871351,740.2629416598191,-0.3752695064390189,0.4700192296486212,-0.033797564244508096,1520.14652014652,-1.0,85.14117443270396,1.3478492296814077,
2023-08-17 10:44:49.475000,-8.144578313253012,0.5662650602409639,5.204819277108434,0.703862660944206,-8.199264255058246,5.7290006131207845,3.0,1.3513153513153515,740.0197141448989,0.05687314259075754,0.2985839986014793,-0.3229415535225218,1547.2527472527472,-1.0,85.14117443270396,1.347866126192208,
2023-08-17 10:44:49.483000,-8.156626506024097,0.5783132530120483,5.1807228915662655,0.8044144696505211,-8.206621704475781,5.704475781729,3.0,1.3513153513153515,740.0197141448989,0.18145795699551298,0.27912126332964315,-0.22679331041314602,1570.6959706959706,-1.0,85.14117443270396,1.347883524041853,
2023-08-17 10:44:49.490000,-8.132530120481928,0.5783132530120483,5.156626506024097,0.8289393010423053,-8.19435928877989,5.733905579399141,3.0,1.3513153513153515,740.0197141448989,0.24171085601072173,-0.03135015441990576,-0.37585222306392396,1588.278388278388,-1.0,85.14117443270396,1.3479014250441352,
2023-08-17 10:44:49.498000,-8.132530120481928,0.6024096385542169,5.156626506024097,0.8117719190680563,-8.147762109135499,5.657878602084611,3.0,1.3504273504273505,740.506329113924,0.23868072956121478,0.013402482372822228,-0.37235592331449197,1600.0,-1.0,85.14117443270396,1.3479198307538682,
2023-08-17 10:44:49.506000,-8.144578313253012,0.5903614457831325,5.132530120481928,0.8068669527896996,-8.172286940527284,5.7069282648681785,3.0,1.350871350871351,740.2629416598191,0.374686789814113,-0.14253248645183897,0.0588543791154361,1608.7912087912086,-1.0,85.14117443270396,1.3479387423034557,
2023-08-17 10:44:49.513000,-8.156626506024097,0.6024096385542169,5.144578313253012,0.7896995708154506,-8.187001839362354,5.714285714285714,3.0,1.350871350871351,740.2629416598191,0.2938057222772563,-0.05151214964162865,-0.368160363615174,1614.6520146520145,-1.0,85.14117443270396,1.3479581604632034,
2023-08-17 10:44:49.521000,-8.156626506024097,0.6144578313253012,5.132530120481928,0.8264868179031268,-8.196811771919068,5.704475781729,3.0,1.3513153513153515,740.0197141448989,-0.05745585921566346,0.14707767612610026,-0.6259541984732824,1614.6520146520145,-1.0,85.14117443270396,1.3479780856466803,
2023-08-17 10:44:49.529000,-8.180722891566266,0.6265060240963856,5.156626506024097,0.9172286940527283,-8.258123850398528,5.726548129981606,3.0,1.3513153513153515,740.0197141448989,0.06538080531437596,0.08659169046092811,-0.3755025930889806,1612.4542124542124,-1.0,85.14117443270396,1.3479985180543939,
2023-08-17 10:44:49.536000,-8.204819277108435,0.6144578313253012,5.156626506024097,0.8019619865113427,-8.206621704475781,5.714285714285714,3.0,1.3513153513153515,740.0197141448989,-0.1333255637783338,-0.003962473049355383,-0.4017248412097196,1608.058608058608,-1.0,85.14117443270396,1.3480194576792301,
2023-08-17 10:44:49.544000,-8.19277108433735,0.6144578313253012,5.144578313253012,0.8583690987124463,-8.265481299816063,5.704475781729,3.0,1.3513153513153515,740.0197141448989,-0.19322883281860004,-0.15243866907522916,-0.002563953149583175,1600.7326007326005,-1.0,85.14117443270396,1.3480409041527606,
2023-08-17 10:44:49.552000,-8.156626506024097,0.5903614457831325,5.132530120481928,0.8706315144083384,-8.236051502145923,5.753525444512569,3.0,1.3513153513153515,740.0197141448989,-0.36023541751646154,-0.30254647165083637,-0.33704329584523035,1590.4761904761904,-1.0,85.14117443270396,1.348062856730362,
2023-08-17 10:44:49.559000,-8.144578313253012,0.5783132530120483,5.144578313253012,0.8093194359288779,-8.157572041692212,5.672593500919681,3.0,1.3517593517593518,739.7766464115618,-0.3749198764640747,0.10057688945865627,1.1654332498127038E-4,1577.2893772893772,-1.0,85.14117443270396,1.3480853142764873,
2023-08-17 10:44:49.567000,-8.144578313253012,0.5662650602409639,5.168674698795181,0.7578172900061312,-8.201716738197424,5.721643163703249,3.0,1.3517593517593518,739.7766464115618,0.05605733931588995,0.19416117941844846,-0.12283666453003898,1563.3699633699632,697.052001953125,86.07679173416226,1.3481082753994493,
2023-08-17 10:44:49.575000,-8.156626506024097,0.5783132530120483,5.144578313253012,0.8338442673206621,-8.19435928877989,5.635806253832005,3.0,1.3517593517593518,739.7766464115618,-0.09405046325971728,0.13285939047841044,-0.3369267525202495,1550.9157509157508,-1.0,86.07679173416226,1.3481317384590967,
2023-08-17 10:44:49.582000,-8.144578313253012,0.5903614457831325,5.144578313253012,0.8019619865113427,-8.275291232372776,5.6848559166155725,3.0,1.3513153513153515,740.0197141448989,0.0027970397995452823,0.16187867839869427,-0.12155468795524761,1538.4615384615383,-1.0,86.07679173416226,1.3481557012771894,
2023-08-17 10:44:49.590000,-8.144578313253012,0.5903614457831325,5.19277108433735,0.7872470876762722,-8.213979153893316,5.763335377069282,3.0,1.3517593517593518,739.7766464115618,-0.1899656197191314,0.4358720354291702,-0.08857292698560668,1526.7399267399267,-1.0,86.07679173416226,1.3481801609970097,
2023-08-17 10:44:49.598000,-8.168674698795181,0.6144578313253012,5.19277108433735,0.86817903126916,-8.221336603310851,5.716738197424893,3.0,1.3517593517593518,739.7766464115618,0.2263271371132218,0.7696521181749315,-0.10372355923314493,1514.2857142857142,-1.0,86.07679173416226,1.3482051143480338,
