Shimmer_F5D4_Timestamp_FormattedUnix_CAL,Shimmer_F5D4_Accel_LN_X_CAL,Shimmer_F5D4_Accel_LN_Y_CAL,Shimmer_F5D4_Accel_LN_Z_CAL,Shimmer_F5D4_Accel_WR_X_CAL,Shimmer_F5D4_Accel_WR_Y_CAL,Shimmer_F5D4_Accel_WR_Z_CAL,Shimmer_F5D4_GSR_Range_CAL,Shimmer_F5D4_GSR_Skin_Conductance_CAL,Shimmer_F5D4_GSR_Skin_Resistance_CAL,Shimmer_F5D4_Gyro_X_CAL,Shimmer_F5D4_Gyro_Y_CAL,Shimmer_F5D4_Gyro_Z_CAL,Shimmer_F5D4_PPG_A13_CAL,Shimmer_F5D4_PPG_IBI_CAL,Shimmer_F5D4_PPGtoHR_CAL,Shimmer_F5D4_GSR_Skin_Conductance_LPF_CAL,
yyyy/mm/dd hh:mm:ss.000,m/(s^2),m/(s^2),m/(s^2),m/(s^2),m/(s^2),m/(s^2),no_units,uS,kOhms,deg/s,deg/s,deg/s,mV,ms,BPM,uS,
2023-08-12 14:30:35.377000,-8.734939759036145,-0.8072289156626506,-4.325301204819278,-0.7602697731453096,-8.62844880441447,-4.039239730226854,3.0,0.7195027195027196,1389.8488120950324,0.03531262746926114,0.35464133791737096,-0.19486043936833522,1403.6630036630036,-1.0,62.16657180800607,0.719795212383221,
2023-08-12 14:30:35.385000,-8.771084337349398,-0.819277108433735,-4.349397590361446,-0.762722256284488,-8.645616186388718,-3.955855303494788,3.0,0.7195027195027196,1389.8488120950324,-0.011071615873200292,0.2611735912825596,-0.00769185944874996,1403.6630036630036,-1.0,62.16657180800607,0.719790968898912,
2023-08-12 14:30:35.392000,-8.734939759036145,-0.8072289156626506,-4.337349397590362,-0.7185775597792765,-8.606376456161863,-3.958307786633967,3.0,0.7195027195027196,1389.8488120950324,0.001631606549735182,-0.01829730202202604,0.04067362041839047,1402.197802197802,-1.0,62.16657180800607,0.7197866821411915,
2023-08-12 14:30:35.400000,-8.759036144578314,-0.819277108433735,-4.36144578313253,-0.7259350091968118,-8.594114040465971,-4.004904966278357,3.0,0.7195027195027196,1389.8488120950324,0.09055416351028524,0.04207214031816354,0.13355865042829676,1402.9304029304028,-1.0,62.16657180800607,0.7197823527764692,
2023-08-12 14:30:35.408000,-8.759036144578314,-0.8072289156626506,-4.349397590361446,-0.6940527283874923,-8.589209074187615,-4.026977314530963,3.0,0.7195027195027196,1389.8488120950324,-0.10885146553231127,0.20744711846628985,-0.6610337392925819,1405.8608058608058,-1.0,62.16657180800607,0.7197779817389081,
2023-08-12 14:30:35.415000,-8.759036144578314,-0.819277108433735,-4.337349397590362,-0.7136725935009196,-8.554874310239116,-4.022072348252606,3.0,0.7195027195027196,1389.8488120950324,0.1964920459180704,0.022959035021269912,-0.25977507138278655,1409.5238095238094,-1.0,62.16657180800607,0.7197735699438165,
2023-08-12 14:30:35.423000,-8.759036144578314,-0.8072289156626506,-4.373493975903615,-0.7651747394236664,-8.574494175352545,-4.026977314530963,3.0,0.7190587190587191,1390.707008335906,0.11864110483072063,-0.09743021968416674,-0.04463609346774672,1412.4542124542124,-1.0,62.16657180800607,0.7197691183089525,
2023-08-12 14:30:35.431000,-8.74698795180723,-0.819277108433735,-4.349397590361446,-0.7406499080318822,-8.61128142244022,-4.034334763948498,3.0,0.7186147186147186,1391.566265060241,0.16234485169861934,0.13181050055358118,-0.15080706252549397,1413.1868131868132,-1.0,62.16657180800607,0.7197646278923935,
2023-08-12 14:30:35.438000,-8.759036144578314,-0.819277108433735,-4.349397590361446,-0.7725321888412017,-8.616186388718576,-4.034334763948498,3.0,0.7190587190587191,1390.707008335906,-0.05407610279121226,0.16187867839869427,0.29217411572752156,1414.6520146520145,-1.0,62.16657180800607,0.7197600998385263,
2023-08-12 14:30:35.446000,-8.759036144578314,-0.8433734939759037,-4.337349397590362,-0.7357449417535254,-8.58185162477008,-4.017167381974248,3.0,0.7190587190587191,1390.707008335906,-0.008857292698560929,0.022725948371306502,-0.04428646349280334,1413.9194139194137,-1.0,62.16657180800607,0.7197555353338868,
2023-08-12 14:30:35.454000,-8.759036144578314,-0.8313253012048193,-4.337349397590362,-0.7381974248927038,-8.687308399754752,-4.049049662783568,3.0,0.7195027195027196,1389.8488120950324,0.2051162519666679,-0.2838995396538661,-0.12295320785502026,1413.1868131868132,-1.0,62.16657180800607,0.7197509356358696,
2023-08-12 14:30:35.461000,-8.759036144578314,-0.8072289156626506,-4.349397590361446,-0.7480073574494175,-8.670141017780502,-4.06131207847946,3.0,0.7195027195027196,1389.8488120950324,0.06712895518909198,0.09999417283375035,0.1392692733523686,1410.989010989011,-1.0,62.16657180800607,0.7197463022288783,
2023-08-12 14:30:35.469000,-8.759036144578314,-0.8072289156626506,-4.349397590361446,-0.7651747394236664,-8.633353770692827,-4.0,3.0,0.7195027195027196,1389.8488120950324,0.019229648621874467,-0.17306683759687713,-0.2431093759104948,1409.5238095238094,-1.0,62.16657180800607,0.7197416368418443,
2023-08-12 14:30:35.477000,-8.74698795180723,-0.8433734939759037,-4.373493975903615,-0.7210300429184548,-8.67259350091968,-4.017167381974248,3.0,0.7195027195027196,1389.8488120950324,-0.14870928267583544,0.24264320261057015,0.2795874366295669,1406.5934065934066,-1.0,62.16657180800607,0.7197369411674095,
2023-08-12 14:30:35.484000,-8.74698795180723,-0.8313253012048193,-4.349397590361446,-0.7480073574494175,-8.58185162477008,-3.997547516860821,3.0,0.7195027195027196,1389.8488120950324,-0.10384010255812663,-0.24520715576015376,0.14101742322708463,1405.128205128205,-1.0,62.16657180800607,0.7197322170173025,
2023-08-12 14:30:35.492000,-8.759036144578314,-0.8072289156626506,-4.337349397590362,-0.7283874923359902,-8.589209074187615,-4.063764561618639,3.0,0.7195027195027196,1389.8488120950324,-0.21105996154070272,-0.1048889924829559,0.1409008799021038,1403.6630036630036,-1.0,62.16657180800607,0.7197274663070377,
2023-08-12 14:30:35.500000,-8.734939759036145,-0.819277108433735,-4.349397590361446,-0.6744328632740649,-8.633353770692827,-4.031882280809319,3.0,0.7195027195027196,1389.8488120950324,-0.22469553056348662,0.048831653167064205,0.032165957694772915,1403.6630036630036,-1.0,62.16657180800607,0.7197226909226475,
2023-08-12 14:30:35.507000,-8.734939759036145,-0.7951807228915663,-4.349397590361446,-0.745554874310239,-8.603923973022685,-3.985285101164929,3.0,0.7195027195027196,1389.8488120950324,-0.1931122894936192,-0.05710622924072095,0.09230231338500082,1403.6630036630036,-1.0,62.16657180800607,0.7197178928639638,
2023-08-12 14:30:35.515000,-8.734939759036145,-0.819277108433735,-4.337349397590362,-0.7185775597792765,-8.591661557326793,-4.007357449417535,3.0,0.7195027195027196,1389.8488120950324,-0.022725948371306502,0.15733348872443298,0.2911252258026923,1403.6630036630036,-1.0,62.16657180800607,0.7197130742384688,
2023-08-12 14:30:35.523000,-8.734939759036145,-0.8433734939759037,-4.337349397590362,-0.6940527283874923,-8.584304107909258,-4.026977314530963,3.0,0.7195027195027196,1389.8488120950324,-0.14323174640172398,-0.13379173707825887,-0.01631606549734878,1401.4652014652013,-1.0,62.16657180800607,0.7197082372550401,
2023-08-12 14:30:35.530000,-8.734939759036145,-0.7951807228915663,-4.337349397590362,-0.7578172900061312,-8.52053954629062,-4.022072348252606,3.0,0.7190587190587191,1390.707008335906,-0.4168754734572574,0.4012586679097958,-0.06270030883981108,1397.8021978021977,-1.0,62.16657180800607,0.7197033842176157,
2023-08-12 14:30:35.538000,-8.734939759036145,-0.8072289156626506,-4.36144578313253,-0.7578172900061312,-8.62844880441447,-4.019619865113427,3.0,0.7195027195027196,1389.8488120950324,-0.13950236000233027,0.0027970397995452823,-0.0611852456150576,1393.4065934065934,-1.0,62.16657180800607,0.719698517508264,
2023-08-12 14:30:35.546000,-8.759036144578314,-0.8072289156626506,-4.349397590361446,-0.6891477621091354,-8.616186388718576,-4.019619865113427,3.0,0.7195027195027196,1389.8488120950324,-0.1695705378474451,0.11118233203193321,0.26094050463259705,1389.0109890109889,-1.0,62.16657180800607,0.7196936395490533,
2023-08-12 14:30:35.553000,-8.783132530120483,-0.7951807228915663,-4.325301204819278,-0.7259350091968118,-8.655426118945432,-4.0,3.0,0.7195027195027196,1389.8488120950324,-0.4745644193228825,0.08297884738651524,-0.21374045801526717,1387.5457875457876,-1.0,62.16657180800607,0.7196887529657093,
2023-08-12 14:30:35.561000,-8.74698795180723,-0.819277108433735,-4.325301204819278,-0.7185775597792765,-8.608828939301041,-3.9926425505824645,3.0,0.7195027195027196,1389.8488120950324,-0.05850474914049272,-0.11631023833110044,-0.27212866383077905,1387.5457875457876,-1.0,62.16657180800607,0.7196838605709943,
2023-08-12 14:30:35.569000,-8.759036144578314,-0.7951807228915663,-4.373493975903615,-0.6891477621091354,-8.655426118945432,-4.012262415695892,3.0,0.7195027195027196,1389.8488120950324,0.11118233203193321,-0.4955422178194747,0.06666278188916733,1389.7435897435896,-1.0,62.16657180800607,0.7196789650712326,
2023-08-12 14:30:35.576000,-8.74698795180723,-0.819277108433735,-4.36144578313253,-0.7112201103617413,-8.594114040465971,-4.019619865113427,3.0,0.7195027195027196,1389.8488120950324,-0.012237049123012128,-0.36909271021502243,0.06701241186411028,1392.6739926739926,-1.0,62.16657180800607,0.7196740692198812,
2023-08-12 14:30:35.584000,-8.72289156626506,-0.8313253012048193,-4.373493975903615,-0.6891477621091354,-8.589209074187615,-4.019619865113427,3.0,0.7190587190587191,1390.707008335906,-0.05617388264087252,-0.45731600722568577,0.1603636151739408,1391.9413919413919,903.86962890625,66.38125464244716,0.7196691759394827,
2023-08-12 14:30:35.592000,-8.771084337349398,-0.819277108433735,-4.373493975903615,-0.7210300429184548,-8.655426118945432,-4.026977314530963,3.0,0.7190587190587191,1390.707008335906,0.17201794767204787,-0.009556552648447682,-0.100460346133675,1391.2087912087911,-1.0,66.38125464244716,0.7196642881562876,
2023-08-12 14:30:35.599000,-8.72289156626506,-0.7951807228915663,-4.373493975903615,-0.762722256284488,-8.62844880441447,-4.058859595340282,3.0,0.7190587190587191,1390.707008335906,0.23250393333721828,-0.11549443505623284,0.03869238389371234,1391.9413919413919,-1.0,66.38125464244716,0.7196594087524025,
2023-08-12 14:30:35.607000,-8.74698795180723,-0.8313253012048193,-4.337349397590362,-0.6793378295524218,-8.633353770692827,-3.960760269773145,3.0,0.7195027195027196,1389.8488120950324,-0.34881417166831696,0.20569896859157383,-0.1601305285239787,1391.2087912087911,-1.0,66.38125464244716,0.7196545404104776,
2023-08-12 14:30:35.615000,-8.759036144578314,-0.8313253012048193,-4.325301204819278,-0.7823421213979154,-8.67259350091968,-4.034334763948498,3.0,0.7195027195027196,1389.8488120950324,-0.055824252665928276,0.12936309072897842,0.039974360468504146,1389.7435897435896,-1.0,66.38125464244716,0.7196496857769703,
2023-08-12 14:30:35.622000,-8.74698795180723,-0.819277108433735,-4.313253012048193,-0.6940527283874923,-8.633353770692827,-3.9460453709380747,3.0,0.7190587190587191,1390.707008335906,-0.1934619194685617,-0.1582658353242814,0.00850766272361755,1389.0109890109889,-1.0,66.38125464244716,0.7196448476252368,
2023-08-12 14:30:35.630000,-8.74698795180723,-0.8313253012048193,-4.349397590361446,-0.7749846719803801,-8.579399141630901,-4.022072348252606,3.0,0.7195027195027196,1389.8488120950324,-0.20779674844123236,0.10418973253306914,0.22108268748907417,1390.4761904761904,-1.0,66.38125464244716,0.71964002856097,
2023-08-12 14:30:35.638000,-8.74698795180723,-0.8433734939759037,-4.325301204819278,-0.7431023911710607,-8.62844880441447,-3.990190067443286,3.0,0.7195027195027196,1389.8488120950324,-0.20768020511625152,-0.36850999359011655,0.15745003204941424,1392.6739926739926,-1.0,66.38125464244716,0.7196352311431872,
2023-08-12 14:30:35.645000,-8.759036144578314,-0.819277108433735,-4.36144578313253,-0.7381974248927038,-8.603923973022685,-4.01471489883507,3.0,0.7195027195027196,1389.8488120950324,-0.20802983509119577,-0.36466406386574196,0.15640114212458497,1394.8717948717947,-1.0,66.38125464244716,0.7196304580368661,
2023-08-12 14:30:35.653000,-8.759036144578314,-0.8433734939759037,-4.36144578313253,-0.7529123237277743,-8.694665849172287,-4.019619865113427,3.0,0.7195027195027196,1389.8488120950324,-0.07039216828856061,-0.4544024241011596,0.016665695472291724,1400.0,-1.0,66.38125464244716,0.7196257118678603,
2023-08-12 14:30:35.661000,-8.759036144578314,-0.8313253012048193,-4.36144578313253,-0.7529123237277743,-8.589209074187615,-4.036787247087676,3.0,0.7195027195027196,1389.8488120950324,0.05174523629159206,-0.31396771749898095,0.41279645708292073,1405.128205128205,-1.0,66.38125464244716,0.71962099521676,
2023-08-12 14:30:35.668000,-8.74698795180723,-0.8072289156626506,-4.373493975903615,-0.6916002452483139,-8.621091354996935,-4.046597179644389,3.0,0.7190587190587191,1390.707008335906,0.3424042887943588,-0.07062525493852402,0.3661791270904959,1412.4542124542124,-1.0,66.38125464244716,0.7196163104742311,
2023-08-12 14:30:35.676000,-8.759036144578314,-0.819277108433735,-4.36144578313253,-0.6719803801348866,-8.61128142244022,-4.026977314530963,3.0,0.7195027195027196,1389.8488120950324,0.12586679097954637,-0.1931122894936192,-0.15465299224986895,1415.3846153846152,-1.0,66.38125464244716,0.719611659845189,
2023-08-12 14:30:35.684000,-8.734939759036145,-0.8072289156626506,-4.349397590361446,-0.7553648068669527,-8.64316370324954,-3.9926425505824645,3.0,0.7190587190587191,1390.707008335906,0.12458481440475544,-0.08507662723617551,-0.1819241302954372,1415.3846153846152,-1.0,66.38125464244716,0.7196070455984563,
2023-08-12 14:30:35.691000,-8.734939759036145,-0.8072289156626506,-4.349397590361446,-0.745554874310239,-8.62844880441447,-4.049049662783568,3.0,0.7190587190587191,1390.707008335906,0.047083503292348186,0.3735213565643029,-0.19649204591806996,1411.7216117216117,-1.0,66.38125464244716,0.7196024699222472,
2023-08-12 14:30:35.699000,-8.759036144578314,-0.7951807228915663,-4.325301204819278,-0.6842427958307786,-8.65787860208461,-3.9681177191906802,3.0,0.7190587190587191,1390.707008335906,0.12237049123011434,0.24695530563486978,-0.11782530155585347,1408.058608058608,-1.0,66.38125464244716,0.7195979347588181,
2023-08-12 14:30:35.707000,-8.734939759036145,-0.8072289156626506,-4.349397590361446,-0.7725321888412017,-8.675045984058858,-4.0,3.0,0.7190587190587191,1390.707008335906,0.3507954081929964,-0.22865800361284375,0.03647806071907211,1403.6630036630036,-1.0,66.38125464244716,0.719593441937184,
2023-08-12 14:30:35.714000,-8.759036144578314,-0.8072289156626506,-4.349397590361446,-0.6940527283874923,-8.635806253832005,-4.017167381974248,3.0,0.7195027195027196,1389.8488120950324,0.36629567041547717,-0.24054542276091162,0.09754676300914844,1398.5347985347985,-1.0,66.38125464244716,0.7195889931672727,
2023-08-12 14:30:35.722000,-8.74698795180723,-0.7951807228915663,-4.349397590361446,-0.6916002452483139,-8.640711220110362,-3.9681177191906802,3.0,0.7190587190587191,1390.707008335906,0.21199230814055114,0.0075753161237682555,-0.012470135772973802,1396.3369963369962,-1.0,66.38125464244716,0.7195845901836012,
2023-08-12 14:30:35.729000,-8.771084337349398,-0.8072289156626506,-4.337349397590362,-0.7259350091968118,-8.62844880441447,-3.9926425505824645,3.0,0.7190587190587191,1390.707008335906,0.025056814870928437,-0.02167705844647724,-0.1954431559932407,1397.8021978021977,-1.0,66.38125464244716,0.7195802346125032,
2023-08-12 14:30:35.737000,-8.783132530120483,-0.819277108433735,-4.349397590361446,-0.762722256284488,-8.613733905579398,-4.009809932556713,3.0,0.7186147186147186,1391.566265060241,-0.11328011188159173,-0.08379465066138284,-0.17994289377075906,1400.7326007326005,-1.0,66.38125464244716,0.7195759276693577,
2023-08-12 14:30:35.745000,-8.74698795180723,-0.819277108433735,-4.349397590361446,-0.7774371551195585,-8.65787860208461,-4.004904966278357,3.0,0.7190587190587191,1390.707008335906,-0.41943942660684097,-0.3108210477244914,0.18646931996969893,1405.8608058608058,-1.0,66.38125464244716,0.7195716704413362,
2023-08-12 14:30:35.752000,-8.771084337349398,-0.819277108433735,-4.313253012048193,-0.7872470876762722,-8.608828939301041,-4.080931943592888,3.0,0.7190587190587191,1390.707008335906,-0.0181807586970452,-0.20068760561738744,0.0924188567099821,1413.9194139194137,-1.0,66.38125464244716,0.7195674639790418,
2023-08-12 14:30:35.760000,-8.771084337349398,-0.8313253012048193,-4.337349397590362,-0.7185775597792765,-8.667688534641323,-4.002452483139178,3.0,0.7190587190587191,1390.707008335906,-0.018880018646931958,-0.10815220558242453,0.3659460404405338,1420.5128205128203,-1.0,66.38125464244716,0.7195633091748187,
2023-08-12 14:30:35.768000,-8.72289156626506,-0.855421686746988,-4.349397590361446,-0.7234825260576333,-8.59656652360515,-3.987737584304108,3.0,0.7195027195027196,1389.8488120950324,-0.23297010663714163,-0.38191247596293876,0.3027795583007985,1425.6410256410256,-1.0,66.38125464244716,0.7195592067695645,
2023-08-12 14:30:35.775000,-8.734939759036145,-0.8313253012048193,-4.349397590361446,-0.7357449417535254,-8.618638871857755,-4.017167381974248,3.0,0.7195027195027196,1389.8488120950324,-0.11024998543208478,0.36909271021502243,0.37760037293864,1428.5714285714284,-1.0,66.38125464244716,0.7195551574986883,
2023-08-12 14:30:35.783000,-8.710843373493976,-0.8313253012048193,-4.337349397590362,-0.7259350091968118,-8.579399141630901,-4.053954629061925,3.0,0.7190587190587191,1390.707008335906,-0.38575840568731506,0.10593788240778515,0.08624206048598561,1426.3736263736262,-1.0,66.38125464244716,0.7195511621110662,
2023-08-12 14:30:35.791000,-8.72289156626506,-0.8313253012048193,-4.337349397590362,-0.8117719190680563,-8.613733905579398,-4.026977314530963,3.0,0.7190587190587191,1390.707008335906,-0.4475263679272764,0.15127323582541732,0.3748033331390943,1425.6410256410256,-1.0,66.38125464244716,0.7195472210802082,
2023-08-12 14:30:35.798000,-8.759036144578314,-0.819277108433735,-4.313253012048193,-0.7381974248927038,-8.648068669527897,-4.039239730226854,3.0,0.7190587190587191,1390.707008335906,-0.2924072023774845,0.22725948371307023,0.14614532952625142,1424.9084249084249,-1.0,66.38125464244716,0.719543334582235,
2023-08-12 14:30:35.806000,-8.771084337349398,-0.819277108433735,-4.325301204819278,-0.7357449417535254,-8.677498467198038,-4.004904966278357,3.0,0.7190587190587191,1390.707008335906,-0.21455626129013475,0.12003962473049413,0.09871219625895941,1427.8388278388277,-1.0,66.38125464244716,0.719539502494696,
2023-08-12 14:30:35.814000,-8.771084337349398,-0.8313253012048193,-4.325301204819278,-0.7700797057020232,-8.591661557326793,-4.012262415695892,3.0,0.7190587190587191,1390.707008335906,0.18565351669483177,-0.384010255812599,0.006876056173882803,1428.5714285714284,-1.0,66.38125464244716,0.71953572455499,
2023-08-12 14:30:35.821000,-8.74698795180723,-0.819277108433735,-4.313253012048193,-0.6965052115266707,-8.599019006744328,-4.034334763948498,3.0,0.7195027195027196,1389.8488120950324,-0.058388205815511886,-0.04451955014276631,-0.05372647281626932,1430.7692307692307,-1.0,66.38125464244716,0.7195320004877556,
2023-08-12 14:30:35.829000,-8.771084337349398,-0.8072289156626506,-4.349397590361446,-0.7234825260576333,-8.638258736971183,-3.977927651747394,3.0,0.7190587190587191,1390.707008335906,-0.22784220033797614,-0.07412155468795606,0.021677058446477673,1430.03663003663,-1.0,66.38125464244716,0.7195283300053371,
2023-08-12 14:30:35.837000,-8.759036144578314,-0.819277108433735,-4.325301204819278,-0.7504598405885959,-8.569589209074188,-4.017167381974248,3.0,0.7190587190587191,1390.707008335906,-0.2554629683584865,-0.027737311345492885,-0.294854612202086,1427.8388278388277,-1.0,66.38125464244716,0.7195247126813336,
2023-08-12 14:30:35.844000,-8.74698795180723,-0.8313253012048193,-4.313253012048193,-0.7553648068669527,-8.584304107909258,-3.955855303494788,3.0,0.7190587190587191,1390.707008335906,0.12656605092943313,-0.011770875823087047,-0.19882291241769146,1424.1758241758241,-1.0,66.38125464244716,0.7195211477931269,
2023-08-12 14:30:35.852000,-8.74698795180723,-0.8072289156626506,-4.337349397590362,-0.7210300429184548,-8.633353770692827,-3.995095033721643,3.0,0.7190587190587191,1390.707008335906,-0.05605733931588995,0.0030301264495069553,-0.014451372297651493,1420.5128205128203,-1.0,66.38125464244716,0.7195176344627908,
2023-08-12 14:30:35.860000,-8.74698795180723,-0.8072289156626506,-4.325301204819278,-0.7063151440833844,-8.650521152667075,-3.987737584304108,3.0,0.7190587190587191,1390.707008335906,0.2802866965794532,-0.011188159198181129,-0.07540353126274699,1417.5824175824175,-1.0,66.38125464244716,0.7195141716597394,
2023-08-12 14:30:35.867000,-8.74698795180723,-0.8072289156626506,-4.337349397590362,-0.7357449417535254,-8.655426118945432,-3.997547516860821,3.0,0.7190587190587191,1390.707008335906,0.3377425557951167,-0.27166249053085395,-0.19695821921799417,1414.6520146520145,-1.0,66.38125464244716,0.7195107582038658,
2023-08-12 14:30:35.875000,-8.771084337349398,-0.8072289156626506,-4.337349397590362,-0.7480073574494175,-8.606376456161863,-4.022072348252606,3.0,0.7190587190587191,1390.707008335906,0.10337392925820155,-0.13379173707825887,0.27690694015500245,1410.989010989011,-1.0,66.38125464244716,0.7195073927691632,
2023-08-12 14:30:35.883000,-8.759036144578314,-0.819277108433735,-4.36144578313253,-0.733292458614347,-8.616186388718576,-4.007357449417535,3.0,0.7190587190587191,1390.707008335906,-0.0654973486393568,0.49227900472000435,-0.09230231338500082,1408.7912087912086,-1.0,66.38125464244716,0.7195040738878182,
2023-08-12 14:30:35.890000,-8.759036144578314,-0.7710843373493976,-4.337349397590362,-0.6646229307173512,-8.650521152667075,-4.009809932556713,3.0,0.7186147186147186,1391.566265060241,-0.01957927859681871,0.4098828739583933,0.04661732999242484,1403.6630036630036,-1.0,66.38125464244716,0.7195007999547696,
2023-08-12 14:30:35.898000,-8.734939759036145,-0.7951807228915663,-4.289156626506024,-0.7381974248927038,-8.655426118945432,-4.0,3.0,0.7190587190587191,1390.707008335906,0.14637841617621353,0.4372705553289437,0.23227084668725617,1400.0,-1.0,66.38125464244716,0.7194975692221676,
2023-08-12 14:30:35.906000,-8.759036144578314,-0.8072289156626506,-4.325301204819278,-0.7283874923359902,-8.586756591048436,-3.9803801348865724,3.0,0.7190587190587191,1390.707008335906,-0.11619369500611786,-0.09964454285880783,-0.21292465474039957,1394.8717948717947,-1.0,66.38125464244716,0.7194943797731106,
2023-08-12 14:30:35.913000,-8.759036144578314,-0.8072289156626506,-4.337349397590362,-0.7259350091968118,-8.704475781729,-4.0,3.0,0.7190587190587191,1390.707008335906,0.17551424742147817,0.2225977507138281,0.16992016782238803,1391.9413919413919,-1.0,66.38125464244716,0.7194912295588305,
2023-08-12 14:30:35.921000,-8.771084337349398,-0.8072289156626506,-4.325301204819278,-0.6866952789699571,-8.662783568362967,-4.009809932556713,3.0,0.7195027195027196,1389.8488120950324,0.17341646757181964,0.22236466406386643,0.16887127789755835,1391.9413919413919,-1.0,66.38125464244716,0.7194881164151284,
2023-08-12 14:30:35.929000,-8.74698795180723,-0.8072289156626506,-4.325301204819278,-0.7161250766400981,-8.682403433476395,-3.9730226854690374,3.0,0.7190587190587191,1390.707008335906,0.14020161995221703,0.17574733407144158,0.289260532602995,1391.2087912087911,-1.0,66.38125464244716,0.7194850382179451,
2023-08-12 14:30:35.936000,-8.734939759036145,-0.8072289156626506,-4.349397590361446,-0.7185775597792765,-8.601471489883506,-3.997547516860821,3.0,0.7190587190587191,1390.707008335906,0.07691859448750134,-0.5419264611619362,-0.11141541868189489,1390.4761904761904,-1.0,66.38125464244716,0.7194819927626043,
2023-08-12 14:30:35.944000,-8.734939759036145,-0.7951807228915663,-4.337349397590362,-0.733292458614347,-8.633353770692827,-3.955855303494788,3.0,0.7190587190587191,1390.707008335906,0.3676941903152489,-0.3399568789697578,0.12038925470543665,1390.4761904761904,-1.0,66.38125464244716,0.7194789776118936,
2023-08-12 14:30:35.952000,-8.734939759036145,-0.8072289156626506,-4.325301204819278,-0.8068669527896996,-8.59656652360515,-4.063764561618639,3.0,0.7195027195027196,1389.8488120950324,0.07353883806305013,-0.16968708117242592,-0.0654973486393568,1393.4065934065934,-1.0,66.38125464244716,0.7194759902423599,
2023-08-12 14:30:35.959000,-8.72289156626506,-0.819277108433735,-4.36144578313253,-0.7529123237277743,-8.599019006744328,-4.017167381974248,3.0,0.7190587190587191,1390.707008335906,-0.23343627993706673,0.09055416351028524,-0.09521589650952737,1395.6043956043954,-1.0,66.38125464244716,0.7194730282014626,
2023-08-12 14:30:35.967000,-8.734939759036145,-0.8313253012048193,-4.325301204819278,-0.745554874310239,-8.623543838136113,-4.009809932556713,3.0,0.7190587190587191,1390.707008335906,-0.01666569547229259,0.3786492628634701,-0.4278305460054777,1398.5347985347985,-1.0,66.38125464244716,0.7194700889883,
2023-08-12 14:30:35.975000,-8.72289156626506,-0.8313253012048193,-4.337349397590362,-0.7504598405885959,-8.616186388718576,-4.0,3.0,0.7190587190587191,1390.707008335906,0.24264320261057015,0.23530097313676357,0.06433191538954626,1401.4652014652013,-1.0,66.38125464244716,0.7194671699030853,
2023-08-12 14:30:35.982000,-8.759036144578314,-0.8433734939759037,-4.349397590361446,-0.7381974248927038,-8.62844880441447,-4.031882280809319,3.0,0.7190587190587191,1390.707008335906,-0.20325155876697107,0.12621642095449062,0.155235708874774,1400.0,-1.0,66.38125464244716,0.7194642681947238,
2023-08-12 14:30:35.990000,-8.759036144578314,-0.819277108433735,-4.349397590361446,-0.7823421213979154,-8.640711220110362,-4.044144696505211,3.0,0.7190587190587191,1390.707008335906,-0.09405046325971728,-0.14789347940096786,0.09405046325971683,1399.2673992673992,-1.0,66.38125464244716,0.7194613810698464,
2023-08-12 14:30:35.998000,-8.759036144578314,-0.819277108433735,-4.337349397590362,-0.7529123237277743,-8.677498467198038,-3.9632127529123236,3.0,0.7190587190587191,1390.707008335906,0.08950527358545597,-0.11456208845638441,0.01550026222248119,1397.8021978021977,-1.0,66.38125464244716,0.7194585058407617,
2023-08-12 14:30:36.005000,-8.759036144578314,-0.8433734939759037,-4.325301204819278,-0.7676272225628449,-8.652973635806253,-4.039239730226854,3.0,0.7190587190587191,1390.707008335906,0.08857292698560755,-0.3845929724375032,-0.030767437795000272,1395.6043956043954,-1.0,66.38125464244716,0.7194556397756635,
2023-08-12 14:30:36.013000,-8.74698795180723,-0.8313253012048193,-4.385542168674699,-0.7921520539546291,-8.655426118945432,-4.029429797670141,3.0,0.7190587190587191,1390.707008335906,0.18005943709573946,0.016082978847386676,-0.01619952217236751,1393.4065934065934,-1.0,66.38125464244716,0.7194527799804673,
2023-08-12 14:30:36.021000,-8.74698795180723,-0.8313253012048193,-4.36144578313253,-0.7823421213979154,-8.621091354996935,-4.017167381974248,3.0,0.7190587190587191,1390.707008335906,-0.2790047200046623,-0.23063924013752143,-0.07843365771225438,1391.9413919413919,-1.0,66.38125464244716,0.7194499235574205,
2023-08-12 14:30:36.028000,-8.72289156626506,-0.8313253012048193,-4.36144578313253,-0.7283874923359902,-8.591661557326793,-4.019619865113427,3.0,0.7190587190587191,1390.707008335906,-0.13950236000233027,0.12073888468037916,-0.10838529223238749,1393.4065934065934,-1.0,66.38125464244716,0.7194470676144693,
2023-08-12 14:30:36.036000,-8.771084337349398,-0.8313253012048193,-4.36144578313253,-0.7700797057020232,-8.635806253832005,-4.024524831391784,3.0,0.7190587190587191,1390.707008335906,0.1363556902278425,-0.09649787308431831,-0.2899597925528813,1391.9413919413919,-1.0,66.38125464244716,0.7194442092746269,
2023-08-12 14:30:36.044000,-8.74698795180723,-0.8313253012048193,-4.349397590361446,-0.7381974248927038,-8.576946658491723,-4.051502145922747,3.0,0.7186147186147186,1391.566265060241,-0.07470427131286024,-0.0033797564244512,-0.10465590583299335,1389.0109890109889,-1.0,66.38125464244716,0.7194413456853241,
2023-08-12 14:30:36.051000,-8.74698795180723,-0.8072289156626506,-4.337349397590362,-0.7921520539546291,-8.64316370324954,-4.029429797670141,3.0,0.7190587190587191,1390.707008335906,-0.25651185828331746,-0.24637258900996387,-0.04451955014276544,1389.7435897435896,-1.0,66.38125464244716,0.7194384740171613,
2023-08-12 14:30:36.059000,-8.74698795180723,-0.8313253012048193,-4.36144578313253,-0.7381974248927038,-8.692213366033108,-3.977927651747394,3.0,0.7190587190587191,1390.707008335906,-0.16246139502360019,-0.3969465648854962,0.002097779849658962,1391.9413919413919,-1.0,66.38125464244716,0.7194355915801547,
2023-08-12 14:30:36.067000,-8.72289156626506,-0.8433734939759037,-4.325301204819278,-0.7553648068669527,-8.662783568362967,-3.955855303494788,3.0,0.7190587190587191,1390.707008335906,-0.542509177786842,-0.025639531495834356,0.1392692733523686,1394.8717948717947,-1.0,66.38125464244716,0.719432695843782,
2023-08-12 14:30:36.074000,-8.759036144578314,-0.819277108433735,-4.337349397590362,-0.7357449417535254,-8.618638871857755,-3.995095033721643,3.0,0.7190587190587191,1390.707008335906,-0.35545714119223853,-0.16199522172367511,0.09370083328477347,1397.069597069597,-1.0,66.38125464244716,0.7194297841693448,
2023-08-12 14:30:36.082000,-8.759036144578314,-0.8313253012048193,-4.349397590361446,-0.6597179644389944,-8.608828939301041,-4.026977314530963,3.0,0.7190587190587191,1390.707008335906,-0.29135831245265353,-0.1165433249810621,0.12353592447992531,1400.0,-1.0,66.38125464244716,0.7194268538398518,
2023-08-12 14:30:36.090000,-8.759036144578314,-0.8313253012048193,-4.313253012048193,-0.7651747394236664,-8.62844880441447,-4.058859595340282,3.0,0.7190587190587191,1390.707008335906,0.032632130994696695,-0.1468445894761386,0.18413845347007743,1405.128205128205,-1.0,66.38125464244716,0.7194239022171209,
2023-08-12 14:30:36.097000,-8.74698795180723,-0.8313253012048193,-4.313253012048193,-0.745554874310239,-8.608828939301041,-4.004904966278357,3.0,0.7190587190587191,1390.707008335906,-0.24124468271079838,-0.07004253831361809,0.07633587786259542,1408.058608058608,-1.0,66.38125464244716,0.7194209268881215,
2023-08-12 14:30:36.105000,-8.759036144578314,-0.8072289156626506,-4.289156626506024,-0.7259350091968118,-8.633353770692827,-3.985285101164929,3.0,0.7190587190587191,1390.707008335906,0.23495134316182106,-0.3596527008915556,-0.07598624788765204,1409.5238095238094,-1.0,66.38125464244716,0.7194179255132027,
2023-08-12 14:30:36.112000,-8.771084337349398,-0.8433734939759037,-4.325301204819278,-0.7259350091968118,-8.660331085223788,-4.002452483139178,3.0,0.7190587190587191,1390.707008335906,-0.024940271545947603,-0.23401899656197264,-0.1517394091253424,1407.3260073260071,-1.0,66.38125464244716,0.7194148957055811,
2023-08-12 14:30:36.120000,-8.771084337349398,-0.8072289156626506,-4.36144578313253,-0.7700797057020232,-8.662783568362967,-4.051502145922747,3.0,0.7190587190587191,1390.707008335906,0.0816968708117243,-0.004778276324222974,0.018064215372064367,1403.6630036630036,-1.0,66.38125464244716,0.7194118351872669,
2023-08-12 14:30:36.128000,-8.759036144578314,-0.8072289156626506,-4.349397590361446,-0.6866952789699571,-8.591661557326793,-4.002452483139178,3.0,0.7190587190587191,1390.707008335906,-0.05698968591573838,-0.17306683759687713,0.0027970397995452823,1400.7326007326005,-1.0,66.38125464244716,0.7194087417954016,
2023-08-12 14:30:36.135000,-8.734939759036145,-0.8313253012048193,-4.337349397590362,-0.745554874310239,-8.61128142244022,-4.029429797670141,3.0,0.7190587190587191,1390.707008335906,-0.26898199405629125,-0.036944234018996325,0.1571004020744713,1397.069597069597,-1.0,66.38125464244716,0.7194056134882929,
2023-08-12 14:30:36.143000,-8.734939759036145,-0.819277108433735,-4.313253012048193,-0.7234825260576333,-8.623543838136113,-4.009809932556713,3.0,0.7190587190587191,1390.707008335906,-0.46442515004953067,0.32888526309655575,0.003030126449507389,1394.139194139194,-1.0,66.38125464244716,0.7194024483511274,
2023-08-12 14:30:36.151000,-8.74698795180723,-0.819277108433735,-4.325301204819278,-0.7774371551195585,-8.616186388718576,-3.9754751686082157,3.0,0.7190587190587191,1390.707008335906,-0.1712021443971803,-0.0374104073189214,-0.0282034846454171,1394.139194139194,-1.0,66.38125464244716,0.7193992447401019,
2023-08-12 14:30:36.158000,-8.734939759036145,-0.8072289156626506,-4.325301204819278,-0.7234825260576333,-8.601471489883506,-3.995095033721643,3.0,0.7190587190587191,1390.707008335906,-0.032049414369792514,-0.20243575549210346,0.11048307208204645,1394.8717948717947,-1.0,66.38125464244716,0.7193960011283279,
2023-08-12 14:30:36.166000,-8.734939759036145,-0.8072289156626506,-4.36144578313253,-0.7504598405885959,-8.665236051502145,-3.990190067443286,3.0,0.7190587190587191,1390.707008335906,-0.04754967659227327,-0.16887127789755835,0.23308664996212333,1394.139194139194,-1.0,66.38125464244716,0.7193927159828963,
2023-08-12 14:30:36.174000,-8.759036144578314,-0.819277108433735,-4.325301204819278,-0.7798896382587369,-8.62844880441447,-3.965665236051502,3.0,0.7190587190587191,1390.707008335906,-0.107802575607482,0.03135015441990576,0.3222422935726355,1394.8717948717947,-1.0,66.38125464244716,0.719389387918281,
2023-08-12 14:30:36.181000,-8.771084337349398,-0.8313253012048193,-4.325301204819278,-0.733292458614347,-8.625996321275291,-4.036787247087676,3.0,0.7190587190587191,1390.707008335906,-0.10582133908280432,0.003962473049355383,-0.196142415943127,1396.3369963369962,-1.0,66.38125464244716,0.7193860157000762,
2023-08-12 14:30:36.189000,-8.759036144578314,-0.8433734939759037,-4.313253012048193,-0.7602697731453096,-8.618638871857755,-3.985285101164929,3.0,0.7190587190587191,1390.707008335906,-0.07330575141308847,-0.05850474914049272,0.12575024765456555,1398.5347985347985,-1.0,66.38125464244716,0.7193825983870906,
2023-08-12 14:30:36.197000,-8.74698795180723,-0.8313253012048193,-4.325301204819278,-0.7014101778050276,-8.621091354996935,-4.026977314530963,3.0,0.7186147186147186,1391.566265060241,-0.06945982168871218,-0.05955363906532199,0.12656605092943313,1399.2673992673992,-1.0,66.38125464244716,0.71937913517518,
2023-08-12 14:30:36.204000,-8.734939759036145,-0.819277108433735,-4.313253012048193,-0.7014101778050276,-8.613733905579398,-4.012262415695892,3.0,0.7190587190587191,1390.707008335906,-0.053493386166308075,0.06246722218984984,0.16910436454752045,1399.2673992673992,-1.0,66.38125464244716,0.7193756252616512,
2023-08-12 14:30:36.212000,-8.783132530120483,-0.8433734939759037,-4.349397590361446,-0.7676272225628449,-8.635806253832005,-4.058859595340282,3.0,0.7190587190587191,1390.707008335906,-0.15873200862420647,-0.02960200454518974,0.13752112347765302,1400.7326007326005,-1.0,66.38125464244716,0.7193720681035563,
2023-08-12 14:30:36.220000,-8.74698795180723,-0.8313253012048193,-4.313253012048193,-0.7480073574494175,-8.586756591048436,-4.007357449417535,3.0,0.7190587190587191,1390.707008335906,0.07388846803799265,-0.15104014917545566,0.19672513256803206,1401.4652014652013,-1.0,66.38125464244716,0.7193684632914551,
2023-08-12 14:30:36.227000,-8.74698795180723,-0.819277108433735,-4.325301204819278,-0.703862660944206,-8.630901287553648,-4.017167381974248,3.0,0.7195027195027196,1389.8488120950324,0.041372880368276785,0.21886836431443438,0.1773789406211759,1400.7326007326005,-1.0,66.38125464244716,0.7193648104331143,
2023-08-12 14:30:36.235000,-8.734939759036145,-0.8072289156626506,-4.301204819277109,-0.7406499080318822,-8.589209074187615,-3.9926425505824645,3.0,0.7190587190587191,1390.707008335906,0.025522988170851784,0.2350678864868019,-0.009673095973428084,1398.5347985347985,-1.0,66.38125464244716,0.7193611094522863,
2023-08-12 14:30:36.243000,-8.72289156626506,-0.8072289156626506,-4.313253012048193,-0.7406499080318822,-8.599019006744328,-4.031882280809319,3.0,0.7190587190587191,1390.707008335906,-0.035429170794241974,0.08111415418681839,-0.13216013052852413,1397.069597069597,-1.0,66.38125464244716,0.7193573605998305,
2023-08-12 14:30:36.250000,-8.759036144578314,-0.8313253012048193,-4.325301204819278,-0.7504598405885959,-8.638258736971183,-4.029429797670141,3.0,0.7190587190587191,1390.707008335906,-0.15663422877454622,-0.22539479051337338,0.23390245323699094,1393.4065934065934,-1.0,66.38125464244716,0.719353564135065,
2023-08-12 14:30:36.258000,-8.74698795180723,-0.8313253012048193,-4.337349397590362,-0.7357449417535254,-8.606376456161863,-4.026977314530963,3.0,0.7190587190587191,1390.707008335906,-0.1100168987821231,0.234485169861896,0.1707359710972552,1391.2087912087911,-1.0,66.38125464244716,0.7193497203361329,
2023-08-12 14:30:36.266000,-8.759036144578314,-0.819277108433735,-4.325301204819278,-0.7308399754751685,-8.608828939301041,-4.046597179644389,3.0,0.7190587190587191,1390.707008335906,0.05803857584056938,0.018996561971912792,0.25977507138278655,1391.9413919413919,-1.0,66.38125464244716,0.7193458296479565,
2023-08-12 14:30:36.273000,-8.74698795180723,-0.819277108433735,-4.337349397590362,-0.7431023911710607,-8.679950950337217,-3.987737584304108,3.0,0.7190587190587191,1390.707008335906,-0.01829730202202604,-0.11817493153079728,0.1661907814229939,1392.6739926739926,-1.0,66.38125464244716,0.7193418926805408,
2023-08-12 14:30:36.281000,-8.759036144578314,-0.8313253012048193,-4.313253012048193,-0.7210300429184548,-8.591661557326793,-4.031882280809319,3.0,0.7190587190587191,1390.707008335906,0.2885612726531082,0.14288211642678147,-0.004079016374337087,1393.4065934065934,-1.0,66.38125464244716,0.7193379102069201,
2023-08-12 14:30:36.289000,-8.771084337349398,-0.8313253012048193,-4.349397590361446,-0.7921520539546291,-8.606376456161863,-4.0,3.0,0.7190587190587191,1390.707008335906,-0.06339956878969827,-0.21234193811549365,0.24066196608589246,1394.8717948717947,-1.0,66.38125464244716,0.7193338831607715,
2023-08-12 14:30:36.296000,-8.759036144578314,-0.8313253012048193,-4.337349397590362,-0.703862660944206,-8.569589209074188,-3.9926425505824645,3.0,0.7190587190587191,1390.707008335906,-0.260357788007692,-0.04125633704329595,0.14428063632655455,1397.069597069597,-1.0,66.38125464244716,0.7193298127724398,
2023-08-12 14:30:36.304000,-8.72289156626506,-0.8313253012048193,-4.36144578313253,-0.7774371551195585,-8.579399141630901,-4.056407112201104,3.0,0.7190587190587191,1390.707008335906,0.07761785443738635,0.18914981644426382,-0.023425208321193255,1399.2673992673992,-1.0,66.38125464244716,0.7193257004067755,
2023-08-12 14:30:36.312000,-8.759036144578314,-0.8313253012048193,-4.36144578313253,-0.7651747394236664,-8.61128142244022,-4.019619865113427,3.0,0.7190587190587191,1390.707008335906,-0.16560806479808798,0.08076452421187588,0.11386282850649722,1400.7326007326005,-1.0,66.38125464244716,0.7193215475709234,
2023-08-12 14:30:36.319000,-8.74698795180723,-0.8313253012048193,-4.325301204819278,-0.733292458614347,-8.62844880441447,-4.002452483139178,3.0,0.7190587190587191,1390.707008335906,-0.3165316706485628,0.14066779325214213,0.018530388671989015,1401.4652014652013,-1.0,66.38125464244716,0.7193173559006538,
2023-08-12 14:30:36.327000,-8.734939759036145,-0.855421686746988,-4.337349397590362,-0.7185775597792765,-8.638258736971183,-4.01471489883507,3.0,0.7190587190587191,1390.707008335906,-0.03950818716857993,-0.013285939047841392,0.4464774780024476,1402.197802197802,-1.0,66.38125464244716,0.719313127028629,
2023-08-12 14:30:36.335000,-8.74698795180723,-0.8313253012048193,-4.36144578313253,-0.7676272225628449,-8.562231759656651,-4.031882280809319,3.0,0.7190587190587191,1390.707008335906,0.05407610279121226,-0.013052852397879719,0.5491521473107628,1402.197802197802,-1.0,66.38125464244716,0.7193088628678627,
2023-08-12 14:30:36.342000,-8.74698795180723,-0.855421686746988,-4.337349397590362,-0.8044144696505211,-8.603923973022685,-4.031882280809319,3.0,0.7190587190587191,1390.707008335906,-0.15954781189907408,0.4127964570829212,-0.14346483305168697,1398.5347985347985,-1.0,66.38125464244716,0.7193045654477497,
2023-08-12 14:30:36.350000,-8.759036144578314,-0.8433734939759037,-4.337349397590362,-0.7161250766400981,-8.616186388718576,-4.0,3.0,0.7186147186147186,1391.566265060241,-0.40195792785968254,0.22702639706310856,-0.08192995746168641,1391.9413919413919,-1.0,66.38125464244716,0.7193002369201248,
2023-08-12 14:30:36.358000,-8.759036144578314,-0.8313253012048193,-4.325301204819278,-0.7676272225628449,-8.579399141630901,-4.009809932556713,3.0,0.7186147186147186,1391.566265060241,0.3655964104655904,0.20837946506613828,-0.0050113629741855145,1386.8131868131868,-1.0,66.38125464244716,0.719295879533386,
2023-08-12 14:30:36.365000,-8.759036144578314,-0.8313253012048193,-4.325301204819278,-0.7308399754751685,-8.608828939301041,-3.985285101164929,3.0,0.7190587190587191,1390.707008335906,-0.14043470660217872,0.0564069692908342,0.0860089738360235,1382.4175824175823,-1.0,66.38125464244716,0.719291495456919,
2023-08-12 14:30:36.373000,-8.759036144578314,-0.819277108433735,-4.337349397590362,-0.745554874310239,-8.677498467198038,-4.031882280809319,3.0,0.7190587190587191,1390.707008335906,0.12237049123011434,0.026455334770700212,-0.11596060835615618,1382.4175824175823,-1.0,66.38125464244716,0.7192870870626646,
2023-08-12 14:30:36.381000,-8.759036144578314,-0.819277108433735,-4.325301204819278,-0.7259350091968118,-8.650521152667075,-4.066217044757817,3.0,0.7190587190587191,1390.707008335906,-0.10535516578287923,-0.003263213099470364,0.004195559699318357,1386.080586080586,-1.0,66.38125464244716,0.7192826569399617,
2023-08-12 14:30:36.388000,-8.759036144578314,-0.819277108433735,-4.337349397590362,-0.7431023911710607,-8.62844880441447,-4.0,3.0,0.7190587190587191,1390.707008335906,-0.22609405046326014,0.3204941436979199,0.13985198997727408,1392.6739926739926,-1.0,66.38125464244716,0.71927820775093,
2023-08-12 14:30:36.396000,-8.759036144578314,-0.8313253012048193,-4.313253012048193,-0.7087676272225628,-8.638258736971183,-4.019619865113427,3.0,0.7190587190587191,1390.707008335906,-0.1630441116485061,-1.1654332498083647E-4,0.2605908746576541,1397.069597069597,-1.0,66.38125464244716,0.7192737422242926,
2023-08-12 14:30:36.404000,-8.72289156626506,-0.8313253012048193,-4.337349397590362,-0.7357449417535254,-8.608828939301041,-3.990190067443286,3.0,0.7190587190587191,1390.707008335906,0.06759512848901532,0.04603461336751892,-0.01619952217236751,1400.0,-1.0,66.38125464244716,0.719269263010167,
2023-08-12 14:30:36.411000,-8.74698795180723,-0.8072289156626506,-4.337349397590362,-0.7480073574494175,-8.574494175352545,-4.004904966278357,3.0,0.7190587190587191,1390.707008335906,-0.14556261290134592,0.06176796223996309,-0.10698677233261486,1401.4652014652013,-1.0,66.38125464244716,0.7192647728324845,
2023-08-12 14:30:36.419000,-8.74698795180723,-0.8072289156626506,-4.325301204819278,-0.6621704475781729,-8.61128142244022,-4.002452483139178,3.0,0.7190587190587191,1390.707008335906,-0.12959617737894008,0.06339956878969827,-0.004661732999242571,1402.197802197802,-1.0,66.38125464244716,0.7192602746096693,
2023-08-12 14:30:36.427000,-8.759036144578314,-0.8072289156626506,-4.337349397590362,-0.6965052115266707,-8.62844880441447,-3.9828326180257507,3.0,0.7190587190587191,1390.707008335906,-0.2946215255521239,0.0941670065846981,0.09987762950876994,1401.4652014652013,-1.0,66.38125464244716,0.7192557712984166,
2023-08-12 14:30:36.434000,-8.771084337349398,-0.7951807228915663,-4.349397590361446,-0.6965052115266707,-8.584304107909258,-4.031882280809319,3.0,0.7190587190587191,1390.707008335906,-0.06200104888992476,-0.25791037818308926,0.28156867315424505,1400.7326007326005,-1.0,66.38125464244716,0.7192512658866032,
2023-08-12 14:30:36.442000,-8.734939759036145,-0.8072289156626506,-4.337349397590362,-0.7112201103617413,-8.670141017780502,-3.9681177191906802,3.0,0.7190587190587191,1390.707008335906,-0.1361226035778808,0.17306683759687713,0.3541751646174463,1400.0,-1.0,66.38125464244716,0.7192467612473207,
2023-08-12 14:30:36.450000,-8.74698795180723,-0.783132530120482,-4.337349397590362,-0.7896995708154506,-8.608828939301041,-4.029429797670141,3.0,0.7190587190587191,1390.707008335906,-0.21129304819066438,0.3414719421945104,0.2311054134374452,1397.8021978021977,-1.0,66.38125464244716,0.7192422602906862,
2023-08-12 14:30:36.457000,-8.72289156626506,-0.819277108433735,-4.325301204819278,-0.7406499080318822,-8.638258736971183,-4.017167381974248,3.0,0.7190587190587191,1390.707008335906,-0.23972961948604404,0.2938057222772563,0.21327428471534296,1392.6739926739926,-1.0,66.38125464244716,0.719237765945321,
2023-08-12 14:30:36.465000,-8.759036144578314,-0.7951807228915663,-4.337349397590362,-0.8044144696505211,-8.599019006744328,-3.9803801348865724,3.0,0.7190587190587191,1390.707008335906,-0.11362974185653599,0.10675368568265274,-0.0340306508944702,1389.0109890109889,-1.0,66.38125464244716,0.719233281160963,
2023-08-12 14:30:36.472000,-8.783132530120483,-0.819277108433735,-4.325301204819278,-0.7847946045370937,-8.586756591048436,-4.01471489883507,3.0,0.7190587190587191,1390.707008335906,-0.11164850533185655,0.10721985898257609,-0.03321484761960261,1388.278388278388,-1.0,66.38125464244716,0.7192288090288511,
2023-08-12 14:30:36.480000,-8.74698795180723,-0.8313253012048193,-4.325301204819278,-0.6670754138565297,-8.633353770692827,-4.009809932556713,3.0,0.7190587190587191,1390.707008335906,0.16479226152322038,-0.06235067886486727,0.31583241069867735,1390.4761904761904,-1.0,66.38125464244716,0.7192243526254277,
2023-08-12 14:30:36.488000,-8.759036144578314,-0.7951807228915663,-4.36144578313253,-0.762722256284488,-8.650521152667075,-4.051502145922747,3.0,0.7190587190587191,1390.707008335906,-0.14229939980187556,0.3221257502476551,0.009673095973428084,1393.4065934065934,-1.0,66.38125464244716,0.7192199150053866,
2023-08-12 14:30:36.495000,-8.783132530120483,-0.7951807228915663,-4.349397590361446,-0.7651747394236664,-8.650521152667075,-4.007357449417535,3.0,0.7190587190587191,1390.707008335906,-0.03449682419439355,0.3335469960957979,0.2696812540061767,1395.6043956043954,-1.0,66.38125464244716,0.7192154991948049,
2023-08-12 14:30:36.503000,-8.74698795180723,-0.819277108433735,-4.337349397590362,-0.7480073574494175,-8.633353770692827,-3.965665236051502,3.0,0.7181707181707182,1392.4265842349305,-0.3100052444496238,0.19322883281860004,0.008624206048598388,1394.8717948717947,-1.0,66.38125464244716,0.7192111081843783,
2023-08-12 14:30:36.511000,-8.734939759036145,-0.819277108433735,-4.337349397590362,-0.8093194359288779,-8.652973635806253,-4.012262415695892,3.0,0.7186147186147186,1391.566265060241,-0.12551716100460386,0.20779674844123236,0.1304119806538081,1395.6043956043954,-1.0,66.38125464244716,0.7192067447629557,
2023-08-12 14:30:36.518000,-8.734939759036145,-0.819277108433735,-4.337349397590362,-0.7725321888412017,-8.58185162477008,-4.01471489883507,3.0,0.7190587190587191,1390.707008335906,-0.0643319153895467,0.2977681953266134,0.22119923081405501,1397.069597069597,-1.0,66.38125464244716,0.7192024114574814,
2023-08-12 14:30:36.526000,-8.72289156626506,-0.819277108433735,-4.325301204819278,-0.733292458614347,-8.625996321275291,-4.044144696505211,3.0,0.7190587190587191,1390.707008335906,0.16560806479808798,0.4039391643843602,0.4196725132568031,1396.3369963369962,-1.0,66.38125464244716,0.7191981108443853,
2023-08-12 14:30:36.534000,-8.72289156626506,-0.819277108433735,-4.325301204819278,-0.7676272225628449,-8.542611894543224,-4.06131207847946,3.0,0.7190587190587191,1390.707008335906,0.24019579278596737,0.21700367111473753,0.12575024765456555,1395.6043956043954,-1.0,66.38125464244716,0.7191938455736693,
2023-08-12 14:30:36.541000,-8.72289156626506,-0.819277108433735,-4.337349397590362,-0.7014101778050276,-8.679950950337217,-3.9926425505824645,3.0,0.7190587190587191,1390.707008335906,-0.05430918944117393,0.49356098129479703,0.12376901112988742,1394.8717948717947,-1.0,66.38125464244716,0.7191896182235684,
2023-08-12 14:30:36.549000,-8.759036144578314,-0.819277108433735,-4.36144578313253,-0.7553648068669527,-8.599019006744328,-4.026977314530963,3.0,0.7190587190587191,1390.707008335906,-0.10022725948371375,0.3527766447176741,-0.030883981119981543,1395.6043956043954,-1.0,66.38125464244716,0.7191854312942488,
2023-08-12 14:30:36.557000,-8.759036144578314,-0.8313253012048193,-4.349397590361446,-0.7651747394236664,-8.58185162477008,-4.024524831391784,3.0,0.7190587190587191,1390.707008335906,-0.20709748849134735,0.36652875706543886,-0.0903210768603227,1394.8717948717947,-1.0,66.38125464244716,0.7191812872018151,
2023-08-12 14:30:36.564000,-8.759036144578314,-0.8313253012048193,-4.337349397590362,-0.7357449417535254,-8.608828939301041,-4.0,3.0,0.7190587190587191,1390.707008335906,-0.05594079599090911,0.10512207913291756,-0.07656896451255753,1393.4065934065934,-1.0,66.38125464244716,0.7191771882726578,
2023-08-12 14:30:36.572000,-8.771084337349398,-0.855421686746988,-4.301204819277109,-0.733292458614347,-8.579399141630901,-4.053954629061925,3.0,0.7190587190587191,1390.707008335906,-0.1165433249810621,0.48540294854612115,-0.10920109550725465,1392.6739926739926,-1.0,66.38125464244716,0.7191731367381661,
2023-08-12 14:30:36.580000,-8.771084337349398,-0.8313253012048193,-4.301204819277109,-0.7921520539546291,-8.603923973022685,-4.036787247087676,3.0,0.7190587190587191,1390.707008335906,0.05360992949128891,0.035429170794241974,0.02890274459530342,1391.9413919413919,934.50927734375,64.20482006400627,0.7191691347298271,
2023-08-12 14:30:36.587000,-8.759036144578314,-0.8072289156626506,-4.325301204819278,-0.7381974248927038,-8.64316370324954,-4.041692213366033,3.0,0.7190587190587191,1390.707008335906,-0.1906648796690164,-0.22702639706310856,0.2728279237806654,1389.0109890109889,-1.0,64.20482006400627,0.7191651842747354,
2023-08-12 14:30:36.595000,-8.771084337349398,-0.819277108433735,-4.349397590361446,-0.7651747394236664,-8.65787860208461,-4.024524831391784,3.0,0.7190587190587191,1390.707008335906,0.14672804615115603,0.04615115669249976,0.02703805139560613,1388.278388278388,-1.0,64.20482006400627,0.7191612872915306,
2023-08-12 14:30:36.603000,-8.759036144578314,-0.8433734939759037,-4.36144578313253,-0.7578172900061312,-8.594114040465971,-4.071122011036174,3.0,0.7190587190587191,1390.707008335906,0.07109142823844736,0.0916030534351145,0.40708583415884847,1387.5457875457876,-1.0,64.20482006400627,0.7191574455867805,
2023-08-12 14:30:36.610000,-8.72289156626506,-0.819277108433735,-4.349397590361446,-0.7357449417535254,-8.630901287553648,-4.066217044757817,3.0,0.7190587190587191,1390.707008335906,0.3934502651360641,0.16642386807295556,-0.06969290833867473,1389.0109890109889,-1.0,64.20482006400627,0.7191536608518259,
2023-08-12 14:30:36.618000,-8.72289156626506,-0.819277108433735,-4.337349397590362,-0.7063151440833844,-8.635806253832005,-4.019619865113427,3.0,0.7186147186147186,1391.566265060241,0.15931472524911067,-0.03169978439484827,-0.39170211526134857,1393.4065934065934,-1.0,64.20482006400627,0.7191499346600961,
2023-08-12 14:30:36.626000,-8.759036144578314,-0.8072289156626506,-4.349397590361446,-0.7136725935009196,-8.655426118945432,-3.997547516860821,3.0,0.7190587190587191,1390.707008335906,0.3260882232970105,-0.03041780782005733,-0.45020686440184127,1400.7326007326005,-1.0,64.20482006400627,0.7191462683156133,
2023-08-12 14:30:36.633000,-8.74698795180723,-0.7951807228915663,-4.325301204819278,-0.7578172900061312,-8.618638871857755,-4.002452483139178,3.0,0.7190587190587191,1390.707008335906,-0.028553114620360476,0.07552007458772783,-0.31000524444962424,1409.5238095238094,-1.0,64.20482006400627,0.7191426629787,
2023-08-12 14:30:36.641000,-8.74698795180723,-0.7951807228915663,-4.349397590361446,-0.6989576946658491,-8.655426118945432,-3.990190067443286,3.0,0.7186147186147186,1391.566265060241,-0.014218285647689819,0.39636384826059023,-0.33715983917021164,1417.5824175824175,-1.0,64.20482006400627,0.7191391198236978,
2023-08-12 14:30:36.649000,-8.74698795180723,-0.819277108433735,-4.325301204819278,-0.6670754138565297,-8.625996321275291,-3.9460453709380747,3.0,0.7186147186147186,1391.566265060241,-0.04580152671755725,0.4210710331565762,-0.2118757648155703,1423.4432234432234,-1.0,64.20482006400627,0.7191356397500196,
2023-08-12 14:30:36.656000,-8.74698795180723,-0.8072289156626506,-4.337349397590362,-0.6768853464132434,-8.61128142244022,-4.002452483139178,3.0,0.7181707181707182,1392.4265842349305,-0.13822038342753934,0.1707359710972552,-0.39286754851115907,1427.8388278388277,-1.0,64.20482006400627,0.7191322233598723,
2023-08-12 14:30:36.664000,-8.783132530120483,-0.819277108433735,-4.337349397590362,-0.7283874923359902,-8.64316370324954,-4.002452483139178,3.0,0.7186147186147186,1391.566265060241,-0.19835673911776724,-0.24637258900996387,-0.10022725948371289,1432.2344322344322,-1.0,64.20482006400627,0.7191288710848776,
2023-08-12 14:30:36.672000,-8.771084337349398,-0.7951807228915663,-4.337349397590362,-0.6768853464132434,-8.61128142244022,-3.995095033721643,3.0,0.7186147186147186,1391.566265060241,-0.028086941320435394,-0.12493444437969795,-0.21898490763941478,1436.6300366300366,-1.0,64.20482006400627,0.7191255831530934,
2023-08-12 14:30:36.679000,-8.771084337349398,-0.819277108433735,-4.349397590361446,-0.7112201103617413,-8.684855916615573,-4.029429797670141,3.0,0.7190587190587191,1390.707008335906,-0.22329701066371485,0.21117650486568357,0.21245848144047536,1442.4908424908424,-1.0,64.20482006400627,0.7191223596193902,
2023-08-12 14:30:36.687000,-8.759036144578314,-0.8313253012048193,-4.373493975903615,-0.7259350091968118,-8.59656652360515,-4.046597179644389,3.0,0.7186147186147186,1391.566265060241,-0.25068469203426347,-0.05162869296660949,0.0870578637608532,1446.8864468864467,-1.0,64.20482006400627,0.7191192005242777,
2023-08-12 14:30:36.695000,-8.734939759036145,-0.8072289156626506,-4.349397590361446,-0.7136725935009196,-8.608828939301041,-3.958307786633967,3.0,0.7186147186147186,1391.566265060241,-0.5221140959151558,-0.03682769069401549,-0.2819183031291884,1448.3516483516482,-1.0,64.20482006400627,0.7191161057658161,
2023-08-12 14:30:36.702000,-8.734939759036145,-0.8072289156626506,-4.337349397590362,-0.7529123237277743,-8.59656652360515,-3.9828326180257507,3.0,0.7186147186147186,1391.566265060241,-0.12027271138045581,0.027154594720586966,0.3441524386690753,1446.8864468864467,-1.0,64.20482006400627,0.7191130749403385,
2023-08-12 14:30:36.710000,-8.74698795180723,-0.8313253012048193,-4.337349397590362,-0.7480073574494175,-8.640711220110362,-4.0,3.0,0.7186147186147186,1391.566265060241,-0.4231688130062347,-0.20033797564244493,0.4011421245848145,1446.153846153846,-1.0,64.20482006400627,0.7191101074813978,
2023-08-12 14:30:36.718000,-8.734939759036145,-0.8313253012048193,-4.325301204819278,-0.7185775597792765,-8.54996934396076,-4.053954629061925,3.0,0.7186147186147186,1391.566265060241,-0.21816910436454764,-0.1396189033273111,0.3672280170153256,1447.6190476190475,-1.0,64.20482006400627,0.719107202660307,
2023-08-12 14:30:36.725000,-8.734939759036145,-0.855421686746988,-4.337349397590362,-0.82158185162477,-8.670141017780502,-4.022072348252606,3.0,0.7186147186147186,1391.566265060241,-0.3046442515004949,0.05792203251558681,0.15080706252549397,1449.084249084249,-1.0,64.20482006400627,0.719104359587021,
2023-08-12 14:30:36.733000,-8.74698795180723,-0.855421686746988,-4.325301204819278,-0.8068669527896996,-8.660331085223788,-4.085836909871245,3.0,0.7186147186147186,1391.566265060241,-0.08624206048598561,0.026804964745644456,0.05733931589068219,1446.8864468864467,-1.0,64.20482006400627,0.7191015772113728,
2023-08-12 14:30:36.741000,-8.74698795180723,-0.8313253012048193,-4.373493975903615,-0.7553648068669527,-8.608828939301041,-3.9828326180257507,3.0,0.7186147186147186,1391.566265060241,-0.3136180875240367,0.11782530155585304,0.13111124060369442,1443.2234432234432,-1.0,64.20482006400627,0.7190988543246574,
2023-08-12 14:30:36.748000,-8.734939759036145,-0.8313253012048193,-4.325301204819278,-0.8166768853464133,-8.603923973022685,-4.022072348252606,3.0,0.7186147186147186,1391.566265060241,-0.31128722102441647,0.11607715168113703,0.1280811141541866,1440.2930402930401,-1.0,64.20482006400627,0.7190961895615684,
2023-08-12 14:30:36.756000,-8.771084337349398,-0.819277108433735,-4.36144578313253,-0.7725321888412017,-8.623543838136113,-3.995095033721643,3.0,0.7186147186147186,1391.566265060241,-0.31128722102441647,0.11258085193170499,0.38739001223704894,1438.095238095238,-1.0,64.20482006400627,0.7190935814024887,
2023-08-12 14:30:36.764000,-8.771084337349398,-0.8072289156626506,-4.337349397590362,-0.7234825260576333,-8.61128142244022,-4.017167381974248,3.0,0.7186147186147186,1391.566265060241,-0.27772274342986963,-0.1496416292756839,0.10966726880717886,1438.095238095238,-1.0,64.20482006400627,0.7190910281761361,
2023-08-12 14:30:36.771000,-8.783132530120483,-0.8313253012048193,-4.337349397590362,-0.703862660944206,-8.650521152667075,-4.017167381974248,3.0,0.7186147186147186,1391.566265060241,-0.19858982576772893,0.2320377600372932,-0.24019579278596825,1437.3626373626373,-1.0,64.20482006400627,0.7190885280625599,
2023-08-12 14:30:36.779000,-8.74698795180723,-0.819277108433735,-4.349397590361446,-0.7308399754751685,-8.697118332311465,-4.0,3.0,0.7186147186147186,1391.566265060241,0.09206922673503957,0.33389662607074216,-0.12982926402890263,1432.9670329670328,-1.0,64.20482006400627,0.7190860790964949,
2023-08-12 14:30:36.787000,-8.734939759036145,-0.8313253012048193,-4.349397590361446,-0.7725321888412017,-8.638258736971183,-4.01471489883507,3.0,0.7186147186147186,1391.566265060241,-0.015500262222480757,-0.2921741157275211,-0.20290192879202854,1427.106227106227,-1.0,64.20482006400627,0.7190836791710636,
2023-08-12 14:30:36.794000,-8.734939759036145,-0.819277108433735,-4.325301204819278,-0.7308399754751685,-8.584304107909258,-4.019619865113427,3.0,0.7186147186147186,1391.566265060241,-0.048015849892196615,-0.10628751238272767,0.08880601363556921,1420.5128205128203,-1.0,64.20482006400627,0.7190813260418312,
2023-08-12 14:30:36.802000,-8.734939759036145,-0.819277108433735,-4.337349397590362,-0.7112201103617413,-8.621091354996935,-4.029429797670141,3.0,0.7190587190587191,1390.707008335906,-0.004428646349280464,-0.028320027970398804,0.1362391469028612,1415.3846153846152,-1.0,64.20482006400627,0.7190790173312043,
2023-08-12 14:30:36.810000,-8.710843373493976,-0.819277108433735,-4.337349397590362,-0.7087676272225628,-8.621091354996935,-4.024524831391784,3.0,0.7181707181707182,1392.4265842349305,0.16211176504865768,0.11071615873200813,-0.01689878212225383,1412.4542124542124,-1.0,64.20482006400627,0.7190767506824711,
2023-08-12 14:30:36.817000,-8.72289156626506,-0.8072289156626506,-4.337349397590362,-0.7063151440833844,-8.586756591048436,-4.063764561618639,3.0,0.7181707181707182,1392.4265842349305,-0.0079249460987125,0.2478876522347182,-0.23028961016257807,1410.989010989011,-1.0,64.20482006400627,0.7190745237656684,
2023-08-12 14:30:36.825000,-8.734939759036145,-0.783132530120482,-4.337349397590362,-0.6842427958307786,-8.59656652360515,-3.990190067443286,3.0,0.7186147186147186,1391.566265060241,0.20802983509119577,0.22749257036303192,-0.13740458015267176,1406.5934065934066,-1.0,64.20482006400627,0.7190723337839304,
2023-08-12 14:30:36.833000,-8.74698795180723,-0.7590361445783133,-4.337349397590362,-0.7259350091968118,-8.606376456161863,-4.017167381974248,3.0,0.7186147186147186,1391.566265060241,0.06934327836373134,0.2708466872559881,1.1654332498127038E-4,1402.9304029304028,-1.0,64.20482006400627,0.7190701776492934,
2023-08-12 14:30:36.840000,-8.771084337349398,-0.8072289156626506,-4.337349397590362,-0.7210300429184548,-8.648068669527897,-3.997547516860821,3.0,0.7186147186147186,1391.566265060241,-0.0848435405862121,0.2678165608064794,-0.16817201794767203,1400.0,-1.0,64.20482006400627,0.7190680523071348,
2023-08-12 14:30:36.848000,-8.759036144578314,-0.819277108433735,-4.337349397590362,-0.7553648068669527,-8.645616186388718,-4.024524831391784,3.0,0.7186147186147186,1391.566265060241,-0.024357554921041684,0.17353301089680048,-0.09335120330983052,1396.3369963369962,-1.0,64.20482006400627,0.7190659546032119,
2023-08-12 14:30:36.855000,-8.759036144578314,-0.8072289156626506,-4.349397590361446,-0.6989576946658491,-8.670141017780502,-4.004904966278357,3.0,0.7186147186147186,1391.566265060241,-0.236233319736612,0.5075461802925234,-0.3084901812248703,1393.4065934065934,-1.0,64.20482006400627,0.7190638812897662,
2023-08-12 14:30:36.863000,-8.759036144578314,-0.8072289156626506,-4.36144578313253,-0.6891477621091354,-8.594114040465971,-4.01471489883507,3.0,0.7186147186147186,1391.566265060241,0.17807820057106177,0.39636384826059023,-0.12365246780490657,1388.278388278388,-1.0,64.20482006400627,0.719061829031942,
2023-08-12 14:30:36.871000,-8.74698795180723,-0.8313253012048193,-4.373493975903615,-0.7210300429184548,-8.652973635806253,-4.026977314530963,3.0,0.7186147186147186,1391.566265060241,0.19486043936833522,-0.004195559699318791,0.028786201270322147,1383.150183150183,-1.0,64.20482006400627,0.7190597944145121,
2023-08-12 14:30:36.878000,-8.74698795180723,-0.819277108433735,-4.36144578313253,-0.7308399754751685,-8.599019006744328,-4.071122011036174,3.0,0.7186147186147186,1391.566265060241,0.19672513256803206,-0.037293863993940565,0.13332556377833465,1375.8241758241757,-1.0,64.20482006400627,0.71905777394891,
2023-08-12 14:30:36.886000,-8.734939759036145,-0.8313253012048193,-4.36144578313253,-0.7749846719803801,-8.630901287553648,-3.985285101164929,3.0,0.7190587190587191,1390.707008335906,-0.001631606549735182,-0.02330866499621242,0.14905891265077795,1372.8937728937728,-1.0,64.20482006400627,0.719055764080559,
2023-08-12 14:30:36.894000,-8.734939759036145,-0.8313253012048193,-4.36144578313253,-0.7578172900061312,-8.530349478847333,-4.012262415695892,3.0,0.7186147186147186,1391.566265060241,0.2887943593030716,0.1480100227259487,-0.006060252899015212,1372.161172161172,-1.0,64.20482006400627,0.7190537613457811,
2023-08-12 14:30:36.901000,-8.710843373493976,-0.819277108433735,-4.349397590361446,-0.7406499080318822,-8.557326793378294,-4.056407112201104,3.0,0.7186147186147186,1391.566265060241,-0.10966726880717886,0.37853271953848755,-0.311636850999359,1375.8241758241757,-1.0,64.20482006400627,0.7190517622522801,
2023-08-12 14:30:36.909000,-8.759036144578314,-0.8072289156626506,-4.349397590361446,-0.745554874310239,-8.53525444512569,-4.036787247087676,3.0,0.7186147186147186,1391.566265060241,-0.015267175572519083,0.3174640172484112,0.10407318920808831,1383.150183150183,-1.0,64.20482006400627,0.7190497631283695,
2023-08-12 14:30:36.917000,-8.74698795180723,-0.819277108433735,-4.373493975903615,-0.7700797057020232,-8.648068669527897,-4.012262415695892,3.0,0.7186147186147186,1391.566265060241,0.01538371889749992,0.11537789173125026,-0.2043004486918012,1389.0109890109889,-1.0,64.20482006400627,0.7190477602703329,
2023-08-12 14:30:36.924000,-8.759036144578314,-0.8072289156626506,-4.337349397590362,-0.7431023911710607,-8.59656652360515,-4.002452483139178,3.0,0.7186147186147186,1391.566265060241,0.2617563079074638,0.024124468271080012,0.026921508070625294,1391.2087912087911,-1.0,64.20482006400627,0.7190457499512678,
2023-08-12 14:30:36.932000,-8.759036144578314,-0.819277108433735,-4.337349397590362,-0.7210300429184548,-8.650521152667075,-3.990190067443286,3.0,0.7186147186147186,1391.566265060241,0.017714585397121858,0.1778451139211001,-0.07948254763708408,1392.6739926739926,-1.0,64.20482006400627,0.7190437284301492,
2023-08-12 14:30:36.940000,-8.74698795180723,-0.7951807228915663,-4.349397590361446,-0.7087676272225628,-8.613733905579398,-4.036787247087676,3.0,0.7186147186147186,1391.566265060241,0.06538080531437596,0.055241536041024095,-0.12306975118000109,1393.4065934065934,-1.0,64.20482006400627,0.7190416919610894,
2023-08-12 14:30:36.947000,-8.759036144578314,-0.7951807228915663,-4.36144578313253,-0.7872470876762722,-8.635806253832005,-4.044144696505211,3.0,0.7186147186147186,1391.566265060241,-0.08624206048598561,-0.08717440708583403,-0.19987180234252072,1393.4065934065934,-1.0,64.20482006400627,0.71903963680278,
2023-08-12 14:30:36.955000,-8.771084337349398,-0.8072289156626506,-4.337349397590362,-0.7774371551195585,-8.635806253832005,-4.100551808706315,3.0,0.7186147186147186,1391.566265060241,-0.08181341413670515,-0.16595769477303224,-0.1827399335703048,1392.6739926739926,-1.0,64.20482006400627,0.7190375592280898,
2023-08-12 14:30:36.963000,-8.74698795180723,-0.8072289156626506,-4.36144578313253,-0.7553648068669527,-8.608828939301041,-4.026977314530963,3.0,0.7181707181707182,1392.4265842349305,-0.003263213099470364,-0.029135831245264657,0.016082978847386676,1389.7435897435896,-1.0,64.20482006400627,0.7190354556725423,
2023-08-12 14:30:36.970000,-8.74698795180723,-0.8072289156626506,-4.349397590361446,-0.7283874923359902,-8.625996321275291,-4.046597179644389,3.0,0.7181707181707182,1392.4265842349305,-0.09556552648446988,-0.27306101043062747,-0.10745294563253907,1391.2087912087911,-1.0,64.20482006400627,0.7190333227132396,
2023-08-12 14:30:36.978000,-8.74698795180723,-0.7951807228915663,-4.349397590361446,-0.6940527283874923,-8.59656652360515,-4.017167381974248,3.0,0.7181707181707182,1392.4265842349305,0.16560806479808798,0.12831420080414915,-0.018880018646931958,1396.3369963369962,-1.0,64.20482006400627,0.7190311567497846,
2023-08-12 14:30:36.986000,-8.74698795180723,-0.8072289156626506,-4.349397590361446,-0.7234825260576333,-8.694665849172287,-3.960760269773145,3.0,0.7186147186147186,1391.566265060241,-0.16863819124759666,0.052327952916496244,0.3169978439484879,1403.6630036630036,-1.0,64.20482006400627,0.7190289540248207,
2023-08-12 14:30:36.993000,-8.759036144578314,-0.7951807228915663,-4.301204819277109,-0.7087676272225628,-8.594114040465971,-4.034334763948498,3.0,0.7186147186147186,1391.566265060241,-0.25942544140784357,-0.008624206048599255,-0.08181341413670515,1409.5238095238094,-1.0,64.20482006400627,0.7190267107927177,
2023-08-12 14:30:37.001000,-8.72289156626506,-0.819277108433735,-4.337349397590362,-0.7381974248927038,-8.618638871857755,-4.053954629061925,3.0,0.7186147186147186,1391.566265060241,-0.1960258726181453,0.3562729444671061,0.19369500611852467,1414.6520146520145,-1.0,64.20482006400627,0.7190244233703059,
2023-08-12 14:30:37.009000,-8.74698795180723,-0.819277108433735,-4.337349397590362,-0.6817903126916002,-8.679950950337217,-4.039239730226854,3.0,0.7186147186147186,1391.566265060241,-0.22329701066371485,0.04685041664238651,0.1306450673037702,1413.9194139194137,-1.0,64.20482006400627,0.7190220881559098,
2023-08-12 14:30:37.016000,-8.72289156626506,-0.819277108433735,-4.301204819277109,-0.8289393010423053,-8.623543838136113,-4.068669527896995,3.0,0.7186147186147186,1391.566265060241,-0.4488083445020691,-0.06386574208962162,-0.16129596177378921,1410.989010989011,-1.0,64.20482006400627,0.7190197016378193,
2023-08-12 14:30:37.024000,-8.759036144578314,-0.7951807228915663,-4.349397590361446,-0.7087676272225628,-8.67259350091968,-4.024524831391784,3.0,0.7181707181707182,1392.4265842349305,-0.44286463492803424,-0.06386574208962162,-0.160829788473865,1406.5934065934066,-1.0,64.20482006400627,0.7190172604027506,
2023-08-12 14:30:37.032000,-8.734939759036145,-0.8072289156626506,-4.325301204819278,-0.7357449417535254,-8.594114040465971,-4.012262415695892,3.0,0.7186147186147186,1391.566265060241,-0.012936309072897147,-0.08099761086183756,0.05291066954140216,1403.6630036630036,-1.0,64.20482006400627,0.7190147609949655,
2023-08-12 14:30:37.039000,-8.74698795180723,-0.8072289156626506,-4.325301204819278,-0.7995095033721643,-8.599019006744328,-4.01471489883507,3.0,0.7186147186147186,1391.566265060241,-0.027970397995454557,-0.0953324398345082,0.3563894877920865,1397.8021978021977,-1.0,64.20482006400627,0.7190122000520571,
2023-08-12 14:30:37.047000,-8.759036144578314,-0.819277108433735,-4.325301204819278,-0.8117719190680563,-8.591661557326793,-4.041692213366033,3.0,0.7186147186147186,1391.566265060241,-0.3155993240487144,-0.09591515645941413,0.014917545597575707,1394.139194139194,-1.0,64.20482006400627,0.7190095744721778,
2023-08-12 14:30:37.055000,-8.734939759036145,-0.8313253012048193,-4.337349397590362,-0.7553648068669527,-8.58185162477008,-4.049049662783568,3.0,0.7186147186147186,1391.566265060241,0.37445370316415133,0.5912242876289254,-0.047782763242235377,1389.7435897435896,-1.0,64.20482006400627,0.7190068812833074,
2023-08-12 14:30:37.062000,-8.74698795180723,-0.819277108433735,-4.325301204819278,-0.7602697731453096,-8.64316370324954,-4.056407112201104,3.0,0.7186147186147186,1391.566265060241,0.12656605092943313,0.034613367519376124,0.043121030242992804,1384.6153846153845,-1.0,64.20482006400627,0.7190041176511666,
2023-08-12 14:30:37.070000,-8.74698795180723,-0.8072289156626506,-4.36144578313253,-0.7308399754751685,-8.616186388718576,-4.019619865113427,3.0,0.7186147186147186,1391.566265060241,0.5377309014626191,-0.03041780782005733,0.11840801818075852,1378.021978021978,-1.0,64.20482006400627,0.7190012810257639,
2023-08-12 14:30:37.078000,-8.759036144578314,-0.8313253012048193,-4.36144578313253,-0.7553648068669527,-8.621091354996935,-4.017167381974248,3.0,0.7186147186147186,1391.566265060241,0.2710797739059498,-0.18378882349513492,0.0872909504108153,1372.8937728937728,-1.0,64.20482006400627,0.7189983689899159,
2023-08-12 14:30:37.085000,-8.74698795180723,-0.8072289156626506,-4.36144578313253,-0.7161250766400981,-8.606376456161863,-4.049049662783568,3.0,0.7186147186147186,1391.566265060241,0.05360992949128891,0.014101742322708983,-0.09661441640930002,1372.161172161172,-1.0,64.20482006400627,0.7189953791391265,
2023-08-12 14:30:37.093000,-8.759036144578314,-0.8433734939759037,-4.325301204819278,-0.7210300429184548,-8.65787860208461,-4.012262415695892,3.0,0.7186147186147186,1391.566265060241,0.31152030767437816,0.1650253481731838,0.16385991492337282,1373.6263736263736,-1.0,64.20482006400627,0.7189923092379887,
2023-08-12 14:30:37.101000,-8.759036144578314,-0.8313253012048193,-4.349397590361446,-0.7259350091968118,-8.552421827099938,-4.026977314530963,3.0,0.7186147186147186,1391.566265060241,0.035545714119224546,0.17714585397121335,0.08694132043587192,1375.8241758241757,-1.0,64.20482006400627,0.7189891572270861,
2023-08-12 14:30:37.108000,-8.771084337349398,-0.819277108433735,-4.349397590361446,-0.7946045370938074,-8.667688534641323,-4.06131207847946,3.0,0.7186147186147186,1391.566265060241,-0.1335586504282972,0.12866383077909166,0.07085834158848568,1378.021978021978,-1.0,64.20482006400627,0.7189859212296668,
2023-08-12 14:30:37.116000,-8.759036144578314,-0.819277108433735,-4.337349397590362,-0.7063151440833844,-8.618638871857755,-4.01471489883507,3.0,0.7181707181707182,1392.4265842349305,0.02284249169628734,0.07831711438727311,-0.14474680962647876,1379.4871794871794,-1.0,64.20482006400627,0.7189825995580625,
2023-08-12 14:30:37.124000,-8.759036144578314,-0.819277108433735,-4.349397590361446,-0.733292458614347,-8.665236051502145,-4.058859595340282,3.0,0.7181707181707182,1392.4265842349305,0.0844939106112696,0.21245848144047624,0.17504807412155482,1382.4175824175823,-1.0,64.20482006400627,0.7189791907092946,
2023-08-12 14:30:37.131000,-8.74698795180723,-0.8072289156626506,-4.349397590361446,-0.6989576946658491,-8.618638871857755,-4.012262415695892,3.0,0.7186147186147186,1391.566265060241,0.3297010663714234,0.10302429928325904,0.1883340131693958,1385.3479853479853,-1.0,64.20482006400627,0.7189756933286663,
2023-08-12 14:30:37.139000,-8.734939759036145,-0.8072289156626506,-4.337349397590362,-0.7529123237277743,-8.62844880441447,-3.995095033721643,3.0,0.7181707181707182,1392.4265842349305,0.2819183031291884,-0.2206165141891504,-0.24136122603577878,1386.8131868131868,-1.0,64.20482006400627,0.7189721063536539,
2023-08-12 14:30:37.147000,-8.759036144578314,-0.819277108433735,-4.373493975903615,-0.7529123237277743,-8.606376456161863,-4.031882280809319,3.0,0.7186147186147186,1391.566265060241,-0.04195559699318271,0.008857292698560929,0.1883340131693958,1386.080586080586,-1.0,64.20482006400627,0.7189684287521545,
2023-08-12 14:30:37.154000,-8.759036144578314,-0.8072289156626506,-4.385542168674699,-0.7896995708154506,-8.621091354996935,-4.022072348252606,3.0,0.7186147186147186,1391.566265060241,-0.15115669250043648,-0.24916962880950913,0.2777227434298701,1386.080586080586,-1.0,64.20482006400627,0.7189646595368898,
2023-08-12 14:30:37.162000,-8.74698795180723,-0.8072289156626506,-4.36144578313253,-0.7063151440833844,-8.638258736971183,-3.9803801348865724,3.0,0.7181707181707182,1392.4265842349305,0.002214323174639364,0.13320902045335295,-0.13763766680263387,1389.7435897435896,-1.0,64.20482006400627,0.7189607982158759,
2023-08-12 14:30:37.170000,-8.74698795180723,-0.7951807228915663,-4.349397590361446,-0.7357449417535254,-8.591661557326793,-3.960760269773145,3.0,0.7186147186147186,1391.566265060241,-0.027737311345492885,-0.2825010197540943,-0.014451372297651493,1393.4065934065934,-1.0,64.20482006400627,0.718956844348166,
2023-08-12 14:30:37.177000,-8.734939759036145,-0.7951807228915663,-4.325301204819278,-0.733292458614347,-8.54996934396076,-4.024524831391784,3.0,0.7186147186147186,1391.566265060241,0.1409008799021038,-0.20628168521647974,0.30720820465007853,1397.8021978021977,-1.0,64.20482006400627,0.7189527975461782,
2023-08-12 14:30:37.185000,-8.759036144578314,-0.8072289156626506,-4.337349397590362,-0.7995095033721643,-8.621091354996935,-4.002452483139178,3.0,0.7181707181707182,1392.4265842349305,-0.05862129246547356,0.038808927218693175,-0.10570479575782304,1403.6630036630036,-1.0,64.20482006400627,0.7189486577858523,
2023-08-12 14:30:37.193000,-8.74698795180723,-0.8072289156626506,-4.36144578313253,-0.7749846719803801,-8.61128142244022,-4.019619865113427,3.0,0.7181707181707182,1392.4265842349305,-0.05815511916555022,-0.191480682943884,0.13705495017772837,1408.058608058608,-1.0,64.20482006400627,0.7189444251199318,
2023-08-12 14:30:37.200000,-8.759036144578314,-0.819277108433735,-4.337349397590362,-0.6744328632740649,-8.586756591048436,-4.031882280809319,3.0,0.7181707181707182,1392.4265842349305,-0.3017306683759688,-0.13041198065380769,-0.19975525901753988,1412.4542124542124,-1.0,64.20482006400627,0.7189400996570028,
2023-08-12 14:30:37.208000,-8.734939759036145,-0.8072289156626506,-4.36144578313253,-0.7136725935009196,-8.650521152667075,-4.046597179644389,3.0,0.7181707181707182,1392.4265842349305,-0.2075636617912707,0.12866383077909166,0.046151156692500625,1416.117216117216,-1.0,64.20482006400627,0.7189356818378009,
2023-08-12 14:30:37.216000,-8.759036144578314,-0.8072289156626506,-4.337349397590362,-0.6842427958307786,-8.608828939301041,-4.066217044757817,3.0,0.7181707181707182,1392.4265842349305,0.22189849076394133,0.005011362974186382,0.03100052444496238,1419.7802197802198,-1.0,64.20482006400627,0.7189311722742823,
2023-08-12 14:30:37.223000,-8.74698795180723,-0.8072289156626506,-4.349397590361446,-0.745554874310239,-8.606376456161863,-4.044144696505211,3.0,0.7186147186147186,1391.566265060241,0.06712895518909198,-0.026804964745644456,-0.13693840685274752,1423.4432234432234,-1.0,64.20482006400627,0.7189265717583545,
2023-08-12 14:30:37.231000,-8.734939759036145,-0.8072289156626506,-4.337349397590362,-0.6817903126916002,-8.640711220110362,-3.995095033721643,3.0,0.7181707181707182,1392.4265842349305,-0.06945982168871218,0.03228250101975418,0.09381737660975473,1422.7106227106226,-1.0,64.20482006400627,0.7189218815368844,
2023-08-12 14:30:37.238000,-8.74698795180723,-0.819277108433735,-4.36144578313253,-0.7014101778050276,-8.633353770692827,-4.058859595340282,3.0,0.7181707181707182,1392.4265842349305,0.19171376959384567,0.032632130994696695,-0.028436571295379204,1418.3150183150183,-1.0,64.20482006400627,0.7189171030324945,
2023-08-12 14:30:37.246000,-8.734939759036145,-0.8072289156626506,-4.349397590361446,-0.7308399754751685,-8.625996321275291,-4.051502145922747,3.0,0.7181707181707182,1392.4265842349305,-0.19043179301905475,-0.012703222422935475,-0.04428646349280334,1412.4542124542124,-1.0,64.20482006400627,0.7189122376813609,
2023-08-12 14:30:37.254000,-8.734939759036145,-0.8072289156626506,-4.349397590361446,-0.7063151440833844,-8.621091354996935,-4.071122011036174,3.0,0.7186147186147186,1391.566265060241,-0.03577880076918622,0.09381737660975387,-0.10675368568265231,1405.8608058608058,-1.0,64.20482006400627,0.718907286929375,
2023-08-12 14:30:37.261000,-8.74698795180723,-0.819277108433735,-4.349397590361446,-0.6989576946658491,-8.64316370324954,-4.036787247087676,3.0,0.7186147186147186,1391.566265060241,0.040440533768428356,0.1513897791503999,0.06304993881475446,1398.5347985347985,-1.0,64.20482006400627,0.7189022525359827,
2023-08-12 14:30:37.269000,-8.734939759036145,-0.8313253012048193,-4.337349397590362,-0.7553648068669527,-8.667688534641323,-3.995095033721643,3.0,0.7177267177267178,1393.2879678317352,-0.23471825651185765,0.08985490356039848,0.047899306567216214,1389.7435897435896,-1.0,64.20482006400627,0.7188971367183654,
2023-08-12 14:30:37.277000,-8.783132530120483,-0.819277108433735,-4.337349397590362,-0.7578172900061312,-8.679950950337217,-3.9828326180257507,3.0,0.7181707181707182,1392.4265842349305,0.10418973253306914,-0.04918128314200845,-0.22597750713827885,1383.150183150183,-1.0,64.20482006400627,0.7188919416994389,
2023-08-12 14:30:37.284000,-8.74698795180723,-0.8072289156626506,-4.337349397590362,-0.7896995708154506,-8.650521152667075,-4.07602697731453,3.0,0.7186147186147186,1391.566265060241,0.04300448691801197,-0.18821746984441537,0.20383427539187698,1378.7545787545787,-1.0,64.20482006400627,0.7188866696496696,
2023-08-12 14:30:37.292000,-8.74698795180723,-0.819277108433735,-4.325301204819278,-0.7087676272225628,-8.625996321275291,-4.046597179644389,3.0,0.7181707181707182,1392.4265842349305,0.16782238797272908,0.1185245615057398,0.2626886545073131,1375.091575091575,-1.0,64.20482006400627,0.7188813229996998,
2023-08-12 14:30:37.300000,-8.72289156626506,-0.819277108433735,-4.337349397590362,-0.7136725935009196,-8.564684242795831,-3.9926425505824645,3.0,0.7186147186147186,1391.566265060241,0.16689004137288066,0.11491171843132691,0.26187285123244547,1374.3589743589744,-1.0,64.20482006400627,0.718875904315739,
2023-08-12 14:30:37.307000,-8.734939759036145,-0.8072289156626506,-4.349397590361446,-0.733292458614347,-8.630901287553648,-4.063764561618639,3.0,0.7186147186147186,1391.566265060241,0.17970980712079695,-0.2690985373812721,0.260357788007692,1375.091575091575,-1.0,64.20482006400627,0.7188704161428656,
2023-08-12 14:30:37.315000,-8.734939759036145,-0.819277108433735,-4.349397590361446,-0.7823421213979154,-8.62844880441447,-4.06131207847946,3.0,0.7186147186147186,1391.566265060241,-0.1409008799021038,0.14544606957636508,0.04382029019287913,1375.8241758241757,-1.0,64.20482006400627,0.7188648611773942,
2023-08-12 14:30:37.323000,-8.734939759036145,-0.819277108433735,-4.349397590361446,-0.7308399754751685,-8.569589209074188,-4.071122011036174,3.0,0.7186147186147186,1391.566265060241,0.05815511916555022,0.38808927218693523,0.31851290717324177,1378.021978021978,-1.0,64.20482006400627,0.71885924240743,
2023-08-12 14:30:37.330000,-8.759036144578314,-0.819277108433735,-4.337349397590362,-0.7480073574494175,-8.579399141630901,-4.009809932556713,3.0,0.7186147186147186,1391.566265060241,0.45300390420138614,0.2934560923023138,0.1629275683235244,1382.4175824175823,-1.0,64.20482006400627,0.7188535630837053,
2023-08-12 14:30:37.338000,-8.734939759036145,-0.7951807228915663,-4.385542168674699,-0.7087676272225628,-8.64316370324954,-4.022072348252606,3.0,0.7186147186147186,1391.566265060241,-0.06911019171376967,0.2288910902628054,0.1491754559757588,1386.8131868131868,-1.0,64.20482006400627,0.7188478265627873,
2023-08-12 14:30:37.346000,-8.72289156626506,-0.7951807228915663,-4.337349397590362,-0.7014101778050276,-8.625996321275291,-4.049049662783568,3.0,0.7186147186147186,1391.566265060241,0.26839927743138536,-0.14055124992716128,0.39589767496066647,1390.4761904761904,-1.0,64.20482006400627,0.7188420362994199,
2023-08-12 14:30:37.353000,-8.72289156626506,-0.783132530120482,-4.36144578313253,-0.7014101778050276,-8.554874310239116,-4.058859595340282,3.0,0.7181707181707182,1392.4265842349305,0.06736204183905366,-0.1222539479051335,0.04009090379348541,1391.9413919413919,-1.0,64.20482006400627,0.7188361958387354,
2023-08-12 14:30:37.361000,-8.74698795180723,-0.8072289156626506,-4.36144578313253,-0.7210300429184548,-8.584304107909258,-4.125076640098099,3.0,0.7186147186147186,1391.566265060241,-0.22562787716333504,-0.029135831245264657,0.43552240545422766,1392.6739926739926,-1.0,64.20482006400627,0.7188303085203357,
2023-08-12 14:30:37.369000,-8.734939759036145,-0.7951807228915663,-4.385542168674699,-0.6768853464132434,-8.579399141630901,-4.041692213366033,3.0,0.7181707181707182,1392.4265842349305,-0.022026688421421484,0.23110541343744478,0.30942252782471874,1391.9413919413919,-1.0,64.20482006400627,0.7188243777569132,
2023-08-12 14:30:37.376000,-8.74698795180723,-0.783132530120482,-4.373493975903615,-0.7112201103617413,-8.594114040465971,-4.056407112201104,3.0,0.7186147186147186,1391.566265060241,-0.1443971796515358,0.16758930132276742,-0.08985490356039848,1390.4761904761904,-1.0,64.20482006400627,0.7188184071635687,
2023-08-12 14:30:37.384000,-8.710843373493976,-0.7951807228915663,-4.349397590361446,-0.6744328632740649,-8.586756591048436,-4.07602697731453,3.0,0.7186147186147186,1391.566265060241,0.056756599265776704,0.22644368043820265,-0.02960200454518974,1389.0109890109889,-1.0,64.20482006400627,0.7188124003892818,
2023-08-12 14:30:37.392000,-8.72289156626506,-0.8072289156626506,-4.373493975903615,-0.6940527283874923,-8.591661557326793,-4.053954629061925,3.0,0.7186147186147186,1391.566265060241,0.010372355923315273,-0.14288211642678147,-0.02995163452013268,1389.0109890109889,-1.0,64.20482006400627,0.7188063612680128,
2023-08-12 14:30:37.399000,-8.74698795180723,-0.783132530120482,-4.373493975903615,-0.7283874923359902,-8.594114040465971,-3.995095033721643,3.0,0.7186147186147186,1391.566265060241,0.4061534875589996,-0.06421537206456586,0.0012819765747918046,1390.4761904761904,-1.0,64.20482006400627,0.7188002936720305,
2023-08-12 14:30:37.407000,-8.74698795180723,-0.7951807228915663,-4.349397590361446,-0.7529123237277743,-8.616186388718576,-4.053954629061925,3.0,0.7181707181707182,1392.4265842349305,-0.07085834158848568,-0.23285356331216078,0.03321484761960261,1394.139194139194,-1.0,64.20482006400627,0.718794201504135,
2023-08-12 14:30:37.415000,-8.74698795180723,-0.819277108433735,-4.373493975903615,-0.7063151440833844,-8.616186388718576,-4.029429797670141,3.0,0.7186147186147186,1391.566265060241,-0.023425208321193255,-0.07924946098712153,-0.27306101043062747,1399.2673992673992,-1.0,64.20482006400627,0.7187880885407574,
2023-08-12 14:30:37.422000,-8.72289156626506,-0.7951807228915663,-4.397590361445784,-0.745554874310239,-8.61128142244022,-4.06131207847946,3.0,0.7177267177267178,1393.2879678317352,-0.0848435405862121,-0.048831653167064205,-0.012819765747916744,1401.4652014652013,-1.0,64.20482006400627,0.7187819585519793,
2023-08-12 14:30:37.430000,-8.74698795180723,-0.8072289156626506,-4.385542168674699,-0.7283874923359902,-8.599019006744328,-4.058859595340282,3.0,0.7181707181707182,1392.4265842349305,-0.191480682943884,0.0882232970106633,-0.05908746576539821,1403.6630036630036,-1.0,64.20482006400627,0.7187758152934648,
2023-08-12 14:30:37.438000,-8.771084337349398,-0.819277108433735,-4.349397590361446,-0.7946045370938074,-8.64316370324954,-4.012262415695892,3.0,0.7181707181707182,1392.4265842349305,0.3731717265893604,0.1633937416234486,0.26222248120738884,1407.3260073260071,-1.0,64.20482006400627,0.7187696623070353,
2023-08-12 14:30:37.445000,-8.74698795180723,-0.8313253012048193,-4.36144578313253,-0.7480073574494175,-8.650521152667075,-4.019619865113427,3.0,0.7181707181707182,1392.4265842349305,0.06503117533943172,-0.05477536274109902,0.09393391993473557,1410.989010989011,-1.0,64.20482006400627,0.7187635030822582,
2023-08-12 14:30:37.453000,-8.74698795180723,-0.8072289156626506,-4.36144578313253,-0.7749846719803801,-8.625996321275291,-4.017167381974248,3.0,0.7181707181707182,1392.4265842349305,-0.012353592447992964,0.037293863993940565,-0.011421245848144104,1410.989010989011,-1.0,64.20482006400627,0.7187573410582578,
2023-08-12 14:30:37.461000,-8.771084337349398,-0.819277108433735,-4.349397590361446,-0.745554874310239,-8.53525444512569,-3.9215205395462904,3.0,0.7181707181707182,1392.4265842349305,0.0476662199172541,-0.20593205524153552,-0.1626944816735623,1410.2564102564102,-1.0,64.20482006400627,0.7187511794764018,
2023-08-12 14:30:37.468000,-8.783132530120483,-0.819277108433735,-4.349397590361446,-0.7283874923359902,-8.613733905579398,-4.053954629061925,3.0,0.7181707181707182,1392.4265842349305,1.1654332498083647E-4,-0.43237573567973814,-0.2060485985665172,1408.7912087912086,-1.0,64.20482006400627,0.7187450215310757,
2023-08-12 14:30:37.476000,-8.74698795180723,-0.819277108433735,-4.349397590361446,-0.8093194359288779,-8.623543838136113,-4.058859595340282,3.0,0.7181707181707182,1392.4265842349305,-0.16828856127265243,-0.38366062583765476,0.2681661907814228,1409.5238095238094,-1.0,64.20482006400627,0.7187388704891765,
2023-08-12 14:30:37.484000,-8.74698795180723,-0.819277108433735,-4.36144578313253,-0.6670754138565297,-8.633353770692827,-4.06131207847946,3.0,0.7181707181707182,1392.4265842349305,-0.12167123128022758,-0.4268981994056284,0.37235592331449197,1409.5238095238094,-1.0,64.20482006400627,0.7187327295331714,
2023-08-12 14:30:37.491000,-8.734939759036145,-0.819277108433735,-4.385542168674699,-0.7798896382587369,-8.59656652360515,-4.041692213366033,3.0,0.7181707181707182,1392.4265842349305,0.033564477594545124,-0.028320027970398804,0.005127906299166785,1408.7912087912086,-1.0,64.20482006400627,0.7187266016149998,
2023-08-12 14:30:37.499000,-8.74698795180723,-0.819277108433735,-4.373493975903615,-0.7798896382587369,-8.648068669527897,-3.9681177191906802,3.0,0.7181707181707182,1392.4265842349305,0.5059145737427883,-0.1794767204708353,0.111648505331857,1406.5934065934066,995.78857421875,60.253754213913574,0.7187204896081888,
2023-08-12 14:30:37.507000,-8.710843373493976,-0.819277108433735,-4.349397590361446,-0.7308399754751685,-8.601471489883506,-4.041692213366033,3.0,0.7181707181707182,1392.4265842349305,0.34951343161820375,-0.1003438028086946,-0.23868072956121433,1408.058608058608,-1.0,60.253754213913574,0.7187143964288044,
2023-08-12 14:30:37.514000,-8.74698795180723,-0.8072289156626506,-4.349397590361446,-0.745554874310239,-8.59656652360515,-3.997547516860821,3.0,0.7181707181707182,1392.4265842349305,0.29905017190140437,0.19089796631897982,-0.2371656663364604,1408.058608058608,-1.0,60.253754213913574,0.7187083248800777,
2023-08-12 14:30:37.522000,-8.72289156626506,-0.8072289156626506,-4.313253012048193,-0.7210300429184548,-8.61128142244022,-4.012262415695892,3.0,0.7181707181707182,1392.4265842349305,0.5251442223646645,0.22049997086416956,-0.2041839053668199,1408.7912087912086,-1.0,60.253754213913574,0.7187022776467278,
2023-08-12 14:30:37.530000,-8.72289156626506,-0.819277108433735,-4.337349397590362,-0.7185775597792765,-8.574494175352545,-4.049049662783568,3.0,0.7181707181707182,1392.4265842349305,0.0018646931996968547,0.03682769069401549,0.11934036478060739,1411.7216117216117,-1.0,60.253754213913574,0.7186962572897109,
2023-08-12 14:30:37.537000,-8.759036144578314,-0.783132530120482,-4.325301204819278,-0.7823421213979154,-8.62844880441447,-3.987737584304108,3.0,0.7181707181707182,1392.4265842349305,0.24765456558475654,0.130178894003846,-0.2756249635802111,1416.117216117216,-1.0,60.253754213913574,0.7186902662414072,
2023-08-12 14:30:37.545000,-8.74698795180723,-0.819277108433735,-4.36144578313253,-0.7381974248927038,-8.594114040465971,-4.01471489883507,3.0,0.7181707181707182,1392.4265842349305,0.04941436979197012,0.14509643960142257,-0.2422935726356272,1417.5824175824175,-1.0,60.253754213913574,0.71868430680127,
2023-08-12 14:30:37.553000,-8.759036144578314,-0.7951807228915663,-4.349397590361446,-0.7504598405885959,-8.648068669527897,-4.01471489883507,3.0,0.7181707181707182,1392.4265842349305,-0.27166249053085395,0.03985781714352244,-0.40766855078375397,1416.8498168498168,-1.0,60.253754213913574,0.7186783811319405,
2023-08-12 14:30:37.560000,-8.759036144578314,-0.783132530120482,-4.337349397590362,-0.6965052115266707,-8.638258736971183,-4.06131207847946,3.0,0.7181707181707182,1392.4265842349305,0.11164850533185655,-0.019812365246780383,-0.130178894003846,1414.6520146520145,-1.0,60.253754213913574,0.7186724912558522,
2023-08-12 14:30:37.568000,-8.771084337349398,-0.8072289156626506,-4.397590361445784,-0.7798896382587369,-8.660331085223788,-4.044144696505211,3.0,0.7181707181707182,1392.4265842349305,0.10955072548219803,-0.35370899131752254,0.06841093176388335,1412.4542124542124,-1.0,60.253754213913574,0.7186666390523231,
2023-08-12 14:30:37.576000,-8.771084337349398,-0.8072289156626506,-4.36144578313253,-0.7136725935009196,-8.652973635806253,-4.041692213366033,3.0,0.7177267177267178,1393.2879678317352,-0.15092360585047482,-0.04580152671755725,-0.07027562496358021,1411.7216117216117,-1.0,60.253754213913574,0.718660826255155,
2023-08-12 14:30:37.583000,-8.771084337349398,-0.8072289156626506,-4.349397590361446,-0.7308399754751685,-8.625996321275291,-4.080931943592888,3.0,0.7177267177267178,1393.2879678317352,-0.1503408892255689,-0.042654856943067726,-0.07074179826350442,1417.5824175824175,-1.0,60.253754213913574,0.7186550544401912,
2023-08-12 14:30:37.591000,-8.759036144578314,-0.7951807228915663,-4.337349397590362,-0.7480073574494175,-8.662783568362967,-4.051502145922747,3.0,0.7181707181707182,1392.4265842349305,0.08053143756191421,-0.37876580618845096,-0.039624730493560766,1424.9084249084249,-1.0,60.253754213913574,0.718649324842928,
2023-08-12 14:30:37.599000,-8.759036144578314,-0.819277108433735,-4.349397590361446,-0.7308399754751685,-8.648068669527897,-4.029429797670141,3.0,0.7181707181707182,1392.4265842349305,-0.16549152147310714,-0.04253831361808689,-0.23588368976166904,1435.164835164835,-1.0,60.253754213913574,0.7186436385163875,
2023-08-12 14:30:37.606000,-8.74698795180723,-0.819277108433735,-4.373493975903615,-0.7063151440833844,-8.623543838136113,-4.019619865113427,3.0,0.7181707181707182,1392.4265842349305,-0.23914690286113813,-0.39379989511100666,0.4224695530563488,1443.956043956044,-1.0,60.253754213913574,0.718637996499862,
2023-08-12 14:30:37.614000,-8.759036144578314,-0.8313253012048193,-4.349397590361446,-0.7872470876762722,-8.62844880441447,-4.053954629061925,3.0,0.7181707181707182,1392.4265842349305,-0.007458772798787419,-0.2229473806887706,0.17796165724608137,1449.8168498168498,-1.0,60.253754213913574,0.718632399679761,
2023-08-12 14:30:37.621000,-8.734939759036145,-0.8313253012048193,-4.349397590361446,-0.7602697731453096,-8.616186388718576,-4.029429797670141,3.0,0.7181707181707182,1392.4265842349305,-0.2483538255346433,0.4815570188217466,0.313385000874075,1453.4798534798533,-1.0,60.253754213913574,0.7186268487897405,
2023-08-12 14:30:37.629000,-8.734939759036145,-0.819277108433735,-4.349397590361446,-0.7504598405885959,-8.606376456161863,-4.022072348252606,3.0,0.7181707181707182,1392.4265842349305,-0.382262105937883,-0.17959326379581614,0.4605792203251557,1454.212454212454,-1.0,60.253754213913574,0.7186213444113622,
2023-08-12 14:30:37.637000,-8.759036144578314,-0.8433734939759037,-4.36144578313253,-0.7431023911710607,-8.635806253832005,-4.004904966278357,3.0,0.7181707181707182,1392.4265842349305,-0.19322883281860004,-0.11817493153079728,0.422935726356273,1454.212454212454,-1.0,60.253754213913574,0.7186158869752823,
2023-08-12 14:30:37.644000,-8.771084337349398,-0.8433734939759037,-4.36144578313253,-0.7381974248927038,-8.645616186388718,-4.041692213366033,3.0,0.7181707181707182,1392.4265842349305,-0.13041198065380769,-0.13274284715342963,0.432375735679739,1452.014652014652,-1.0,60.253754213913574,0.7186104767629631,
2023-08-12 14:30:37.652000,-8.759036144578314,-0.8313253012048193,-4.36144578313253,-0.7798896382587369,-8.625996321275291,-4.029429797670141,3.0,0.7181707181707182,1392.4265842349305,0.008391119398635847,-0.20581551191655467,0.334595886020628,1446.8864468864467,-1.0,60.253754213913574,0.7186051139089108,
2023-08-12 14:30:37.660000,-8.74698795180723,-0.8072289156626506,-4.349397590361446,-0.7308399754751685,-8.601471489883506,-3.987737584304108,3.0,0.7181707181707182,1392.4265842349305,-0.17469844414661231,-0.1559349688246612,0.20791329176621406,1440.2930402930401,-1.0,60.253754213913574,0.7185997984034176,
2023-08-12 14:30:37.667000,-8.734939759036145,-0.819277108433735,-4.36144578313253,-0.7749846719803801,-8.640711220110362,-4.044144696505211,3.0,0.7181707181707182,1392.4265842349305,0.07039216828856061,-0.07773439776236893,0.2639706310821049,1430.7692307692307,-1.0,60.253754213913574,0.7185945300958113,
2023-08-12 14:30:37.675000,-8.74698795180723,-0.819277108433735,-4.349397590361446,-0.7234825260576333,-8.584304107909258,-4.026977314530963,3.0,0.7181707181707182,1392.4265842349305,0.09941145620884616,-0.14066779325214213,0.0011654332498105342,1422.7106227106226,-1.0,60.253754213913574,0.71858930869819,
2023-08-12 14:30:37.683000,-8.759036144578314,-0.8072289156626506,-4.349397590361446,-0.7185775597792765,-8.58185162477008,-4.053954629061925,3.0,0.7181707181707182,1392.4265842349305,0.16001398519899743,-0.3701416001398517,-0.06211759221490603,1416.117216117216,-1.0,60.253754213913574,0.7185841337896371,
2023-08-12 14:30:37.690000,-8.72289156626506,-0.7951807228915663,-4.36144578313253,-0.7112201103617413,-8.603923973022685,-4.022072348252606,3.0,0.7181707181707182,1392.4265842349305,0.15756657537439464,-0.2288910902628054,0.061534875590000544,1411.7216117216117,-1.0,60.253754213913574,0.7185790048208912,
2023-08-12 14:30:37.698000,-8.72289156626506,-0.7951807228915663,-4.36144578313253,-0.7112201103617413,-8.613733905579398,-4.036787247087676,3.0,0.7181707181707182,1392.4265842349305,-0.27259483713070415,-0.09067070683526607,-0.04568498339257598,1409.5238095238094,-1.0,60.253754213913574,0.7185739211194605,
2023-08-12 14:30:37.706000,-8.734939759036145,-0.7951807228915663,-4.36144578313253,-0.6523605150214592,-8.652973635806253,-4.036787247087676,3.0,0.7181707181707182,1392.4265842349305,-0.1214381446302659,0.07715168113746301,-0.2617563079074646,1408.7912087912086,-1.0,60.253754213913574,0.7185688818951583,
2023-08-12 14:30:37.713000,-8.734939759036145,-0.819277108433735,-4.36144578313253,-0.7283874923359902,-8.608828939301041,-4.019619865113427,3.0,0.7181707181707182,1392.4265842349305,-0.10582133908280432,-0.13752112347765258,0.07820057106229227,1408.7912087912086,-1.0,60.253754213913574,0.718563886246039,
2023-08-12 14:30:37.721000,-8.74698795180723,-0.7951807228915663,-4.36144578313253,-0.7283874923359902,-8.613733905579398,-4.012262415695892,3.0,0.7181707181707182,1392.4265842349305,0.06001981236524707,-0.24544024241011544,-0.2098945282908922,1409.5238095238094,-1.0,60.253754213913574,0.7185589331647109,
2023-08-12 14:30:37.729000,-8.734939759036145,-0.783132530120482,-4.36144578313253,-0.6670754138565297,-8.625996321275291,-4.031882280809319,3.0,0.7177267177267178,1393.2879678317352,-0.21665404113979328,0.04486918011770882,-0.0532602995163451,1411.7216117216117,-1.0,60.253754213913574,0.7185540215450039,
2023-08-12 14:30:37.736000,-8.72289156626506,-0.783132530120482,-4.349397590361446,-0.6621704475781729,-8.61128142244022,-4.017167381974248,3.0,0.7177267177267178,1393.2879678317352,0.011887419148067882,-0.30674203135015515,-0.12843074412913,1416.117216117216,-1.0,60.253754213913574,0.7185491501784173,
2023-08-12 14:30:37.744000,-8.771084337349398,-0.7710843373493976,-4.36144578313253,-0.703862660944206,-8.633353770692827,-4.053954629061925,3.0,0.7181707181707182,1392.4265842349305,-0.3245731600722561,-0.21315774139036126,0.20849600839111954,1419.7802197802198,-1.0,60.253754213913574,0.7185443175804058,
2023-08-12 14:30:37.752000,-8.759036144578314,-0.783132530120482,-4.349397590361446,-0.7014101778050276,-8.625996321275291,-3.995095033721643,3.0,0.7181707181707182,1392.4265842349305,-0.0037293863993937094,-0.30277955830079806,-0.03671114736903465,1420.5128205128203,-1.0,60.253754213913574,0.7185395221566879,
2023-08-12 14:30:37.759000,-8.74698795180723,-0.783132530120482,-4.36144578313253,-0.7700797057020232,-8.618638871857755,-4.073574494175352,3.0,0.7181707181707182,1392.4265842349305,-0.06701241186411114,-0.17796165724608096,0.010022725948371463,1416.8498168498168,-1.0,60.253754213913574,0.7185347623801501,
2023-08-12 14:30:37.767000,-8.734939759036145,-0.8072289156626506,-4.349397590361446,-0.7357449417535254,-8.660331085223788,-4.046597179644389,3.0,0.7181707181707182,1392.4265842349305,-0.09929491288386533,-0.11514480508128859,0.45533477070100803,1410.989010989011,-1.0,60.253754213913574,0.7185300365208045,
2023-08-12 14:30:37.775000,-8.74698795180723,-0.7951807228915663,-4.373493975903615,-0.7136725935009196,-8.564684242795831,-4.073574494175352,3.0,0.7181707181707182,1392.4265842349305,-0.05477536274109902,-0.08530971388613719,-0.23460171318687725,1403.6630036630036,-1.0,60.253754213913574,0.7185253428125811,
2023-08-12 14:30:37.782000,-8.734939759036145,-0.7951807228915663,-4.349397590361446,-0.6597179644389944,-8.572041692213366,-4.019619865113427,3.0,0.7181707181707182,1392.4265842349305,0.11211467863178164,-0.20546588194161217,0.08565934386108055,1394.8717948717947,-1.0,60.253754213913574,0.7185206795887759,
2023-08-12 14:30:37.790000,-8.734939759036145,-0.8072289156626506,-4.349397590361446,-0.7308399754751685,-8.579399141630901,-4.051502145922747,3.0,0.7181707181707182,1392.4265842349305,-0.05594079599090911,-0.1712021443971803,0.26688421420663144,1386.8131868131868,-1.0,60.253754213913574,0.7185160451409449,
2023-08-12 14:30:37.798000,-8.72289156626506,-0.8072289156626506,-4.36144578313253,-0.6621704475781729,-8.594114040465971,-4.041692213366033,3.0,0.7181707181707182,1392.4265842349305,-0.08612551716100478,-0.26408717440708573,0.0644484587145271,1379.4871794871794,-1.0,60.253754213913574,0.7185114377272105,
2023-08-12 14:30:37.805000,-8.72289156626506,-0.7710843373493976,-4.337349397590362,-0.6940527283874923,-8.586756591048436,-4.01471489883507,3.0,0.7181707181707182,1392.4265842349305,-0.03997436046850501,-0.04953091311695096,0.09474972320960316,1374.3589743589744,-1.0,60.253754213913574,0.7185068555806672,
2023-08-12 14:30:37.813000,-8.72289156626506,-0.7951807228915663,-4.349397590361446,-0.7308399754751685,-8.625996321275291,-4.017167381974248,3.0,0.7181707181707182,1392.4265842349305,0.3725890099644545,0.08764058038575911,-0.04277140026804986,1370.6959706959706,-1.0,60.253754213913574,0.718502296917848,
2023-08-12 14:30:37.821000,-8.759036144578314,-0.7710843373493976,-4.349397590361446,-0.6621704475781729,-8.56713672593501,-4.026977314530963,3.0,0.7181707181707182,1392.4265842349305,-0.10220849600839145,0.1942777227434293,0.18600314666977427,1369.9633699633698,-1.0,60.253754213913574,0.7184977599472253,
2023-08-12 14:30:37.828000,-8.74698795180723,-0.783132530120482,-4.373493975903615,-0.6842427958307786,-8.606376456161863,-4.024524831391784,3.0,0.7181707181707182,1392.4265842349305,0.05127906299166698,-0.15686731542450963,-0.04661732999242484,1372.161172161172,-1.0,60.253754213913574,0.7184932428777152,
2023-08-12 14:30:37.836000,-8.74698795180723,-0.8072289156626506,-4.373493975903615,-0.6793378295524218,-8.613733905579398,-4.031882280809319,3.0,0.7181707181707182,1392.4265842349305,0.4953091311695131,0.013635569022783902,-0.18518734339490714,1376.5567765567764,-1.0,60.253754213913574,0.7184887439271559,
2023-08-12 14:30:37.844000,-8.759036144578314,-0.8072289156626506,-4.385542168674699,-0.7381974248927038,-8.62844880441447,-3.995095033721643,3.0,0.7181707181707182,1392.4265842349305,0.4463609346774663,-0.10687022900763359,-0.04685041664238695,1379.4871794871794,-1.0,60.253754213913574,0.7184842613307274,
2023-08-12 14:30:37.851000,-8.759036144578314,-0.7710843373493976,-4.373493975903615,-0.6842427958307786,-8.608828939301041,-4.041692213366033,3.0,0.7181707181707182,1392.4265842349305,0.12178777460521016,0.04836547986714086,-0.04824893654215959,1383.8827838827838,-1.0,60.253754213913574,0.7184797933492831,
2023-08-12 14:30:37.859000,-8.74698795180723,-0.7951807228915663,-4.36144578313253,-0.7381974248927038,-8.574494175352545,-4.026977314530963,3.0,0.7177267177267178,1393.2879678317352,0.12073888468037916,0.049064739817027615,-0.04906473981702718,1387.5457875457876,-1.0,60.253754213913574,0.7184753382775665,
2023-08-12 14:30:37.867000,-8.74698795180723,-0.7951807228915663,-4.349397590361446,-0.6621704475781729,-8.56713672593501,-4.039239730226854,3.0,0.7181707181707182,1392.4265842349305,0.37760037293863913,-0.2988170852514427,-0.24998543208437718,1391.9413919413919,-1.0,60.253754213913574,0.7184708943029823,
2023-08-12 14:30:37.874000,-8.72289156626506,-0.7951807228915663,-4.373493975903615,-0.7357449417535254,-8.650521152667075,-4.031882280809319,3.0,0.7181707181707182,1392.4265842349305,0.05547462269098577,-0.12575024765456555,-0.24951925878445297,1397.069597069597,-1.0,60.253754213913574,0.7184664596409097,
2023-08-12 14:30:37.882000,-8.74698795180723,-0.783132530120482,-4.36144578313253,-0.7381974248927038,-8.616186388718576,-4.029429797670141,3.0,0.7177267177267178,1393.2879678317352,0.10232503933337228,-0.2776062001048888,-0.18681894994464188,1400.0,-1.0,60.253754213913574,0.7184620327013269,
2023-08-12 14:30:37.890000,-8.759036144578314,-0.783132530120482,-4.385542168674699,-0.7087676272225628,-8.625996321275291,-4.007357449417535,3.0,0.7177267177267178,1393.2879678317352,0.4236349863061598,-0.2453236990851346,-0.001631606549734748,1402.197802197802,-1.0,60.253754213913574,0.7184576119467905,
2023-08-12 14:30:37.897000,-8.74698795180723,-0.8072289156626506,-4.349397590361446,-0.7529123237277743,-8.606376456161863,-4.004904966278357,3.0,0.7181707181707182,1392.4265842349305,0.2524328419089795,-0.014684458947613166,-0.06200104888992476,1405.128205128205,-1.0,60.253754213913574,0.7184531958572028,
2023-08-12 14:30:37.905000,-8.74698795180723,-0.7951807228915663,-4.385542168674699,-0.7161250766400981,-8.623543838136113,-4.036787247087676,3.0,0.7181707181707182,1392.4265842349305,0.054192646116193094,-0.18145795699551298,-9.323465998484274E-4,1403.6630036630036,-1.0,60.253754213913574,0.7184487829361739,
2023-08-12 14:30:37.913000,-8.72289156626506,-0.8072289156626506,-4.36144578313253,-0.7087676272225628,-8.613733905579398,-4.073574494175352,3.0,0.7181707181707182,1392.4265842349305,-0.008158032748674174,-0.10092651943359877,-0.018996561971913226,1403.6630036630036,-1.0,60.253754213913574,0.7184443717589696,
2023-08-12 14:30:37.920000,-8.734939759036145,-0.8072289156626506,-4.36144578313253,-0.7210300429184548,-8.589209074187615,-4.066217044757817,3.0,0.7181707181707182,1392.4265842349305,0.32760328652176485,-0.006176796223996482,-0.24753802225977525,1403.6630036630036,-1.0,60.253754213913574,0.7184399609884358,
2023-08-12 14:30:37.928000,-8.759036144578314,-0.8072289156626506,-4.349397590361446,-0.7087676272225628,-8.616186388718576,-4.022072348252606,3.0,0.7177267177267178,1393.2879678317352,0.2793543499796048,0.3306334129712718,-0.14078433657712253,1405.128205128205,-1.0,60.253754213913574,0.7184355493800739,
2023-08-12 14:30:37.936000,-8.734939759036145,-0.8072289156626506,-4.36144578313253,-0.7161250766400981,-8.613733905579398,-4.01471489883507,3.0,0.7181707181707182,1392.4265842349305,0.050113629741856874,-0.3129188275741499,-0.10943418215721676,1407.3260073260071,-1.0,60.253754213913574,0.7184311356374948,
2023-08-12 14:30:37.943000,-8.759036144578314,-0.8072289156626506,-4.349397590361446,-0.7529123237277743,-8.591661557326793,-4.044144696505211,3.0,0.7177267177267178,1393.2879678317352,-0.011304702523163701,-0.2939222656022371,-0.2623390245323697,1408.7912087912086,-1.0,60.253754213913574,0.7184267185442537,
2023-08-12 14:30:37.951000,-8.74698795180723,-0.8072289156626506,-4.373493975903615,-0.7357449417535254,-8.601471489883506,-4.071122011036174,3.0,0.7181707181707182,1392.4265842349305,0.08076452421187588,-0.30650894470019174,-0.04801584989219748,1407.3260073260071,-1.0,60.253754213913574,0.718422296977572,
2023-08-12 14:30:37.959000,-8.759036144578314,-0.8072289156626506,-4.349397590361446,-0.745554874310239,-8.586756591048436,-4.019619865113427,3.0,0.7181707181707182,1392.4265842349305,0.3389079890449268,-0.21315774139036126,-0.23285356331216123,1406.5934065934066,-1.0,60.253754213913574,0.718417869900554,
2023-08-12 14:30:37.966000,-8.74698795180723,-0.819277108433735,-4.397590361445784,-0.6866952789699571,-8.618638871857755,-4.068669527896995,3.0,0.7181707181707182,1392.4265842349305,0.48819998834566813,-0.029485461220208904,-0.3093059844997379,1405.8608058608058,-1.0,60.253754213913574,0.7184134365243259,
2023-08-12 14:30:37.974000,-8.74698795180723,-0.8072289156626506,-4.349397590361446,-0.7161250766400981,-8.630901287553648,-4.053954629061925,3.0,0.7181707181707182,1392.4265842349305,0.22469553056348662,-0.2583765514830143,0.07435464133791729,1406.5934065934066,-1.0,60.253754213913574,0.7184089961719635,
2023-08-12 14:30:37.981000,-8.759036144578314,-0.8072289156626506,-4.337349397590362,-0.7014101778050276,-8.61128142244022,-4.019619865113427,3.0,0.7181707181707182,1392.4265842349305,0.16094633179884585,-0.21257502476545706,-0.12598333430452766,1406.5934065934066,-1.0,60.253754213913574,0.7184045482808274,
2023-08-12 14:30:37.989000,-8.74698795180723,-0.819277108433735,-4.337349397590362,-0.7112201103617413,-8.677498467198038,-4.07847946045371,3.0,0.7177267177267178,1393.2879678317352,0.38972087873667044,-0.1335586504282972,-0.11036652875706562,1406.5934065934066,-1.0,60.253754213913574,0.718400092404563,
2023-08-12 14:30:37.997000,-8.759036144578314,-0.7951807228915663,-4.385542168674699,-0.6719803801348866,-8.621091354996935,-4.071122011036174,3.0,0.7181707181707182,1392.4265842349305,0.46151156692500456,-0.009906182623390191,-0.04650078666744357,1405.8608058608058,-1.0,60.253754213913574,0.718395628065475,
2023-08-12 14:30:38.004000,-8.771084337349398,-0.819277108433735,-4.36144578313253,-0.7014101778050276,-8.660331085223788,-4.066217044757817,3.0,0.7181707181707182,1392.4265842349305,0.13507371365304982,-0.3304003263213101,-0.03193287104481081,1402.9304029304028,-1.0,60.253754213913574,0.7183911548832838,
2023-08-12 14:30:38.012000,-8.734939759036145,-0.7951807228915663,-4.337349397590362,-0.7308399754751685,-8.591661557326793,-4.026977314530963,3.0,0.7181707181707182,1392.4265842349305,0.3917021152613481,-0.2487034555095858,-0.1527882990501721,1395.6043956043954,-1.0,60.253754213913574,0.7183866727350727,
2023-08-12 14:30:38.020000,-8.759036144578314,-0.8072289156626506,-4.373493975903615,-0.7234825260576333,-8.608828939301041,-4.009809932556713,3.0,0.7181707181707182,1392.4265842349305,0.20336810209195189,-0.15465299224986853,-0.45638366062583774,1389.0109890109889,-1.0,60.253754213913574,0.7183821816170475,
2023-08-12 14:30:38.027000,-8.74698795180723,-0.8072289156626506,-4.349397590361446,-0.7381974248927038,-8.599019006744328,-4.046597179644389,3.0,0.7177267177267178,1393.2879678317352,0.09102033681020859,-0.30639240137521095,-0.16444263154827787,1383.8827838827838,-1.0,60.253754213913574,0.7183776816447344,
2023-08-12 14:30:38.035000,-8.759036144578314,-0.7951807228915663,-4.349397590361446,-0.6866952789699571,-8.59656652360515,-4.056407112201104,3.0,0.7172827172827172,1394.150417827298,-0.11211467863178164,-0.06001981236524707,-0.19532661266825943,1379.4871794871794,-1.0,60.253754213913574,0.7183731729035878,
2023-08-12 14:30:38.043000,-8.74698795180723,-0.7951807228915663,-4.36144578313253,-0.6842427958307786,-8.599019006744328,-4.031882280809319,3.0,0.7177267177267178,1393.2879678317352,0.2849484295786954,-0.24310937591049522,-0.16327719829846735,1379.4871794871794,-1.0,60.253754213913574,0.7183686555549302,
2023-08-12 14:30:38.050000,-8.74698795180723,-0.819277108433735,-4.36144578313253,-0.7136725935009196,-8.530349478847333,-4.004904966278357,3.0,0.7177267177267178,1393.2879678317352,0.12924654740399757,-0.13484062700308813,-0.19019870636909264,1383.150183150183,-1.0,60.253754213913574,0.7183641299202553,
2023-08-12 14:30:38.058000,-8.74698795180723,-0.8072289156626506,-4.409638554216868,-0.7063151440833844,-8.652973635806253,-4.026977314530963,3.0,0.7181707181707182,1392.4265842349305,-0.08857292698560755,0.04894819649204678,-0.09731367635918634,1386.080586080586,-1.0,60.253754213913574,0.7183595962229922,
2023-08-12 14:30:38.066000,-8.759036144578314,-0.8072289156626506,-4.349397590361446,-0.6989576946658491,-8.640711220110362,-3.9730226854690374,3.0,0.7181707181707182,1392.4265842349305,0.18903327311928123,-0.19089796631897982,-0.21933453761435817,1390.4761904761904,-1.0,60.253754213913574,0.7183550547661965,
2023-08-12 14:30:38.073000,-8.734939759036145,-0.8072289156626506,-4.325301204819278,-0.7431023911710607,-8.608828939301041,-3.990190067443286,3.0,0.7177267177267178,1393.2879678317352,0.15733348872443298,-0.02086125517160965,-0.2633879144571994,1394.8717948717947,-1.0,60.253754213913574,0.7183505060992811,
2023-08-12 14:30:38.081000,-8.759036144578314,-0.783132530120482,-4.349397590361446,-0.7063151440833844,-8.608828939301041,-4.041692213366033,3.0,0.7181707181707182,1392.4265842349305,-0.14579569955130758,-0.4174581900821633,-0.12330283782996321,1399.2673992673992,-1.0,60.253754213913574,0.7183459507268469,
2023-08-12 14:30:38.089000,-8.759036144578314,-0.819277108433735,-4.349397590361446,-0.7406499080318822,-8.579399141630901,-4.024524831391784,3.0,0.7181707181707182,1392.4265842349305,-0.1279645708292049,-0.2473049356098123,0.07656896451255753,1402.197802197802,-1.0,60.253754213913574,0.7183413892328135,
2023-08-12 14:30:38.096000,-8.734939759036145,-0.7951807228915663,-4.337349397590362,-0.7700797057020232,-8.594114040465971,-4.063764561618639,3.0,0.7181707181707182,1392.4265842349305,0.25453062175863805,-0.1074529456325395,-0.1844880834450208,1405.128205128205,-1.0,60.253754213913574,0.7183368224359397,
2023-08-12 14:30:38.104000,-8.771084337349398,-0.819277108433735,-4.36144578313253,-0.7651747394236664,-8.660331085223788,-4.017167381974248,3.0,0.7181707181707182,1392.4265842349305,0.23914690286113813,-0.22702639706310856,-0.18204067362041845,1403.6630036630036,-1.0,60.253754213913574,0.7183322512473632,
2023-08-12 14:30:38.112000,-8.74698795180723,-0.8072289156626506,-4.337349397590362,-0.7185775597792765,-8.623543838136113,-4.041692213366033,3.0,0.7181707181707182,1392.4265842349305,0.14544606957636508,-0.10127614940854301,-0.3175805605733929,1400.7326007326005,-1.0,60.253754213913574,0.7183276766668224,
2023-08-12 14:30:38.119000,-8.759036144578314,-0.8072289156626506,-4.325301204819278,-0.7381974248927038,-8.638258736971183,-3.9705702023298586,3.0,0.7181707181707182,1392.4265842349305,-0.10150923605850469,-0.23634986306159284,0.005827166249053105,1397.069597069597,-1.0,60.253754213913574,0.7183230997788271,
2023-08-12 14:30:38.127000,-8.74698795180723,-0.819277108433735,-4.337349397590362,-0.7651747394236664,-8.56713672593501,-4.007357449417535,3.0,0.7181707181707182,1392.4265842349305,0.036244974069109565,0.04148942369325762,-0.010721985898257782,1395.6043956043954,-1.0,60.253754213913574,0.7183185217488142,
2023-08-12 14:30:38.135000,-8.74698795180723,-0.8072289156626506,-4.349397590361446,-0.6817903126916002,-8.603923973022685,-4.024524831391784,3.0,0.7181707181707182,1392.4265842349305,0.036011887419147896,0.04347066021793532,-0.009440009323465979,1391.2087912087911,-1.0,60.253754213913574,0.7183139438193034,
2023-08-12 14:30:38.142000,-8.74698795180723,-0.8313253012048193,-4.385542168674699,-0.7259350091968118,-8.618638871857755,-4.034334763948498,3.0,0.7177267177267178,1393.2879678317352,-0.0692267350387505,-0.04696695996736735,-0.22178194743896051,1387.5457875457876,-1.0,60.253754213913574,0.7183093673060822,
2023-08-12 14:30:38.150000,-8.734939759036145,-0.7951807228915663,-4.36144578313253,-0.7210300429184548,-8.606376456161863,-4.07602697731453,3.0,0.7177267177267178,1393.2879678317352,0.16187867839869427,-0.15441990559990684,-0.03880892721869361,1383.150183150183,-1.0,60.253754213913574,0.7183047934451402,
2023-08-12 14:30:38.158000,-8.74698795180723,-0.819277108433735,-4.373493975903615,-0.7431023911710607,-8.613733905579398,-3.990190067443286,3.0,0.7177267177267178,1393.2879678317352,0.15978089854903574,-0.07610279121263375,-0.1745819008216306,1380.952380952381,-1.0,60.253754213913574,0.7183002235058407,
2023-08-12 14:30:38.165000,-8.734939759036145,-0.819277108433735,-4.337349397590362,-0.745554874310239,-8.589209074187615,-4.0,3.0,0.7181707181707182,1392.4265842349305,0.09579861313443329,-0.015616805547461593,-0.06433191538954583,1380.952380952381,-1.0,60.253754213913574,0.7182956587652315,
2023-08-12 14:30:38.173000,-8.734939759036145,-0.8072289156626506,-4.325301204819278,-0.733292458614347,-8.638258736971183,-4.049049662783568,3.0,0.7181707181707182,1392.4265842349305,-0.027620768020512047,-0.31909562379814643,-0.11071615873200856,1385.3479853479853,-1.0,60.253754213913574,0.7182911005243309,
2023-08-12 14:30:38.181000,-8.74698795180723,-0.819277108433735,-4.337349397590362,-0.7553648068669527,-8.613733905579398,-4.026977314530963,3.0,0.7181707181707182,1392.4265842349305,0.07866674436221735,0.0025639531495836093,-0.3084901812248703,1389.7435897435896,-1.0,60.253754213913574,0.7182865504123884,
2023-08-12 14:30:38.188000,-8.74698795180723,-0.8072289156626506,-4.325301204819278,-0.7725321888412017,-8.645616186388718,-4.004904966278357,3.0,0.7172827172827172,1394.150417827298,0.17015325447234927,0.0017481498747160184,0.07785094108734933,1395.6043956043954,-1.0,60.253754213913574,0.7182820102237452,
2023-08-12 14:30:38.196000,-8.759036144578314,-0.819277108433735,-4.349397590361446,-0.6842427958307786,-8.665236051502145,-4.07602697731453,3.0,0.7177267177267178,1393.2879678317352,-0.06118524561505717,0.1707359710972552,-0.2899597925528813,1402.197802197802,-1.0,60.253754213913574,0.718277481606158,
2023-08-12 14:30:38.204000,-8.74698795180723,-0.8072289156626506,-4.349397590361446,-0.7602697731453096,-8.652973635806253,-4.073574494175352,3.0,0.7177267177267178,1393.2879678317352,0.014567915622632328,-0.19765747916788048,0.4308606724549851,1406.5934065934066,-1.0,60.253754213913574,0.7182729660046518,
2023-08-12 14:30:38.211000,-8.72289156626506,-0.8072289156626506,-4.325301204819278,-0.7112201103617413,-8.613733905579398,-4.01471489883507,3.0,0.7177267177267178,1393.2879678317352,-0.04953091311695096,-0.2421770293106468,-0.2151389779150398,1408.7912087912086,-1.0,60.253754213913574,0.7182684648273439,
2023-08-12 14:30:38.219000,-8.734939759036145,-0.819277108433735,-4.36144578313253,-0.745554874310239,-8.677498467198038,-4.044144696505211,3.0,0.7181707181707182,1392.4265842349305,-0.051395606316647816,-0.22329701066371485,-0.16735621467280487,1410.2564102564102,-1.0,60.253754213913574,0.7182639793124342,
2023-08-12 14:30:38.227000,-8.74698795180723,-0.819277108433735,-4.337349397590362,-0.7381974248927038,-8.586756591048436,-4.009809932556713,3.0,0.7177267177267178,1393.2879678317352,0.0874074937357957,-0.20546588194161217,-0.1963755025930887,1411.7216117216117,-1.0,60.253754213913574,0.7182595108316814,
2023-08-12 14:30:38.234000,-8.74698795180723,-0.8072289156626506,-4.349397590361446,-0.762722256284488,-8.61128142244022,-4.068669527896995,3.0,0.7181707181707182,1392.4265842349305,0.20872909504108078,-0.12691568090437563,-0.22644368043820307,1410.2564102564102,-1.0,60.253754213913574,0.7182550608855317,
2023-08-12 14:30:38.242000,-8.759036144578314,-0.8072289156626506,-4.337349397590362,-0.7185775597792765,-8.648068669527897,-4.004904966278357,3.0,0.7177267177267178,1393.2879678317352,0.1906648796690164,-0.01794767204708353,-0.10185886603344807,1405.8608058608058,-1.0,60.253754213913574,0.7182506309392347,
2023-08-12 14:30:38.250000,-8.734939759036145,-0.8072289156626506,-4.349397590361446,-0.7578172900061312,-8.599019006744328,-3.995095033721643,3.0,0.7181707181707182,1392.4265842349305,0.11362974185653599,0.1818075869704555,-0.1928792028436571,1400.0,-1.0,60.253754213913574,0.7182462224293474,
2023-08-12 14:30:38.257000,-8.759036144578314,-0.8313253012048193,-4.349397590361446,-0.7431023911710607,-8.65787860208461,-4.063764561618639,3.0,0.7181707181707182,1392.4265842349305,-0.026804964745644456,0.18122487034555132,-0.19171376959384656,1394.8717948717947,-1.0,60.253754213913574,0.718241836749239,
2023-08-12 14:30:38.265000,-8.759036144578314,-0.8313253012048193,-4.36144578313253,-0.7283874923359902,-8.633353770692827,-3.997547516860821,3.0,0.7177267177267178,1393.2879678317352,0.18611968999475512,0.04405337684284123,-0.02307557834624988,1391.9413919413919,-1.0,60.253754213913574,0.7182374754050365,
2023-08-12 14:30:38.273000,-8.759036144578314,-0.8072289156626506,-4.313253012048193,-0.7700797057020232,-8.56713672593501,-4.080931943592888,3.0,0.7177267177267178,1393.2879678317352,0.12318629450498193,0.061068702290076333,-0.0071091428238449095,1389.0109890109889,-1.0,60.253754213913574,0.7182331397246099,
2023-08-12 14:30:38.280000,-8.795180722891567,-0.8072289156626506,-4.337349397590362,-0.7578172900061312,-8.630901287553648,-4.071122011036174,3.0,0.7181707181707182,1392.4265842349305,-0.017714585397121858,-0.0904376201853044,0.02389138162111747,1387.5457875457876,-1.0,60.253754213913574,0.7182288308329488,
2023-08-12 14:30:38.288000,-8.759036144578314,-0.8072289156626506,-4.337349397590362,-0.7136725935009196,-8.601471489883506,-4.041692213366033,3.0,0.7177267177267178,1393.2879678317352,0.028203484645416232,-0.07388846803799265,0.2204999708641687,1386.080586080586,-1.0,60.253754213913574,0.7182245499360224,
2023-08-12 14:30:38.296000,-8.759036144578314,-0.819277108433735,-4.325301204819278,-0.7504598405885959,-8.65787860208461,-4.026977314530963,3.0,0.7177267177267178,1393.2879678317352,0.07330575141308847,-0.19590932929316449,0.1745819008216306,1384.6153846153845,-1.0,60.253754213913574,0.7182202981892569,
2023-08-12 14:30:38.303000,-8.759036144578314,-0.8313253012048193,-4.349397590361446,-0.6866952789699571,-8.655426118945432,-4.022072348252606,3.0,0.7177267177267178,1393.2879678317352,0.22586096381329673,0.036478060719072974,0.12947963405395968,1385.3479853479853,-1.0,60.253754213913574,0.7182160765346005,
2023-08-12 14:30:38.311000,-8.734939759036145,-0.819277108433735,-4.349397590361446,-0.7161250766400981,-8.603923973022685,-4.031882280809319,3.0,0.7177267177267178,1393.2879678317352,0.08717440708583403,-0.19089796631897982,0.1152613484062703,1388.278388278388,-1.0,60.253754213913574,0.7182118858355921,
2023-08-12 14:30:38.319000,-8.771084337349398,-0.8313253012048193,-4.337349397590362,-0.7553648068669527,-8.61128142244022,-4.039239730226854,3.0,0.7177267177267178,1393.2879678317352,0.025989161470776866,-0.09882873958394024,0.009556552648446815,1394.139194139194,-1.0,60.253754213913574,0.7182077268738308,
2023-08-12 14:30:38.326000,-8.734939759036145,-0.8313253012048193,-4.349397590361446,-0.7529123237277743,-8.591661557326793,-4.036787247087676,3.0,0.7181707181707182,1392.4265842349305,-0.08297884738651524,-0.37072431676475764,0.34578404521881,1400.7326007326005,-1.0,60.253754213913574,0.7182036003456117,
2023-08-12 14:30:38.334000,-8.734939759036145,-0.8674698795180723,-4.36144578313253,-0.7308399754751685,-8.652973635806253,-3.960760269773145,3.0,0.7181707181707182,1392.4265842349305,-0.12854728745411081,-0.31804673387331717,0.20826292174115743,1407.3260073260071,-1.0,60.253754213913574,0.718199507008055,
2023-08-12 14:30:38.342000,-8.74698795180723,-0.8313253012048193,-4.349397590361446,-0.7553648068669527,-8.652973635806253,-4.063764561618639,3.0,0.7172827172827172,1394.150417827298,-0.04859856651710253,0.06945982168871218,0.07062525493852315,1411.7216117216117,-1.0,60.253754213913574,0.7181954475592809,
2023-08-12 14:30:38.349000,-8.74698795180723,-0.8433734939759037,-4.337349397590362,-0.7283874923359902,-8.623543838136113,-4.022072348252606,3.0,0.7177267177267178,1393.2879678317352,-0.03426373754443188,-0.01969582192179955,-0.06608006526426184,1413.1868131868132,-1.0,60.253754213913574,0.7181914224979276,
2023-08-12 14:30:38.357000,-8.771084337349398,-0.8313253012048193,-4.373493975903615,-0.7553648068669527,-8.599019006744328,-4.039239730226854,3.0,0.7177267177267178,1393.2879678317352,0.013052852397879719,0.1333255637783338,0.303944991550609,1412.4542124542124,-1.0,60.253754213913574,0.7181874323353428,
