Shimmer_F5D4_Timestamp_FormattedUnix_CAL,Shimmer_F5D4_Accel_LN_X_CAL,Shimmer_F5D4_Accel_LN_Y_CAL,Shimmer_F5D4_Accel_LN_Z_CAL,Shimmer_F5D4_Accel_WR_X_CAL,Shimmer_F5D4_Accel_WR_Y_CAL,Shimmer_F5D4_Accel_WR_Z_CAL,Shimmer_F5D4_GSR_Range_CAL,Shimmer_F5D4_GSR_Skin_Conductance_CAL,Shimmer_F5D4_GSR_Skin_Resistance_CAL,Shimmer_F5D4_Gyro_X_CAL,Shimmer_F5D4_Gyro_Y_CAL,Shimmer_F5D4_Gyro_Z_CAL,Shimmer_F5D4_PPG_A13_CAL,Shimmer_F5D4_PPG_IBI_CAL,Shimmer_F5D4_PPGtoHR_CAL,Shimmer_F5D4_GSR_Skin_Conductance_LPF_CAL,Shimmer_F5D4_GSR_Skin_Resistance_LPF_CAL,
yyyy/mm/dd hh:mm:ss.000,m/(s^2),m/(s^2),m/(s^2),m/(s^2),m/(s^2),m/(s^2),no_units,uS,kOhms,deg/s,deg/s,deg/s,mV,ms,BPM,uS,kOhms,
2023-12-13 11:54:02.541000,-7.1084337349397595,-3.204819277108434,5.819277108433735,-3.063151440833844,-7.083384426732066,6.496627835683629,2.0,2.1384615384615384,467.62589928057554,-0.04032399044344752,-0.02214323174640232,0.020278538546704816,1104.7619047619046,-1.0,69.3184782991926,2.0058127213694195,498.6084383503999,
2023-12-13 11:54:02.549000,-7.096385542168675,-3.204819277108434,5.843373493975904,-3.063151440833844,-7.080931943592887,6.52605763335377,2.0,2.1413919413919413,466.9859733150873,0.2206165141891504,-0.3331973661208554,0.09964454285880783,1107.6923076923076,-1.0,69.3184782991926,2.006464792150204,498.44909818062575,
2023-12-13 11:54:02.556000,-7.0843373493975905,-3.216867469879518,5.867469879518072,-3.134273451870018,-7.06131207847946,6.570202329858982,2.0,2.142857142857143,466.6666666666667,-0.024241011596060846,0.014917545597576574,-0.17399918419672514,1106.227106227106,-1.0,69.3184782991926,2.007135054146285,498.28541537504753,
2023-12-13 11:54:02.564000,-7.060240963855422,-3.216867469879518,5.83132530120482,-3.1244635193133043,-7.056407112201104,6.52605763335377,2.0,2.1443223443223443,466.3477963785446,0.3279529164967073,0.16351028494842945,-0.10803566225744433,1106.9597069597069,-1.0,69.3184782991926,2.00782362519653,498.1173681450033,
2023-12-13 11:54:02.572000,-7.072289156626506,-3.1927710843373496,5.855421686746988,-3.1465358675659103,-7.068669527896995,6.528510116492948,2.0,2.1457875457875457,466.02936155684534,-0.3169978439484879,0.5087116135423335,-0.2258609638132976,1109.1575091575091,-1.0,69.3184782991926,2.0085306101722447,497.944938040908,
2023-12-13 11:54:02.579000,-7.1084337349397595,-3.204819277108434,5.83132530120482,-3.0901287553648067,-7.085836909871245,6.550582464745554,2.0,2.147252747252747,465.7113613101331,0.008391119398635847,0.7140609521589649,-0.05360992949128848,1114.2857142857142,-1.0,69.3184782991926,2.009256100756972,497.76811000002203,
2023-12-13 11:54:02.587000,-7.1084337349397595,-3.216867469879518,5.795180722891566,-3.0705088902513795,-7.080931943592887,6.491722869405272,2.0,2.1487179487179486,465.39379474940336,-0.15989744187401658,0.26362100110716236,-0.204416992016782,1117.9487179487178,-1.0,69.3184782991926,2.010000175250255,497.58687238789037,
2023-12-13 11:54:02.595000,-7.1084337349397595,-3.204819277108434,5.819277108433735,-3.1416309012875536,-7.07602697731453,6.467198038013488,2.0,2.1516483516483516,464.75995914198165,-0.20383427539187698,0.25826000815803346,-0.29438843890216176,1119.4139194139193,-1.0,69.3184782991926,2.0107628983958166,497.4012170333533,
2023-12-13 11:54:02.602000,-7.1084337349397595,-3.216867469879518,5.819277108433735,-3.126916002452483,-7.083384426732066,6.496627835683629,2.0,2.1516483516483516,464.75995914198165,0.043121030242992804,-0.1551191655497936,-0.29217411572752156,1119.4139194139193,-1.0,69.3184782991926,2.0115443217271993,497.2111391505561,
2023-12-13 11:54:02.610000,-7.096385542168675,-3.204819277108434,5.891566265060241,-3.0827713059472717,-7.058859595340282,6.555487431023911,2.0,2.153113553113553,464.44368832936374,-0.01713186877221594,0.24380863586038026,-0.07621933453761415,1117.9487179487178,-1.0,69.3184782991926,2.012344483025337,497.0166374517605,
2023-12-13 11:54:02.618000,-7.0843373493975905,-3.216867469879518,5.867469879518072,-3.0999386879215205,-7.068669527896995,6.523605150214592,2.0,2.1545787545787545,464.12784767086026,-0.07703513781248217,0.055824252665928276,0.07656896451255753,1117.9487179487178,-1.0,69.3184782991926,2.0131634056974446,496.81771427602473,
2023-12-13 11:54:02.625000,-7.096385542168675,-3.204819277108434,5.843373493975904,-3.1122011036174126,-7.073574494175352,6.474555487431023,2.0,2.156043956043956,463.8124362895005,0.06304993881475403,0.18914981644426382,-0.02995163452013268,1119.4139194139193,-1.0,69.3184782991926,2.0140010991643575,496.6143754987676,
2023-12-13 11:54:02.633000,-7.096385542168675,-3.204819277108434,5.843373493975904,-3.1367259350091965,-7.083384426732066,6.503985285101164,2.0,2.1575091575091574,463.49745331069613,0.2453236990851346,0.5060311170677692,0.01643260882232962,1121.6117216117216,-1.0,69.3184782991926,2.0148575588155597,496.406630533664,
2023-12-13 11:54:02.640000,-7.1084337349397595,-3.204819277108434,5.819277108433735,-3.080318822808093,-7.080931943592887,6.4990803188228075,2.0,2.158974358974359,463.1828978622328,-0.19719130586795713,0.20861255171609994,-0.02948546122020847,1123.8095238095236,-1.0,69.3184782991926,2.0157327659897653,496.19449232790674,
2023-12-13 11:54:02.648000,-7.0843373493975905,-3.204819277108434,5.83132530120482,-3.055793991416309,-7.088289393010423,6.484365419987737,2.0,2.1604395604395603,462.8687690742625,0.12703222422935648,-0.1903152496940739,-0.1499912592506264,1127.4725274725274,-1.0,69.3184782991926,2.016626687981012,495.97797735087744,
2023-12-13 11:54:02.656000,-7.096385542168675,-3.204819277108434,5.83132530120482,-3.0827713059472717,-7.039239730226854,6.508890251379522,2.0,2.1604395604395603,462.8687690742625,0.033914107569489364,0.5570770934094744,-0.056640055940795866,1130.4029304029302,-1.0,69.3184782991926,2.0175392780701547,495.7571055762712,
2023-12-13 11:54:02.663000,-7.1084337349397595,-3.216867469879518,5.83132530120482,-3.0410790925812385,-7.046597179644389,6.533415082771306,2.0,2.161904761904762,462.55506607929516,0.20068760561738744,-0.060602528990151255,0.23460171318687725,1133.3333333333333,-1.0,69.3184782991926,2.0184704750888742,495.53190056322467,
2023-12-13 11:54:02.671000,-7.0843373493975905,-3.204819277108434,5.819277108433735,-3.055793991416309,-7.068669527896995,6.533415082771306,2.0,2.1633699633699632,462.241788012191,0.260357788007692,-0.0010488899248292638,-0.11654332498106167,1136.9963369963368,-1.0,69.3184782991926,2.019420203429134,495.3023894408876,
2023-12-13 11:54:02.679000,-7.096385542168675,-3.204819277108434,5.807228915662651,-3.0606989576946657,-7.073574494175352,6.496627835683629,2.0,2.1648351648351647,461.9289340101523,0.21280811141541875,0.3182798205232788,-0.16234485169861892,1139.9267399267399,-1.0,69.3184782991926,2.02038837360175,495.0686027743889,
2023-12-13 11:54:02.686000,-7.0843373493975905,-3.180722891566265,5.867469879518072,-3.0901287553648067,-7.063764561618639,6.535867565910484,2.0,2.1633699633699632,462.241788012191,-0.06235067886486727,-0.11129887535691405,0.160829788473865,1141.3919413919414,-1.0,69.3184782991926,2.021374881902876,494.8305746384079,
2023-12-13 11:54:02.694000,-7.0843373493975905,-3.204819277108434,5.855421686746988,-3.043531575720417,-7.10790925812385,6.516247700797057,2.0,2.1648351648351647,461.9289340101523,0.16828856127265243,-0.019462735271837873,-0.0816968708117243,1142.1245421245421,-1.0,69.3184782991926,2.0223796105592573,494.5883425315091,
2023-12-13 11:54:02.702000,-7.096385542168675,-3.2289156626506026,5.867469879518072,-3.122011036174126,-7.031882280809319,6.496627835683629,2.0,2.166300366300366,461.6165032127156,0.17015325447234927,-0.01934619194685704,-0.07773439776236805,1144.3223443223442,-1.0,69.3184782991926,2.0234024276502294,494.3419473794993,
2023-12-13 11:54:02.709000,-7.096385542168675,-3.216867469879518,5.867469879518072,-3.139178418148375,-7.105456774984671,6.496627835683629,2.0,2.1677655677655676,461.30449476174385,-0.014917545597576574,-0.28017015325447236,0.15220558242526663,1145.054945054945,-1.0,69.3184782991926,2.0244431868339725,494.09143362881565,
2023-12-13 11:54:02.717000,-7.096385542168675,-3.204819277108434,5.855421686746988,-3.0876762722256283,-7.078479460453709,6.550582464745554,2.0,2.169230769230769,460.9929078014185,-0.15267175572519084,-0.05046325971679939,-0.029835091195151847,1148.7179487179487,-1.0,69.3184782991926,2.0255017285673613,493.8368489275571,
2023-12-13 11:54:02.725000,-7.1084337349397595,-3.216867469879518,5.843373493975904,-3.1122011036174126,-7.046597179644389,6.553034947884733,2.0,2.1706959706959705,460.6817414782316,-0.013752112347764738,0.005244449624148055,0.07866674436221649,1155.3113553113553,-1.0,69.3184782991926,2.0265778802912298,493.57824406764604,
2023-12-13 11:54:02.732000,-7.096385542168675,-3.2289156626506026,5.843373493975904,-3.139178418148375,-7.085836909871245,6.535867565910484,2.0,2.1706959706959705,460.6817414782316,0.12272012120505858,0.1559349688246612,-0.15127323582541818,1162.6373626373625,-1.0,69.3184782991926,2.0276714562470532,493.3156730199963,
2023-12-13 11:54:02.740000,-7.0843373493975905,-3.2289156626506026,5.83132530120482,-3.043531575720417,-7.073574494175352,6.553034947884733,2.0,2.172161172161172,460.3709949409781,0.21292465474039957,0.39286754851115824,-0.11817493153079642,1169.230769230769,-1.0,69.3184782991926,2.0287822577335954,493.0491928390307,
2023-12-13 11:54:02.748000,-7.1084337349397595,-3.216867469879518,5.855421686746988,-3.072961373390558,-7.083384426732066,6.533415082771306,2.0,2.172161172161172,460.3709949409781,-0.09206922673503957,0.1699201678223876,-0.16467571819823998,1177.2893772893772,-1.0,69.3184782991926,2.0299100733102526,492.778863597481,
2023-12-13 11:54:02.755000,-7.1084337349397595,-3.1927710843373496,5.843373493975904,-3.0950337216431634,-7.105456774984671,6.553034947884733,2.0,2.172161172161172,460.3709949409781,0.030301264495076495,-0.20430044869180033,0.14229939980187642,1184.6153846153845,-1.0,69.3184782991926,2.0310546795083635,492.5047481943468,
2023-12-13 11:54:02.763000,-7.096385542168675,-3.1927710843373496,5.855421686746988,-3.1195585530349477,-7.100551808706315,6.467198038013488,2.0,2.175091575091575,459.75075783091955,-0.19835673911776724,-0.14672804615115603,-0.16514189149816463,1186.080586080586,-1.0,69.3184782991926,2.0322158400464447,492.22691251903154,
2023-12-13 11:54:02.771000,-7.096385542168675,-3.1927710843373496,5.843373493975904,-3.0705088902513795,-7.068669527896995,6.491722869405272,2.0,2.175091575091575,459.75075783091955,-0.27154594720587316,-0.05698968591573838,-0.3006817784511391,1182.4175824175823,-1.0,69.3184782991926,2.0333933070613317,491.9454251653283,
2023-12-13 11:54:02.778000,-7.072289156626506,-3.180722891566265,5.843373493975904,-3.0606989576946657,-7.07602697731453,6.5113427345187,2.0,2.175091575091575,459.75075783091955,-0.0844939106112696,-0.0874074937357957,0.05500844939106112,1174.3589743589744,-1.0,69.3184782991926,2.034586821895887,491.66035722308845,
2023-12-13 11:54:02.786000,-7.0843373493975905,-3.204819277108434,5.843373493975904,-3.122011036174126,-7.063764561618639,6.481912936848559,2.0,2.1765567765567764,459.4412655671492,-0.17667968067129,-0.21234193811549365,-0.08297884738651612,1166.3003663003662,-1.0,69.3184782991926,2.035796113932215,491.3717825202586,
2023-12-13 11:54:02.794000,-7.0843373493975905,-3.1927710843373496,5.83132530120482,-3.026364193746168,-7.098099325567136,6.489270386266094,2.0,2.1765567765567764,459.4412655671492,-0.06969290833867559,-0.04288794359303113,0.07085834158848568,1159.7069597069597,-1.0,69.3184782991926,2.0370209013336322,491.07977744087833,
2023-12-13 11:54:02.801000,-7.096385542168675,-3.1927710843373496,5.855421686746988,-3.1465358675659103,-7.053954629061924,6.538320049049663,2.0,2.1780219780219783,459.1321897073663,-0.32806945982168817,-0.5792203251558767,0.11654332498106167,1155.3113553113553,-1.0,69.3184782991926,2.0382608913725453,490.78442083032263,
2023-12-13 11:54:02.809000,-7.1084337349397595,-3.204819277108434,5.855421686746988,-3.0239117106069893,-7.090741876149601,6.548129981606376,2.0,2.1780219780219783,459.1321897073663,-0.11234776528174331,-0.04067362041839003,0.03927510051861782,1150.9157509157508,-1.0,69.3184782991926,2.0395157807317528,490.48579390614697,
2023-12-13 11:54:02.817000,-7.072289156626506,-3.216867469879518,5.843373493975904,-3.0705088902513795,-7.044144696505211,6.575107296137339,2.0,2.1780219780219783,459.1321897073663,0.10022725948371375,-0.2259775071382793,-0.11234776528174331,1147.985347985348,-1.0,69.3184782991926,2.040785255847839,490.18398015984303,
2023-12-13 11:54:02.824000,-7.096385542168675,-3.204819277108434,5.83132530120482,-3.080318822808093,-7.068669527896995,6.518700183936235,2.0,2.1794871794871793,458.82352941176475,0.20768020511625152,-0.09008799021036015,-0.0032632130994699297,1149.4505494505493,-1.0,69.3184782991926,2.0420689927336286,489.8790653684491,
2023-12-13 11:54:02.832000,-7.120481927710844,-3.1927710843373496,5.843373493975904,-3.080318822808093,-7.044144696505211,6.518700183936235,2.0,2.1794871794871793,458.82352941176475,0.023425208321193255,0.2475380222597757,0.25872618145795684,1157.5091575091574,-1.0,69.3184782991926,2.0433666577543206,489.57113740517013,
2023-12-13 11:54:02.840000,-7.1325301204819285,-3.204819277108434,5.819277108433735,-3.08522378908645,-7.080931943592887,6.4622930717351315,2.0,2.1794871794871793,458.82352941176475,0.14614532952625184,-0.19812365246780558,0.02738768137054951,1174.3589743589744,-1.0,69.3184782991926,2.044677907985228,489.26028613824167,
2023-12-13 11:54:02.847000,-7.1084337349397595,-3.1927710843373496,5.843373493975904,-3.050889025137952,-7.100551808706315,6.523605150214592,2.0,2.1794871794871793,458.82352941176475,0.4200221432317469,-0.3335469960957979,0.19602587261814575,1203.6630036630036,-1.0,69.3184782991926,2.046002391504003,488.9466033245503,
2023-12-13 11:54:02.855000,-7.1084337349397595,-3.204819277108434,5.867469879518072,-3.0876762722256283,-7.085836909871245,6.491722869405272,2.0,2.1809523809523808,458.5152838427948,0.03484645416933779,-0.07144105821339161,-0.07726822446244384,1257.8754578754579,827.2705078125,72.52766710934041,2.0473397476164266,488.63018253949167,
2023-12-13 11:54:02.863000,-7.096385542168675,-3.216867469879518,5.867469879518072,-3.1416309012875536,-7.053954629061924,6.57265481299816,2.0,2.1824175824175818,458.20745216515616,0.35266010139269327,-0.3294679797214617,-0.22819183031291865,1342.1245421245421,-1.0,72.52766710934041,2.0486896066958207,488.31111922548774,
2023-12-13 11:54:02.870000,-7.0843373493975905,-3.216867469879518,5.879518072289157,-3.0656039239730224,-7.051502145922746,6.533415082771306,2.0,2.1824175824175818,458.20745216515616,-0.03193287104481168,-0.44822562787716314,-0.04370374686789829,1463.003663003663,-1.0,72.52766710934041,2.050051591110954,487.9895104690516,
2023-12-13 11:54:02.878000,-7.096385542168675,-3.216867469879518,5.855421686746988,-3.104843654199877,-7.034334763948498,6.506437768240343,2.0,2.1824175824175818,458.20745216515616,0.3046442515004949,-0.47398170269797835,-0.02960200454518974,1616.117216117216,-1.0,72.52766710934041,2.051425315627868,487.66545487104804,
2023-12-13 11:54:02.886000,-7.0843373493975905,-3.216867469879518,5.855421686746988,-3.1195585530349477,-7.007357449417535,6.479460453709381,2.0,2.1838827838827837,457.90003354579005,0.3638482605908744,-0.3621001107161584,-0.01561680554746246,1794.139194139194,-1.0,72.52766710934041,2.05281038725083,487.3390525560327,
2023-12-13 11:54:02.893000,-7.072289156626506,-3.2289156626506026,5.867469879518072,-3.1587982832618025,-7.071122011036174,6.533415082771306,2.0,2.1838827838827837,457.90003354579005,0.23774838296136636,-0.3468329351436393,0.24683876230988852,1988.278388278388,-1.0,72.52766710934041,2.054206406012254,487.0104049828441,
2023-12-13 11:54:02.901000,-7.0843373493975905,-3.2289156626506026,5.855421686746988,-3.1072961373390555,-7.068669527896995,6.472103004291845,2.0,2.185347985347985,457.59302715387196,0.35860381096672633,-0.3632655439659685,-0.18157450032049424,2184.6153846153843,-1.0,72.52766710934041,2.0556129653400466,486.67961484438666,
2023-12-13 11:54:02.909000,-7.072289156626506,-3.216867469879518,5.843373493975904,-3.1293684855916615,-7.053954629061924,6.474555487431023,2.0,2.1868131868131866,457.28643216080405,0.18716857991958438,-0.5024182739933563,0.11153196200687615,2368.4981684981685,-1.0,72.52766710934041,2.057029652390574,486.3467859753473,
2023-12-13 11:54:02.916000,-7.072289156626506,-3.2289156626506026,5.819277108433735,-3.0680564071122007,-7.098099325567136,6.553034947884733,2.0,2.1868131868131866,457.28643216080405,-0.1199230814055133,-0.39438261173591255,0.23308664996212333,2526.007326007326,-1.0,72.52766710934041,2.058456048909347,486.01202314995936,
2023-12-13 11:54:02.924000,-7.0843373493975905,-3.1927710843373496,5.867469879518072,-3.1072961373390555,-7.046597179644389,6.506437768240343,2.0,2.1868131868131866,457.28643216080405,0.2605908746576537,-0.3017306683759688,-0.19474389604335393,2653.4798534798533,-1.0,72.52766710934041,2.0598917311440412,485.67543207887473,
2023-12-13 11:54:02.932000,-7.072289156626506,-3.216867469879518,5.903614457831326,-3.0827713059472717,-7.07602697731453,6.555487431023911,2.0,2.1868131868131866,457.28643216080405,0.3060427714002684,-0.3601188741914807,0.27877163335469973,2742.8571428571427,-1.0,72.52766710934041,2.0613362696885513,485.3371194210308,
2023-12-13 11:54:02.939000,-7.096385542168675,-3.216867469879518,5.867469879518072,-3.08522378908645,-7.053954629061924,6.557939914163089,2.0,2.1882783882783885,456.9802477402075,0.19474389604335438,-0.38808927218693523,0.2755084202552298,2794.8717948717945,-1.0,72.52766710934041,2.062789229782904,484.99719270084876,
2023-12-13 11:54:02.947000,-7.060240963855422,-3.204819277108434,5.855421686746988,-3.0876762722256283,-7.066217044757817,6.530962599632127,2.0,2.1882783882783885,456.9802477402075,0.2836664530039044,-0.27457607365538184,0.2883281860031466,2805.8608058608056,-1.0,72.52766710934041,2.064250172103651,484.65576012369354,
2023-12-13 11:54:02.955000,-7.072289156626506,-3.180722891566265,5.843373493975904,-3.0778663396689145,-7.066217044757817,6.535867565910484,2.0,2.1882783882783885,456.9802477402075,-0.054425732766156504,-0.5329526251383944,-0.03333139094458345,2790.4761904761904,-1.0,72.52766710934041,2.0657186535892835,484.3129303648273,
2023-12-13 11:54:02.962000,-7.0843373493975905,-3.1927710843373496,5.83132530120482,-3.08522378908645,-7.024524831391783,6.570202329858982,2.0,2.18974358974359,456.67447306791564,0.16094633179884585,-0.0393916438435991,0.015267175572519083,2745.7875457875457,-1.0,72.52766710934041,2.067194226755662,483.96881271757945,
2023-12-13 11:54:02.970000,-7.072289156626506,-3.1927710843373496,5.855421686746988,-3.0950337216431634,-7.044144696505211,6.530962599632127,2.0,2.18974358974359,456.67447306791564,0.12947963405395924,0.03845929724375067,-0.13693840685274752,2682.0512820512818,-1.0,72.52766710934041,2.0686764400640616,483.6235170179796,
2023-12-13 11:54:02.978000,-7.096385542168675,-3.1927710843373496,5.855421686746988,-3.0950337216431634,-7.066217044757817,6.52605763335377,2.0,2.18974358974359,456.67447306791564,0.12644950760445228,0.04148942369325762,-0.13588951692791784,2605.8608058608056,-1.0,72.52766710934041,2.070164838779898,483.2771534277552,
2023-12-13 11:54:02.985000,-7.096385542168675,-3.204819277108434,5.843373493975904,-3.080318822808093,-6.995095033721642,6.553034947884733,2.0,2.191208791208792,456.3691073219658,-0.027737311345492885,-0.03123361109492492,0.08029835091195167,2523.076923076923,-1.0,72.52766710934041,2.0716589648122863,482.92983245249854,
2023-12-13 11:54:02.993000,-7.072289156626506,-3.180722891566265,5.891566265060241,-3.043531575720417,-7.063764561618639,6.503985285101164,2.0,2.18974358974359,456.67447306791564,-0.014101742322708983,0.04789930656721578,0.12703222422935734,2436.6300366300366,-1.0,72.52766710934041,2.073158357960681,482.5816646471051,
2023-12-13 11:54:03.001000,-7.1084337349397595,-3.180722891566265,5.819277108433735,-3.0361741263028814,-7.026977314530963,6.496627835683629,2.0,2.18974358974359,456.67447306791564,-0.22842491696288034,0.2929899190023887,0.01864693199696985,2351.6483516483513,-1.0,72.52766710934041,2.0746625557219307,482.23276064530995,
2023-12-13 11:54:03.008000,-7.1084337349397595,-3.204819277108434,5.83132530120482,-3.092581238503985,-7.159411404046597,6.528510116492948,2.0,2.18974358974359,456.67447306791564,0.1074529456325395,0.4101159606083567,0.4171085601072199,2268.131868131868,-1.0,72.52766710934041,2.0761710925709314,481.8832313184214,
2023-12-13 11:54:03.016000,-7.096385542168675,-3.1927710843373496,5.855421686746988,-3.075413856529736,-7.073574494175352,6.540772532188841,2.0,2.18974358974359,456.67447306791564,-0.3062758580502301,0.22329701066371485,-0.05827166249053105,2186.813186813187,-1.0,72.52766710934041,2.077683500715139,481.5331876060459,
2023-12-13 11:54:03.023000,-7.0843373493975905,-3.216867469879518,5.83132530120482,-3.0705088902513795,-7.100551808706315,6.496627835683629,2.0,2.191208791208792,456.3691073219658,0.03321484761960261,0.19159722626886486,0.40090903793485244,2110.6227106227107,-1.0,72.52766710934041,2.079199309931564,481.18274055917254,
2023-12-13 11:54:03.031000,-7.1084337349397595,-3.180722891566265,5.855421686746988,-3.092581238503985,-7.06131207847946,6.533415082771306,2.0,2.191208791208792,456.3691073219658,-0.15220558242526575,-0.03682769069401549,0.5510168405104596,2034.4322344322343,-1.0,72.52766710934041,2.0807180484199463,480.83200114920135,
2023-12-13 11:54:03.039000,-7.1084337349397595,-3.168674698795181,5.843373493975904,-3.092581238503985,-7.041692213366033,6.543225015328019,2.0,2.191208791208792,456.3691073219658,-0.1529048423751525,-0.5997319503525439,0.30336227492570356,1960.4395604395604,-1.0,72.52766710934041,2.0822392436550943,480.4810800594572,
2023-12-13 11:54:03.046000,-7.072289156626506,-3.180722891566265,5.891566265060241,-3.072961373390558,-7.06131207847946,6.518700183936235,2.0,2.191208791208792,456.3691073219658,0.15255521240021,-0.551366470485403,-0.03309830429462134,1888.6446886446886,-1.0,72.52766710934041,2.0837624222213575,480.1300877114808,
2023-12-13 11:54:03.054000,-7.060240963855422,-3.180722891566265,5.867469879518072,-2.9675045984058857,-7.012262415695892,6.506437768240343,2.0,2.192673992673993,456.0641496825927,0.028553114620360476,-1.0230173066837593,0.16689004137288022,1820.5128205128203,-1.0,72.52766710934041,2.085287110105076,479.77913419674366,
2023-12-13 11:54:03.062000,-7.072289156626506,-3.168674698795181,5.891566265060241,-3.0582464745554874,-7.090741876149601,6.521152667075413,2.0,2.192673992673993,456.0641496825927,0.21117650486568357,-1.2143814463026625,-0.019113105296894063,1752.3809523809523,-1.0,72.52766710934041,2.086812833479912,479.4283291066337,
2023-12-13 11:54:03.069000,-7.060240963855422,-3.168674698795181,5.867469879518072,-3.1293684855916615,-7.058859595340282,6.553034947884733,2.0,2.192673992673993,456.0641496825927,0.23949653283608235,-1.5851057630674201,-0.09521589650952737,1682.7838827838827,-1.0,72.52766710934041,2.088339119072074,479.0777814507317,
2023-12-13 11:54:03.077000,-7.060240963855422,-3.144578313253012,5.855421686746988,-3.0778663396689145,-7.041692213366033,6.521152667075413,2.0,2.192673992673993,456.0641496825927,0.3893712487617279,-1.604218868364314,0.1519724957753045,1611.7216117216117,-1.0,72.52766710934041,2.0898654940015127,478.7275996849883,
2023-12-13 11:54:03.085000,-7.0361445783132535,-3.168674698795181,5.903614457831326,-3.050889025137952,-7.004904966278357,6.548129981606376,2.0,2.192673992673993,456.0641496825927,0.38564186236233244,-1.5906998426665109,0.013285939047840959,1537.7289377289376,-1.0,72.52766710934041,2.0913914860821774,478.37789164516903,
2023-12-13 11:54:03.092000,-7.024096385542169,-3.180722891566265,5.891566265060241,-3.0827713059472717,-6.980380134886572,6.584917228694052,2.0,2.192673992673993,456.0641496825927,0.4285298059553636,-1.579278596818368,0.09055416351028481,1463.003663003663,-1.0,72.52766710934041,2.092916624581387,478.02876436519836,
2023-12-13 11:54:03.100000,-7.048192771084338,-3.1927710843373496,5.891566265060241,-3.033721643163703,-7.083384426732066,6.557939914163089,2.0,2.192673992673993,456.0641496825927,0.08717440708583403,-1.4135539886952975,0.16490880484820253,1389.0109890109889,-1.0,72.52766710934041,2.0944404399974883,477.68032414430417,
2023-12-13 11:54:03.108000,-7.048192771084338,-3.1927710843373496,5.903614457831326,-3.0999386879215205,-7.009809932556713,6.580012262415695,2.0,2.192673992673993,456.0641496825927,0.1313443272536561,-1.309480799487209,-0.32573859332206756,1319.4139194139193,-1.0,72.52766710934041,2.0959624639427723,477.3326765884025,
2023-12-13 11:54:03.115000,-7.048192771084338,-3.1927710843373496,5.891566265060241,-3.072961373390558,-7.053954629061924,6.545677498467198,2.0,2.192673992673993,456.0641496825927,0.08530971388613719,-0.7768778043237572,-0.20278538546704727,1252.7472527472526,-1.0,72.52766710934041,2.0974822299407814,476.9859264213154,
2023-12-13 11:54:03.123000,-7.048192771084338,-3.204819277108434,5.927710843373494,-3.1171060698957693,-7.053954629061924,6.580012262415695,2.0,2.192673992673993,456.0641496825927,0.28017015325447236,-0.050812889691743635,-0.40032632130994694,1191.9413919413919,-1.0,72.52766710934041,2.0989992737321304,476.64017742091994,
2023-12-13 11:54:03.131000,-7.0843373493975905,-3.2289156626506026,5.927710843373494,-3.043531575720417,-7.071122011036174,6.626609442060086,2.0,2.192673992673993,456.0641496825927,0.46127848027504287,0.10570479575782349,-0.3214264902977683,1137.7289377289376,-1.0,72.52766710934041,2.1005131335814093,476.2955323557671,
2023-12-13 11:54:03.138000,-7.0843373493975905,-3.2289156626506026,5.891566265060241,-3.0582464745554874,-7.051502145922746,6.575107296137339,2.0,2.192673992673993,456.0641496825927,0.5034671639181872,0.41081522055824177,-0.18308956354524772,1093.7728937728937,-1.0,72.52766710934041,2.102023350585042,475.95209292219135,
2023-12-13 11:54:03.146000,-7.0843373493975905,-3.180722891566265,5.83132530120482,-3.0312691600245247,-7.125076640098099,6.52605763335377,2.0,2.191208791208792,456.3691073219658,0.49927160421886846,0.8081114154186821,-0.6682594254414076,1060.8058608058607,-1.0,72.52766710934041,2.1035294689799433,475.60995968191423,
2023-12-13 11:54:03.154000,-7.0843373493975905,-3.180722891566265,5.843373493975904,-3.0876762722256283,-7.024524831391783,6.481912936848559,2.0,2.191208791208792,456.3691073219658,0.11293048190664923,0.48248936542159504,-0.43400734222947374,1038.8278388278388,-1.0,72.52766710934041,2.1050310364179685,475.2692319870539,
2023-12-13 11:54:03.161000,-7.096385542168675,-3.180722891566265,5.903614457831326,-3.1244635193133043,-7.080931943592887,6.540772532188841,2.0,2.192673992673993,456.0641496825927,0.17225103432200956,0.3119864809743015,-0.29310646232737,1030.03663003663,-1.0,72.52766710934041,2.1065276041360614,474.9300079508037,
2023-12-13 11:54:03.169000,-7.096385542168675,-3.180722891566265,5.879518072289157,-3.0533415082771302,-7.044144696505211,6.503985285101164,2.0,2.192673992673993,456.0641496825927,0.41559349688246644,0.2690985373812721,-0.1689878212225396,1031.5018315018315,-1.0,72.52766710934041,2.1080187272646587,474.59238442900715,
2023-12-13 11:54:03.177000,-7.0843373493975905,-3.1927710843373496,5.867469879518072,-3.055793991416309,-7.007357449417535,6.540772532188841,2.0,2.192673992673993,456.0641496825927,0.06025289901520874,0.4658236699493042,-0.16840510459763414,1038.095238095238,-1.0,72.52766710934041,2.1095039652740053,474.2564569283839,
2023-12-13 11:54:03.184000,-7.072289156626506,-3.180722891566265,5.867469879518072,-3.0705088902513795,-6.990190067443286,6.516247700797057,2.0,2.192673992673993,456.0641496825927,-0.19998834566750243,0.44740982460229556,0.01713186877221594,1052.014652014652,-1.0,72.52766710934041,2.1109828818574226,473.9223196339948,
2023-12-13 11:54:03.192000,-7.096385542168675,-3.1927710843373496,5.843373493975904,-3.0680564071122007,-7.078479460453709,6.501532801961986,2.0,2.192673992673993,456.0641496825927,-0.15243866907522916,0.15651768544956537,-0.4726997261231861,1068.131868131868,-1.0,72.52766710934041,2.1124550457618536,473.59006521864563,
2023-12-13 11:54:03.200000,-7.096385542168675,-3.216867469879518,5.83132530120482,-3.1171060698957693,-7.110361741263028,6.550582464745554,2.0,2.192673992673993,456.0641496825927,-0.18308956354524816,-0.31641512732358196,-0.0885729269856071,1090.10989010989,-1.0,72.52766710934041,2.1139200315131133,473.259784679302,
2023-12-13 11:54:03.207000,-7.0843373493975905,-3.204819277108434,5.843373493975904,-3.1171060698957693,-7.063764561618639,6.513795217657878,2.0,2.192673992673993,456.0641496825927,-0.3042946215255524,-0.23553405978672523,-0.21082687489074062,1115.7509157509157,-1.0,72.52766710934041,2.1153774187683707,472.93156752014124,
2023-12-13 11:54:03.215000,-7.072289156626506,-3.1927710843373496,5.879518072289157,-3.126916002452483,-7.044144696505211,6.545677498467198,2.0,2.192673992673993,456.0641496825927,-0.3011479517510629,-0.3978789114853446,0.005594079599090998,1142.857142857143,-1.0,72.52766710934041,2.116826792684247,472.6055016798275,
2023-12-13 11:54:03.223000,-7.048192771084338,-3.204819277108434,5.891566265060241,-3.055793991416309,-7.022072348252605,6.575107296137339,2.0,2.192673992673993,456.0641496825927,-0.024590641571003356,-0.34473515529398074,-0.14789347940096742,1166.3003663003662,-1.0,72.52766710934041,2.118267744703338,472.2816733535816,
2023-12-13 11:54:03.230000,-7.024096385542169,-3.168674698795181,5.91566265060241,-3.0827713059472717,-6.980380134886572,6.58736971183323,2.0,2.192673992673993,456.0641496825927,-0.5891265077792669,-0.03496299749431863,-0.20802983509119533,1186.080586080586,-1.0,72.52766710934041,2.1196998728454934,471.9601669404438,
2023-12-13 11:54:03.238000,-7.024096385542169,-3.168674698795181,5.903614457831326,-3.0190067443286326,-6.955855303494788,6.580012262415695,2.0,2.191208791208792,456.3691073219658,-0.21863527766447097,0.45498514072606555,-0.43820290192879213,1202.9304029304028,-1.0,72.52766710934041,2.121122781995985,471.6410649915664,
2023-12-13 11:54:03.246000,-7.0120481927710845,-3.180722891566265,5.927710843373494,-3.1072961373390555,-7.019619865113427,6.57265481299816,2.0,2.192673992673993,456.0641496825927,-0.43062758580502386,0.696346366761843,-0.14393100635161118,1216.117216117216,-1.0,72.52766710934041,2.1225360832394187,471.3244483774904,
2023-12-13 11:54:03.253000,-7.0361445783132535,-3.180722891566265,5.903614457831326,-3.1072961373390555,-6.997547516860821,6.565297363580625,2.0,2.192673992673993,456.0641496825927,-0.4268981994056284,0.6890041372880364,-0.14299865975176274,1221.245421245421,-1.0,72.52766710934041,2.123939394627603,471.01039613436456,
2023-12-13 11:54:03.261000,-7.0361445783132535,-3.180722891566265,5.891566265060241,-3.063151440833844,-6.997547516860821,6.60453709380748,2.0,2.192673992673993,456.0641496825927,-0.7131286055591165,0.34636676184371595,-0.06281685216479235,1219.7802197802198,-1.0,72.52766710934041,2.125332342467626,470.6989851838096,
2023-12-13 11:54:03.269000,-7.072289156626506,-3.180722891566265,5.891566265060241,-3.092581238503985,-7.007357449417535,6.548129981606376,2.0,2.192673992673993,456.0641496825927,-0.2813355865042825,1.154012003962473,-0.3963638482605907,1216.117216117216,-1.0,72.52766710934041,2.126714561129329,470.39029038277204,
2023-12-13 11:54:03.276000,-7.048192771084338,-3.180722891566265,5.91566265060241,-3.0288166768853464,-7.029429797670141,6.577559779276517,2.0,2.192673992673993,456.0641496825927,-0.24777110890973736,1.1902569780315826,-0.27038051395606305,1210.989010989011,-1.0,72.52766710934041,2.1280856933050503,470.08438447950465,
2023-12-13 11:54:03.284000,-7.072289156626506,-3.1927710843373496,5.927710843373494,-3.0680564071122007,-7.044144696505211,6.577559779276517,2.0,2.192673992673993,456.0641496825927,-0.3686265369150974,0.9829264028902736,-0.3132684575490937,1204.3956043956043,-1.0,72.52766710934041,2.1294453898052623,469.78133818625395,
2023-12-13 11:54:03.292000,-7.1084337349397595,-3.180722891566265,5.879518072289157,-3.1072961373390555,-7.09319435928878,6.575107296137339,2.0,2.192673992673993,456.0641496825927,-0.2581434648330509,1.0084493910611272,-0.6611502826175631,1195.6043956043954,-1.0,72.52766710934041,2.130793309872325,469.4812201215883,
2023-12-13 11:54:03.299000,-7.072289156626506,-3.1927710843373496,5.867469879518072,-3.1122011036174126,-7.056407112201104,6.560392397302268,2.0,2.191208791208792,456.3691073219658,-0.2699143406561397,1.5515412854728752,-0.5956529339782064,1184.6153846153845,-1.0,72.52766710934041,2.13212912144985,469.1840967636261,
2023-12-13 11:54:03.307000,-7.060240963855422,-3.1927710843373496,5.879518072289157,-3.0827713059472717,-7.019619865113427,6.58982219497241,2.0,2.192673992673993,456.0641496825927,-0.4059204009090379,0.9758172600664304,-0.40743546413379184,1171.4285714285713,-1.0,72.52766710934041,2.133452501441975,468.890032384665,
2023-12-13 11:54:03.315000,-7.072289156626506,-3.1927710843373496,5.879518072289157,-3.0950337216431634,-7.051502145922746,6.518700183936235,2.0,2.192673992673993,456.0641496825927,-0.25115086533418857,0.816502534817318,-0.32771982984674564,1159.7069597069597,-1.0,72.52766710934041,2.1347631367733175,468.59908882381774,
2023-12-13 11:54:03.322000,-7.060240963855422,-3.204819277108434,5.891566265060241,-3.0901287553648067,-7.034334763948498,6.570202329858982,2.0,2.192673992673993,456.0641496825927,-0.15861546529922566,0.599149233727638,-0.3560398578171436,1144.3223443223442,-1.0,72.52766710934041,2.136060724172792,468.3113255843394,
2023-12-13 11:54:03.330000,-7.048192771084338,-3.1927710843373496,5.91566265060241,-3.0901287553648067,-6.987737584304107,6.545677498467198,2.0,2.192673992673993,456.0641496825927,-0.2047666219917254,0.7034555095856879,-0.21583823786492656,1130.4029304029302,-1.0,72.52766710934041,2.1373449695244466,468.0267999970058,
2023-12-13 11:54:03.338000,-7.0361445783132535,-3.1927710843373496,5.867469879518072,-3.1465358675659103,-7.012262415695892,6.553034947884733,2.0,2.192673992673993,456.0641496825927,-0.23331973661208588,0.8208146378416177,-0.13868655672746355,1119.4139194139193,-1.0,72.52766710934041,2.1386155886118514,467.74556705314245,
2023-12-13 11:54:03.345000,-7.0361445783132535,-3.180722891566265,5.903614457831326,-3.1072961373390555,-7.022072348252605,6.553034947884733,2.0,2.192673992673993,456.0641496825927,-0.24590641571004052,0.6336460579220332,-0.26012470135772947,1112.8205128205127,-1.0,72.52766710934041,2.139872307322441,467.4676793727414,
2023-12-13 11:54:03.353000,-7.0361445783132535,-3.168674698795181,5.891566265060241,-3.021459227467811,-7.017167381974248,6.560392397302268,2.0,2.191208791208792,456.3691073219658,-0.564885496183206,1.02744595303304,-0.5942544140784337,1110.6227106227107,-1.0,72.52766710934041,2.14111486187364,467.1931871669461,
2023-12-13 11:54:03.361000,-7.048192771084338,-3.168674698795181,5.855421686746988,-3.0901287553648067,-7.026977314530963,6.516247700797057,2.0,2.192673992673993,456.0641496825927,-0.40673620418390555,1.0673037701765624,-0.40533768428413286,1108.4249084249084,-1.0,72.52766710934041,2.142342998956112,466.9221382000795,
2023-12-13 11:54:03.368000,-7.0843373493975905,-3.1927710843373496,5.891566265060241,-3.0312691600245247,-7.068669527896995,6.543225015328019,2.0,2.191208791208792,456.3691073219658,-0.28238447642911174,1.366004312103024,-0.18845055649437661,1105.4945054945053,-1.0,72.52766710934041,2.1435564758282393,466.6545778018469,
2023-12-13 11:54:03.376000,-7.0843373493975905,-3.180722891566265,5.903614457831326,-3.102391171060699,-7.085836909871245,6.557939914163089,2.0,2.191208791208792,456.3691073219658,-0.3868072956121443,1.113221840219102,-0.5836489715051572,1100.3663003663003,-1.0,72.52766710934041,2.1447550605351275,466.39054883169,
2023-12-13 11:54:03.384000,-7.0843373493975905,-3.180722891566265,5.891566265060241,-3.0901287553648067,-6.997547516860821,6.555487431023911,2.0,2.191208791208792,456.3691073219658,-0.4300448691801179,1.1507487908630027,-0.33494551599557143,1093.040293040293,-1.0,72.52766710934041,2.1459385315157076,466.13009177190213,
2023-12-13 11:54:03.391000,-7.048192771084338,-3.180722891566265,5.855421686746988,-3.1171060698957693,-7.01471489883507,6.521152667075413,2.0,2.191208791208792,456.3691073219658,-0.18297302022026732,0.879552473632072,-0.5007866674436219,1085.7142857142856,-1.0,72.52766710934041,2.147106678212122,465.873244610981,
2023-12-13 11:54:03.399000,-7.060240963855422,-3.168674698795181,5.843373493975904,-3.0901287553648067,-7.029429797670141,6.530962599632127,2.0,2.191208791208792,456.3691073219658,-0.4253831361808758,0.9945807353883815,-0.8339840335644774,1076.923076923077,-1.0,72.52766710934041,2.1482593016286415,465.62004272002235,
2023-12-13 11:54:03.406000,-7.0843373493975905,-3.180722891566265,5.83132530120482,-3.1122011036174126,-7.090741876149601,6.562844880441447,2.0,2.191208791208792,456.3691073219658,-0.37655148301380986,1.0767437795000292,-0.4757298525726935,1065.9340659340658,-1.0,72.52766710934041,2.149396213926408,465.37051896904336,
2023-12-13 11:54:03.414000,-7.0843373493975905,-3.216867469879518,5.867469879518072,-3.1072961373390555,-7.066217044757817,6.521152667075413,2.0,2.18974358974359,456.67447306791564,-0.20558242526659298,0.9168463376260126,-0.7609113688013522,1054.9450549450548,-1.0,72.52766710934041,2.1505172380713677,465.124703829289,
2023-12-13 11:54:03.422000,-7.1084337349397595,-3.216867469879518,5.879518072289157,-3.114653586756591,-7.056407112201104,6.555487431023911,2.0,2.18974358974359,456.67447306791564,-0.44939106112697325,0.8618378882349502,-0.494842957869588,1044.6886446886447,-1.0,72.52766710934041,2.1516222074633418,464.88262545933776,
2023-12-13 11:54:03.429000,-7.096385542168675,-3.1927710843373496,5.879518072289157,-3.075413856529736,-7.044144696505211,6.538320049049663,2.0,2.18974358974359,456.67447306791564,-0.5369150981877515,0.9603169978439496,-0.4294621525552125,1036.6300366300366,-1.0,72.52766710934041,2.1527109664248356,464.6443095939839,
2023-12-13 11:54:03.437000,-7.072289156626506,-3.216867469879518,5.867469879518072,-3.109748620478234,-7.026977314530963,6.553034947884733,2.0,2.18974358974359,456.67447306791564,-0.24206048598566596,0.9663772507429635,-0.5935551541285474,1030.7692307692307,-1.0,72.52766710934041,2.153783370670901,464.4097794582361,
2023-12-13 11:54:03.445000,-7.048192771084338,-3.216867469879518,5.867469879518072,-3.109748620478234,-6.977927651747394,6.545677498467198,2.0,2.191208791208792,456.3691073219658,-0.5439076976866156,0.882349513431619,-0.5285239787891144,1026.3736263736264,-1.0,72.52766710934041,2.154839286881383,464.17905588522194,
2023-12-13 11:54:03.452000,-7.048192771084338,-3.216867469879518,5.855421686746988,-3.1072961373390555,-6.990190067443286,6.543225015328019,2.0,2.18974358974359,456.67447306791564,-0.44822562787716314,1.379057164500904,-0.6621991725423928,1025.6410256410256,-1.0,72.52766710934041,2.155878593697458,463.9521570996945,
2023-12-13 11:54:03.460000,-7.0843373493975905,-3.2289156626506026,5.83132530120482,-3.092581238503985,-7.07602697731453,6.513795217657878,2.0,2.18974358974359,456.67447306791564,-0.26012470135773036,1.260532602995164,-0.48854961832061067,1027.8388278388277,-1.0,72.52766710934041,2.1569011817193187,463.7290987125828,
2023-12-13 11:54:03.468000,-7.0843373493975905,-3.2289156626506026,5.83132530120482,-3.126916002452483,-7.07602697731453,6.518700183936235,2.0,2.18974358974359,456.67447306791564,-0.25791037818308926,1.1133383835440829,-0.896567799079308,1032.967032967033,-1.0,72.52766710934041,2.1579069524355714,463.50989397531157,
2023-12-13 11:54:03.475000,-7.060240963855422,-3.2289156626506026,5.855421686746988,-3.0533415082771302,-7.066217044757817,6.484365419987737,2.0,2.1882783882783885,456.9802477402075,-0.3343627993706655,1.1804673387331732,-1.0410815220558247,1041.7582417582416,-1.0,72.52766710934041,2.1588958181890057,463.29455381518113,
2023-12-13 11:54:03.483000,-7.060240963855422,-3.216867469879518,5.855421686746988,-3.102391171060699,-7.09319435928878,6.540772532188841,2.0,2.18974358974359,456.67447306791564,-0.2101276149408543,0.8790863003321486,-0.6364430977215777,1051.2820512820513,-1.0,72.52766710934041,2.1598677016661947,463.083086950761,
2023-12-13 11:54:03.491000,-7.072289156626506,-3.2289156626506026,5.843373493975904,-3.0950337216431634,-7.046597179644389,6.474555487431023,2.0,2.1882783882783885,456.9802477402075,-0.10127614940854301,1.3627410990035538,-0.4164093001573332,1062.2710622710622,-1.0,72.52766710934041,2.1608225362825255,462.8754998204277,
2023-12-13 11:54:03.498000,-7.072289156626506,-3.204819277108434,5.83132530120482,-3.13182096873084,-7.056407112201104,6.535867565910484,2.0,2.1882783882783885,456.9802477402075,-0.055008449391060685,1.5659926577705265,-0.7176737952333782,1072.5274725274724,-1.0,72.52766710934041,2.1617602661614814,462.671796595574,
2023-12-13 11:54:03.506000,-7.072289156626506,-3.216867469879518,5.819277108433735,-3.102391171060699,-7.071122011036174,6.518700183936235,2.0,2.1882783882783885,456.9802477402075,-0.19252957286871328,1.1704446127848023,-0.35825418099178385,1079.8534798534797,-1.0,72.52766710934041,2.1626808455349824,462.47197931460863,
2023-12-13 11:54:03.514000,-7.096385542168675,-3.204819277108434,5.879518072289157,-3.092581238503985,-7.071122011036174,6.545677498467198,2.0,2.1882783882783885,456.9802477402075,-0.2051162519666679,1.283608181341413,-0.5379639881125808,1084.981684981685,-1.0,72.52766710934041,2.1635842391103894,462.2760478151611,
2023-12-13 11:54:03.521000,-7.072289156626506,-3.1927710843373496,5.867469879518072,-3.0705088902513795,-7.147148988350705,6.553034947884733,2.0,2.1868131868131866,457.28643216080405,-0.2955538721519723,1.0125284074354632,-0.363498630615931,1088.6446886446886,-1.0,72.52766710934041,2.164470421964042,462.08399976502227,
2023-12-13 11:54:03.529000,-7.1084337349397595,-3.204819277108434,5.819277108433735,-3.0876762722256283,-7.073574494175352,6.477007970570202,2.0,2.1868131868131866,457.28643216080405,-0.2934560923023138,1.0012237049123014,-0.3573218343919354,1093.040293040293,-1.0,72.52766710934041,2.165339378927315,461.8958307990199,
2023-12-13 11:54:03.537000,-7.120481927710844,-3.2289156626506026,5.83132530120482,-3.109748620478234,-7.137339055793991,6.555487431023911,2.0,2.1868131868131866,457.28643216080405,-0.39729619486043866,0.6853912942136235,-0.2151389779150394,1097.4358974358975,-1.0,72.52766710934041,2.166191104379201,461.71153457082517,
2023-12-13 11:54:03.544000,-7.120481927710844,-3.2289156626506026,5.819277108433735,-3.114653586756591,-7.112814224402207,6.557939914163089,2.0,2.1868131868131866,457.28643216080405,-0.34858108501835533,0.15849892197424306,-0.21269156809043746,1099.6336996336995,-1.0,72.52766710934041,2.1670256025502193,461.5311026977495,
2023-12-13 11:54:03.552000,-7.072289156626506,-3.204819277108434,5.855421686746988,-3.080318822808093,-7.036787247087676,6.496627835683629,2.0,2.1868131868131866,457.28643216080405,-0.14742730610104277,0.38412679913757986,-0.14801002272594826,1103.2967032967033,-1.0,72.52766710934041,2.16784288735558,461.3545248037503,
2023-12-13 11:54:03.560000,-7.0843373493975905,-3.216867469879518,5.843373493975904,-3.055793991416309,-7.046597179644389,6.474555487431023,2.0,2.1868131868131866,457.28643216080405,-0.35802109434182217,0.11712604160596629,-0.29695239205174495,1110.6227106227107,-1.0,72.52766710934041,2.1686429822163538,461.1817885647556,
2023-12-13 11:54:03.567000,-7.072289156626506,-3.2289156626506026,5.843373493975904,-3.0999386879215205,-7.063764561618639,6.521152667075413,2.0,2.1868131868131866,457.28643216080405,-0.049763999766912634,0.17539770409649733,-0.2178194743896038,1116.4835164835165,-1.0,72.52766710934041,2.169425919869605,461.0128797560928,
2023-12-13 11:54:03.575000,-7.060240963855422,-3.2289156626506026,5.855421686746988,-3.109748620478234,-6.985285101164929,6.494175352544451,2.0,2.185347985347985,457.59302715387196,-0.03123361109492492,-0.08624206048598561,-0.3678107336402302,1119.4139194139193,-1.0,72.52766710934041,2.1701917421683703,460.847782301814,
2023-12-13 11:54:03.583000,-7.048192771084338,-3.216867469879518,5.843373493975904,-3.063151440833844,-6.992642550582464,6.553034947884733,2.0,2.185347985347985,457.59302715387196,-0.20092069226735085,0.16059670182390334,-0.3343627993706664,1119.4139194139193,-1.0,72.52766710934041,2.1709404993797943,460.6864784287945,
2023-12-13 11:54:03.590000,-7.048192771084338,-3.216867469879518,5.843373493975904,-3.043531575720417,-7.051502145922746,6.4990803188228075,2.0,2.185347985347985,457.59302715387196,0.15220558242526575,-0.24928617213449172,-0.11665986830604294,1120.8791208791208,-1.0,72.52766710934041,2.1716722498955194,460.52894873431916,
2023-12-13 11:54:03.598000,-7.0843373493975905,-3.216867469879518,5.843373493975904,-3.0901287553648067,-7.019619865113427,6.503985285101164,2.0,2.185347985347985,457.59302715387196,-0.06351611211467911,0.42456733290600823,-0.43610512207913227,1123.8095238095236,-1.0,72.52766710934041,2.1723870604592426,460.3751721451743,
2023-12-13 11:54:03.606000,-7.096385542168675,-3.204819277108434,5.855421686746988,-3.092581238503985,-7.041692213366033,6.557939914163089,2.0,2.1824175824175818,458.20745216515616,-0.1252840743546422,0.2230639240137532,-0.31105413437445395,1126.007326007326,-1.0,72.52766710934041,2.1730850054715773,460.22512608396596,
2023-12-13 11:54:03.613000,-7.0843373493975905,-3.240963855421687,5.855421686746988,-3.109748620478234,-7.088289393010423,6.560392397302268,2.0,2.1824175824175818,458.20745216515616,-0.09311811665986884,-0.041139793718313375,-0.3090728978497758,1125.2747252747251,-1.0,72.52766710934041,2.1737661662865366,460.07878660635106,
2023-12-13 11:54:03.621000,-7.060240963855422,-3.2289156626506026,5.83132530120482,-3.1416309012875536,-7.066217044757817,6.528510116492948,2.0,2.1838827838827837,457.90003354579005,-0.2753918769302494,0.21875182098945356,-0.3359944059204011,1124.5421245421244,-1.0,72.52766710934041,2.1744306312399075,459.93612838775454,
2023-12-13 11:54:03.629000,-7.072289156626506,-3.240963855421687,5.867469879518072,-3.1489883507050886,-7.036787247087676,6.592274678111588,2.0,2.1838827838827837,457.90003354579005,0.1386865567274627,0.29205757240254027,-0.4683876230988873,1122.3443223443223,-1.0,72.52766710934041,2.175078496302009,459.79712460715774,
2023-12-13 11:54:03.636000,-7.0843373493975905,-3.240963855421687,5.843373493975904,-3.0656039239730224,-7.063764561618639,6.501532801961986,2.0,2.1824175824175818,458.20745216515616,0.21478934794009644,0.2894936192529567,-0.11199813530679993,1117.2161172161173,-1.0,72.52766710934041,2.1757098648824176,459.6617469931311,
2023-12-13 11:54:03.644000,-7.0843373493975905,-3.2289156626506026,5.83132530120482,-3.1293684855916615,-7.063764561618639,6.479460453709381,2.0,2.1824175824175818,458.20745216515616,0.10850183555736877,0.7626595186760692,-0.15488607889983064,1112.8205128205127,-1.0,72.52766710934041,2.176324846156183,459.52996619314,
2023-12-13 11:54:03.652000,-7.096385542168675,-3.2289156626506026,5.819277108433735,-3.0410790925812385,-7.090741876149601,6.46474555487431,2.0,2.1824175824175818,458.20745216515616,0.0759862478876529,0.46663947322417176,-0.06036944234019001,1106.9597069597069,-1.0,72.52766710934041,2.176923554791558,459.401751832971,
2023-12-13 11:54:03.659000,-7.120481927710844,-3.204819277108434,5.819277108433735,-3.0778663396689145,-7.103004291845493,6.454935622317596,2.0,2.1809523809523808,458.5152838427948,-0.13705495017772923,0.1545364489248877,-0.13542334362799363,1100.3663003663003,-1.0,72.52766710934041,2.1775061116222822,459.2770723653799,
2023-12-13 11:54:03.667000,-7.0843373493975905,-3.216867469879518,5.843373493975904,-3.043531575720417,-7.056407112201104,6.530962599632127,2.0,2.1809523809523808,458.5152838427948,0.3531262746926166,-0.24112813938581754,-0.28553114620360126,1096.7032967032967,-1.0,72.52766710934041,2.1780726428765114,459.1558952359236,
2023-12-13 11:54:03.675000,-7.0843373493975905,-3.2289156626506026,5.843373493975904,-3.092581238503985,-7.078479460453709,6.560392397302268,2.0,2.1809523809523808,458.5152838427948,0.0011654332498101003,-0.592622807528699,-0.06584697861430018,1093.040293040293,-1.0,72.52766710934041,2.17862327982694,459.0381869599533,
2023-12-13 11:54:03.682000,-7.072289156626506,-3.1927710843373496,5.855421686746988,-3.1465358675659103,-7.049049662783568,6.52605763335377,2.0,2.1809523809523808,458.5152838427948,0.2783054600547755,-0.4829555387215201,-0.15581842549967992,1087.9120879120878,-1.0,72.52766710934041,2.1791581589669997,458.923913088742,
2023-12-13 11:54:03.690000,-7.060240963855422,-3.216867469879518,5.843373493975904,-3.0606989576946657,-7.063764561618639,6.516247700797057,2.0,2.1794871794871793,458.82352941176475,-0.13402482372822055,-0.7380688771050623,-0.07750131111240595,1084.2490842490843,-1.0,72.52766710934041,2.1796774217309136,458.81303827109804,
2023-12-13 11:54:03.698000,-7.072289156626506,-3.204819277108434,5.879518072289157,-3.050889025137952,-7.049049662783568,6.479460453709381,2.0,2.1780219780219783,459.1321897073663,-0.08729095041081487,-0.3074412913000402,-0.043121030242992804,1083.5164835164835,-1.0,72.52766710934041,2.1801812137236536,458.70552641774873,
2023-12-13 11:54:03.705000,-7.072289156626506,-3.2289156626506026,5.843373493975904,-3.144083384426732,-7.078479460453709,6.535867565910484,2.0,2.1780219780219783,459.1321897073663,-0.2681661907814237,-0.4747975059728442,-0.25511333838354394,1086.4468864468863,-1.0,72.52766710934041,2.1806696838820234,458.6013408800255,
2023-12-13 11:54:03.713000,-7.072289156626506,-3.2289156626506026,5.879518072289157,-3.151440833844267,-7.041692213366033,6.528510116492948,2.0,2.1780219780219783,459.1321897073663,-0.035429170794241974,-0.19812365246780558,-0.1906648796690173,1093.7728937728937,-1.0,72.52766710934041,2.181142984584751,458.5004444284466,
2023-12-13 11:54:03.721000,-7.048192771084338,-3.204819277108434,5.903614457831326,-3.0901287553648067,-7.0,6.570202329858982,2.0,2.1765567765567764,459.4412655671492,-0.37072431676475764,-0.09346774663481136,-0.04859856651710253,1103.2967032967033,-1.0,72.52766710934041,2.1816012718333595,458.40279921595464,
2023-12-13 11:54:03.728000,-7.060240963855422,-3.216867469879518,5.879518072289157,-3.0680564071122007,-7.004904966278357,6.599632127529123,2.0,2.1765567765567764,459.4412655671492,-0.17015325447234927,0.31746401724841294,-0.06165141891498138,1115.7509157509157,-1.0,72.52766710934041,2.1820447044866733,458.3083669403343,
2023-12-13 11:54:03.736000,-7.072289156626506,-3.2289156626506026,5.855421686746988,-3.134273451870018,-7.051502145922746,6.486817903126916,2.0,2.1765567765567764,459.4412655671492,-0.06165141891498225,0.5883107045043994,0.03309830429462134,1134.065934065934,865.570068359375,69.3184782991926,2.182473443462851,458.2171090240446,
2023-12-13 11:54:03.744000,-7.0843373493975905,-3.204819277108434,5.891566265060241,-3.0656039239730224,-7.066217044757817,6.477007970570202,2.0,2.175091575091575,459.75075783091955,0.0012819765747909368,0.4154769535574856,-0.3784161762135076,1161.904761904762,-1.0,69.3184782991926,2.182887651996535,458.128986558585,
2023-12-13 11:54:03.751000,-7.0843373493975905,-3.204819277108434,5.867469879518072,-3.1072961373390555,-7.071122011036174,6.553034947884733,2.0,2.175091575091575,459.75075783091955,-0.011887419148067882,0.5664005594079587,-0.2369325796864983,1206.5934065934066,-1.0,69.3184782991926,2.183287495372176,458.043960349288,
2023-12-13 11:54:03.759000,-7.060240963855422,-3.216867469879518,5.879518072289157,-3.139178418148375,-7.100551808706315,6.486817903126916,2.0,2.1736263736263735,460.06066734074824,-0.08833984033564414,0.4702523162985829,-0.15791620534933845,1273.260073260073,-1.0,69.3184782991926,2.183673140591973,457.9619909853294,
2023-12-13 11:54:03.767000,-7.048192771084338,-3.216867469879518,5.867469879518072,-3.1171060698957693,-7.083384426732066,6.508890251379522,2.0,2.1736263736263735,460.06066734074824,0.06573043528931848,0.3567391177670295,-0.3519608414428065,1369.230769230769,-1.0,69.3184782991926,2.1840447565409185,457.8830387945007,
2023-12-13 11:54:03.774000,-7.060240963855422,-3.240963855421687,5.843373493975904,-3.055793991416309,-7.056407112201104,6.513795217657878,2.0,2.172161172161172,460.3709949409781,0.01841384534700861,0.12237049123011434,-0.3636151739409127,1498.9010989010987,-1.0,69.3184782991926,2.1844025131388536,457.80706403328725,
2023-12-13 11:54:03.782000,-7.0843373493975905,-3.240963855421687,5.83132530120482,-3.151440833844267,-7.090741876149601,6.513795217657878,2.0,2.1736263736263735,460.06066734074824,-0.1818075869704555,-0.03321484761960261,-0.20826292174115743,1652.0146520146518,-1.0,69.3184782991926,2.184746580636231,457.7340270441755,
2023-12-13 11:54:03.789000,-7.0361445783132535,-3.2650602409638556,5.891566265060241,-3.1465358675659103,-7.06131207847946,6.530962599632127,2.0,2.172161172161172,460.3709949409781,-0.012703222422935475,0.14801002272594696,-0.295670415476954,1827.8388278388277,-1.0,69.3184782991926,2.1850771302861753,457.66388810148567,
2023-12-13 11:54:03.797000,-7.060240963855422,-3.240963855421687,5.867469879518072,-3.114653586756591,-7.036787247087676,6.577559779276517,2.0,2.172161172161172,460.3709949409781,0.1086183788823496,0.5559116601596643,-0.23075578346250228,2015.3846153846152,-1.0,69.3184782991926,2.1853943341435453,457.59660745248186,
2023-12-13 11:54:03.805000,-7.0843373493975905,-3.2650602409638556,5.855421686746988,-3.13182096873084,-7.078479460453709,6.548129981606376,2.0,2.1706959706959705,460.6817414782316,0.10768603228250118,0.5497348639356678,-0.22621059378824096,2198.5347985347985,-1.0,69.3184782991926,2.1856983638525103,457.5321455814685,
2023-12-13 11:54:03.812000,-7.060240963855422,-3.2289156626506026,5.891566265060241,-3.1759656652360513,-7.024524831391783,6.518700183936235,2.0,2.1706959706959705,460.6817414782316,0.10477244915797505,0.17306683759687713,0.0992949128838649,2367.7655677655675,-1.0,69.3184782991926,2.1859893909161983,457.4704631407485,
2023-12-13 11:54:03.820000,-7.096385542168675,-3.240963855421687,5.855421686746988,-3.1195585530349477,-7.078479460453709,6.506437768240343,2.0,2.1706959706959705,460.6817414782316,0.3019637550259305,0.44449624147776945,0.055358079366004065,2512.0879120879117,-1.0,69.3184782991926,2.1862675863762915,457.41152101694195,
2023-12-13 11:54:03.828000,-7.0843373493975905,-3.240963855421687,5.843373493975904,-3.0999386879215205,-7.10790925812385,6.577559779276517,2.0,2.169230769230769,460.9929078014185,0.10232503933337228,0.4528873608764053,-0.035196084144280736,2623.4432234432234,-1.0,69.3184782991926,2.1865331210966596,457.3552802683488,
2023-12-13 11:54:03.835000,-7.072289156626506,-3.216867469879518,5.855421686746988,-3.114653586756591,-7.058859595340282,6.540772532188841,2.0,2.169230769230769,460.9929078014185,0.13402482372822055,0.11106578870695237,0.08950527358545511,2701.098901098901,-1.0,69.3184782991926,2.1867861654946252,457.30170217191994,
2023-12-13 11:54:03.843000,-7.0843373493975905,-3.216867469879518,5.867469879518072,-3.097486204782342,-7.044144696505211,6.609442060085836,2.0,2.1677655677655676,461.30449476174385,-0.06491463201445088,0.2629217411572756,0.09311811665986798,2742.8571428571427,-1.0,69.3184782991926,2.187026888331652,457.2507484945268,
2023-12-13 11:54:03.851000,-7.060240963855422,-3.204819277108434,5.867469879518072,-3.109748620478234,-7.009809932556713,6.538320049049663,2.0,2.1677655677655676,461.30449476174385,0.05920400909037948,0.3491638016432612,0.07971563428704576,2756.043956043956,-1.0,69.3184782991926,2.187255456563996,457.2023815208879,
2023-12-13 11:54:03.858000,-7.060240963855422,-3.204819277108434,5.855421686746988,-3.0901287553648067,-7.071122011036174,6.494175352544451,2.0,2.166300366300366,461.6165032127156,-0.12085542800536173,0.11304702523163007,0.03717732066895886,2738.461538461538,-1.0,69.3184782991926,2.187472035587232,457.15656399035777,
2023-12-13 11:54:03.866000,-7.0843373493975905,-3.216867469879518,5.867469879518072,-3.0459840588595952,-7.071122011036174,6.52605763335377,2.0,2.166300366300366,461.6165032127156,-0.08868947031058838,0.3844764291125224,-0.022376318396363993,2696.7032967032965,-1.0,69.3184782991926,2.187676789031152,457.11325913795855,
2023-12-13 11:54:03.874000,-7.096385542168675,-3.2289156626506026,5.843373493975904,-3.122011036174126,-7.017167381974248,6.530962599632127,2.0,2.1648351648351647,461.9289340101523,-0.4207214031816319,0.041139793718313375,0.05477536274109902,2635.8974358974356,-1.0,69.3184782991926,2.1878698780703303,457.07243084528415,
2023-12-13 11:54:03.881000,-7.0843373493975905,-3.216867469879518,5.843373493975904,-3.102391171060699,-7.09319435928878,6.538320049049663,2.0,2.1648351648351647,461.9289340101523,-0.050812889691743635,0.2490530854845283,-0.035196084144280736,2558.974358974359,-1.0,69.3184782991926,2.188051461303008,457.03404366236606,
2023-12-13 11:54:03.889000,-7.0843373493975905,-3.2289156626506026,5.855421686746988,-3.0901287553648067,-7.088289393010423,6.538320049049663,2.0,2.1648351648351647,461.9289340101523,-0.3986947147602122,0.19555969931822195,-0.17015325447234972,2470.32967032967,-1.0,69.3184782991926,2.1882216950248297,456.9980627389277,
2023-12-13 11:54:03.897000,-7.072289156626506,-3.216867469879518,5.855421686746988,-3.097486204782342,-7.09319435928878,6.545677498467198,2.0,2.1633699633699632,462.241788012191,0.05046325971679939,0.28063632655439574,0.0013985198997722072,2378.7545787545787,-1.0,69.3184782991926,2.1883807335465675,456.964453753714,
2023-12-13 11:54:03.904000,-7.072289156626506,-3.2289156626506026,5.807228915662651,-3.0876762722256283,-7.06131207847946,6.518700183936235,2.0,2.161904761904762,462.55506607929516,-0.22224812073888384,0.27352718373055257,-0.055358079366004065,2285.714285714286,-1.0,69.3184782991926,2.1885287281153003,456.93318314780015,
2023-12-13 11:54:03.912000,-7.0843373493975905,-3.2289156626506026,5.843373493975904,-3.1072961373390555,-7.095646842427958,6.58736971183323,2.0,2.1604395604395603,462.8687690742625,-0.3697919701649092,-0.008507662723616683,-0.008041489423693338,2194.871794871795,-1.0,69.3184782991926,2.188665825842967,456.90421835515485,
2023-12-13 11:54:03.920000,-7.060240963855422,-3.216867469879518,5.843373493975904,-3.0410790925812385,-7.031882280809319,6.506437768240343,2.0,2.1604395604395603,462.8687690742625,-0.08997144688537932,0.5196666860905548,-0.29473806887710513,2112.8205128205127,-1.0,69.3184782991926,2.1887921705039624,456.8775276166721,
2023-12-13 11:54:03.927000,-7.096385542168675,-3.240963855421687,5.843373493975904,-3.102391171060699,-7.053954629061924,6.523605150214592,2.0,2.1604395604395603,462.8687690742625,-0.3031291882757423,0.44915797447701156,-0.28821164267816574,2033.6996336996335,-1.0,69.3184782991926,2.18890790277829,456.8530799254101,
2023-12-13 11:54:03.935000,-7.0843373493975905,-3.240963855421687,5.843373493975904,-3.1122011036174126,-7.078479460453709,6.518700183936235,2.0,2.1604395604395603,462.8687690742625,-0.14532952625138426,0.4103490472583184,-0.3154827807237344,1960.4395604395604,-1.0,69.3184782991926,2.189013160186067,456.8308450425554,
2023-12-13 11:54:03.943000,-7.060240963855422,-3.240963855421687,5.879518072289157,-3.0901287553648067,-7.066217044757817,6.533415082771306,2.0,2.158974358974359,463.1828978622328,-0.1715517743721228,0.5087116135423335,-0.06409882873958415,1888.6446886446886,-1.0,69.3184782991926,2.1891080770325377,456.81079350535634,
2023-12-13 11:54:03.950000,-7.060240963855422,-3.2289156626506026,5.867469879518072,-3.1367259350091965,-7.031882280809319,6.530962599632127,2.0,2.158974358974359,463.1828978622328,-0.2441582658353245,0.4533535341763286,-0.700075753161238,1818.3150183150183,-1.0,69.3184782991926,2.1891927839063285,456.7928967310133,
2023-12-13 11:54:03.958000,-7.060240963855422,-3.240963855421687,5.83132530120482,-3.139178418148375,-7.044144696505211,6.489270386266094,2.0,2.1575091575091574,463.49745331069613,0.050929433016724465,0.5670998193578471,-0.5371481848377132,1746.5201465201465,-1.0,69.3184782991926,2.189267408033103,456.7771269330521,
2023-12-13 11:54:03.966000,-7.0843373493975905,-3.240963855421687,5.819277108433735,-3.1489883507050886,-7.088289393010423,6.513795217657878,2.0,2.1575091575091574,463.49745331069613,-0.13204358720354287,0.23518442981178272,-0.22516170386341083,1671.7948717948716,-1.0,69.3184782991926,2.18933207318311,456.7634571385613,
2023-12-13 11:54:03.973000,-7.072289156626506,-3.2289156626506026,5.807228915662651,-3.104843654199877,-7.100551808706315,6.4402207234825255,2.0,2.156043956043956,463.8124362895005,-0.3730551832643778,0.29112522580269184,-0.0983625662840156,1597.069597069597,-1.0,69.3184782991926,2.189386899555765,456.7518612102778,
2023-12-13 11:54:03.981000,-7.0843373493975905,-3.2289156626506026,5.843373493975904,-3.1538933169834458,-7.06131207847946,6.540772532188841,2.0,2.156043956043956,463.8124362895005,0.08985490356039848,0.026571878095682785,-0.3095390711496996,1517.9487179487178,-1.0,69.3184782991926,2.1894320037106896,456.7423138588816,
2023-12-13 11:54:03.989000,-7.060240963855422,-3.253012048192771,5.807228915662651,-3.0999386879215205,-7.073574494175352,6.481912936848559,2.0,2.1545787545787545,464.12784767086026,0.014917545597576574,-0.2818017598042076,-0.22900763358778625,1442.4908424908424,-1.0,69.3184782991926,2.1894674980178217,456.7347907619077,
2023-12-13 11:54:03.996000,-7.072289156626506,-3.240963855421687,5.855421686746988,-3.1538933169834458,-7.110361741263028,6.540772532188841,2.0,2.1545787545787545,464.12784767086026,0.351611211467864,-0.191480682943884,-0.5291066954140203,1363.3699633699632,-1.0,69.3184782991926,2.1894934906789807,456.7292685560999,
2023-12-13 11:54:04.004000,-7.048192771084338,-3.253012048192771,5.819277108433735,-3.1955855303494785,-7.149601471489883,6.501532801961986,2.0,2.153113553113553,464.44368832936374,-0.21490589126507728,-0.00967309597342852,-0.32270846687256016,1286.4468864468863,-1.0,69.3184782991926,2.1895100861472625,456.7257247411809,
2023-12-13 11:54:04.012000,-7.0843373493975905,-3.240963855421687,5.867469879518072,-3.139178418148375,-7.088289393010423,6.533415082771306,2.0,2.153113553113553,464.44368832936374,-0.13752112347765258,0.4168754734572574,-0.3323815628459878,1214.6520146520145,-1.0,69.3184782991926,2.1895173851005514,456.7241376833752,
2023-12-13 11:54:04.019000,-7.072289156626506,-3.2650602409638556,5.867469879518072,-3.134273451870018,-7.122624156958921,6.501532801961986,2.0,2.1516483516483516,464.75995914198165,-0.33296427947089374,0.5662840160829796,-0.09463317988462232,1152.3809523809523,-1.0,69.3184782991926,2.189515484392138,456.7244866238124,
2023-12-13 11:54:04.027000,-7.096385542168675,-3.2650602409638556,5.843373493975904,-3.1661557326793375,-7.100551808706315,6.530962599632127,2.0,2.1516483516483516,464.75995914198165,-0.1636268282734103,0.46885379639881114,-0.10652059903269064,1101.8315018315018,-1.0,69.3184782991926,2.189504477047815,456.72675167713624,
2023-12-13 11:54:04.035000,-7.1084337349397595,-3.2650602409638556,5.83132530120482,-3.0950337216431634,-7.063764561618639,6.501532801961986,2.0,2.15018315018315,465.076660988075,-0.34415243866907486,0.2955538721519723,-0.05372647281626932,1063.003663003663,-1.0,69.3184782991926,2.1894844522397503,456.7309138350858,
2023-12-13 11:54:04.042000,-7.1084337349397595,-3.2650602409638556,5.843373493975904,-3.1465358675659103,-7.080931943592887,6.508890251379522,2.0,2.15018315018315,465.076660988075,-0.448342171202144,0.4729328127731491,-0.09171959676009576,1036.6300366300366,-1.0,69.3184782991926,2.18945549530645,456.7369549603609,
2023-12-13 11:54:04.050000,-7.0843373493975905,-3.2650602409638556,5.843373493975904,-3.156345800122624,-7.017167381974248,6.545677498467198,2.0,2.1487179487179486,465.39379474940336,-0.24637258900996387,0.5071965503175809,0.06724549851407281,1021.978021978022,-1.0,69.3184782991926,2.189417687749091,456.7448577855585,
2023-12-13 11:54:04.058000,-7.048192771084338,-3.253012048192771,5.867469879518072,-3.1367259350091965,-7.002452483139178,6.540772532188841,2.0,2.1487179487179486,465.39379474940336,-0.4863352951459713,0.8315366237398754,-0.1286638307790921,1021.2454212454212,-1.0,69.3184782991926,2.189371107273488,456.75460590248895,
2023-12-13 11:54:04.065000,-7.0361445783132535,-3.240963855421687,5.83132530120482,-3.1244635193133043,-7.105456774984671,6.506437768240343,2.0,2.147252747252747,465.7113613101331,-0.22154886078899882,0.8596235650603108,0.060136355690227905,1030.03663003663,-1.0,69.3184782991926,2.189315827807926,456.7661837566772,
2023-12-13 11:54:04.073000,-7.0843373493975905,-3.240963855421687,5.83132530120482,-3.0950337216431634,-7.085836909871245,6.523605150214592,2.0,2.1457875457875457,466.02936155684534,-0.3084901812248712,0.9621816910436448,0.01713186877221594,1046.8864468864467,-1.0,69.3184782991926,2.1892519200240006,456.7795765321526,
2023-12-13 11:54:04.081000,-7.060240963855422,-3.253012048192771,5.855421686746988,-3.139178418148375,-7.017167381974248,6.459840588595953,2.0,2.1457875457875457,466.02936155684534,-0.3028961016257789,0.9387564827224515,0.01969582192179955,1071.062271062271,-1.0,69.3184782991926,2.1891794508149696,456.79477026353067,
2023-12-13 11:54:04.088000,-7.072289156626506,-3.240963855421687,5.83132530120482,-3.0582464745554874,-7.098099325567136,6.474555487431023,2.0,2.1457875457875457,466.02936155684534,-0.2961365887768782,0.7318920808810676,-0.05221140959151584,1100.3663003663003,-1.0,69.3184782991926,2.1890984828528004,456.81175193255115,
2023-12-13 11:54:04.096000,-7.060240963855422,-3.240963855421687,5.807228915662651,-3.1538933169834458,-7.078479460453709,6.540772532188841,2.0,2.1443223443223443,466.3477963785446,-0.136705320202785,0.7096323058096844,-0.032981760969640506,1126.7399267399267,-1.0,69.3184782991926,2.1890090752410947,456.83050932495644,
2023-12-13 11:54:04.104000,-7.072289156626506,-3.240963855421687,5.83132530120482,-3.1465358675659103,-7.01471489883507,6.501532801961986,2.0,2.1443223443223443,466.3477963785446,-0.25289901520890457,0.4736320727230341,-0.07435464133791729,1152.3809523809523,-1.0,69.3184782991926,2.188911283649408,456.851030999687,
2023-12-13 11:54:04.111000,-7.060240963855422,-3.2289156626506026,5.795180722891566,-3.156345800122624,-7.142244022072348,6.553034947884733,2.0,2.1443223443223443,466.3477963785446,-0.24858691218460496,0.46943651302371703,-0.2674669308315365,1177.2893772893772,-1.0,69.3184782991926,2.188805160386881,456.8733062719609,
2023-12-13 11:54:04.119000,-7.072289156626506,-3.240963855421687,5.855421686746988,-3.122011036174126,-7.100551808706315,6.577559779276517,2.0,2.142857142857143,466.6666666666667,-0.13705495017772923,0.4505564943767851,-0.03531262746926157,1197.069597069597,-1.0,69.3184782991926,2.188690755011827,456.8973250799657,
2023-12-13 11:54:04.127000,-7.0843373493975905,-3.240963855421687,5.855421686746988,-3.1367259350091965,-7.098099325567136,6.550582464745554,2.0,2.142857142857143,466.6666666666667,-0.24042887943593078,0.6341122312219566,-0.3230580968475031,1210.2564102564102,-1.0,69.3184782991926,2.1885681140016158,456.9230780560182,
2023-12-13 11:54:04.134000,-7.096385542168675,-3.240963855421687,5.819277108433735,-3.134273451870018,-7.103004291845493,6.528510116492948,2.0,2.1413919413919413,466.9859733150873,-0.29567041547695316,0.8826991434065615,0.2448575257852104,1220.5128205128203,-1.0,69.3184782991926,2.188437280395969,456.9505566029268,
2023-12-13 11:54:04.142000,-7.096385542168675,-3.240963855421687,5.807228915662651,-3.08522378908645,-7.080931943592887,6.46474555487431,2.0,2.1413919413919413,466.9859733150873,-0.3185129071732422,0.7335236874308028,-0.1527882990501721,1225.6410256410256,-1.0,69.3184782991926,2.1882982944658367,456.97975274884595,
2023-12-13 11:54:04.149000,-7.0843373493975905,-3.2650602409638556,5.83132530120482,-3.144083384426732,-7.080931943592887,6.467198038013488,2.0,2.1413919413919413,466.9859733150873,-0.14229939980187556,0.5571936367344552,-0.13414136705320226,1224.9084249084249,-1.0,69.3184782991926,2.1881511942509273,457.01065903051506,
2023-12-13 11:54:04.157000,-7.096385542168675,-3.2650602409638556,5.843373493975904,-3.1195585530349477,-7.103004291845493,6.506437768240343,2.0,2.13992673992674,467.3057172201301,-0.3185129071732422,0.736320727230348,0.30814055124992695,1223.4432234432234,-1.0,69.3184782991926,2.1879960157186114,457.0432684574737,
2023-12-13 11:54:04.165000,-7.096385542168675,-3.2650602409638556,5.843373493975904,-3.126916002452483,-7.115266707541386,6.513795217657878,2.0,2.13992673992674,467.3057172201301,-0.2061651418914989,0.6367927276965211,0.35184429811782525,1219.7802197802198,-1.0,69.3184782991926,2.1878327924741963,457.0775745751332,
2023-12-13 11:54:04.172000,-7.096385542168675,-3.240963855421687,5.819277108433735,-3.0680564071122007,-7.090741876149601,6.516247700797057,2.0,2.1384615384615384,467.62589928057554,-0.2773731134549271,1.0252316298584006,0.24357554921041902,1215.3846153846152,-1.0,69.3184782991926,2.1876615559008985,457.11357143415984,
2023-12-13 11:54:04.180000,-7.072289156626506,-3.253012048192771,5.795180722891566,-3.0827713059472717,-7.031882280809319,6.4475781729000605,2.0,2.1384615384615384,467.62589928057554,0.06608006526426272,0.5553289435347584,0.1828564768952856,1211.7216117216117,-1.0,69.3184782991926,2.187482335340653,457.15125355114753,
2023-12-13 11:54:04.188000,-7.060240963855422,-3.2289156626506026,5.795180722891566,-3.156345800122624,-7.058859595340282,6.52605763335377,2.0,2.136996336996337,467.94652039766885,0.053143756191363835,0.6858574675135487,0.41267991375793944,1204.3956043956043,-1.0,69.3184782991926,2.187295158245827,457.1906158755798,
2023-12-13 11:54:04.195000,-7.072289156626506,-3.2289156626506026,5.807228915662651,-3.126916002452483,-7.017167381974248,6.550582464745554,2.0,2.136996336996337,467.94652039766885,-0.29753510867665,0.4030068177845118,0.5047491404929781,1195.6043956043954,-1.0,69.3184782991926,2.1871000508287586,457.2316536502307,
2023-12-13 11:54:04.203000,-7.072289156626506,-3.240963855421687,5.795180722891566,-3.1661557326793375,-7.053954629061924,6.4990803188228075,2.0,2.136996336996337,467.94652039766885,-0.0802983509119508,0.4101159606083567,0.2717790338558361,1185.3479853479853,-1.0,69.3184782991926,2.1868970381561206,457.2743623906187,
2023-12-13 11:54:04.211000,-7.096385542168675,-3.240963855421687,5.795180722891566,-3.134273451870018,-7.083384426732066,6.491722869405272,2.0,2.1355311355311355,468.2675814751287,-0.04813239321717919,0.24555678573509626,0.2114095915156461,1176.5567765567764,-1.0,69.3184782991926,2.186686144353798,457.3187378383101,
2023-12-13 11:54:04.218000,-7.072289156626506,-3.2289156626506026,5.819277108433735,-3.144083384426732,-7.053954629061924,6.4475781729000605,2.0,2.134065934065934,468.58908341915554,0.07447118466289857,0.2659518676067826,0.07423809801293646,1167.032967032967,-1.0,69.3184782991926,2.1864673923596065,457.36477601553645,
2023-12-13 11:54:04.226000,-7.096385542168675,-3.2289156626506026,5.819277108433735,-3.13182096873084,-7.06131207847946,6.474555487431023,2.0,2.134065934065934,468.58908341915554,-0.07866674436221735,-0.40219101450964423,-0.04498572344268966,1156.0439560439559,-1.0,69.3184782991926,2.186240804525049,457.4124730992047,
2023-12-13 11:54:04.234000,-7.096385542168675,-3.240963855421687,5.819277108433735,-3.151440833844267,-7.09319435928878,6.491722869405272,2.0,2.134065934065934,468.58908341915554,0.09206922673503957,-0.3474156517685452,0.2783054600547755,1145.054945054945,-1.0,69.3184782991926,2.1860064031170885,457.4618253109438,
2023-12-13 11:54:04.241000,-7.0843373493975905,-3.2289156626506026,5.843373493975904,-3.1171060698957693,-7.10790925812385,6.45003065603924,2.0,2.1326007326007326,468.91102713844043,-0.0023308664996219363,-0.046500786667444005,0.14066779325214168,1134.7985347985348,-1.0,69.3184782991926,2.185764210048719,457.5128289711198,
2023-12-13 11:54:04.249000,-7.1084337349397595,-3.240963855421687,5.795180722891566,-3.1195585530349477,-7.049049662783568,6.538320049049663,2.0,2.1326007326007326,468.91102713844043,-0.03216595769477335,-0.2632713711322181,0.26187285123244547,1124.5421245421244,-1.0,69.3184782991926,2.185514246646649,457.5654805505343,
2023-12-13 11:54:04.257000,-7.1084337349397595,-3.2650602409638556,5.795180722891566,-3.0950337216431634,-7.120171673819742,6.454935622317596,2.0,2.1326007326007326,468.91102713844043,0.08927218693549256,-0.20173649554221845,0.5370316415127324,1118.6813186813185,-1.0,69.3184782991926,2.1852565338415535,457.61977662927353,
2023-12-13 11:54:04.264000,-7.120481927710844,-3.253012048192771,5.819277108433735,-3.122011036174126,-7.046597179644389,6.442673206621704,2.0,2.131135531135531,469.2334135441733,0.22504516053843088,-0.0643319153895467,0.2146728046151156,1115.018315018315,-1.0,69.3184782991926,2.1849910928847156,457.6757137398911,
2023-12-13 11:54:04.272000,-7.096385542168675,-3.253012048192771,5.855421686746988,-3.144083384426732,-7.017167381974248,6.481912936848559,2.0,2.131135531135531,469.2334135441733,0.12854728745411081,-0.35802109434182217,0.4907639414952509,1109.89010989011,-1.0,69.3184782991926,2.1847179455730537,457.7332883222385,
2023-12-13 11:54:04.280000,-7.072289156626506,-3.2650602409638556,5.819277108433735,-3.1293684855916615,-7.07602697731453,6.486817903126916,2.0,2.1296703296703297,469.5562435500516,-0.07085834158848568,-0.17003671114736846,0.21257502476545664,1106.9597069597069,-1.0,69.3184782991926,2.1844371143704193,457.792496697065,
2023-12-13 11:54:04.287000,-7.096385542168675,-3.240963855421687,5.807228915662651,-3.163703249540159,-7.080931943592887,6.508890251379522,2.0,2.1296703296703297,469.5562435500516,0.05209486626653457,-0.22737602703805107,0.2427597459355514,1105.4945054945053,-1.0,69.3184782991926,2.1841486225981552,457.8533350249013,
2023-12-13 11:54:04.295000,-7.096385542168675,-3.240963855421687,5.83132530120482,-3.1122011036174126,-7.044144696505211,6.4328632740649905,2.0,2.128205128205128,469.87951807228916,0.06631315191422439,-0.17889400384592938,0.18075869704562667,1104.7619047619046,-1.0,69.3184782991926,2.1838524950129643,457.9157991829109,
2023-12-13 11:54:04.303000,-7.0843373493975905,-3.240963855421687,5.819277108433735,-3.0827713059472717,-7.039239730226854,6.477007970570202,2.0,2.128205128205128,469.87951807228916,0.020161995221722892,0.006876056173883237,0.04020744711846625,1104.7619047619046,-1.0,69.3184782991926,2.1835487570115744,457.97988493241064,
2023-12-13 11:54:04.310000,-7.120481927710844,-3.240963855421687,5.83132530120482,-3.180870631514408,-7.129981606376456,6.538320049049663,2.0,2.128205128205128,469.87951807228916,-0.04102325039333428,-0.048831653167064205,0.2981178253015559,1106.227106227106,-1.0,69.3184782991926,2.183237434850254,458.0455878717269,
2023-12-13 11:54:04.318000,-7.120481927710844,-3.240963855421687,5.807228915662651,-3.1465358675659103,-7.07602697731453,6.479460453709381,2.0,2.1267399267399267,470.2032380296245,-0.14859273935085288,0.029019287920283823,0.2043004486918012,1112.087912087912,-1.0,69.3184782991926,2.182918557232266,458.1129030947452,
2023-12-13 11:54:04.326000,-7.1084337349397595,-3.253012048192771,5.867469879518072,-3.1710606989576946,-7.06131207847946,6.467198038013488,2.0,2.1267399267399267,470.2032380296245,-0.11677641163102377,-0.12388555445486868,0.1575665753743955,1116.4835164835165,-1.0,69.3184782991926,2.1825921545027165,458.1818253642993,
2023-12-13 11:54:04.333000,-7.072289156626506,-3.27710843373494,5.83132530120482,-3.180870631514408,-7.058859595340282,6.452483139178418,2.0,2.1252747252747253,470.52740434332986,0.06817784511392125,0.36396480391585523,0.09568206980945158,1123.076923076923,-1.0,69.3184782991926,2.1822582587894273,458.2523490815877,
2023-12-13 11:54:04.341000,-7.060240963855422,-3.27710843373494,5.819277108433735,-3.1293684855916615,-7.044144696505211,6.454935622317596,2.0,2.1252747252747253,470.52740434332986,0.06817784511392125,0.46722218984907593,0.09638132975933834,1127.4725274725274,-1.0,69.3184782991926,2.181916904138592,458.32446825633644,
2023-12-13 11:54:04.349000,-7.072289156626506,-3.27710843373494,5.807228915662651,-3.144083384426732,-7.051502145922746,6.46474555487431,2.0,2.123809523809524,470.8520179372197,0.052677582891440485,0.9217411572752164,0.1281976574791679,1131.135531135531,-1.0,69.3184782991926,2.181568126644567,458.398176478528,
2023-12-13 11:54:04.356000,-7.0843373493975905,-3.289156626506024,5.795180722891566,-3.185775597792765,-7.095646842427958,6.4622930717351315,2.0,2.123809523809524,470.8520179372197,0.05244449624147708,0.9133500378765805,0.12831420080414915,1132.6007326007325,-1.0,69.3184782991926,2.181211965031022,458.47346679467665,
2023-12-13 11:54:04.364000,-7.072289156626506,-3.313253012048193,5.783132530120482,-3.2103004291845494,-7.046597179644389,6.4402207234825255,2.0,2.123809523809524,470.8520179372197,-0.13344210710331636,0.46524095332439824,0.1411339665520659,1131.135531135531,-1.0,69.3184782991926,2.1808484602420024,458.5503317930312,
2023-12-13 11:54:04.372000,-7.096385542168675,-3.2650602409638556,5.771084337349398,-3.1784181483752296,-7.083384426732066,6.435315757204169,2.0,2.120879120879121,471.5025906735751,-0.4236349863061598,0.7994872093700829,0.506380747042713,1130.4029304029302,-1.0,69.3184782991926,2.1804776560798698,458.62876346247106,
2023-12-13 11:54:04.379000,-7.0843373493975905,-3.2650602409638556,5.759036144578314,-3.109748620478234,-7.105456774984671,6.437768240343347,2.0,2.120879120879121,471.5025906735751,0.144280636326555,0.7365538138803097,0.36664530039042054,1128.2051282051282,-1.0,69.3184782991926,2.180099598817279,458.7087532836525,
2023-12-13 11:54:04.387000,-7.0843373493975905,-3.27710843373494,5.783132530120482,-3.13182096873084,-7.110361741263028,6.459840588595953,2.0,2.120879120879121,471.5025906735751,-0.1936950061185251,0.36687838704038306,0.6371423576714644,1124.5421245421244,-1.0,69.3184782991926,2.17971433715371,458.7902922379733,
2023-12-13 11:54:04.395000,-7.096385542168675,-3.2650602409638556,5.819277108433735,-3.202942979767014,-7.068669527896995,6.4328632740649905,2.0,2.120879120879121,471.5025906735751,-0.10197540935842977,0.3820290192879196,0.6325971679972031,1121.6117216117216,-1.0,69.3184782991926,2.1793219227589495,458.8733706808074,
2023-12-13 11:54:04.402000,-7.120481927710844,-3.240963855421687,5.819277108433735,-3.2103004291845494,-7.10790925812385,6.4181483752299195,2.0,2.11941391941392,471.8285516764604,-0.0090903793485226,0.3034788182506848,0.7031058796107454,1119.4139194139193,-1.0,69.3184782991926,2.1789224099622655,458.9579784049489,
2023-12-13 11:54:04.410000,-7.144578313253012,-3.240963855421687,5.807228915662651,-3.1367259350091965,-7.134886572654812,6.494175352544451,2.0,2.11941391941392,471.8285516764604,0.05069634636676106,0.05850474914049272,0.49565876114445556,1119.4139194139193,-1.0,69.3184782991926,2.1785158558890223,459.04410461599434,
2023-12-13 11:54:04.418000,-7.144578313253012,-3.253012048192771,5.783132530120482,-3.1367259350091965,-7.085836909871245,6.452483139178418,2.0,2.11941391941392,471.8285516764604,-0.02703805139560613,0.2130411980653804,0.7504224695530561,1119.4139194139193,-1.0,69.3184782991926,2.178102320940465,459.1317378305235,
2023-12-13 11:54:04.425000,-7.120481927710844,-3.240963855421687,5.807228915662651,-3.13182096873084,-7.085836909871245,6.503985285101164,2.0,2.117948717948718,472.1549636803874,-0.026571878095682785,0.05990326904026623,1.031524969407377,1119.4139194139193,-1.0,69.3184782991926,2.1776818688421082,459.2208658582599,
2023-12-13 11:54:04.433000,-7.1084337349397595,-3.240963855421687,5.843373493975904,-3.075413856529736,-7.103004291845493,6.521152667075413,2.0,2.1164835164835165,472.4818276220145,-0.11957345143056906,0.014451372297651493,1.0070508711613544,1119.4139194139193,-1.0,69.3184782991926,2.1772545662605767,459.31147588692824,
2023-12-13 11:54:04.441000,-7.1084337349397595,-3.240963855421687,5.783132530120482,-3.114653586756591,-7.07602697731453,6.503985285101164,2.0,2.1164835164835165,472.4818276220145,0.06223413553988644,-0.2588427247829377,1.135831245265427,1119.4139194139193,-1.0,69.3184782991926,2.176820482305222,459.4035545922162,
2023-12-13 11:54:04.448000,-7.1084337349397595,-3.253012048192771,5.807228915662651,-3.1171060698957693,-7.080931943592887,6.457388105456775,2.0,2.1164835164835165,472.4818276220145,-0.2742264436804376,-0.25511333838354394,0.9264028902744599,1123.076923076923,-1.0,69.3184782991926,2.176379688543618,459.49708812740056,
2023-12-13 11:54:04.456000,-7.096385542168675,-3.253012048192771,5.795180722891566,-3.104843654199877,-7.073574494175352,6.46474555487431,2.0,2.1164835164835165,472.4818276220145,-0.33564477594545816,-0.16036361517394165,0.9479634053959558,1131.135531135531,-1.0,69.3184782991926,2.175932260023574,459.5920619011586,
2023-12-13 11:54:04.464000,-7.096385542168675,-3.240963855421687,5.771084337349398,-3.139178418148375,-7.117719190680564,6.4475781729000605,2.0,2.115018315018315,472.8091444405958,-0.029485461220208904,-0.3525435580677124,0.6018297302022029,1136.2637362637363,-1.0,69.3184782991926,2.175478275759438,459.6884604739384,
2023-12-13 11:54:04.471000,-7.0843373493975905,-3.2650602409638556,5.807228915662651,-3.0950337216431634,-7.105456774984671,6.445125689760882,2.0,2.115018315018315,472.8091444405958,-0.1364722335528233,-0.43715401200396287,0.6870229007633587,1142.1245421245421,-1.0,69.3184782991926,2.1750178182275293,459.78626766862743,
2023-12-13 11:54:04.479000,-7.072289156626506,-3.289156626506024,5.83132530120482,-3.1759656652360513,-7.103004291845493,6.46474555487431,2.0,2.113553113553113,473.1369150779896,0.12376901112988785,-0.21677058446477412,0.5393625080123539,1144.3223443223442,-1.0,69.3184782991926,2.174550972818747,459.885466684095,
2023-12-13 11:54:04.487000,-7.072289156626506,-3.27710843373494,5.807228915662651,-3.173513182096873,-7.046597179644389,6.494175352544451,2.0,2.113553113553113,473.1369150779896,0.2287745469378246,-0.0737719247130118,0.20837946506613828,1145.7875457875457,-1.0,69.3184782991926,2.174077827842876,459.9860400931269,
2023-12-13 11:54:04.494000,-7.096385542168675,-3.253012048192771,5.807228915662651,-3.163703249540159,-7.056407112201104,6.5113427345187,2.0,2.113553113553113,473.1369150779896,0.13542334362799405,-0.3462502185187351,0.4172251034322012,1145.054945054945,-1.0,69.3184782991926,2.173598474910922,460.0879697617703,
2023-12-13 11:54:04.502000,-7.1325301204819285,-3.253012048192771,5.807228915662651,-3.1465358675659103,-7.098099325567136,6.467198038013488,2.0,2.112087912087912,473.46514047866805,0.08938873026047514,0.013052852397879719,0.21385700134024843,1142.857142857143,-1.0,69.3184782991926,2.1731130088865998,460.1912368508511,
2023-12-13 11:54:04.510000,-7.120481927710844,-3.240963855421687,5.783132530120482,-3.156345800122624,-7.125076640098099,6.452483139178418,2.0,2.112087912087912,473.46514047866805,-0.0017481498747160184,-0.30044869180117784,0.5592914165841146,1139.194139194139,-1.0,69.3184782991926,2.1726215274072613,460.2958219217766,
2023-12-13 11:54:04.517000,-7.120481927710844,-3.2289156626506026,5.819277108433735,-3.156345800122624,-7.090741876149601,6.472103004291845,2.0,2.1106227106227107,473.7938215897258,0.24264320261057015,-0.14113396655206545,0.248237282209662,1136.2637362637363,-1.0,69.3184782991926,2.1721241312415795,460.4017048612694,
2023-12-13 11:54:04.525000,-7.144578313253012,-3.216867469879518,5.783132530120482,-3.1367259350091965,-7.085836909871245,6.474555487431023,2.0,2.109157509157509,474.1229593608892,0.19497698269331604,-0.5622049997086417,0.31979488374803317,1133.3333333333333,-1.0,69.3184782991926,2.1716209237246917,460.50886499817307,
2023-12-13 11:54:04.532000,-7.1084337349397595,-3.2289156626506026,5.807228915662651,-3.1171060698957693,-7.112814224402207,6.454935622317596,2.0,2.109157509157509,474.1229593608892,0.29963288852631026,-0.5392459646873717,0.39205174523629194,1128.2051282051282,-1.0,69.3184782991926,2.17111201064218,460.6172811351667,
2023-12-13 11:54:04.540000,-7.096385542168675,-3.216867469879518,5.795180722891566,-3.134273451870018,-7.080931943592887,6.474555487431023,2.0,2.109157509157509,474.1229593608892,0.14393100635161074,-0.9744187401666569,0.20418390536682035,1125.2747252747251,-1.0,69.3184782991926,2.170597500951344,460.72693139082116,
2023-12-13 11:54:04.548000,-7.1084337349397595,-3.216867469879518,5.807228915662651,-3.163703249540159,-7.046597179644389,6.459840588595953,2.0,2.109157509157509,474.1229593608892,0.35499096789231344,-1.2864052211409585,0.06456500203950837,1123.076923076923,-1.0,69.3184782991926,2.1700775066520754,460.8377932176772,
2023-12-13 11:54:04.555000,-7.0843373493975905,-3.2289156626506026,5.807228915662651,-3.104843654199877,-7.090741876149601,6.523605150214592,2.0,2.109157509157509,474.1229593608892,0.13728803682769092,-0.8823495134316173,-0.01293630907289758,1120.8791208791208,-1.0,69.3184782991926,2.1695521426885285,460.9498434213637,
2023-12-13 11:54:04.563000,-7.0843373493975905,-3.253012048192771,5.83132530120482,-3.1122011036174126,-7.100551808706315,6.4622930717351315,2.0,2.1076923076923078,474.4525547445255,0.12120505798030425,-0.7238505914573743,-0.07412155468795562,1120.14652014652,-1.0,69.3184782991926,2.169021526389373,461.06305827589483,
2023-12-13 11:54:04.571000,-7.060240963855422,-3.253012048192771,5.819277108433735,-3.1661557326793375,-7.098099325567136,6.474555487431023,2.0,2.1076923076923078,474.4525547445255,-0.1559349688246612,-0.6753685682652525,0.3678107336402302,1120.14652014652,-1.0,69.3184782991926,2.1684857769375343,461.1774136409919,
2023-12-13 11:54:04.578000,-7.1084337349397595,-3.27710843373494,5.807228915662651,-3.1931330472103,-7.080931943592887,6.4696505211526665,2.0,2.1062271062271063,474.7826086956522,-0.06223413553988644,-0.5046325971679974,0.2725948371307037,1120.8791208791208,-1.0,69.3184782991926,2.1679450156790825,461.2928848975743,
2023-12-13 11:54:04.586000,-7.0843373493975905,-3.2650602409638556,5.795180722891566,-3.1686082158185163,-7.07602697731453,6.548129981606376,2.0,2.1062271062271063,474.7826086956522,0.16828856127265243,-0.35242701474272986,0.37538604976399975,1121.6117216117216,-1.0,69.3184782991926,2.1673993659700144,461.40944697919537,
2023-12-13 11:54:04.594000,-7.0843373493975905,-3.253012048192771,5.795180722891566,-3.109748620478234,-7.073574494175352,6.516247700797057,2.0,2.1062271062271063,474.7826086956522,0.10570479575782349,-0.2453236990851346,0.3554571411922381,1123.076923076923,-1.0,69.3184782991926,2.16684895252653,461.5270745073409,
2023-12-13 11:54:04.601000,-7.0843373493975905,-3.2650602409638556,5.783132530120482,-3.1686082158185163,-7.129981606376456,6.4475781729000605,2.0,2.104761904761905,475.1131221719457,0.3363440358953449,-0.3406561389196428,0.4594137870753447,1126.7399267399267,-1.0,69.3184782991926,2.1662939018241905,461.64574169944126,
2023-12-13 11:54:04.609000,-7.120481927710844,-3.27710843373494,5.771084337349398,-3.13182096873084,-7.098099325567136,6.413243408951563,2.0,2.104761904761905,475.1131221719457,0.013985198997728147,-0.27748965677990794,0.20896218169104333,1134.7985347985348,-1.0,69.3184782991926,2.1657343419669934,461.7654224036759,
2023-12-13 11:54:04.617000,-7.1325301204819285,-3.2650602409638556,5.783132530120482,-3.151440833844267,-7.073574494175352,6.442673206621704,2.0,2.103296703296703,475.4440961337513,0.1363556902278425,0.012703222422935475,0.5414602878620128,1149.4505494505493,-1.0,69.3184782991926,2.1651704024848106,461.8860901413642,
2023-12-13 11:54:04.624000,-7.120481927710844,-3.240963855421687,5.759036144578314,-3.122011036174126,-7.103004291845493,6.4181483752299195,2.0,2.103296703296703,475.4440961337513,0.1358895169279174,0.008624206048599255,0.5355165782879789,1180.952380952381,-1.0,69.3184782991926,2.1646022141638563,462.00771814209486,
2023-12-13 11:54:04.632000,-7.1325301204819285,-3.253012048192771,5.771084337349398,-3.139178418148375,-7.125076640098099,6.398528510116493,2.0,2.103296703296703,475.4440961337513,0.13402482372822055,-0.4514888409766335,0.46827107977390564,1237.3626373626373,-1.0,69.3184782991926,2.1640299088409813,462.1302793869278,
2023-12-13 11:54:04.640000,-7.144578313253012,-3.2650602409638556,5.771084337349398,-3.1416309012875536,-7.068669527896995,6.4107909258123845,2.0,2.101831501831502,475.775531544092,-0.0020977798496585277,-0.8311869937649329,0.3241069867723328,1321.6117216117216,880.889892578125,68.11293954616318,2.1634536197242795,462.2537465327456,
2023-12-13 11:54:04.647000,-7.144578313253012,-3.2650602409638556,5.759036144578314,-3.134273451870018,-7.198651134273452,6.484365419987737,2.0,2.101831501831502,475.775531544092,0.18402191014509658,-0.9636967542683991,0.4737486160480162,1437.3626373626373,-1.0,68.11293954616318,2.162873480765006,462.37809205111415,
2023-12-13 11:54:04.655000,-7.1325301204819285,-3.2650602409638556,5.759036144578314,-3.2004904966278356,-7.127529123237277,6.393623543838136,2.0,2.101831501831502,475.775531544092,0.10838529223238792,-1.2900180642153714,0.7745469378241366,1583.8827838827838,-1.0,68.11293954616318,2.1622896264524702,462.50328827152765,
2023-12-13 11:54:04.663000,-7.1084337349397595,-3.289156626506024,5.783132530120482,-3.2078479460453706,-7.134886572654812,6.46474555487431,2.0,2.1003663003663005,476.107429368678,0.03309830429462177,-0.9289668434240421,0.5851640347299111,1753.113553113553,-1.0,68.11293954616318,2.1617021921365067,462.6293073053711,
2023-12-13 11:54:04.670000,-7.120481927710844,-3.27710843373494,5.819277108433735,-3.156345800122624,-7.083384426732066,6.452483139178418,2.0,2.1003663003663005,476.107429368678,0.0941670065846981,-0.9546063749198765,0.6256045684983395,1936.9963369963368,-1.0,68.11293954616318,2.1611113134025213,462.75612118442547,
2023-12-13 11:54:04.678000,-7.120481927710844,-3.2650602409638556,5.795180722891566,-3.202942979767014,-7.125076640098099,6.435315757204169,2.0,2.098901098901099,476.4397905759162,0.02109434182157132,-0.9983101217877752,0.5881941611794185,2122.3443223443223,-1.0,68.11293954616318,2.16051712587072,462.883701903362,
2023-12-13 11:54:04.686000,-7.1084337349397595,-3.2650602409638556,5.807228915662651,-3.0827713059472717,-7.024524831391783,6.518700183936235,2.0,2.098901098901099,476.4397905759162,0.2512674086591694,-0.9985432084377369,0.7969232562205002,2295.970695970696,-1.0,68.11293954616318,2.1599197654893723,463.0120213589866,
2023-12-13 11:54:04.693000,-7.096385542168675,-3.27710843373494,5.807228915662651,-3.1882280809319434,-7.098099325567136,6.494175352544451,2.0,2.0974358974358975,476.7726161369193,0.0848435405862121,-0.8758230872326783,0.43843598857875465,2446.8864468864467,-1.0,68.11293954616318,2.159319368269825,463.1410514062367,
2023-12-13 11:54:04.701000,-7.072289156626506,-3.253012048192771,5.819277108433735,-3.13182096873084,-7.098099325567136,6.4990803188228075,2.0,2.0974358974358975,476.7726161369193,-0.17504807412155482,-1.0613600606025293,0.8007691859448751,2567.7655677655675,-1.0,68.11293954616318,2.1587160691792198,463.2707640890519,
2023-12-13 11:54:04.709000,-7.0843373493975905,-3.2650602409638556,5.855421686746988,-3.109748620478234,-7.007357449417535,6.513795217657878,2.0,2.0974358974358975,476.7726161369193,0.3612843074412908,-0.6773498047899302,0.5956529339782068,2652.014652014652,-1.0,68.11293954616318,2.1581100020178012,463.40113166689446,
2023-12-13 11:54:04.716000,-7.096385542168675,-3.240963855421687,5.83132530120482,-3.1416309012875536,-7.041692213366033,6.481912936848559,2.0,2.0974358974358975,476.7726161369193,0.1287803741040725,-0.43493968882932177,0.6957636501369384,2698.9010989010985,-1.0,68.11293954616318,2.1575013002465657,463.5321264334958,
2023-12-13 11:54:04.724000,-7.1084337349397595,-3.240963855421687,5.819277108433735,-3.1171060698957693,-7.053954629061924,6.503985285101164,2.0,2.0974358974358975,476.7726161369193,0.14404754967659159,-0.4671056465240951,0.6428529805955362,2710.6227106227107,-1.0,68.11293954616318,2.1568900968697373,463.6637207410432,
2023-12-13 11:54:04.732000,-7.0843373493975905,-3.2289156626506026,5.807228915662651,-3.0950337216431634,-7.026977314530963,6.452483139178418,2.0,2.095970695970696,477.10590702551553,0.06503117533943172,-0.14707767612610026,0.4997377775187931,2690.10989010989,-1.0,68.11293954616318,2.1562765243231286,463.79588702314044,
2023-12-13 11:54:04.739000,-7.0843373493975905,-3.253012048192771,5.843373493975904,-3.1195585530349477,-7.090741876149601,6.521152667075413,2.0,2.095970695970696,477.10590702551553,-0.10349047258318238,0.41792436338208666,0.41862362333197384,2644.6886446886447,-1.0,68.11293954616318,2.15566071387631,463.9285979284812,
2023-12-13 11:54:04.747000,-7.096385542168675,-3.2289156626506026,5.795180722891566,-3.063151440833844,-7.041692213366033,6.472103004291845,2.0,2.0945054945054946,477.4396642182581,0.3713070333896618,-0.07272303478818254,0.6441349571703285,2578.7545787545787,-1.0,68.11293954616318,2.155042795462228,464.0618263574154,
2023-12-13 11:54:04.755000,-7.096385542168675,-3.240963855421687,5.819277108433735,-3.08522378908645,-7.10790925812385,6.516247700797057,2.0,2.0945054945054946,477.4396642182581,-0.3326146494959495,0.5688479692325614,0.6357438377716909,2498.168498168498,-1.0,68.11293954616318,2.154422897546114,464.1955454898555,
2023-12-13 11:54:04.762000,-7.1084337349397595,-3.1927710843373496,5.795180722891566,-3.0901287553648067,-7.071122011036174,6.4107909258123845,2.0,2.0945054945054946,477.4396642182581,0.43435697220441755,0.2753918769302494,0.41466115028261713,2408.7912087912086,-1.0,68.11293954616318,2.153801146964334,464.32972882001764,
2023-12-13 11:54:04.770000,-7.120481927710844,-3.253012048192771,5.807228915662651,-3.1955855303494785,-7.122624156958921,6.513795217657878,2.0,2.0930402930402936,477.7738886944347,-0.22492861721344828,0.1361226035778808,0.5927393508536798,2315.7509157509157,-1.0,68.11293954616318,2.1531776692954923,464.4643500700525,
2023-12-13 11:54:04.778000,-7.1084337349397595,-3.216867469879518,5.807228915662651,-3.1293684855916615,-7.15450643776824,6.580012262415695,2.0,2.0930402930402936,477.7738886944347,-0.5879610745294568,0.7604451955014281,0.4625604568498338,2221.978021978022,-1.0,68.11293954616318,2.1525525887464623,464.59938322345977,
2023-12-13 11:54:04.785000,-7.096385542168675,-3.2289156626506026,5.795180722891566,-3.0312691600245247,-7.132434089515634,6.405885959534028,2.0,2.0930402930402936,477.7738886944347,0.3644309772157803,-0.8049647456441926,0.6996095798613133,2127.4725274725274,-1.0,68.11293954616318,2.1519260274839005,464.73480266549916,
2023-12-13 11:54:04.793000,-7.1084337349397595,-3.240963855421687,5.759036144578314,-3.1195585530349477,-7.07602697731453,6.383813611281422,2.0,2.0915750915750917,478.10858143607703,-0.020161995221722892,-0.7107977390594945,0.34053959559466196,2035.8974358974358,-1.0,68.11293954616318,2.1512981056026312,464.870583180539,
2023-12-13 11:54:04.801000,-7.1084337349397595,-3.2289156626506026,5.783132530120482,-3.102391171060699,-7.058859595340282,6.405885959534028,2.0,2.0915750915750917,478.10858143607703,-0.1715517743721228,-0.40219101450964423,0.1361226035778795,1950.18315018315,-1.0,68.11293954616318,2.150668941064779,465.00669997462035,
2023-12-13 11:54:04.808000,-7.1084337349397595,-3.240963855421687,5.795180722891566,-3.1171060698957693,-7.07602697731453,6.481912936848559,2.0,2.0915750915750917,478.10858143607703,0.13717149350271007,-0.7950585630208025,0.11689295495600462,1871.7948717948716,-1.0,68.11293954616318,2.1500386495751664,465.1431287027196,
2023-12-13 11:54:04.816000,-7.1325301204819285,-3.216867469879518,5.83132530120482,-3.1710606989576946,-7.098099325567136,6.457388105456775,2.0,2.0901098901098907,478.4437434279705,0.3672280170153256,-1.5665753743954307,0.4336577122545308,1798.5347985347985,-1.0,68.11293954616318,2.149407344990017,465.27984537433565,
2023-12-13 11:54:04.824000,-7.1325301204819285,-3.216867469879518,5.83132530120482,-3.1171060698957693,-7.127529123237277,6.543225015328019,2.0,2.0901098901098907,478.4437434279705,-0.30522696812540084,-0.7013577297360294,0.13973544665229368,1726.007326007326,-1.0,68.11293954616318,2.148775138783573,465.4168264745763,
2023-12-13 11:54:04.831000,-7.096385542168675,-3.204819277108434,5.843373493975904,-3.0901287553648067,-7.068669527896995,6.459840588595953,2.0,2.0886446886446888,478.77937565766393,0.08239613076161106,-1.1993473573801052,0.24462443913524784,1652.7472527472526,-1.0,68.11293954616318,2.1481421399439453,465.5540489872068,
2023-12-13 11:54:04.839000,-7.120481927710844,-3.2289156626506026,5.819277108433735,-3.102391171060699,-7.066217044757817,6.521152667075413,2.0,2.0886446886446888,478.77937565766393,-0.2366994930365371,-0.6399393974710106,0.01212050579802999,1579.4871794871794,-1.0,68.11293954616318,2.147508455367644,465.6914903133613,
2023-12-13 11:54:04.847000,-7.096385542168675,-3.216867469879518,5.807228915662651,-3.050889025137952,-7.159411404046597,6.489270386266094,2.0,2.0886446886446888,478.77937565766393,0.057572402540644295,-0.468970339723792,0.13344210710331506,1506.9597069597069,-1.0,68.11293954616318,2.1468741892423004,465.82912840145264,
2023-12-13 11:54:04.854000,-7.096385542168675,-3.240963855421687,5.819277108433735,-3.0239117106069893,-7.073574494175352,6.486817903126916,2.0,2.0886446886446888,478.77937565766393,-0.10990035545714054,-0.43552240545422766,0.009556552648447248,1430.03663003663,-1.0,68.11293954616318,2.146239443066701,465.96694173341564,
2023-12-13 11:54:04.862000,-7.096385542168675,-3.204819277108434,5.819277108433735,-3.1122011036174126,-7.090741876149601,6.45003065603924,2.0,2.087179487179487,479.1154791154791,-0.12248703455509517,0.02587261814579603,-0.2509177786842265,1353.113553113553,-1.0,68.11293954616318,2.1456043161343965,466.10490922401414,
2023-12-13 11:54:04.870000,-7.0843373493975905,-3.240963855421687,5.807228915662651,-3.104843654199877,-7.115266707541386,6.516247700797057,2.0,2.087179487179487,479.1154791154791,-0.18215721694539974,-0.3576714643668779,0.07039216828856192,1275.4578754578754,-1.0,68.11293954616318,2.1449689050405256,466.24301033388724,
2023-12-13 11:54:04.877000,-7.0843373493975905,-3.240963855421687,5.807228915662651,-3.151440833844267,-7.078479460453709,6.4255058246474555,2.0,2.087179487179487,479.1154791154791,0.01841384534700861,-0.3545247945923901,0.26665112755666975,1202.9304029304028,-1.0,68.11293954616318,2.144333303617737,466.3812250842992,
2023-12-13 11:54:04.885000,-7.096385542168675,-3.2650602409638556,5.819277108433735,-3.202942979767014,-7.115266707541386,6.430410790925812,2.0,2.087179487179487,479.1154791154791,-0.029368917895228067,-0.4302779558300796,0.23297010663714293,1136.2637362637363,-1.0,68.11293954616318,2.1436976034054034,466.51953394969775,
2023-12-13 11:54:04.893000,-7.096385542168675,-3.253012048192771,5.795180722891566,-3.1416309012875536,-7.137339055793991,6.445125689760882,2.0,2.085714285714286,479.4520547945205,0.18553697336985095,-0.48854961832061067,0.1835557368451715,1080.5860805860805,-1.0,68.11293954616318,2.1430618941270483,466.6579177582505,
2023-12-13 11:54:04.900000,-7.0843373493975905,-3.253012048192771,5.771084337349398,-3.1293684855916615,-7.110361741263028,6.415695892090741,2.0,2.085714285714286,479.4520547945205,0.1823903035953614,-0.48563603519608456,0.17924363382087233,1035.164835164835,-1.0,68.11293954616318,2.142426262700425,466.79635790836886,
2023-12-13 11:54:04.908000,-7.120481927710844,-3.240963855421687,5.795180722891566,-3.1686082158185163,-7.127529123237277,6.506437768240343,2.0,2.085714285714286,479.4520547945205,0.2894936192529567,-0.31408426082396174,0.13041198065380855,1002.9304029304028,-1.0,68.11293954616318,2.1417907932382985,466.934836369908,
2023-12-13 11:54:04.915000,-7.096385542168675,-3.253012048192771,5.795180722891566,-3.1195585530349477,-7.088289393010423,6.4328632740649905,2.0,2.085714285714286,479.4520547945205,-0.18646931996969937,-0.2354175164617444,0.11199813530679993,984.6153846153845,-1.0,68.11293954616318,2.1411555679701073,467.073335482325,
2023-12-13 11:54:04.923000,-7.096385542168675,-3.240963855421687,5.807228915662651,-3.1587982832618025,-7.078479460453709,6.479460453709381,2.0,2.085714285714286,479.4520547945205,-0.049297826466989284,-0.6174465357496657,0.0024474098246019048,981.6849816849816,-1.0,68.11293954616318,2.1405206667996914,467.21183804654254,
2023-12-13 11:54:04.931000,-7.0843373493975905,-3.240963855421687,5.843373493975904,-3.13182096873084,-7.053954629061924,6.506437768240343,2.0,2.0842490842490844,479.78910369068535,-0.27748965677990794,0.030417807820055594,0.27317755375560876,991.2087912087911,-1.0,68.11293954616318,2.139886167362775,467.3503273127512,
2023-12-13 11:54:04.938000,-7.096385542168675,-3.2289156626506026,5.855421686746988,-3.104843654199877,-7.149601471489883,6.599632127529123,2.0,2.0842490842490844,479.78910369068535,-0.184954256744945,-0.15150632247538073,-0.053609929491288046,1010.9890109890109,-1.0,68.11293954616318,2.1392521445988053,467.4887870800161,
2023-12-13 11:54:04.946000,-7.096385542168675,-3.240963855421687,5.879518072289157,-3.1416309012875536,-7.066217044757817,6.46474555487431,2.0,2.0842490842490844,479.78910369068535,-0.1988229124176906,0.4616281102499854,0.29357263562729463,1034.4322344322343,-1.0,68.11293954616318,2.1386186707502377,467.627201697647,
2023-12-13 11:54:04.954000,-7.120481927710844,-3.253012048192771,5.843373493975904,-3.1293684855916615,-7.122624156958921,6.496627835683629,2.0,2.0842490842490844,479.78910369068535,-0.8998310121787775,1.620534933861664,0.4720004661732993,1063.7362637362637,-1.0,68.11293954616318,2.13798581635109,467.76555584898796,
2023-12-13 11:54:04.961000,-7.1084337349397595,-3.204819277108434,5.843373493975904,-3.0876762722256283,-7.137339055793991,6.538320049049663,2.0,2.082783882783883,480.1266268026732,-0.11514480508128859,1.3351203309830417,0.27772274342987047,1094.5054945054944,-1.0,68.11293954616318,2.137353650238642,467.9038345486388,
2023-12-13 11:54:04.969000,-7.120481927710844,-3.2650602409638556,5.843373493975904,-3.1367259350091965,-7.105456774984671,6.523605150214592,2.0,2.082783882783883,480.1266268026732,-0.7540353126274699,2.2741099003554566,0.024940271545946736,1125.2747252747251,-1.0,68.11293954616318,2.1367222386574314,468.0420233396118,
2023-12-13 11:54:04.977000,-7.1084337349397595,-3.1927710843373496,5.843373493975904,-3.1195585530349477,-7.13979153893317,6.521152667075413,2.0,2.082783882783883,480.1266268026732,-0.3207272303478816,2.2263271371132216,0.05116251966668614,1153.113553113553,-1.0,68.11293954616318,2.1360916452816716,468.1801082897847,
2023-12-13 11:54:04.984000,-7.1325301204819285,-3.3012048192771086,5.795180722891566,-3.2176578786020844,-7.103004291845493,6.501532801961986,2.0,2.0813186813186815,480.4646251319957,-1.4039974360468497,2.8662665345842324,-0.013519025697803066,1178.7545787545787,-1.0,68.11293954616318,2.1354619313094556,468.31807596182273,
2023-12-13 11:54:04.992000,-7.0843373493975905,-3.1566265060240966,5.771084337349398,-3.0459840588595952,-7.051502145922746,6.356836296750459,2.0,2.0813186813186815,480.4646251319957,0.3031291882757423,1.9419614241594323,0.05803857584056851,1199.2673992673992,-1.0,68.11293954616318,2.1348331555937894,468.45591339638753,
2023-12-13 11:54:05,-7.120481927710844,-3.289156626506024,5.759036144578314,-3.2078479460453706,-7.053954629061924,6.4034334763948495,2.0,2.0813186813186815,480.4646251319957,-1.1635685566109206,2.8237282209661436,0.08379465066138371,1216.117216117216,-1.0,68.11293954616318,2.1342053750943797,468.5936080190855,
2023-12-13 11:54:05.007000,-7.1084337349397595,-3.2289156626506026,5.734939759036145,-3.1661557326793375,-7.046597179644389,6.4107909258123845,2.0,2.07985347985348,480.80309968298695,-0.28063632655439574,2.6000815803274864,-0.12202086125517139,1230.03663003663,-1.0,68.11293954616318,2.1335786449448633,468.7311476158183,
2023-12-13 11:54:05.015000,-7.120481927710844,-3.3012048192771086,5.771084337349398,-3.1784181483752296,-7.053954629061924,6.4107909258123845,2.0,2.07985347985348,480.80309968298695,-0.9048423751529638,1.844997377775189,0.13320902045335384,1238.095238095238,-1.0,68.11293954616318,2.132953018523383,468.86852032859764,
2023-12-13 11:54:05.023000,-7.120481927710844,-3.2289156626506026,5.771084337349398,-3.151440833844267,-7.103004291845493,6.4107909258123845,2.0,2.07985347985348,480.80309968298695,0.01829730202202604,1.5567857350970213,0.23366936658702883,1240.2930402930401,-1.0,68.11293954616318,2.1323285469638535,469.0057147586523,
2023-12-13 11:54:05.030000,-7.156626506024097,-3.3012048192771086,5.759036144578314,-3.1367259350091965,-7.152053954629062,6.413243408951563,2.0,2.07985347985348,480.80309968298695,-0.7159256453586618,1.3481731833809214,-0.04661732999242484,1237.3626373626373,-1.0,68.11293954616318,2.1317052797566487,469.14271983042755,
2023-12-13 11:54:05.038000,-7.156626506024097,-3.253012048192771,5.72289156626506,-3.08522378908645,-7.15450643776824,6.332311465358675,2.0,2.0783882783882786,481.1420514628128,-0.2524328419089795,0.7434298700541929,0.1788940038459298,1227.8388278388277,-1.0,68.11293954616318,2.1310832652817404,469.27952467987,
2023-12-13 11:54:05.046000,-7.168674698795181,-3.3012048192771086,5.746987951807229,-3.2004904966278356,-7.152053954629062,6.354383813611281,2.0,2.0783882783882786,481.1420514628128,-0.328186003146669,0.69156809043762,0.5556785735097017,1215.3846153846152,-1.0,68.11293954616318,2.130462549937542,469.4161188468918,
2023-12-13 11:54:05.053000,-7.1807228915662655,-3.27710843373494,5.746987951807229,-3.126916002452483,-7.147148988350705,6.3813611281422435,2.0,2.0783882783882786,481.1420514628128,-0.17516461744653566,-0.3967134782355345,0.5475205407610276,1203.6630036630036,-1.0,68.11293954616318,2.1298431781843075,469.55249226741796,
2023-12-13 11:54:05.061000,-7.1807228915662655,-3.2650602409638556,5.734939759036145,-3.126916002452483,-7.132434089515634,6.408338442673206,2.0,2.076923076923077,481.48148148148147,0.008740749373580091,-0.422935726356273,0.6321309946972788,1189.0109890109889,-1.0,68.11293954616318,2.1292251935711883,469.6886350481076,
2023-12-13 11:54:05.069000,-7.168674698795181,-3.240963855421687,5.759036144578314,-3.1710606989576946,-7.2158185162477,6.398528510116493,2.0,2.076923076923077,481.48148148148147,-0.16176213507371343,-1.2097197133034205,0.4702523162985838,1175.8241758241757,-1.0,68.11293954616318,2.128608638288182,469.8245375707225,
2023-12-13 11:54:05.076000,-7.168674698795181,-3.27710843373494,5.734939759036145,-3.1906805640711218,-7.149601471489883,6.388718577559779,2.0,2.076923076923077,481.48148148148147,0.17481498747159316,-1.5473457257735563,0.8910902628051983,1161.904761904762,-1.0,68.11293954616318,2.1279935527179252,469.9601905869621,
2023-12-13 11:54:05.084000,-7.144578313253012,-3.240963855421687,5.771084337349398,-3.1538933169834458,-7.120171673819742,6.408338442673206,2.0,2.076923076923077,481.48148148148147,0.3859914923372767,-1.4996795058563022,0.7281626944816735,1149.4505494505493,-1.0,68.11293954616318,2.1273799760044074,470.09558508885794,
2023-12-13 11:54:05.092000,-7.144578313253012,-3.240963855421687,5.771084337349398,-3.173513182096873,-7.110361741263028,6.361741263028816,2.0,2.0754578754578756,481.82139075185313,0.6413379173707824,-2.10873492220733,0.841209719713303,1134.065934065934,-1.0,68.11293954616318,2.126767946162904,470.230712285417,
2023-12-13 11:54:05.099000,-7.1325301204819285,-3.2289156626506026,5.771084337349398,-3.1686082158185163,-7.117719190680564,6.378908645003065,2.0,2.0754578754578756,481.82139075185313,0.5282908921391523,-1.951051803507955,0.6321309946972785,1119.4139194139193,-1.0,68.11293954616318,2.1261574996962995,470.3655636937332,
2023-12-13 11:54:05.107000,-7.156626506024097,-3.240963855421687,5.746987951807229,-3.163703249540159,-7.129981606376456,6.467198038013488,2.0,2.0754578754578756,481.82139075185313,0.46302663014975887,-2.2218984907639414,0.5162869296661031,1104.029304029304,-1.0,68.11293954616318,2.125548671630963,470.50013113272826,
2023-12-13 11:54:05.115000,-7.144578313253012,-3.204819277108434,5.734939759036145,-3.063151440833844,-7.1741263028816675,6.437768240343347,2.0,2.0754578754578756,481.82139075185313,0.39729619486043866,-2.431093759104947,0.6451838470951577,1093.7728937728937,-1.0,68.11293954616318,2.1249414965340616,470.6344064995803,
2023-12-13 11:54:05.122000,-7.144578313253012,-3.2289156626506026,5.771084337349398,-3.1489883507050886,-7.142244022072348,6.3740036787247085,2.0,2.0739926739926737,482.16178028965027,0.39310063516112165,-2.5162869296661037,0.5730435289318807,1085.7142857142856,-1.0,68.11293954616318,2.1243360085463805,470.76838176256007,
2023-12-13 11:54:05.130000,-7.144578313253012,-3.253012048192771,5.734939759036145,-3.1661557326793375,-7.20110361741263,6.4328632740649905,2.0,2.0739926739926737,482.16178028965027,0.4049880543091895,-2.539595594662316,0.7168579919585111,1080.5860805860805,-1.0,68.11293954616318,2.123732240499893,470.90204915673286,
2023-12-13 11:54:05.138000,-7.1325301204819285,-3.216867469879518,5.759036144578314,-3.0705088902513795,-7.179031269160024,6.423053341508277,2.0,2.0725274725274727,482.5026511134676,0.7060194627352715,-2.622108268748908,0.3382087290950409,1074.7252747252746,-1.0,68.11293954616318,2.1231302239464847,471.03540117929555,
2023-12-13 11:54:05.145000,-7.168674698795181,-3.2650602409638556,5.807228915662651,-3.2004904966278356,-7.164316370324953,6.430410790925812,2.0,2.0725274725274727,482.5026511134676,0.8515820756366175,-2.91556436105122,0.4094167006584695,1071.062271062271,-1.0,68.11293954616318,2.1225299901323442,471.1684303860563,
2023-12-13 11:54:05.153000,-7.1325301204819285,-3.204819277108434,5.807228915662651,-3.0484365419987736,-7.098099325567136,6.437768240343347,2.0,2.0725274725274727,482.5026511134676,0.4919293747450619,-2.5816677349804795,0.5075461802925239,1065.9340659340658,-1.0,68.11293954616318,2.121931569882269,471.3011294171765,
2023-12-13 11:54:05.161000,-7.156626506024097,-3.240963855421687,5.771084337349398,-3.163703249540159,-7.129981606376456,6.521152667075413,2.0,2.0725274725274727,482.5026511134676,0.6553231163685105,-2.5109259367169745,0.16222830837363764,1062.2710622710622,-1.0,68.11293954616318,2.121334992706128,471.43349117402084,
2023-12-13 11:54:05.168000,-7.156626506024097,-3.216867469879518,5.783132530120482,-3.1293684855916615,-7.125076640098099,6.479460453709381,2.0,2.0725274725274727,482.5026511134676,0.9534409416700664,-2.713944408833984,0.3572052910669537,1060.07326007326,-1.0,68.11293954616318,2.1207402869539034,471.5655087865932,
2023-12-13 11:54:05.176000,-7.1084337349397595,-3.216867469879518,5.783132530120482,-3.1293684855916615,-7.147148988350705,6.481912936848559,2.0,2.0710622710622713,482.8440042447824,0.9447001922964863,-2.686906357438378,0.3525435580677113,1058.6080586080586,-1.0,68.11293954616318,2.1201474808459686,471.69717539734296,
2023-12-13 11:54:05.184000,-7.1325301204819285,-3.216867469879518,5.783132530120482,-3.163703249540159,-7.088289393010423,6.4475781729000605,2.0,2.0710622710622713,482.8440042447824,0.8132393217178494,-2.305693141425324,-0.0651477186644132,1058.6080586080586,-1.0,68.11293954616318,2.119556601990034,471.82848427389285,
2023-12-13 11:54:05.191000,-7.144578313253012,-3.2289156626506026,5.759036144578314,-3.097486204782342,-7.083384426732066,6.423053341508277,2.0,2.0710622710622713,482.8440042447824,1.2196258959268107,-2.4802750422469555,-0.11374628518151617,1060.8058608058607,-1.0,68.11293954616318,2.1189676768948686,471.95942891269976,
2023-12-13 11:54:05.199000,-7.1325301204819285,-3.240963855421687,5.771084337349398,-3.156345800122624,-7.112814224402207,6.479460453709381,2.0,2.0710622710622713,482.8440042447824,0.9662607074179828,-2.2553464250335056,0.17563079074645987,1063.003663003663,-1.0,68.11293954616318,2.118380731956137,472.090002821565,
2023-12-13 11:54:05.207000,-7.1084337349397595,-3.240963855421687,5.759036144578314,-3.122011036174126,-7.046597179644389,6.46474555487431,2.0,2.06959706959707,483.18584070796453,1.3991026163976459,-2.4309772157799663,0.3566225744420491,1067.3992673992673,-1.0,68.11293954616318,2.117795793455997,472.220199519819,
2023-12-13 11:54:05.214000,-7.0843373493975905,-3.2289156626506026,5.795180722891566,-3.1784181483752296,-7.100551808706315,6.423053341508277,2.0,2.06959706959707,483.18584070796453,1.3569139327545017,-2.452304644251501,-0.12202086125517139,1072.5274725274724,-1.0,68.11293954616318,2.1172128866460453,472.35001274252335,
2023-12-13 11:54:05.222000,-7.096385542168675,-3.253012048192771,5.795180722891566,-3.1538933169834458,-7.120171673819742,6.4696505211526665,2.0,2.06959706959707,483.18584070796453,0.9029776819532653,-2.0622341355398865,-0.09370083328477367,1078.3882783882784,-1.0,68.11293954616318,2.1166320357402792,472.4794364437175,
2023-12-13 11:54:05.230000,-7.096385542168675,-3.216867469879518,5.807228915662651,-3.1759656652360513,-7.112814224402207,6.479460453709381,2.0,2.06959706959707,483.18584070796453,1.4304527708175516,-2.4533535341763284,0.009673095973427867,1085.7142857142856,-1.0,68.11293954616318,2.1160532648876833,472.60846458153407,
2023-12-13 11:54:05.237000,-7.096385542168675,-3.240963855421687,5.807228915662651,-3.134273451870018,-7.110361741263028,6.430410790925812,2.0,2.0681318681318683,483.52816153028687,0.7771108909737189,-2.082978847386515,-0.05664005594079609,1094.5054945054944,-1.0,68.11293954616318,2.1154765986167527,472.7370910247725,
2023-12-13 11:54:05.245000,-7.1325301204819285,-3.253012048192771,5.819277108433735,-3.2201103617412628,-7.120171673819742,6.516247700797057,2.0,2.0681318681318683,483.52816153028687,0.3284190897966324,-1.4094749723209594,0.047899306567216214,1103.2967032967033,-1.0,68.11293954616318,2.1149020608386153,472.8653097743076,
2023-12-13 11:54:05.253000,-7.0843373493975905,-3.204819277108434,5.819277108433735,-3.1122011036174126,-7.117719190680564,6.46474555487431,2.0,2.0681318681318683,483.52816153028687,1.3633238156284597,-1.792086708233785,0.028436571295379204,1110.6227106227107,-1.0,68.11293954616318,2.114329674339513,472.9931150718772,
2023-12-13 11:54:05.260000,-7.096385542168675,-3.253012048192771,5.879518072289157,-3.1538933169834458,-7.120171673819742,6.521152667075413,2.0,2.0681318681318683,483.52816153028687,0.5427422644368037,-1.4404754967659228,0.4375036419789058,1116.4835164835165,-1.0,68.11293954616318,2.1137594617454782,473.12050118653366,
2023-12-13 11:54:05.268000,-7.1084337349397595,-3.240963855421687,5.843373493975904,-3.0950337216431634,-7.100551808706315,6.599632127529123,2.0,2.0681318681318683,483.52816153028687,0.7674377950002921,-1.3505040498805434,0.14323174640172487,1121.6117216117216,-1.0,68.11293954616318,2.1131914455010596,473.24746241945655,
2023-12-13 11:54:05.276000,-7.1084337349397595,-3.240963855421687,5.879518072289157,-3.1784181483752296,-6.980380134886572,6.5113427345187,2.0,2.066666666666667,483.87096774193543,0.9761668900413729,-0.8020511625196648,0.09300157333488714,1127.4725274725274,-1.0,68.11293954616318,2.112625647424492,473.37399319809435,
2023-12-13 11:54:05.283000,-7.096385542168675,-3.240963855421687,5.855421686746988,-3.0582464745554874,-7.095646842427958,6.528510116492948,2.0,2.066666666666667,483.87096774193543,0.9382903094225281,-1.160654973486393,0.02995163452013268,1135.5311355311355,-1.0,68.11293954616318,2.1120620887182078,473.5000880854425,
2023-12-13 11:54:05.291000,-7.0843373493975905,-3.2289156626506026,5.891566265060241,-3.1710606989576946,-7.080931943592887,6.545677498467198,2.0,2.0652014652014654,484.2142603760198,0.33424625604568464,-0.5837655148301363,0.5454227609113687,1142.1245421245421,-1.0,68.11293954616318,2.1115007898727307,473.62574180225204,
2023-12-13 11:54:05.298000,-7.0843373493975905,-3.2289156626506026,5.91566265060241,-3.102391171060699,-7.01471489883507,6.545677498467198,2.0,2.0652014652014654,484.2142603760198,0.5143056931414258,-0.7444787599790239,0.4922790047200048,1147.2527472527472,-1.0,68.11293954616318,2.110941770637743,473.7509492343302,
2023-12-13 11:54:05.306000,-7.048192771084338,-3.216867469879518,5.867469879518072,-3.102391171060699,-7.068669527896995,6.535867565910484,2.0,2.0652014652014654,484.2142603760198,0.7846862070974889,-0.17073597109725347,0.48482023192121654,1150.9157509157508,-1.0,68.11293954616318,2.110385049921197,473.87570545586556,
2023-12-13 11:54:05.314000,-7.060240963855422,-3.1927710843373496,5.867469879518072,-3.0656039239730224,-7.017167381974248,6.562844880441447,2.0,2.0652014652014654,484.2142603760198,0.5030009906182622,0.23215430336227405,0.3541751646174463,1151.6483516483515,-1.0,68.11293954616318,2.1098306462481666,474.00000562225233,
2023-12-13 11:54:05.321000,-7.072289156626506,-3.1927710843373496,5.867469879518072,-3.1244635193133043,-7.031882280809319,6.599632127529123,2.0,2.0652014652014654,484.2142603760198,0.46722218984907593,0.3262047666219913,0.3485810850183557,1148.7179487179487,-1.0,68.11293954616318,2.109278577269378,474.12384507461115,
2023-12-13 11:54:05.329000,-7.072289156626506,-3.168674698795181,5.83132530120482,-3.011649294911097,-7.036787247087676,6.528510116492948,2.0,2.0652014652014654,484.2142603760198,0.5282908921391523,0.0666627818891669,0.33331390944583666,1145.7875457875457,-1.0,68.11293954616318,2.108728859830072,474.24721932559555,
2023-12-13 11:54:05.337000,-7.0843373493975905,-3.2289156626506026,5.891566265060241,-3.0876762722256283,-7.090741876149601,6.528510116492948,2.0,2.063736263736264,484.55804046858356,0.2229473806887706,0.4636093467746631,0.31804673387331756,1143.5897435897434,-1.0,68.11293954616318,2.1081815104260326,474.3701239631651,
2023-12-13 11:54:05.344000,-7.0843373493975905,-3.168674698795181,5.855421686746988,-2.9993868792152054,-7.036787247087676,6.553034947884733,2.0,2.063736263736264,484.55804046858356,0.23821455626128968,0.28040323990443405,0.08903910028553133,1141.3919413919414,-1.0,68.11293954616318,2.107636544710812,474.4925547663833,
2023-12-13 11:54:05.352000,-7.0843373493975905,-3.204819277108434,5.879518072289157,-3.092581238503985,-7.063764561618639,6.577559779276517,2.0,2.063736263736264,484.55804046858356,0.5435580677116714,0.7842200337975638,0.4707184895985084,1137.7289377289376,-1.0,68.11293954616318,2.107093977390771,474.6145077295798,
2023-12-13 11:54:05.360000,-7.0843373493975905,-3.1566265060240966,5.867469879518072,-3.0778663396689145,-7.071122011036174,6.535867565910484,2.0,2.063736263736264,484.55804046858356,0.2929899190023887,0.9427189557718069,0.34648330516869635,1136.9963369963368,-1.0,68.11293954616318,2.106553822223922,474.73597905261914,
2023-12-13 11:54:05.367000,-7.096385542168675,-3.1927710843373496,5.867469879518072,-3.063151440833844,-7.085836909871245,6.4990803188228075,2.0,2.062271062271062,484.9023090586146,-0.015500262222480757,1.1153196200687607,0.3546413379173705,1136.9963369963368,-1.0,68.11293954616318,2.1060160925112563,474.85696503686114,
2023-12-13 11:54:05.375000,-7.096385542168675,-3.168674698795181,5.879518072289157,-3.126916002452483,-7.071122011036174,6.516247700797057,2.0,2.062271062271062,484.9023090586146,-0.1681720179476716,1.542800536099295,0.0950993531845461,1138.4615384615383,-1.0,68.11293954616318,2.105480800570728,474.97746220825354,
2023-12-13 11:54:05.383000,-7.0843373493975905,-3.1927710843373496,5.867469879518072,-3.0901287553648067,-7.066217044757817,6.550582464745554,2.0,2.062271062271062,484.9023090586146,-0.3055765981003433,1.4511974826641805,-0.04230522696812565,1140.6593406593406,-1.0,68.11293954616318,2.10494795766958,475.0974673334003,
