Shimmer_F5D4_Timestamp_FormattedUnix_CAL,Shimmer_F5D4_Accel_LN_X_CAL,Shimmer_F5D4_Accel_LN_Y_CAL,Shimmer_F5D4_Accel_LN_Z_CAL,Shimmer_F5D4_Accel_WR_X_CAL,Shimmer_F5D4_Accel_WR_Y_CAL,Shimmer_F5D4_Accel_WR_Z_CAL,Shimmer_F5D4_GSR_Range_CAL,Shimmer_F5D4_GSR_Skin_Conductance_CAL,Shimmer_F5D4_GSR_Skin_Resistance_CAL,Shimmer_F5D4_Gyro_X_CAL,Shimmer_F5D4_Gyro_Y_CAL,Shimmer_F5D4_Gyro_Z_CAL,Shimmer_F5D4_PPG_A13_CAL,Shimmer_F5D4_PPG_IBI_CAL,Shimmer_F5D4_PPGtoHR_CAL,Shimmer_F5D4_GSR_Skin_Conductance_LPF_CAL,
yyyy/mm/dd hh:mm:ss.000,m/(s^2),m/(s^2),m/(s^2),m/(s^2),m/(s^2),m/(s^2),no_units,uS,kOhms,deg/s,deg/s,deg/s,mV,ms,BPM,uS,
2023-08-09 15:52:19.360000,-5.46987951807229,0.04819277108433735,-8.313253012048193,0.13243408951563457,-5.133660331085223,-7.938687921520539,2.0,2.4329670329670328,411.02077687443546,0.003962473049355383,-0.11094924538197154,-0.2955538721519723,1269.5970695970695,-1.0,82.45250576640805,2.4405502590234667,
2023-08-09 15:52:19.367000,-5.506024096385542,0.03614457831325302,-8.313253012048193,0.05885959534028203,-5.167995095033722,-7.980380134886572,2.0,2.4315018315018313,411.26845435372104,-0.39752928151040207,0.24544024241011544,-0.022143231746401888,1318.6813186813185,-1.0,82.45250576640805,2.440492296410652,
2023-08-09 15:52:19.375000,-5.493975903614458,0.04819277108433735,-8.289156626506024,0.12998160637645614,-5.079705702023299,-7.958307786633966,2.0,2.4329670329670328,411.02077687443546,-0.23110541343744478,0.46034613367519445,0.1299458073538839,1364.102564102564,-1.0,82.45250576640805,2.440433959866975,
2023-08-09 15:52:19.383000,-5.506024096385542,0.04819277108433735,-8.289156626506024,0.15941140404659718,-5.10913549969344,-7.946045370938075,2.0,2.4315018315018313,411.26845435372104,-0.23250393333721828,0.45906415710040177,0.1273818542043003,1402.197802197802,-1.0,82.45250576640805,2.4403752440040365,
2023-08-09 15:52:19.390000,-5.493975903614458,0.03614457831325302,-8.27710843373494,0.13243408951563457,-5.155732679337829,-7.9288779889638255,2.0,2.4329670329670328,411.02077687443546,-0.38587494901229585,0.37958160946331854,-0.07365538138803097,1430.7692307692307,-1.0,82.45250576640805,2.440316142823519,
2023-08-09 15:52:19.398000,-5.481927710843374,0.03614457831325302,-8.289156626506024,0.12752912323727775,-5.153280196198651,-7.926425505824647,2.0,2.4300366300366303,411.51643050949656,-0.24858691218460496,0.35837072431676464,-0.041839053668201,1449.084249084249,-1.0,82.45250576640805,2.4402566502225156,
2023-08-09 15:52:19.406000,-5.481927710843374,0.03614457831325302,-8.27710843373494,0.06376456161863887,-5.101778050275904,-7.9141630901287545,2.0,2.4315018315018313,411.26845435372104,-0.09556552648446988,0.10908455218227295,0.15768311869937635,1459.3406593406592,-1.0,82.45250576640805,2.4401967604311445,
2023-08-09 15:52:19.413000,-5.46987951807229,0.024096385542168676,-8.25301204819277,0.10055180870631514,-5.153280196198651,-7.909258123850398,2.0,2.4315018315018313,411.26845435372104,0.04067362041839003,-0.18378882349513492,-0.04323757356797407,1463.7362637362637,-1.0,82.45250576640805,2.4401364669065706,
2023-08-09 15:52:19.421000,-5.457831325301205,0.012048192771084338,-8.27710843373494,0.17167381974248927,-5.111587982832618,-7.8994481912936845,2.0,2.4315018315018313,411.26845435372104,0.07004253831361809,-0.09568206980945246,-0.19625895926810785,1463.003663003663,-1.0,82.45250576640805,2.440075762912059,
2023-08-09 15:52:19.429000,-5.46987951807229,0.060240963855421686,-8.27710843373494,0.17412630288166767,-5.1287553648068664,-7.958307786633966,2.0,2.4315018315018313,411.26845435372104,0.036478060719072974,-0.39018705203659376,-0.17970980712079695,1456.4102564102564,-1.0,82.45250576640805,2.440014641569739,
2023-08-09 15:52:19.436000,-5.433734939759036,0.04819277108433735,-8.265060240963855,0.16676885346413242,-5.1287553648068664,-7.9068056407112195,2.0,2.4315018315018313,411.26845435372104,0.2180525610395668,-0.3019637550259305,0.08076452421187588,1441.7582417582416,-1.0,82.45250576640805,2.4399530958800386,
2023-08-09 15:52:19.444000,-5.481927710843374,0.024096385542168676,-8.289156626506024,0.10300429184549356,-5.082158185162477,-7.931330472103004,2.0,2.4315018315018313,411.26845435372104,0.5075461802925234,-0.4281801759804211,0.15430336227492558,1421.245421245421,-1.0,82.45250576640805,2.43989111874267,
2023-08-09 15:52:19.452000,-5.457831325301205,0.04819277108433735,-8.301204819277109,0.11281422440220723,-5.131207847946045,-7.8847332924586135,2.0,2.4315018315018313,411.26845435372104,0.15267175572519084,-0.5661674727579971,0.04661732999242484,1399.2673992673992,-1.0,82.45250576640805,2.4398287029792054,
2023-08-09 15:52:19.459000,-5.46987951807229,0.024096385542168676,-8.289156626506024,0.09319435928877988,-5.111587982832618,-7.95340282035561,2.0,2.4315018315018313,411.26845435372104,0.3345958860206289,-0.39729619486043866,-0.04848202319212169,1373.6263736263736,-1.0,82.45250576640805,2.4397658413572683,
2023-08-09 15:52:19.467000,-5.46987951807229,0.03614457831325302,-8.289156626506024,0.06376456161863887,-5.180257510729613,-7.904353157572041,2.0,2.4315018315018313,411.26845435372104,0.5188508828156871,-0.547870170735971,-0.07866674436221649,1344.3223443223442,-1.0,82.45250576640805,2.439702526616403,
2023-08-09 15:52:19.475000,-5.46987951807229,0.03614457831325302,-8.289156626506024,0.134886572654813,-5.096873083997547,-7.95340282035561,2.0,2.4315018315018313,411.26845435372104,0.34706602179360097,-0.2384476429112531,0.1355398869529749,1313.5531135531135,-1.0,82.45250576640805,2.4396387514956164,
2023-08-09 15:52:19.482000,-5.457831325301205,0.03614457831325302,-8.27710843373494,0.08828939301042305,-5.114040465971796,-7.8994481912936845,2.0,2.4300366300366303,411.51643050949656,0.20663131519142225,0.05547462269098577,-0.04813239321717832,1279.8534798534797,-1.0,82.45250576640805,2.4395745087625955,
2023-08-09 15:52:19.490000,-5.481927710843374,0.024096385542168676,-8.27710843373494,0.08583690987124463,-5.101778050275904,-7.938687921520539,2.0,2.4315018315018313,411.26845435372104,0.05116251966668614,0.33564477594545816,0.1659576947730318,1247.6190476190475,-1.0,82.45250576640805,2.4395097907519654,
2023-08-09 15:52:19.498000,-5.481927710843374,0.03614457831325302,-8.228915662650603,0.12507664009809932,-5.187614960147148,-7.904353157572041,2.0,2.4300366300366303,411.51643050949656,0.21898490763941522,0.19928908571761567,-0.1409008799021038,1221.9780219780218,-1.0,82.45250576640805,2.439444589818356,
2023-08-09 15:52:19.505000,-5.46987951807229,0.024096385542168676,-8.265060240963855,0.08338442673206621,-5.153280196198651,-7.904353157572041,2.0,2.4315018315018313,411.26845435372104,0.12609987762950806,-0.303362274925704,0.3929840918361399,1200.7326007326008,-1.0,82.45250576640805,2.4393788984024543,
2023-08-09 15:52:19.513000,-5.46987951807229,0.03614457831325302,-8.25301204819277,0.13243408951563457,-5.1704475781729,-7.872470876762722,2.0,2.4315018315018313,411.26845435372104,0.40114212458481496,-0.12913000407901673,-0.022376318396363993,1181.6849816849815,-1.0,82.45250576640805,2.4393127090288544,
2023-08-09 15:52:19.521000,-5.46987951807229,0.03614457831325302,-8.25301204819277,0.06131207847946045,-5.207234825260576,-7.9656652360515015,2.0,2.4300366300366303,411.51643050949656,0.5535807936600424,-0.24392517918536283,0.16106287512382755,1168.4981684981685,-1.0,82.45250576640805,2.439246014867377,
2023-08-09 15:52:19.528000,-5.46987951807229,0.024096385542168676,-8.289156626506024,0.11526670754138564,-5.111587982832618,-7.9288779889638255,2.0,2.4300366300366303,411.51643050949656,0.39776236816036376,-0.2510343220092077,-0.3427539187693026,1155.3113553113553,-1.0,82.45250576640805,2.439178808820254,
2023-08-09 15:52:19.536000,-5.506024096385542,0.024096385542168676,-8.289156626506024,0.134886572654813,-5.182709993868792,-7.8749233599019,2.0,2.4300366300366303,411.51643050949656,0.12120505798030425,0.10593788240778515,-0.03333139094458345,1142.1245421245421,-1.0,82.45250576640805,2.4391110834891867,
2023-08-09 15:52:19.544000,-5.457831325301205,0.012048192771084338,-8.289156626506024,0.09074187614960147,-5.104230533415082,-7.973022685469037,2.0,2.4300366300366303,411.51643050949656,0.48691801177087546,-0.1632771982984678,0.1519724957753045,1130.4029304029302,-1.0,82.45250576640805,2.4390428316682824,
2023-08-09 15:52:19.551000,-5.457831325301205,0.04819277108433735,-8.265060240963855,0.0956468424279583,-5.138565297363581,-7.896995708154506,2.0,2.4285714285714284,411.764705882353,0.20814637841617661,-0.4327253656546824,-0.09055416351028481,1122.3443223443223,-1.0,82.45250576640805,2.438974046379854,
2023-08-09 15:52:19.559000,-5.481927710843374,0.03614457831325302,-8.265060240963855,0.13243408951563457,-5.138565297363581,-7.943592887798896,2.0,2.4300366300366303,411.51643050949656,0.022609405046325665,0.06316648213973486,-0.31571586737369606,1117.2161172161173,-1.0,82.45250576640805,2.4389047208760557,
2023-08-09 15:52:19.567000,-5.457831325301205,0.024096385542168676,-8.265060240963855,0.1520539546290619,-5.082158185162477,-7.904353157572041,2.0,2.4300366300366303,411.51643050949656,0.2354175164617444,0.17364955422178133,-0.111648505331857,1114.2857142857142,-1.0,82.45250576640805,2.438834849029104,
2023-08-09 15:52:19.574000,-5.46987951807229,0.024096385542168676,-8.27710843373494,0.0809319435928878,-5.143470263641937,-7.9141630901287545,2.0,2.4300366300366303,411.51643050949656,-0.02622224812073854,0.4338907989044925,0.027271138045568237,1113.5531135531135,-1.0,82.45250576640805,2.4387644249469993,
2023-08-09 15:52:19.582000,-5.46987951807229,0.03614457831325302,-8.27710843373494,0.10545677498467197,-5.0698957694665845,-7.950950337216431,2.0,2.4300366300366303,411.51643050949656,0.17096905774721688,0.09894528290892109,0.21210885146553243,1115.018315018315,-1.0,82.45250576640805,2.4386934426238143,
2023-08-09 15:52:19.590000,-5.457831325301205,0.024096385542168676,-8.265060240963855,0.13733905579399142,-5.082158185162477,-7.931330472103004,2.0,2.4300366300366303,411.51643050949656,0.012586679097954637,-0.03915855719363742,0.2263271371132218,1113.5531135531135,-1.0,82.45250576640805,2.4386218964686313,
2023-08-09 15:52:19.597000,-5.481927710843374,0.024096385542168676,-8.289156626506024,0.1226241569589209,-5.167995095033722,-7.92152053954629,2.0,2.4300366300366303,411.51643050949656,-0.28168521647922673,0.04067362041839003,0.17831128722102432,1115.7509157509157,-1.0,82.45250576640805,2.438549781342075,
2023-08-09 15:52:19.605000,-5.457831325301205,0.024096385542168676,-8.301204819277109,0.1103617412630288,-5.126302881667688,-7.9068056407112195,2.0,2.4300366300366303,411.51643050949656,-0.28343336635394273,0.31886253714818474,0.16001398519899784,1117.2161172161173,-1.0,82.45250576640805,2.4384770925929886,
2023-08-09 15:52:19.613000,-5.493975903614458,0.03614457831325302,-8.289156626506024,0.10300429184549356,-5.167995095033722,-7.923973022685469,2.0,2.4300366300366303,411.51643050949656,-0.2096614416409292,-3.496299749425094E-4,0.14521298292640297,1122.3443223443223,-1.0,82.45250576640805,2.4384038265530585,
2023-08-09 15:52:19.620000,-5.481927710843374,0.03614457831325302,-8.25301204819277,0.0956468424279583,-5.136112814224402,-7.948497854077253,2.0,2.4285714285714284,411.764705882353,-0.12003962473049413,0.1250509877046788,-0.00850766272361755,1127.4725274725274,-1.0,82.45250576640805,2.438329980506298,
2023-08-09 15:52:19.628000,-5.481927710843374,0.04819277108433735,-8.265060240963855,0.03678724708767627,-5.167995095033722,-7.941140404659717,2.0,2.4285714285714284,411.764705882353,-0.09218577006002042,0.035429170794241974,-0.008624206048598388,1134.065934065934,-1.0,82.45250576640805,2.4382555517446045,
2023-08-09 15:52:19.636000,-5.46987951807229,0.03614457831325302,-8.301204819277109,0.12752912323727775,-5.10913549969344,-7.923973022685469,2.0,2.4300366300366303,411.51643050949656,-0.01829730202202604,0.5258434823145512,-0.20709748849134646,1138.4615384615383,-1.0,82.45250576640805,2.438180537535603,
2023-08-09 15:52:19.643000,-5.481927710843374,0.024096385542168676,-8.301204819277109,0.08583690987124463,-5.202329858982219,-7.8749233599019,2.0,2.4285714285714284,411.764705882353,-0.0363615173940904,0.09591515645941413,-0.3418215721694538,1141.3919413919414,-1.0,82.45250576640805,2.4381049361066665,
2023-08-09 15:52:19.651000,-5.46987951807229,0.03614457831325302,-8.27710843373494,0.08583690987124463,-5.074800735744941,-7.919068056407112,2.0,2.4285714285714284,411.764705882353,-0.4497406911019175,0.26385408775712405,-0.24578987238505925,1145.7875457875457,-1.0,82.45250576640805,2.4380287462562262,
2023-08-09 15:52:19.659000,-5.46987951807229,0.03614457831325302,-8.289156626506024,0.0539546290619252,-5.138565297363581,-7.9362354383813605,2.0,2.4285714285714284,411.764705882353,-0.44799254122720145,0.26338791445719895,-0.2425266592855893,1149.4505494505493,-1.0,82.45250576640805,2.437951966859303,
2023-08-09 15:52:19.666000,-5.445783132530121,0.03614457831325302,-8.289156626506024,0.08828939301042305,-5.148375229920294,-7.975475168608216,2.0,2.4285714285714284,411.764705882353,-0.38435988578754154,0.0033797564244512,0.04999708641687561,1153.113553113553,-1.0,82.45250576640805,2.4378745973542,
2023-08-09 15:52:19.674000,-5.481927710843374,0.024096385542168676,-8.289156626506024,0.0956468424279583,-5.116492949110975,-7.845493562231759,2.0,2.4285714285714284,411.764705882353,-0.17003671114736846,0.003962473049355383,0.15721694539945213,1157.5091575091574,-1.0,82.45250576640805,2.437796637769423,
2023-08-09 15:52:19.682000,-5.46987951807229,0.03614457831325302,-8.265060240963855,0.041692213366033105,-5.084610668301655,-7.955855303494788,2.0,2.4285714285714284,411.764705882353,-0.2781889167297947,0.09568206980945246,0.05069634636676193,1160.4395604395604,-1.0,82.45250576640805,2.437718088748666,
2023-08-09 15:52:19.689000,-5.457831325301205,0.024096385542168676,-8.27710843373494,0.0809319435928878,-5.158185162477007,-7.9141630901287545,2.0,2.4285714285714284,411.764705882353,-0.38575840568731506,0.23413553988695346,0.06514771866441342,1164.102564102564,-1.0,82.45250576640805,2.4376389515738235,
2023-08-09 15:52:19.697000,-5.46987951807229,0.024096385542168676,-8.301204819277109,0.03188228080931944,-5.10913549969344,-7.919068056407112,2.0,2.4285714285714284,411.764705882353,-0.6440184138453467,0.4946098712196263,0.16992016782238803,1169.230769230769,-1.0,82.45250576640805,2.437559228186011,
2023-08-09 15:52:19.704000,-5.46987951807229,0.024096385542168676,-8.27710843373494,0.07602697731453095,-5.145922746781116,-7.9362354383813605,2.0,2.4271062271062265,412.0132810141866,-0.7609113688013514,0.7074179826350451,0.4729328127731482,1168.4981684981685,-1.0,82.45250576640805,2.437478921204587,
2023-08-09 15:52:19.712000,-5.46987951807229,0.03614457831325302,-8.289156626506024,0.07847946045370938,-5.165542611894543,-7.8749233599019,2.0,2.4285714285714284,411.764705882353,-0.5999650370025056,0.9611328011188155,0.36326554396596933,1167.7655677655678,-1.0,82.45250576640805,2.4373980339093673,
2023-08-09 15:52:19.720000,-5.433734939759036,0.024096385542168676,-8.27710843373494,0.16676885346413242,-5.079705702023299,-7.960760269773145,2.0,2.4285714285714284,411.764705882353,-0.37923197948837434,0.7096323058096844,0.1938115494435055,1167.032967032967,-1.0,82.45250576640805,2.437316570151006,
2023-08-09 15:52:19.727000,-5.46987951807229,0.04819277108433735,-8.25301204819277,0.09809932556713671,-5.131207847946045,-7.904353157572041,2.0,2.4285714285714284,411.764705882353,-0.5429753510867672,0.8701124643086069,0.3772507429636966,1167.7655677655678,-1.0,82.45250576640805,2.4372345344674105,
2023-08-09 15:52:19.735000,-5.433734939759036,0.03614457831325302,-8.25301204819277,0.10055180870631514,-5.052728387492336,-7.901900674432863,2.0,2.4285714285714284,411.764705882353,-0.4778276324223529,0.5577763533593612,0.4214206631315191,1172.8937728937728,-1.0,82.45250576640805,2.437151932586253,
2023-08-09 15:52:19.743000,-5.445783132530121,0.03614457831325302,-8.265060240963855,0.164316370324954,-5.118945432250153,-7.963212752912323,2.0,2.4285714285714284,411.764705882353,-0.6242060485985664,0.5590583299341538,0.31175339432434024,1176.5567765567764,-1.0,82.45250576640805,2.437068770907804,
2023-08-09 15:52:19.750000,-5.445783132530121,0.04819277108433735,-8.240963855421688,0.15941140404659718,-5.133660331085223,-7.872470876762722,2.0,2.4285714285714284,411.764705882353,-0.328186003146669,0.5717615523570894,0.0657304352893189,1180.2197802197802,-1.0,82.45250576640805,2.4369850560899415,
2023-08-09 15:52:19.758000,-5.421686746987952,0.04819277108433735,-8.240963855421688,0.14469650521152666,-5.118945432250153,-7.8700183936235435,2.0,2.4285714285714284,411.764705882353,-0.3243400734222945,0.49227900472000435,0.40405570770934107,1183.150183150183,-1.0,82.45250576640805,2.436900795544556,
2023-08-09 15:52:19.766000,-5.433734939759036,0.060240963855421686,-8.240963855421688,0.10545677498467197,-5.133660331085223,-7.946045370938075,2.0,2.4285714285714284,411.764705882353,-0.1818075869704555,0.5209486626653457,0.5235126158149292,1184.6153846153845,-1.0,82.45250576640805,2.436815997439584,
2023-08-09 15:52:19.773000,-5.457831325301205,0.060240963855421686,-8.265060240963855,0.12017167381974249,-5.163090128755364,-7.904353157572041,2.0,2.4285714285714284,411.764705882353,-0.4249169628809507,-0.16863819124759666,0.3079074645999648,1186.8131868131868,-1.0,82.45250576640805,2.4367306706994634,
2023-08-09 15:52:19.781000,-5.481927710843374,0.07228915662650603,-8.289156626506024,0.11281422440220723,-5.111587982832618,-7.95340282035561,2.0,2.4285714285714284,411.764705882353,-0.4217702931064629,-0.013752112347764738,0.3844764291125224,1186.080586080586,-1.0,82.45250576640805,2.436644825004053,
2023-08-09 15:52:19.789000,-5.493975903614458,0.07228915662650603,-8.25301204819277,0.13733905579399142,-5.12385039852851,-7.96811771919068,2.0,2.4285714285714284,411.764705882353,-0.295786958801934,0.18949944641920632,0.6119689994755552,1186.8131868131868,-1.0,82.45250576640805,2.4365584707861543,
2023-08-09 15:52:19.796000,-5.46987951807229,0.060240963855421686,-8.301204819277109,0.1079092581238504,-5.114040465971796,-7.958307786633966,2.0,2.4285714285714284,411.764705882353,-0.04894819649204678,0.22329701066371485,0.3484645416933745,1189.7435897435896,-1.0,82.45250576640805,2.436471619685563,
2023-08-09 15:52:19.804000,-5.481927710843374,0.060240963855421686,-8.313253012048193,0.11526670754138564,-5.145922746781116,-7.948497854077253,2.0,2.4271062271062265,412.0132810141866,-0.2912417691276727,0.41081522055824177,0.5454227609113691,1194.1391941391942,-1.0,82.45250576640805,2.4363842840188963,
2023-08-09 15:52:19.812000,-5.457831325301205,0.08433734939759037,-8.301204819277109,0.13979153893316984,-5.10913549969344,-7.975475168608216,2.0,2.4285714285714284,411.764705882353,0.49029776819532667,0.39916088806013555,0.053959559466231426,1200.0,-1.0,82.45250576640805,2.4362964758596255,
2023-08-09 15:52:19.819000,-5.457831325301205,0.07228915662650603,-8.325301204819278,0.18638871857755976,-5.163090128755364,-7.960760269773145,2.0,2.4285714285714284,411.764705882353,0.22819183031291865,0.7250160247071843,0.35720529106695414,1203.6630036630036,-1.0,82.45250576640805,2.4362082084012173,
2023-08-09 15:52:19.827000,-5.445783132530121,0.060240963855421686,-8.313253012048193,0.17412630288166767,-5.104230533415082,-7.95340282035561,2.0,2.4271062271062265,412.0132810141866,0.7448283899539647,0.5730435289318803,0.031699784394849134,1206.5934065934066,-1.0,82.45250576640805,2.4361194959476973,
2023-08-09 15:52:19.835000,-5.421686746987952,0.07228915662650603,-8.301204819277109,0.07112201103617412,-5.082158185162477,-7.96811771919068,2.0,2.4271062271062265,412.0132810141866,0.24940271545947254,0.43435697220441755,0.22982343686265383,1208.058608058608,-1.0,82.45250576640805,2.4360303525317124,
2023-08-09 15:52:19.842000,-5.445783132530121,0.07228915662650603,-8.313253012048193,0.12017167381974249,-5.094420600858369,-7.9656652360515015,2.0,2.4271062271062265,412.0132810141866,0.6279354349979601,-0.31396771749898095,0.6096381329759336,1213.9194139194137,-1.0,82.45250576640805,2.4359407923233807,
2023-08-09 15:52:19.850000,-5.457831325301205,0.07228915662650603,-8.289156626506024,0.1103617412630288,-5.12385039852851,-7.931330472103004,2.0,2.4285714285714284,411.764705882353,0.621525552124002,-0.24485752578521125,0.3626828273410639,1229.3040293040292,-1.0,82.45250576640805,2.4358508300703545,
2023-08-09 15:52:19.858000,-5.445783132530121,0.08433734939759037,-8.313253012048193,0.12017167381974249,-5.0698957694665845,-7.95340282035561,2.0,2.4271062271062265,412.0132810141866,0.7229182448575258,-0.3326146494959495,0.7114969990093821,1258.6080586080586,-1.0,82.45250576640805,2.435760481571549,
2023-08-09 15:52:19.865000,-5.46987951807229,0.08433734939759037,-8.313253012048193,0.11771919068056406,-5.0772532188841195,-7.977927651747394,2.0,2.4256410256410255,412.262156448203,0.7006584697861427,-0.3898374220616513,0.41699201678223907,1308.4249084249084,-1.0,82.45250576640805,2.4356697636946385,
2023-08-09 15:52:19.873000,-5.457831325301205,0.0963855421686747,-8.301204819277109,0.17903126916002451,-5.094420600858369,-7.938687921520539,2.0,2.4271062271062265,412.0132810141866,1.1209136996678513,-0.4010255812598341,0.552065730435289,1383.150183150183,-1.0,82.45250576640805,2.4355786928129635,
2023-08-09 15:52:19.881000,-5.445783132530121,0.07228915662650603,-8.289156626506024,0.11526670754138564,-5.153280196198651,-7.8994481912936845,2.0,2.4271062271062265,412.0132810141866,1.0366528757065434,-0.7038051395606322,0.332847736145912,1490.10989010989,-1.0,82.45250576640805,2.4354872852418867,
2023-08-09 15:52:19.888000,-5.445783132530121,0.10843373493975904,-8.265060240963855,0.11771919068056406,-5.167995095033722,-7.970570202329858,2.0,2.4271062271062265,412.0132810141866,0.7230347881825067,-0.8047316589942309,0.024590641571004226,1630.7692307692307,735.3515625,81.59362549800797,2.435395558233764,
2023-08-09 15:52:19.896000,-5.457831325301205,0.0963855421686747,-8.27710843373494,0.18884120171673818,-5.114040465971796,-7.970570202329858,2.0,2.4271062271062265,412.0132810141866,1.1007517044461284,-0.893654215954781,0.009206922673504305,1802.197802197802,-1.0,81.59362549800797,2.435303529496782,
2023-08-09 15:52:19.904000,-5.445783132530121,0.07228915662650603,-8.27710843373494,0.18393623543838136,-5.087063151440834,-7.9288779889638255,2.0,2.4271062271062265,412.0132810141866,0.7891148534467693,-0.9811782530155593,0.22236466406386554,1995.6043956043954,-1.0,81.59362549800797,2.435211217171322,
2023-08-09 15:52:19.911000,-5.445783132530121,0.0963855421686747,-8.313253012048193,0.14469650521152666,-5.0772532188841195,-7.977927651747394,2.0,2.4271062271062265,412.0132810141866,0.6461161936950053,-0.6547403997436045,-0.09999417283375121,2198.5347985347985,-1.0,81.59362549800797,2.4351186402639566,
2023-08-09 15:52:19.919000,-5.445783132530121,0.10843373493975904,-8.289156626506024,0.21091354996934394,-5.143470263641937,-7.948497854077253,2.0,2.4271062271062265,412.0132810141866,0.3185129071732422,-0.6970456267117298,-0.34461861196899907,2395.6043956043954,-1.0,81.59362549800797,2.435025818098368,
2023-08-09 15:52:19.927000,-5.457831325301205,0.0963855421686747,-8.289156626506024,0.20600858369098712,-5.190067443286327,-7.911710606989576,2.0,2.4271062271062265,412.0132810141866,0.5585921566342288,-1.1520307674377954,-0.29905017190140437,2572.8937728937726,-1.0,81.59362549800797,2.4349327698702927,
2023-08-09 15:52:19.934000,-5.445783132530121,0.08433734939759037,-8.27710843373494,0.1618638871857756,-5.138565297363581,-7.931330472103004,2.0,2.4271062271062265,412.0132810141866,0.5503175805605738,-1.145154711263912,-0.300099061826234,2720.14652014652,-1.0,81.59362549800797,2.434839515115746,
2023-08-09 15:52:19.942000,-5.46987951807229,0.04819277108433735,-8.289156626506024,0.12507664009809932,-5.116492949110975,-7.963212752912323,2.0,2.4271062271062265,412.0132810141866,0.39018705203659376,-1.136996678515238,-0.5132568032165957,2805.8608058608056,-1.0,81.59362549800797,2.4347460741447082,
2023-08-09 15:52:19.950000,-5.481927710843374,0.060240963855421686,-8.289156626506024,0.16676885346413242,-5.12385039852851,-7.96811771919068,2.0,2.4285714285714284,411.764705882353,0.4765456558475619,-1.328943534759047,-0.3433366353942081,2805.128205128205,-1.0,81.59362549800797,2.434652467950053,
2023-08-09 15:52:19.957000,-5.481927710843374,0.04819277108433735,-8.265060240963855,0.07847946045370938,-5.163090128755364,-7.916615573267934,2.0,2.4271062271062265,412.0132810141866,0.11817493153079728,-1.0772099527999526,-0.7387681370549499,2805.8608058608056,-1.0,81.59362549800797,2.4345587181884754,
2023-08-09 15:52:19.965000,-5.46987951807229,0.03614457831325302,-8.27710843373494,0.06866952789699571,-5.150827713059472,-7.931330472103004,2.0,2.4285714285714284,411.764705882353,0.4631431734747397,-0.9957461686381917,-0.6614999125925061,2805.8608058608056,-1.0,81.59362549800797,2.434464846740873,
2023-08-09 15:52:19.973000,-5.518072289156627,0.03614457831325302,-8.301204819277109,0.06131207847946045,-5.155732679337829,-7.8847332924586135,2.0,2.4271062271062265,412.0132810141866,0.015500262222480757,-0.5946040440533766,-0.7693024881999881,2779.487179487179,-1.0,81.59362549800797,2.434370875661353,
2023-08-09 15:52:19.980000,-5.481927710843374,0.024096385542168676,-8.289156626506024,0.1103617412630288,-5.136112814224402,-7.855303494788473,2.0,2.4271062271062265,412.0132810141866,0.27504224695530516,-0.07470427131286024,-0.706602179360177,2688.6446886446884,-1.0,81.59362549800797,2.434276827196172,
2023-08-09 15:52:19.988000,-5.46987951807229,0.024096385542168676,-8.265060240963855,0.11281422440220723,-5.160637645616186,-7.8994481912936845,2.0,2.4271062271062265,412.0132810141866,0.16933745119748342,0.1341413670532014,-0.5369150981877511,2561.172161172161,-1.0,81.59362549800797,2.434182723240903,
2023-08-09 15:52:19.996000,-5.46987951807229,0.012048192771084338,-8.27710843373494,0.134886572654813,-5.126302881667688,-7.909258123850398,2.0,2.4271062271062265,412.0132810141866,0.06351611211467911,0.39263446186119655,-0.2919410290775594,2408.058608058608,-1.0,81.59362549800797,2.434088585780804,
2023-08-09 15:52:20.003000,-5.481927710843374,0.012048192771084338,-8.228915662650603,0.11771919068056406,-5.18516247700797,-7.867565910484365,2.0,2.4271062271062265,412.0132810141866,0.2175863877396417,0.236233319736612,-0.4133791737078258,2238.095238095238,-1.0,81.59362549800797,2.4339944368735518,
2023-08-09 15:52:20.011000,-5.481927710843374,0.012048192771084338,-8.240963855421688,0.08338442673206621,-5.1704475781729,-7.872470876762722,2.0,2.4271062271062265,412.0132810141866,0.21945108093933857,0.050113629741856874,-0.3344793426956472,2061.5384615384614,-1.0,81.59362549800797,2.4339002986322833,
2023-08-09 15:52:20.019000,-5.46987951807229,0.024096385542168676,-8.228915662650603,0.04659717964438994,-5.1066830165542605,-7.909258123850398,2.0,2.4256410256410255,412.262156448203,0.1279645708292049,-0.5024182739933563,-0.6039275100518618,1883.5164835164833,-1.0,81.59362549800797,2.433806193666879,
2023-08-09 15:52:20.026000,-5.481927710843374,0.0,-8.25301204819277,0.03923973022685469,-5.0993255671367255,-7.823421213979153,2.0,2.4256410256410255,412.262156448203,0.20406736204183865,-0.6363265543965977,-0.7190723151331508,1710.6227106227104,-1.0,81.59362549800797,2.433712144507854,
2023-08-09 15:52:20.034000,-5.46987951807229,0.012048192771084338,-8.265060240963855,0.0809319435928878,-5.209687308399754,-7.904353157572041,2.0,2.4256410256410255,412.262156448203,0.6469319969698729,-1.0569314142532489,-0.6041605967018239,1550.9157509157508,-1.0,81.59362549800797,2.4336181730300708,
2023-08-09 15:52:20.042000,-5.46987951807229,-0.012048192771084338,-8.25301204819277,0.0956468424279583,-5.141017780502759,-7.911710606989576,2.0,2.4256410256410255,412.262156448203,0.10873492220733044,-1.3533010896800888,-0.5362158382378648,1405.128205128205,-1.0,81.59362549800797,2.4335243004355918,
2023-08-09 15:52:20.049000,-5.46987951807229,0.0,-8.265060240963855,0.05150214592274678,-5.177805027590435,-7.946045370938075,2.0,2.4256410256410255,412.262156448203,0.2464891323349447,-0.7309597342812192,-0.42130411980653787,1278.3882783882782,-1.0,81.59362549800797,2.4334305473030615,
2023-08-09 15:52:20.057000,-5.46987951807229,0.012048192771084338,-8.27710843373494,0.05150214592274678,-5.121397915389331,-7.9288779889638255,2.0,2.4256410256410255,412.262156448203,0.12411864110483035,-0.6949478468620712,-0.29357263562729463,1169.9633699633698,-1.0,81.59362549800797,2.433336934057567,
2023-08-09 15:52:20.065000,-5.46987951807229,0.024096385542168676,-8.25301204819277,0.05150214592274678,-5.145922746781116,-7.901900674432863,2.0,2.4256410256410255,412.262156448203,0.4443796981527886,-0.6887710506380748,-0.747858516403473,1081.3186813186812,-1.0,81.59362549800797,2.4332434814057757,
2023-08-09 15:52:20.072000,-5.481927710843374,0.0,-8.25301204819277,0.11281422440220723,-5.18516247700797,-7.901900674432863,2.0,2.4256410256410255,412.262156448203,0.472466639473224,-0.6570712662432265,-0.755433832527242,1009.5238095238094,-1.0,81.59362549800797,2.433150210246128,
2023-08-09 15:52:20.080000,-5.493975903614458,0.012048192771084338,-8.265060240963855,0.05885959534028203,-5.167995095033722,-7.86020846106683,2.0,2.424175824175824,412.51133272892116,0.6387739642211987,-0.6401724841209723,-0.24613950236000218,950.9157509157509,-1.0,81.59362549800797,2.4330571411581494,
2023-08-09 15:52:20.087000,-5.493975903614458,0.012048192771084338,-8.25301204819277,0.10300429184549356,-5.136112814224402,-7.9141630901287545,2.0,2.4256410256410255,412.262156448203,0.4647747800244749,-0.9585688479692319,-0.5195501427655731,904.7619047619047,-1.0,81.59362549800797,2.4329642938914633,
2023-08-09 15:52:20.095000,-5.481927710843374,0.024096385542168676,-8.289156626506024,0.07112201103617412,-5.197424892703863,-7.941140404659717,2.0,2.4256410256410255,412.262156448203,0.4891323349455166,-0.8194161179418441,-0.4831886253714818,873.2600732600732,-1.0,81.59362549800797,2.432871687767737,
2023-08-09 15:52:20.103000,-5.493975903614458,0.0,-8.27710843373494,0.06131207847946045,-5.226854690374004,-7.990190067443286,2.0,2.424175824175824,412.51133272892116,0.6770001748149878,-0.9351436396480386,-0.5123244566167473,854.9450549450548,-1.0,81.59362549800797,2.4327793421865276,
2023-08-09 15:52:20.110000,-5.481927710843374,0.012048192771084338,-8.265060240963855,0.07357449417535254,-5.1704475781729,-7.950950337216431,2.0,2.4256410256410255,412.262156448203,0.5007866674436228,-0.7296777577064282,-0.3573218343919354,849.084249084249,-1.0,81.59362549800797,2.432687275655454,
2023-08-09 15:52:20.118000,-5.481927710843374,0.024096385542168676,-8.265060240963855,0.13733905579399142,-5.133660331085223,-7.911710606989576,2.0,2.424175824175824,412.51133272892116,0.6464658236699495,-1.136413961890332,-0.7225686148825828,854.2124542124542,-1.0,81.59362549800797,2.432595506191521,
2023-08-09 15:52:20.126000,-5.46987951807229,0.012048192771084338,-8.27710843373494,0.09809932556713671,-5.136112814224402,-7.916615573267934,2.0,2.424175824175824,412.51133272892116,0.8026338791445724,-1.126391235941961,-0.47514713594778846,868.131868131868,-1.0,81.59362549800797,2.432504051334019,
2023-08-09 15:52:20.133000,-5.481927710843374,0.024096385542168676,-8.265060240963855,0.1496014714898835,-5.1704475781729,-7.909258123850398,2.0,2.424175824175824,412.51133272892116,0.5918070042538314,-1.223704912301147,-0.7008915564361052,890.8424908424907,-1.0,81.59362549800797,2.432412927595313,
2023-08-09 15:52:20.141000,-5.46987951807229,0.024096385542168676,-8.265060240963855,0.0956468424279583,-5.141017780502759,-7.938687921520539,2.0,2.424175824175824,412.51133272892116,1.0060019812365244,-1.1655497931355985,-0.5265427422644371,920.8791208791208,-1.0,81.59362549800797,2.4323221508944877,
2023-08-09 15:52:20.149000,-5.481927710843374,0.012048192771084338,-8.27710843373494,0.06866952789699571,-5.190067443286327,-7.92152053954629,2.0,2.424175824175824,412.51133272892116,0.8556610920109554,-1.6845172192762663,-0.5547462269098533,959.7069597069597,-1.0,81.59362549800797,2.4322317365332005,
2023-08-09 15:52:20.156000,-5.493975903614458,0.024096385542168676,-8.289156626506024,0.11281422440220723,-5.160637645616186,-7.9288779889638255,2.0,2.4256410256410255,412.262156448203,1.134549268690635,-1.5271837305518334,-0.15337101567507716,1004.3956043956043,-1.0,81.59362549800797,2.4321416991717273,
2023-08-09 15:52:20.164000,-5.46987951807229,0.024096385542168676,-8.240963855421688,0.134886572654813,-5.104230533415082,-7.963212752912323,2.0,2.4227106227106225,412.76081040217724,0.5728104422819186,-1.0508711613542332,-0.3058096847503063,1053.4798534798533,-1.0,81.59362549800797,2.4320520528402088,
2023-08-09 15:52:20.172000,-5.481927710843374,0.012048192771084338,-8.25301204819277,0.04904966278356836,-5.10913549969344,-7.909258123850398,2.0,2.424175824175824,412.51133272892116,0.5335353417633003,-1.219975525901753,-0.10500553580793673,1104.7619047619046,-1.0,81.59362549800797,2.4319628105276383,
2023-08-09 15:52:20.179000,-5.506024096385542,0.024096385542168676,-8.289156626506024,0.07112201103617412,-5.209687308399754,-7.919068056407112,2.0,2.424175824175824,412.51133272892116,0.44822562787716314,-0.9627644076685506,-0.0721403181632775,1158.2417582417581,-1.0,81.59362549800797,2.4318739844767383,
2023-08-09 15:52:20.187000,-5.493975903614458,0.04819277108433735,-8.27710843373494,0.12752912323727775,-5.1704475781729,-7.904353157572041,2.0,2.424175824175824,412.51133272892116,0.4134957170328062,-0.8469203426373754,-0.22294738068877104,1214.6520146520145,-1.0,81.59362549800797,2.431785586653632,
2023-08-09 15:52:20.195000,-5.506024096385542,0.012048192771084338,-8.301204819277109,0.12507664009809932,-5.187614960147148,-7.9141630901287545,2.0,2.424175824175824,412.51133272892116,-0.0953324398345082,-0.2428762892605318,-0.4495076044519549,1271.062271062271,-1.0,81.59362549800797,2.431697628270442,
2023-08-09 15:52:20.202000,-5.506024096385542,0.03614457831325302,-8.27710843373494,0.0956468424279583,-5.192519926425506,-7.943592887798896,2.0,2.424175824175824,412.51133272892116,0.11899073480566487,0.24544024241011544,-0.14101742322708463,1323.076923076923,-1.0,81.59362549800797,2.4316101197670674,
2023-08-09 15:52:20.210000,-5.481927710843374,0.03614457831325302,-8.27710843373494,0.11771919068056406,-5.155732679337829,-7.931330472103004,2.0,2.424175824175824,412.51133272892116,0.11747567158091053,0.24229357263562765,-0.1392692733523686,1372.161172161172,-1.0,81.59362549800797,2.431523070794442,
2023-08-09 15:52:20.218000,-5.445783132530121,0.024096385542168676,-8.27710843373494,0.0539546290619252,-5.194972409564684,-7.909258123850398,2.0,2.424175824175824,412.51133272892116,0.25266592855894116,-0.05186177961657116,-0.04650078666744357,1415.3846153846152,-1.0,81.59362549800797,2.4314364901995034,
2023-08-09 15:52:20.225000,-5.506024096385542,0.012048192771084338,-8.289156626506024,0.09074187614960147,-5.148375229920294,-7.9656652360515015,2.0,2.424175824175824,412.51133272892116,-0.07027562496357977,0.14521298292640342,0.1517394091253424,1450.5494505494505,-1.0,81.59362549800797,2.4313503860119643,
2023-08-09 15:52:20.233000,-5.481927710843374,0.012048192771084338,-8.289156626506024,0.07847946045370938,-5.1704475781729,-7.916615573267934,2.0,2.424175824175824,412.51133272892116,-0.3443855253190365,-0.04230522696812521,0.028320027970398367,1476.923076923077,-1.0,81.59362549800797,2.4312647654331516,
2023-08-09 15:52:20.241000,-5.481927710843374,0.012048192771084338,-8.265060240963855,0.12998160637645614,-5.079705702023299,-7.938687921520539,2.0,2.424175824175824,412.51133272892116,-0.15884855194918732,-0.1363556902278425,0.19660858924305122,1493.7728937728937,-1.0,81.59362549800797,2.4311796348270196,
2023-08-09 15:52:20.248000,-5.481927710843374,0.012048192771084338,-8.228915662650603,0.1496014714898835,-5.1066830165542605,-7.941140404659717,2.0,2.424175824175824,412.51133272892116,-0.005827166249052237,0.18134141367053214,0.08787366703572036,1499.6336996336995,-1.0,81.59362549800797,2.4310949997135247,
2023-08-09 15:52:20.256000,-5.481927710843374,0.012048192771084338,-8.27710843373494,0.07112201103617412,-5.136112814224402,-7.901900674432863,2.0,2.424175824175824,412.51133272892116,0.13309247712837213,0.17994289377075864,-0.19043179301905475,1495.2380952380952,-1.0,81.59362549800797,2.431010864764498,
2023-08-09 15:52:20.264000,-5.46987951807229,0.012048192771084338,-8.240963855421688,0.05885959534028203,-5.118945432250153,-7.894543225015328,2.0,2.424175824175824,412.51133272892116,-0.06538080531437596,-0.18880018646931956,-0.03706077734397759,1482.051282051282,-1.0,81.59362549800797,2.4309272338021723,
2023-08-09 15:52:20.271000,-5.457831325301205,0.03614457831325302,-8.228915662650603,0.11771919068056406,-5.0919681177191904,-7.835683629675046,2.0,2.424175824175824,412.51133272892116,0.31909562379814643,-0.3864576656372001,-0.14276557310180063,1463.7362637362637,-1.0,81.59362549800797,2.430844109800494,
2023-08-09 15:52:20.279000,-5.457831325301205,0.03614457831325302,-8.228915662650603,0.0269773145309626,-5.096873083997547,-7.882280809319435,2.0,2.424175824175824,412.51133272892116,0.2710797739059498,-0.11864110483072063,0.07179068818833412,1441.7582417582416,-1.0,81.59362549800797,2.430761495347182,
2023-08-09 15:52:20.287000,-5.46987951807229,0.024096385542168676,-8.240963855421688,0.05885959534028203,-5.12385039852851,-7.960760269773145,2.0,2.4227106227106225,412.76081040217724,0.5012528407435461,-0.35802109434182045,0.16490880484820208,1415.3846153846152,-1.0,81.59362549800797,2.430679392125811,
2023-08-09 15:52:20.294000,-5.481927710843374,0.012048192771084338,-8.265060240963855,0.08828939301042305,-5.141017780502759,-7.8700183936235435,2.0,2.424175824175824,412.51133272892116,0.025056814870928437,-0.19835673911776724,0.04242177029310648,1384.6153846153845,-1.0,81.59362549800797,2.4305978000123107,
2023-08-09 15:52:20.302000,-5.445783132530121,0.012048192771084338,-8.289156626506024,0.13979153893316984,-5.118945432250153,-7.8332311465358675,2.0,2.4227106227106225,412.76081040217724,0.2841326263038278,-0.6342287745469374,-0.03426373754443231,1350.9157509157508,-1.0,81.59362549800797,2.4305167184587853,
2023-08-09 15:52:20.310000,-5.457831325301205,0.0,-8.313253012048193,0.07357449417535254,-5.163090128755364,-7.9141630901287545,2.0,2.424175824175824,412.51133272892116,-0.08204650078666682,-0.13588951692791915,-0.3239904434473515,1317.9487179487178,-1.0,81.59362549800797,2.4304361460162514,
2023-08-09 15:52:20.317000,-5.457831325301205,0.0,-8.265060240963855,0.10300429184549356,-5.0993255671367255,-7.916615573267934,2.0,2.421245421245421,413.0105900151286,-0.03309830429462177,-0.014101742322708983,0.0926519433599442,1284.9816849816848,-1.0,81.59362549800797,2.4303560798948096,
2023-08-09 15:52:20.325000,-5.445783132530121,0.03614457831325302,-8.25301204819277,0.0809319435928878,-5.089515634580012,-7.919068056407112,2.0,2.421245421245421,413.0105900151286,0.39414952508595086,-0.3350620593205522,-0.07248994813822,1252.014652014652,-1.0,81.59362549800797,2.430276516932597,
2023-08-09 15:52:20.333000,-5.445783132530121,0.0,-8.228915662650603,0.07112201103617412,-5.145922746781116,-7.879828326180257,2.0,2.4227106227106225,412.76081040217724,0.6358603810966726,-0.44030068177845066,-0.3780665462385642,1219.7802197802198,-1.0,81.59362549800797,2.430197452425273,
2023-08-09 15:52:20.340000,-5.445783132530121,0.024096385542168676,-8.265060240963855,0.05885959534028203,-5.126302881667688,-7.865113427345187,2.0,2.4227106227106225,412.76081040217724,0.7825884272478286,-0.6518268166190767,-0.2843657129537903,1189.7435897435896,-1.0,81.59362549800797,2.4301188806413188,
2023-08-09 15:52:20.348000,-5.445783132530121,0.012048192771084338,-8.265060240963855,0.10545677498467197,-5.138565297363581,-7.8773758430410785,2.0,2.4227106227106225,412.76081040217724,0.686323640813472,-0.9705728104422824,-0.41943942660684097,1164.102564102564,-1.0,81.59362549800797,2.430040795408411,
2023-08-09 15:52:20.356000,-5.481927710843374,0.0,-8.265060240963855,0.10545677498467197,-5.114040465971796,-7.887185775597793,2.0,2.4227106227106225,412.76081040217724,0.6197774022492859,-0.40067595128488986,-0.30860672454985116,1142.857142857143,-1.0,81.59362549800797,2.4299631896842353,
2023-08-09 15:52:20.363000,-5.481927710843374,0.0,-8.27710843373494,0.09074187614960147,-5.150827713059472,-7.909258123850398,2.0,2.4227106227106225,412.76081040217724,1.0860672454985134,-0.6721053551657822,-0.06270030883981108,1124.5421245421244,-1.0,81.59362549800797,2.429886055587312,
2023-08-09 15:52:20.371000,-5.493975903614458,0.012048192771084338,-8.25301204819277,0.07847946045370938,-5.182709993868792,-7.980380134886572,2.0,2.4227106227106225,412.76081040217724,0.7549676592273166,-0.32935143639648085,-0.0027970397995452823,1112.087912087912,-1.0,81.59362549800797,2.4298093844300936,
2023-08-09 15:52:20.379000,-5.46987951807229,0.024096385542168676,-8.265060240963855,0.07112201103617412,-5.177805027590435,-7.843041079092581,2.0,2.4227106227106225,412.76081040217724,0.6064914632014445,-0.23075578346250228,-0.13973544665229326,1100.3663003663003,-1.0,81.59362549800797,2.429733166754255,
2023-08-09 15:52:20.386000,-5.506024096385542,0.0,-8.25301204819277,0.07357449417535254,-5.202329858982219,-7.8749233599019,2.0,2.4227106227106225,412.76081040217724,0.8420255229881698,-0.22283083736378978,0.16828856127265285,1089.3772893772893,-1.0,81.59362549800797,2.429657392368226,
2023-08-09 15:52:20.394000,-5.506024096385542,0.024096385542168676,-8.25301204819277,0.08828939301042305,-5.153280196198651,-7.825873697118332,2.0,2.4227106227106225,412.76081040217724,0.541343744537032,0.24310937591049522,-0.06036944234019001,1079.120879120879,-1.0,81.59362549800797,2.429582050386911,
2023-08-09 15:52:20.402000,-5.493975903614458,0.024096385542168676,-8.240963855421688,0.05885959534028203,-5.138565297363581,-7.931330472103004,2.0,2.4227106227106225,412.76081040217724,1.3714818483771338,0.14008507662723618,0.0928850300099063,1068.8644688644688,-1.0,81.59362549800797,2.429507129273633,
2023-08-09 15:52:20.409000,-5.493975903614458,0.03614457831325302,-8.240963855421688,0.07112201103617412,-5.0919681177191904,-7.8847332924586135,2.0,2.4227106227106225,412.76081040217724,0.7764116310238321,-0.6492628634694948,0.01619952217236751,1058.6080586080586,-1.0,81.59362549800797,2.429432616884201,
2023-08-09 15:52:20.417000,-5.506024096385542,0.04819277108433735,-8.228915662650603,0.04414469650521152,-5.190067443286327,-7.926425505824647,2.0,2.421245421245421,413.0105900151286,1.1029660276207678,-0.6557892896684355,-0.11945690810558822,1046.8864468864467,-1.0,81.59362549800797,2.429358500513141,
2023-08-09 15:52:20.425000,-5.506024096385542,0.012048192771084338,-8.25301204819277,0.04659717964438994,-5.18516247700797,-7.92152053954629,2.0,2.4227106227106225,412.76081040217724,0.8325855136647047,-0.9086883048773384,0.2329701066371425,1036.6300366300366,-1.0,81.59362549800797,2.4292847664492756,
2023-08-09 15:52:20.432000,-5.530120481927711,0.0,-8.27710843373494,0.09319435928877988,-5.150827713059472,-7.887185775597793,2.0,2.4227106227106225,412.76081040217724,0.9766330633412963,-0.5940213274284707,0.03193287104481081,1028.5714285714284,-1.0,81.59362549800797,2.4292114004465133,
2023-08-09 15:52:20.440000,-5.530120481927711,0.03614457831325302,-8.240963855421688,0.12507664009809932,-5.148375229920294,-7.9141630901287545,2.0,2.421245421245421,413.0105900151286,1.134549268690635,-0.4671056465240951,0.16840510459763455,1023.4432234432234,-1.0,81.59362549800797,2.429138388300542,
2023-08-09 15:52:20.448000,-5.530120481927711,0.03614457831325302,-8.25301204819277,0.20846106683016552,-5.270999386879215,-7.909258123850398,2.0,2.421245421245421,413.0105900151286,1.2620476662199167,-0.5694306858574674,0.39741273818542083,1020.5128205128204,-1.0,81.59362549800797,2.4290657154096262,
2023-08-09 15:52:20.455000,-5.518072289156627,0.03614457831325302,-8.25301204819277,0.08583690987124463,-5.209687308399754,-7.894543225015328,2.0,2.421245421245421,413.0105900151286,1.3143756191364147,-0.09171959676009707,0.594720587378358,1016.117216117216,-1.0,81.59362549800797,2.428993366690392,
2023-08-09 15:52:20.463000,-5.506024096385542,0.04819277108433735,-8.265060240963855,0.07602697731453095,-5.18516247700797,-7.8847332924586135,2.0,2.4227106227106225,412.76081040217724,1.1803507954081924,-0.5499679505856295,0.19427772274343016,1012.4542124542124,-1.0,81.59362549800797,2.42892132659868,
2023-08-09 15:52:20.470000,-5.506024096385542,0.024096385542168676,-8.240963855421688,0.134886572654813,-5.150827713059472,-7.933782955242182,2.0,2.4197802197802196,413.260672116258,1.0333896626070747,-0.2858807761785438,0.4679214497989627,1005.1282051282051,-1.0,81.59362549800797,2.4288495792202798,
2023-08-09 15:52:20.478000,-5.506024096385542,0.012048192771084338,-8.25301204819277,0.12752912323727775,-5.084610668301655,-7.909258123850398,2.0,2.4197802197802196,413.260672116258,0.9346774663481153,-0.07074179826350485,-0.02412446827107958,996.3369963369963,-1.0,81.59362549800797,2.428778108396939,
2023-08-09 15:52:20.486000,-5.518072289156627,0.024096385542168676,-8.289156626506024,0.1618638871857756,-5.226854690374004,-7.896995708154506,2.0,2.421245421245421,413.0105900151286,0.9269856068993645,-0.06864401841384632,-0.02225977507138272,990.4761904761904,-1.0,81.59362549800797,2.4287068970819514,
2023-08-09 15:52:20.493000,-5.530120481927711,0.012048192771084338,-8.301204819277109,0.13243408951563457,-5.234212139791539,-7.8994481912936845,2.0,2.421245421245421,413.0105900151286,0.3075578346250228,0.6684925120913693,0.3293514363964804,983.1501831501831,-1.0,81.59362549800797,2.4286359278867757,
2023-08-09 15:52:20.501000,-5.518072289156627,0.012048192771084338,-8.265060240963855,0.08338442673206621,-5.148375229920294,-7.960760269773145,2.0,2.421245421245421,413.0105900151286,0.1954431559932394,0.27236175048074074,0.20663131519142225,978.0219780219779,-1.0,81.59362549800797,2.4285651836965494,
2023-08-09 15:52:20.509000,-5.506024096385542,0.0,-8.25301204819277,0.05885959534028203,-5.111587982832618,-7.8994481912936845,2.0,2.421245421245421,413.0105900151286,0.29916671522638516,0.4278305460054768,0.0825126740865919,977.2893772893772,-1.0,81.59362549800797,2.4284946472676796,
2023-08-09 15:52:20.516000,-5.506024096385542,-0.012048192771084338,-8.240963855421688,0.04414469650521152,-5.126302881667688,-7.835683629675046,2.0,2.421245421245421,413.0105900151286,0.17236757764698865,0.517219276265952,-0.03659460404405338,979.4871794871794,-1.0,81.59362549800797,2.4284243012830866,
2023-08-09 15:52:20.524000,-5.506024096385542,-0.012048192771084338,-8.240963855421688,0.03678724708767627,-5.182709993868792,-7.850398528510116,2.0,2.421245421245421,413.0105900151286,0.0027970397995435467,0.6071907231513313,-0.5548627702348347,982.4175824175824,-1.0,81.59362549800797,2.428354128407203,
2023-08-09 15:52:20.532000,-5.518072289156627,-0.024096385542168676,-8.216867469879519,0.06131207847946045,-5.192519926425506,-7.8749233599019,2.0,2.421245421245421,413.0105900151286,-0.04218868364314611,0.39018705203659376,-0.47235009614824314,985.3479853479853,-1.0,81.59362549800797,2.4282841113406053,
2023-08-09 15:52:20.539000,-5.518072289156627,-0.024096385542168676,-8.180722891566266,0.009809932556713672,-5.155732679337829,-7.8405885959534025,2.0,2.421245421245421,413.0105900151286,0.0036128430744111375,-0.20698094516636475,-0.36373171726589354,989.010989010989,-1.0,81.59362549800797,2.428214232874259,
2023-08-09 15:52:20.547000,-5.542168674698796,-0.03614457831325302,-8.228915662650603,0.07602697731453095,-5.182709993868792,-7.816063764561618,2.0,2.421245421245421,413.0105900151286,0.1843715401200391,-0.29310646232737125,-0.6505448400442867,996.3369963369963,-1.0,81.59362549800797,2.42814447594327,
2023-08-09 15:52:20.555000,-5.518072289156627,-0.012048192771084338,-8.228915662650603,0.10300429184549356,-5.177805027590435,-7.879828326180257,2.0,2.421245421245421,413.0105900151286,-0.2136239146902846,-0.07528698793776616,-0.5978672571528466,1010.2564102564102,-1.0,81.59362549800797,2.428074823680132,
2023-08-09 15:52:20.562000,-5.518072289156627,-0.012048192771084338,-8.265060240963855,0.0809319435928878,-5.172900061312078,-7.8994481912936845,2.0,2.421245421245421,413.0105900151286,0.0916030534351145,-0.12073888468037916,-0.6695414020161998,1022.7106227106226,-1.0,81.59362549800797,2.428005259925209,
2023-08-09 15:52:20.570000,-5.506024096385542,-0.04819277108433735,-8.228915662650603,0.07357449417535254,-5.214592274678111,-7.845493562231759,2.0,2.421245421245421,413.0105900151286,0.24042887943592905,0.524911135714701,0.005710622924072269,1041.7582417582416,-1.0,81.59362549800797,2.42793576921146,
2023-08-09 15:52:20.578000,-5.481927710843374,-0.03614457831325302,-8.25301204819277,0.029429797670141016,-5.190067443286327,-7.857755977927651,2.0,2.421245421245421,413.0105900151286,-0.02249286172134483,1.197016490880485,-0.40661966085892426,1057.8754578754579,-1.0,81.59362549800797,2.4278663358694237,
2023-08-09 15:52:20.585000,-5.506024096385542,-0.024096385542168676,-8.216867469879519,0.014714898835070508,-5.145922746781116,-7.820968730839975,2.0,2.421245421245421,413.0105900151286,-0.23961307616106145,1.0262805197832299,-0.051395606316648246,1073.9926739926739,-1.0,81.59362549800797,2.4277969446064507,
2023-08-09 15:52:20.593000,-5.518072289156627,-0.04819277108433735,-8.204819277108435,0.004904966278356836,-5.224402207234825,-7.749846719803801,2.0,2.421245421245421,413.0105900151286,-0.22457898723850753,0.8847969232562218,-0.06386574208962162,1089.3772893772893,-1.0,81.59362549800797,2.4277275809804126,
2023-08-09 15:52:20.601000,-5.518072289156627,-0.012048192771084338,-8.228915662650603,0.0,-5.182709993868792,-7.904353157572041,2.0,2.421245421245421,413.0105900151286,-0.22609405046326014,0.7585805023017312,0.030767437795000272,1101.098901098901,-1.0,81.59362549800797,2.4276582309587247,
2023-08-09 15:52:20.608000,-5.518072289156627,-0.012048192771084338,-8.240963855421688,0.0956468424279583,-5.180257510729613,-7.86020846106683,2.0,2.421245421245421,413.0105900151286,-0.4740982460229592,0.4506730377017659,0.0938173766097543,1112.087912087912,-1.0,81.59362549800797,2.4275888809684227,
2023-08-09 15:52:20.616000,-5.518072289156627,-0.03614457831325302,-8.265060240963855,0.017167381974248927,-5.204782342121398,-7.850398528510116,2.0,2.421245421245421,413.0105900151286,-0.18588660334479346,0.7578812423518444,0.14101742322708463,1119.4139194139193,-1.0,81.59362549800797,2.427519517486716,
2023-08-09 15:52:20.624000,-5.506024096385542,-0.03614457831325302,-8.25301204819277,0.08828939301042305,-5.219497240956468,-7.8700183936235435,2.0,2.4197802197802196,413.260672116258,-0.5863294679797216,1.045043995105179,0.30988870112464295,1123.8095238095236,-1.0,81.59362549800797,2.4274501271549545,
2023-08-09 15:52:20.631000,-5.506024096385542,-0.060240963855421686,-8.228915662650603,0.05885959534028203,-5.133660331085223,-7.896995708154506,2.0,2.4197802197802196,413.260672116258,-0.25021851873434015,0.7660392751005186,0.07936600431210324,1128.2051282051282,-1.0,81.59362549800797,2.427380697735057,
2023-08-09 15:52:20.639000,-5.506024096385542,-0.060240963855421686,-8.265060240963855,0.02207234825260576,-5.136112814224402,-7.896995708154506,2.0,2.4197802197802196,413.260672116258,-0.2523162985839987,1.2823262047666222,0.04906473981702675,1129.6703296703297,-1.0,81.59362549800797,2.4273112174845,
2023-08-09 15:52:20.647000,-5.542168674698796,-0.03614457831325302,-8.265060240963855,0.04414469650521152,-5.160637645616186,-7.9068056407112195,2.0,2.4197802197802196,413.260672116258,-0.11642678165608127,0.7754792844239855,-0.22679331041314646,1130.4029304029302,-1.0,81.59362549800797,2.4272416747375143,
2023-08-09 15:52:20.654000,-5.506024096385542,-0.04819277108433735,-8.25301204819277,0.004904966278356836,-5.163090128755364,-7.916615573267934,2.0,2.421245421245421,413.0105900151286,-0.1038401025581249,0.7730318745993827,-0.18099178369558921,1129.6703296703297,-1.0,81.59362549800797,2.4271720584317737,
2023-08-09 15:52:20.662000,-5.481927710843374,-0.07228915662650603,-8.25301204819277,0.03188228080931944,-5.155732679337829,-7.92152053954629,2.0,2.421245421245421,413.0105900151286,-0.2013868655672742,0.32911834974651744,0.06363265543965951,1126.7399267399267,-1.0,81.59362549800797,2.4271023586326175,
2023-08-09 15:52:20.670000,-5.445783132530121,-0.04819277108433735,-8.265060240963855,-0.007357449417535254,-5.18516247700797,-7.9362354383813605,2.0,2.4197802197802196,413.260672116258,-0.2371656663364604,0.10232503933337228,-0.16689004137288022,1124.5421245421244,-1.0,81.59362549800797,2.4270325661764733,
2023-08-09 15:52:20.677000,-5.481927710843374,-0.03614457831325302,-8.25301204819277,-0.056407112201103615,-5.143470263641937,-7.8920907418761495,2.0,2.4197802197802196,413.260672116258,-0.24171085601072173,0.027970397995454557,-0.11864110483072063,1126.7399267399267,-1.0,81.59362549800797,2.4269626722776723,
2023-08-09 15:52:20.685000,-5.481927710843374,-0.060240963855421686,-8.240963855421688,0.01226241569589209,-5.126302881667688,-7.855303494788473,2.0,2.421245421245421,413.0105900151286,-0.07668550783753793,0.6870229007633587,0.11328011188159218,1138.4615384615383,-1.0,81.59362549800797,2.4268926689078487,
2023-08-09 15:52:20.693000,-5.506024096385542,-0.07228915662650603,-8.25301204819277,0.01226241569589209,-5.207234825260576,-7.825873697118332,2.0,2.4197802197802196,413.260672116258,-0.005360992949128891,0.36466406386574196,-0.00850766272361755,1166.3003663003662,-1.0,81.59362549800797,2.4268225492775506,
2023-08-09 15:52:20.700000,-5.493975903614458,-0.060240963855421686,-8.228915662650603,-0.014714898835070508,-5.23175965665236,-7.909258123850398,2.0,2.4197802197802196,413.260672116258,-0.22551133383835423,-0.061068702290076333,-0.12924654740399757,1213.1868131868132,-1.0,81.59362549800797,2.4267523074371256,
2023-08-09 15:52:20.708000,-5.518072289156627,-0.04819277108433735,-8.240963855421688,0.05150214592274678,-5.192519926425506,-7.850398528510116,2.0,2.4197802197802196,413.260672116258,-0.0643319153895467,0.174931530796574,0.36244974069110175,1285.7142857142856,-1.0,81.59362549800797,2.426681937771249,
2023-08-09 15:52:20.716000,-5.506024096385542,-0.060240963855421686,-8.228915662650603,0.02207234825260576,-5.126302881667688,-7.8479460453709375,2.0,2.4197802197802196,413.260672116258,-0.18017598042072205,0.05967018239030283,-0.06328302546471656,1389.7435897435896,-1.0,81.59362549800797,2.4266114359319735,
2023-08-09 15:52:20.723000,-5.46987951807229,-0.04819277108433735,-8.228915662650603,0.0269773145309626,-5.1704475781729,-7.865113427345187,2.0,2.4197802197802196,413.260672116258,-0.4619777402249279,0.09999417283375035,0.13938581667734987,1528.937728937729,-1.0,81.59362549800797,2.4265407987864966,
2023-08-09 15:52:20.731000,-5.481927710843374,-0.03614457831325302,-8.265060240963855,0.0809319435928878,-5.121397915389331,-7.92152053954629,2.0,2.4197802197802196,413.260672116258,-0.41943942660684097,0.04661732999242484,-0.08822329701066374,1699.6336996336995,773.651123046875,77.55433710701747,2.4264700239415413,
2023-08-09 15:52:20.739000,-5.493975903614458,-0.024096385542168676,-8.240963855421688,0.07112201103617412,-5.158185162477007,-7.904353157572041,2.0,2.4197802197802196,413.260672116258,-0.10372355923314405,-0.32562204999708716,0.20639822854146014,1891.5750915750914,-1.0,77.55433710701747,2.4263991097575635,
2023-08-09 15:52:20.746000,-5.493975903614458,-0.03614457831325302,-8.25301204819277,0.02452483139178418,-5.141017780502759,-7.909258123850398,2.0,2.4197802197802196,413.260672116258,-0.9044927451780196,0.06608006526426272,-0.050463259716799824,2095.970695970696,-1.0,77.55433710701747,2.426328055360141,
2023-08-09 15:52:20.754000,-5.493975903614458,-0.04819277108433735,-8.25301204819277,0.0539546290619252,-5.18516247700797,-7.838136112814224,2.0,2.4197802197802196,413.260672116258,-0.4484587145271248,0.3174640172484112,-0.21455626129013475,2296.7032967032965,-1.0,77.55433710701747,2.426256860648652,
2023-08-09 15:52:20.762000,-5.530120481927711,-0.012048192771084338,-8.25301204819277,0.014714898835070508,-5.167995095033722,-7.882280809319435,2.0,2.421245421245421,413.0105900151286,-0.4517219276265952,0.3228250101975401,-0.21129304819066483,2481.3186813186812,-1.0,77.55433710701747,2.426185526302282,
2023-08-09 15:52:20.769000,-5.493975903614458,-0.03614457831325302,-8.240963855421688,0.03923973022685469,-5.23175965665236,-7.933782955242182,2.0,2.421245421245421,413.0105900151286,-1.0198706369092716,0.19019870636909308,0.023541751646174527,2638.8278388278386,-1.0,77.55433710701747,2.4261140542761344,
2023-08-09 15:52:20.777000,-5.518072289156627,-0.03614457831325302,-8.25301204819277,0.06376456161863887,-5.199877375843041,-7.9362354383813605,2.0,2.418315018315018,413.5110572553772,-0.9719713303420541,0.3947322417108551,-0.032515587669716295,2755.3113553113553,-1.0,77.55433710701747,2.4260424478744014,
2023-08-09 15:52:20.785000,-5.518072289156627,-0.04819277108433735,-8.265060240963855,0.034334763948497854,-5.190067443286327,-7.9068056407112195,2.0,2.4197802197802196,413.260672116258,-1.4301031408426075,0.56197191305868,-0.2271429403880894,2805.128205128205,-1.0,77.55433710701747,2.4259707107691915,
2023-08-09 15:52:20.792000,-5.493975903614458,-0.03614457831325302,-8.27710843373494,0.08583690987124463,-5.165542611894543,-7.909258123850398,2.0,2.4197802197802196,413.260672116258,-1.1824485752578526,0.9886370258143468,-0.22119923081405501,2805.8608058608056,-1.0,77.55433710701747,2.425898847284097,
2023-08-09 15:52:20.800000,-5.493975903614458,-0.03614457831325302,-8.228915662650603,0.056407112201103615,-5.172900061312078,-7.879828326180257,2.0,2.421245421245421,413.0105900151286,-1.2716042188683643,1.154012003962473,-0.2745760736553814,2805.8608058608056,-1.0,77.55433710701747,2.4258268628835915,
2023-08-09 15:52:20.808000,-5.506024096385542,-0.03614457831325302,-8.240963855421688,0.041692213366033105,-5.155732679337829,-7.8847332924586135,2.0,2.4197802197802196,413.260672116258,-1.449798962764407,1.4252083211934037,-0.2989336285764231,2758.241758241758,-1.0,77.55433710701747,2.4257547642041692,
2023-08-09 15:52:20.815000,-5.530120481927711,-0.012048192771084338,-8.216867469879519,0.06131207847946045,-5.118945432250153,-7.8773758430410785,2.0,2.4197802197802196,413.260672116258,-1.4605209486626647,1.252957286871394,-0.5505506672105355,2660.8058608058604,-1.0,77.55433710701747,2.4256825586276523,
2023-08-09 15:52:20.823000,-5.481927710843374,-0.024096385542168676,-8.228915662650603,0.03678724708767627,-5.175352544451257,-7.86020846106683,2.0,2.4197802197802196,413.260672116258,-0.91556436105122,0.639123594196143,-0.4069692908338676,2526.007326007326,-1.0,77.55433710701747,2.4256102537479896,
2023-08-09 15:52:20.830000,-5.493975903614458,-0.024096385542168676,-8.27710843373494,0.002452483139178418,-5.126302881667688,-7.8773758430410785,2.0,2.4197802197802196,413.260672116258,-0.9110191713769586,0.398811258085193,-0.048365479867140425,2367.032967032967,-1.0,77.55433710701747,2.425537857818742,
2023-08-09 15:52:20.838000,-5.46987951807229,-0.03614457831325302,-8.265060240963855,0.11281422440220723,-5.143470263641937,-7.911710606989576,2.0,2.4197802197802196,413.260672116258,-0.9635802109434183,0.41874016665695424,-0.30557659810034377,2191.941391941392,-1.0,77.55433710701747,2.4254653797404964,
2023-08-09 15:52:20.846000,-5.46987951807229,-0.024096385542168676,-8.240963855421688,0.04904966278356836,-5.150827713059472,-7.879828326180257,2.0,2.4197802197802196,413.260672116258,-0.927801410174232,0.39170211526134985,-0.6356272944467105,2010.989010989011,-1.0,77.55433710701747,2.4253928290462317,
2023-08-09 15:52:20.853000,-5.46987951807229,-0.012048192771084338,-8.204819277108435,0.1496014714898835,-5.172900061312078,-7.850398528510116,2.0,2.4197802197802196,413.260672116258,-1.0114795175106341,0.16071324514888416,-0.45638366062583774,1833.6996336996335,-1.0,77.55433710701747,2.4253202158848106,
2023-08-09 15:52:20.861000,-5.493975903614458,0.012048192771084338,-8.216867469879519,0.08828939301042305,-5.143470263641937,-7.8479460453709375,2.0,2.4197802197802196,413.260672116258,-0.45323699085134955,0.191480682943884,-0.34135539886952954,1663.7362637362637,-1.0,77.55433710701747,2.4252475510027383,
2023-08-09 15:52:20.869000,-5.518072289156627,0.024096385542168676,-8.228915662650603,0.10545677498467197,-5.187614960147148,-7.823421213979153,2.0,2.4197802197802196,413.260672116258,-0.37165666336460607,-0.14509643960142085,-0.43820290192879213,1506.9597069597069,-1.0,77.55433710701747,2.42517484572437,
2023-08-09 15:52:20.876000,-5.493975903614458,0.012048192771084338,-8.240963855421688,0.07602697731453095,-5.175352544451257,-7.904353157572041,2.0,2.4197802197802196,413.260672116258,-0.2449740691101921,-0.2200337975642445,-0.4601130470252315,1364.8351648351647,-1.0,77.55433710701747,2.4251021123885974,
2023-08-09 15:52:20.884000,-5.506024096385542,0.012048192771084338,-8.301204819277109,0.10545677498467197,-5.138565297363581,-7.8994481912936845,2.0,2.418315018315018,413.5110572553772,-0.6045102266767669,-0.5082454402424085,-0.3280694598216886,1237.3626373626373,-1.0,77.55433710701747,2.425029363801335,
2023-08-09 15:52:20.892000,-5.481927710843374,0.03614457831325302,-8.301204819277109,0.0956468424279583,-5.136112814224402,-7.955855303494788,2.0,2.418315018315018,413.5110572553772,-0.549618320610687,-0.21642095448983162,-0.27492570363032476,1126.7399267399267,-1.0,77.55433710701747,2.4249566127561444,
2023-08-09 15:52:20.899000,-5.518072289156627,0.0,-8.301204819277109,0.06131207847946045,-5.143470263641937,-7.9288779889638255,2.0,2.418315018315018,413.5110572553772,-0.6500786667443624,0.1029077559582782,-0.33133267292115853,1032.2344322344322,-1.0,77.55433710701747,2.424883871904616,
2023-08-09 15:52:20.907000,-5.46987951807229,0.0,-8.25301204819277,0.08583690987124463,-5.197424892703863,-7.9362354383813605,2.0,2.418315018315018,413.5110572553772,-0.21245848144047624,0.464891323349454,-0.09731367635918677,953.113553113553,-1.0,77.55433710701747,2.4248111542197393,
2023-08-09 15:52:20.915000,-5.518072289156627,0.0,-8.240963855421688,0.08828939301042305,-5.167995095033722,-7.852851011649294,2.0,2.418315018315018,413.5110572553772,-0.1468445894761386,0.4264320261057051,-0.62677000174815,893.040293040293,-1.0,77.55433710701747,2.4247384729304047,
2023-08-09 15:52:20.922000,-5.506024096385542,0.024096385542168676,-8.240963855421688,0.009809932556713672,-5.148375229920294,-7.86020846106683,2.0,2.418315018315018,413.5110572553772,-0.2659518676067826,-0.12843074412913,-0.4675718198240193,850.5494505494505,-1.0,77.55433710701747,2.4246658415241416,
2023-08-09 15:52:20.930000,-5.506024096385542,0.0,-8.265060240963855,0.08583690987124463,-5.131207847946045,-7.894543225015328,2.0,2.4168498168498167,413.76174598363144,0.20884563836606335,-0.46570712662432157,-0.6320144513722976,823.4432234432234,-1.0,77.55433710701747,2.424593273679294,
2023-08-09 15:52:20.938000,-5.493975903614458,0.024096385542168676,-8.240963855421688,0.07112201103617412,-5.182709993868792,-7.933782955242182,2.0,2.4168498168498167,413.76174598363144,0.31548278072373354,-0.605442573276617,-0.41314608705786365,810.9890109890109,-1.0,77.55433710701747,2.4245207832310327,
2023-08-09 15:52:20.945000,-5.481927710843374,0.012048192771084338,-8.228915662650603,0.12507664009809932,-5.202329858982219,-7.909258123850398,2.0,2.418315018315018,413.5110572553772,0.34496824194394243,-0.606724549851408,-0.44018413845347026,810.2564102564102,-1.0,77.55433710701747,2.424448383962575,
2023-08-09 15:52:20.953000,-5.481927710843374,0.012048192771084338,-8.228915662650603,0.0956468424279583,-5.141017780502759,-7.9068056407112195,2.0,2.4168498168498167,413.76174598363144,0.2814521298292633,-0.8828156867315424,-0.23961307616106275,822.7106227106226,-1.0,77.55433710701747,2.4243760896036592,
2023-08-09 15:52:20.961000,-5.493975903614458,0.012048192771084338,-8.240963855421688,0.10545677498467197,-5.194972409564684,-7.850398528510116,2.0,2.418315018315018,413.5110572553772,-0.025173358195909275,-0.9293164733989864,-0.5125575432667094,844.6886446886447,-1.0,77.55433710701747,2.4243039138626528,
2023-08-09 15:52:20.968000,-5.493975903614458,0.0,-8.25301204819277,0.07112201103617412,-5.101778050275904,-7.904353157572041,2.0,2.4168498168498167,413.76174598363144,0.35487442456733265,-0.7293281277314839,-0.34368626536915065,877.6556776556776,-1.0,77.55433710701747,2.424231870353737,
2023-08-09 15:52:20.976000,-5.506024096385542,0.03614457831325302,-8.240963855421688,0.06866952789699571,-5.197424892703863,-7.855303494788473,2.0,2.418315018315018,413.5110572553772,0.4904143115203075,-0.6218751820989444,-0.06864401841384546,917.2161172161171,-1.0,77.55433710701747,2.4241599725932783,
2023-08-09 15:52:20.984000,-5.518072289156627,0.0,-8.240963855421688,0.05885959534028203,-5.148375229920294,-7.909258123850398,2.0,2.4168498168498167,413.76174598363144,0.16351028494842945,-0.6954140201619946,0.1882174698444145,963.3699633699633,-1.0,77.55433710701747,2.4240882339265513,
2023-08-09 15:52:20.991000,-5.506024096385542,0.012048192771084338,-8.204819277108435,0.0539546290619252,-5.131207847946045,-7.8773758430410785,2.0,2.4168498168498167,413.76174598363144,0.2532486451838471,-0.4743313326729208,-0.2739933570304759,1016.117216117216,-1.0,77.55433710701747,2.4240166675241377,
2023-08-09 15:52:20.999000,-5.530120481927711,0.0,-8.240963855421688,0.12017167381974249,-5.187614960147148,-7.946045370938075,2.0,2.4168498168498167,413.76174598363144,0.5552124002097776,-0.8334013169395723,-0.07493735796282278,1073.260073260073,-1.0,77.55433710701747,2.423945285816533,
2023-08-09 15:52:21.007000,-5.518072289156627,-0.012048192771084338,-8.25301204819277,0.07602697731453095,-5.207234825260576,-7.8847332924586135,2.0,2.418315018315018,413.5110572553772,0.5792203251558767,-0.7296777577064282,-0.27247829380572197,1131.8681318681317,-1.0,77.55433710701747,2.423874100912052,
2023-08-09 15:52:21.014000,-5.518072289156627,-0.024096385542168676,-8.228915662650603,0.0269773145309626,-5.182709993868792,-7.901900674432863,2.0,2.418315018315018,413.5110572553772,0.5888934211293052,-0.9026280519783227,-0.48470368859623525,1191.9413919413919,-1.0,77.55433710701747,2.4238031250501484,
2023-08-09 15:52:21.022000,-5.518072289156627,-0.012048192771084338,-8.25301204819277,0.08828939301042305,-5.229307173513182,-7.855303494788473,2.0,2.418315018315018,413.5110572553772,0.6747858516403483,-1.075578346250219,-0.12982926402890263,1252.7472527472526,-1.0,77.55433710701747,2.4237323710929197,
2023-08-09 15:52:21.030000,-5.506024096385542,-0.03614457831325302,-8.228915662650603,-0.017167381974248927,-5.192519926425506,-7.872470876762722,2.0,2.418315018315018,413.5110572553772,0.6218751820989444,-0.7322417108560101,-0.06980945166365556,1312.8205128205127,-1.0,77.55433710701747,2.42366185151024,
2023-08-09 15:52:21.037000,-5.542168674698796,-0.024096385542168676,-8.228915662650603,0.014714898835070508,-5.199877375843041,-7.855303494788473,2.0,2.418315018315018,413.5110572553772,0.6156983858749497,-0.7283957811316355,-0.07225686148825833,1369.9633699633698,-1.0,77.55433710701747,2.4235915783865716,
2023-08-09 15:52:21.045000,-5.55421686746988,-0.024096385542168676,-8.216867469879519,0.06376456161863887,-5.236664622930717,-7.8994481912936845,2.0,2.418315018315018,413.5110572553772,0.41442806363265633,-1.2316298583998593,-0.3944991550608943,1418.3150183150183,-1.0,77.55433710701747,2.4235215633600786,
2023-08-09 15:52:21.053000,-5.566265060240964,-0.024096385542168676,-8.228915662650603,0.06621704475781728,-5.229307173513182,-7.916615573267934,2.0,2.4168498168498167,413.76174598363144,0.07318920808810762,-1.3058679564127962,-0.210011071615873,1456.4102564102564,-1.0,77.55433710701747,2.423451817175438,
2023-08-09 15:52:21.060000,-5.55421686746988,-0.024096385542168676,-8.25301204819277,0.02207234825260576,-5.273451870018393,-7.896995708154506,2.0,2.418315018315018,413.5110572553772,0.37678456966377327,-1.344327253656547,-0.25511333838354394,1482.051282051282,-1.0,77.55433710701747,2.4233823501175475,
2023-08-09 15:52:21.068000,-5.542168674698796,-0.03614457831325302,-8.27710843373494,-0.004904966278356836,-5.158185162477007,-7.926425505824647,2.0,2.4168498168498167,413.76174598363144,0.05116251966668614,-1.41273818542043,-0.4516053843016139,1496.7032967032967,-1.0,77.55433710701747,2.423313172343316,
2023-08-09 15:52:21.076000,-5.530120481927711,-0.04819277108433735,-8.289156626506024,-0.002452483139178418,-5.24647455548743,-7.855303494788473,2.0,2.4168498168498167,413.76174598363144,0.0510459763417053,-0.3507954081929964,-0.5584756133092474,1502.5641025641025,-1.0,77.55433710701747,2.4232442934065626,
2023-08-09 15:52:21.083000,-5.530120481927711,-0.04819277108433735,-8.228915662650603,0.0956468424279583,-5.158185162477007,-7.9068056407112195,2.0,2.4153846153846152,414.0127388535032,0.20383427539187698,-0.9455159955713539,-0.6035778800769184,1501.8315018315018,-1.0,77.55433710701747,2.4231757217154857,
2023-08-09 15:52:21.091000,-5.530120481927711,-0.04819277108433735,-8.228915662650603,0.034334763948497854,-5.187614960147148,-7.904353157572041,2.0,2.4168498168498167,413.76174598363144,0.21933453761435773,-0.8332847736145914,-0.6902861138628282,1496.7032967032967,-1.0,77.55433710701747,2.423107464940227,
2023-08-09 15:52:21.099000,-5.518072289156627,-0.04819277108433735,-8.240963855421688,-0.019619865113427344,-5.256284488044145,-7.9068056407112195,2.0,2.4168498168498167,413.76174598363144,-0.056640055940795866,-1.1365305052153145,-0.8547287454111061,1485.7142857142856,-1.0,77.55433710701747,2.4230395298947847,
2023-08-09 15:52:21.106000,-5.518072289156627,-0.060240963855421686,-8.25301204819277,0.019619865113427344,-5.285714285714286,-7.901900674432863,2.0,2.4168498168498167,413.76174598363144,-0.23868072956121478,-1.085251442223646,-0.8955189091544783,1468.8644688644688,-1.0,77.55433710701747,2.422971922629113,
2023-08-09 15:52:21.114000,-5.542168674698796,-0.060240963855421686,-8.25301204819277,0.002452483139178418,-5.131207847946045,-7.941140404659717,2.0,2.4168498168498167,413.76174598363144,-0.14299865975176232,-0.6841093176388326,-0.6155818425499676,1446.153846153846,-1.0,77.55433710701747,2.422904648453709,
2023-08-09 15:52:21.122000,-5.530120481927711,-0.04819277108433735,-8.25301204819277,-0.007357449417535254,-5.18516247700797,-7.950950337216431,2.0,2.4168498168498167,413.76174598363144,-0.1409008799021038,-0.6050929433016727,-0.7640580385758401,1419.047619047619,-1.0,77.55433710701747,2.4228377119318596,
2023-08-09 15:52:21.129000,-5.530120481927711,-0.04819277108433735,-8.228915662650603,0.0,-5.141017780502759,-7.931330472103004,2.0,2.4168498168498167,413.76174598363144,-0.4429811782530151,-0.2702639706310822,-0.5477536274109901,1388.278388278388,-1.0,77.55433710701747,2.4227711168744714,
2023-08-09 15:52:21.137000,-5.542168674698796,-0.060240963855421686,-8.216867469879519,-0.007357449417535254,-5.212139791538933,-7.9141630901287545,2.0,2.4168498168498167,413.76174598363144,-0.45137229765165265,-0.060136355690227905,-0.651826816619078,1353.113553113553,-1.0,77.55433710701747,2.422704866337597,
2023-08-09 15:52:21.145000,-5.542168674698796,-0.060240963855421686,-8.204819277108435,-0.002452483139178418,-5.229307173513182,-7.896995708154506,2.0,2.4168498168498167,413.76174598363144,-0.5222306392401366,0.05594079599090911,-0.43622166540411356,1317.9487179487178,-1.0,77.55433710701747,2.422638962622738,
2023-08-09 15:52:21.152000,-5.518072289156627,-0.060240963855421686,-8.204819277108435,-0.07112201103617412,-5.175352544451257,-7.8773758430410785,2.0,2.4168498168498167,413.76174598363144,-1.001456791562263,0.18670240661966103,-0.2515004953091311,1282.7838827838827,-1.0,77.55433710701747,2.4225734072800456,
2023-08-09 15:52:21.160000,-5.518072289156627,-0.07228915662650603,-8.180722891566266,-0.007357449417535254,-5.187614960147148,-7.855303494788473,2.0,2.4168498168498167,413.76174598363144,-0.7757123710739471,0.4344735155293984,-0.541693374511975,1248.3516483516482,-1.0,77.55433710701747,2.422508201572321,
2023-08-09 15:52:21.168000,-5.542168674698796,-0.060240963855421686,-8.204819277108435,-0.034334763948497854,-5.194972409564684,-7.852851011649294,2.0,2.4168498168498167,413.76174598363144,-0.8852630965561452,0.25383136180875304,-0.3838937124876169,1215.3846153846152,-1.0,77.55433710701747,2.4224433464169146,
2023-08-09 15:52:21.175000,-5.542168674698796,-0.07228915662650603,-8.216867469879519,-0.0269773145309626,-5.234212139791539,-7.816063764561618,2.0,2.4168498168498167,413.76174598363144,-1.043878561855369,0.10850183555736877,-0.1520890391002858,1185.3479853479853,-1.0,77.55433710701747,2.4223788414516556,
2023-08-09 15:52:21.183000,-5.542168674698796,-0.07228915662650603,-8.228915662650603,-0.034334763948497854,-5.266094420600858,-7.889638258736971,2.0,2.4168498168498167,413.76174598363144,-1.2930481906648799,0.35976924421653816,0.04894819649204634,1160.4395604395604,-1.0,77.55433710701747,2.4223146855788813,
2023-08-09 15:52:21.191000,-5.518072289156627,-0.07228915662650603,-8.228915662650603,-0.0269773145309626,-5.155732679337829,-7.816063764561618,2.0,2.4168498168498167,413.76174598363144,-0.8079948720937014,0.7788590408484349,0.20290192879202812,1140.6593406593406,-1.0,77.55433710701747,2.4222508774078917,
2023-08-09 15:52:21.198000,-5.542168674698796,-0.07228915662650603,-8.19277108433735,0.009809932556713672,-5.209687308399754,-7.857755977927651,2.0,2.4168498168498167,413.76174598363144,-0.9680088572926987,0.9970281452129826,0.049181283142008016,1124.5421245421244,-1.0,77.55433710701747,2.4221874147866904,
2023-08-09 15:52:21.206000,-5.518072289156627,-0.07228915662650603,-8.180722891566266,0.02452483139178418,-5.212139791538933,-7.86020846106683,2.0,2.4168498168498167,413.76174598363144,-0.7183730551832646,0.8210477244915793,0.3070916613250977,1110.6227106227107,-1.0,77.55433710701747,2.422124294828824,
2023-08-09 15:52:21.213000,-5.506024096385542,-0.07228915662650603,-8.228915662650603,-0.029429797670141016,-5.234212139791539,-7.8038013488657265,2.0,2.4168498168498167,413.76174598363144,-0.5453062175863874,1.0470252316298585,0.19893945574267274,1100.3663003663003,-1.0,77.55433710701747,2.422061513942605,
2023-08-09 15:52:21.221000,-5.530120481927711,-0.07228915662650603,-8.216867469879519,0.017167381974248927,-5.177805027590435,-7.850398528510116,2.0,2.4168498168498167,413.76174598363144,-0.7857350970223181,0.7979721461453303,0.5190839694656488,1089.3772893772893,-1.0,77.55433710701747,2.4219990678627097,
2023-08-09 15:52:21.229000,-5.530120481927711,-0.0963855421686747,-8.228915662650603,-0.01226241569589209,-5.23175965665236,-7.901900674432863,2.0,2.4168498168498167,413.76174598363144,-0.8705786376085303,0.6859740108385295,0.24206048598566554,1079.8534798534797,-1.0,77.55433710701747,2.421936951684075,
2023-08-09 15:52:21.236000,-5.530120481927711,-0.07228915662650603,-8.216867469879519,-0.034334763948497854,-5.18516247700797,-7.950950337216431,2.0,2.4139194139194133,414.26403641881643,-0.8197657479167884,1.0953907114969994,0.4419322883281858,1070.3296703296703,-1.0,77.55433710701747,2.4218751598980557,
2023-08-09 15:52:21.244000,-5.530120481927711,-0.08433734939759037,-8.228915662650603,-0.017167381974248927,-5.172900061312078,-7.857755977927651,2.0,2.4153846153846152,414.0127388535032,-0.8782704970572811,1.4697278713361699,0.7309597342812192,1060.8058608058607,-1.0,77.55433710701747,2.4218136859033037,
2023-08-09 15:52:21.252000,-5.506024096385542,-0.08433734939759037,-8.228915662650603,0.002452483139178418,-5.145922746781116,-7.8994481912936845,2.0,2.4153846153846152,414.0127388535032,-0.7364372705553289,1.519841501078025,0.30149758172600627,1052.7472527472528,-1.0,77.55433710701747,2.4217525218693843,
2023-08-09 15:52:21.259000,-5.506024096385542,-0.07228915662650603,-8.216867469879519,0.007357449417535254,-5.182709993868792,-7.9068056407112195,2.0,2.4153846153846152,414.0127388535032,-0.8998310121787775,1.6024707184895979,0.4088339840335649,1046.8864468864467,-1.0,77.55433710701747,2.4216916593349285,
2023-08-09 15:52:21.267000,-5.506024096385542,-0.07228915662650603,-8.19277108433735,-0.009809932556713672,-5.194972409564684,-7.850398528510116,2.0,2.4153846153846152,414.0127388535032,-0.648680146844589,1.3027212866383084,0.3758522230639235,1042.4908424908424,-1.0,77.55433710701747,2.4216310892793804,
2023-08-09 15:52:21.275000,-5.506024096385542,-0.07228915662650603,-8.240963855421688,0.004904966278356836,-5.1704475781729,-7.82832618025751,2.0,2.4153846153846152,414.0127388535032,-0.8131227783928668,0.8039158557193634,0.4816735621467283,1042.4908424908424,-1.0,77.55433710701747,2.421570802161221,
2023-08-09 15:52:21.282000,-5.518072289156627,-0.060240963855421686,-8.240963855421688,0.0539546290619252,-5.23175965665236,-7.830778663396689,2.0,2.4153846153846152,414.0127388535032,-0.8359652700891559,1.0859507021735326,0.49426024124468293,1046.1538461538462,-1.0,77.55433710701747,2.42151078795737,
2023-08-09 15:52:21.290000,-5.518072289156627,-0.04819277108433735,-8.204819277108435,-0.02452483139178418,-5.177805027590435,-7.86020846106683,2.0,2.4153846153846152,414.0127388535032,-0.9963288852630958,1.0013402482372822,0.6304993881475437,1053.4798534798533,-1.0,77.55433710701747,2.421451036203726,
2023-08-09 15:52:21.298000,-5.518072289156627,-0.060240963855421686,-8.228915662650603,0.017167381974248927,-5.18516247700797,-7.8479460453709375,2.0,2.4153846153846152,414.0127388535032,-0.8177845113921107,0.8696462910086818,0.766388905075462,1065.2014652014652,-1.0,77.55433710701747,2.4213915360367317,
2023-08-09 15:52:21.305000,-5.542168674698796,-0.04819277108433735,-8.228915662650603,0.004904966278356836,-5.258736971183323,-7.838136112814224,2.0,2.4153846153846152,414.0127388535032,-0.705203659460404,0.4041722510343219,1.0987704679214494,1078.3882783882784,-1.0,77.55433710701747,2.4213322762359257,
2023-08-09 15:52:21.313000,-5.518072289156627,-0.060240963855421686,-8.204819277108435,-0.0269773145309626,-5.239117106069895,-7.818516247700797,2.0,2.4153846153846152,414.0127388535032,-0.6983276032865224,0.39683002156051533,1.092127498397529,1090.10989010989,-1.0,77.55433710701747,2.4212732452673644,
2023-08-09 15:52:21.321000,-5.542168674698796,-0.060240963855421686,-8.25301204819277,0.004904966278356836,-5.194972409564684,-7.8700183936235435,2.0,2.4153846153846152,414.0127388535032,-0.60264553347707,0.30161412505098795,0.8695297476837018,1101.098901098901,-1.0,77.55433710701747,2.4212144313278507,
2023-08-09 15:52:21.328000,-5.542168674698796,-0.04819277108433735,-8.25301204819277,0.04659717964438994,-5.219497240956468,-7.919068056407112,2.0,2.4153846153846152,414.0127388535032,-0.7973894295204244,0.6813122778392874,0.697511800011654,1112.8205128205127,-1.0,77.55433710701747,2.4211558223898866,
2023-08-09 15:52:21.336000,-5.530120481927711,-0.04819277108433735,-8.240963855421688,0.03188228080931944,-5.226854690374004,-7.8847332924586135,2.0,2.4153846153846152,414.0127388535032,-0.9568206980945159,0.902977681953267,1.0293106462327373,1123.076923076923,-1.0,77.55433710701747,2.421097406247213,
2023-08-09 15:52:21.344000,-5.518072289156627,-0.03614457831325302,-8.25301204819277,0.06376456161863887,-5.1704475781729,-7.916615573267934,2.0,2.4153846153846152,414.0127388535032,-0.823028961016257,1.442689819940562,1.1882757415069054,1129.6703296703297,-1.0,77.55433710701747,2.4210391710187924,
2023-08-09 15:52:21.351000,-5.542168674698796,-0.04819277108433735,-8.240963855421688,-0.009809932556713672,-5.182709993868792,-7.889638258736971,2.0,2.4139194139194133,414.26403641881643,-1.2844239846162806,1.2437503641978906,1.1023833109958627,1136.2637362637363,-1.0,77.55433710701747,2.4209811046701812,
2023-08-09 15:52:21.359000,-5.566265060240964,-0.060240963855421686,-8.265060240963855,0.02207234825260576,-5.219497240956468,-7.867565910484365,2.0,2.4139194139194133,414.26403641881643,-1.3001573334887249,1.3033040032632126,1.2755666919177207,1145.054945054945,-1.0,77.55433710701747,2.4209231941465976,
2023-08-09 15:52:21.367000,-5.493975903614458,0.0,-8.216867469879519,0.07357449417535254,-5.145922746781116,-7.8994481912936845,2.0,2.4153846153846152,414.0127388535032,-1.0413146087057854,1.5650603111706782,1.5550375852223062,1157.5091575091574,-1.0,77.55433710701747,2.4208654262976763,
2023-08-09 15:52:21.374000,-5.506024096385542,0.0,-8.289156626506024,0.009809932556713672,-5.197424892703863,-7.9288779889638255,2.0,2.4153846153846152,414.0127388535032,-0.826525260765689,1.456208845638365,1.2540061767962243,1169.230769230769,-1.0,77.55433710701747,2.420807788801744,
2023-08-09 15:52:21.382000,-5.493975903614458,-0.04819277108433735,-8.313253012048193,0.056407112201103615,-5.187614960147148,-7.926425505824647,2.0,2.4153846153846152,414.0127388535032,-1.959209836256629,1.7781015092360586,1.5052735854553927,1179.4871794871794,-1.0,77.55433710701747,2.420750269790005,
2023-08-09 15:52:21.390000,-5.457831325301205,-0.03614457831325302,-8.25301204819277,0.04659717964438994,-5.199877375843041,-7.843041079092581,2.0,2.4124542124542123,414.5156392347404,-1.5422178194743892,2.052327952916496,1.8756482722452075,1191.2087912087911,-1.0,77.55433710701747,2.4206928569797266,
2023-08-09 15:52:21.397000,-5.481927710843374,0.0,-8.25301204819277,0.1103617412630288,-5.12385039852851,-7.8111587982832615,2.0,2.4139194139194133,414.26403641881643,-1.1874599382320372,1.7289202260940502,1.4057455859215662,1205.8608058608058,-1.0,77.55433710701747,2.4206355372621773,
2023-08-09 15:52:21.405000,-5.46987951807229,0.024096385542168676,-8.228915662650603,0.10300429184549356,-5.1066830165542605,-7.896995708154506,2.0,2.4139194139194133,414.26403641881643,-1.280228424916962,1.6708816502534825,1.3956063166482144,1223.4432234432234,-1.0,77.55433710701747,2.4205782979772223,
2023-08-09 15:52:21.413000,-5.493975903614458,0.024096385542168676,-8.25301204819277,0.10055180870631514,-5.197424892703863,-7.931330472103004,2.0,2.4139194139194133,414.26403641881643,-1.2436338208729099,1.9329875881358887,1.3866324806246721,1241.7582417582416,-1.0,77.55433710701747,2.4205211269193248,
2023-08-09 15:52:21.420000,-5.481927710843374,0.0,-8.25301204819277,0.16676885346413242,-5.145922746781116,-7.960760269773145,2.0,2.4139194139194133,414.26403641881643,-1.7459355515412869,1.8968591573917601,1.7282209661441639,1262.2710622710622,-1.0,77.55433710701747,2.4204640114977765,
2023-08-09 15:52:21.428000,-5.493975903614458,0.0,-8.240963855421688,0.12507664009809932,-5.126302881667688,-7.92152053954629,2.0,2.4139194139194133,414.26403641881643,-1.5852223063924011,1.8607307266476314,1.5622632713711324,1286.4468864468863,-1.0,77.55433710701747,2.4204069392662806,
2023-08-09 15:52:21.436000,-5.493975903614458,0.0,-8.25301204819277,0.09319435928877988,-5.158185162477007,-7.894543225015328,2.0,2.4139194139194133,414.26403641881643,-1.6718139968533292,2.219684167589302,1.3543499796049183,1310.6227106227104,-1.0,77.55433710701747,2.420349897958216,
2023-08-09 15:52:21.443000,-5.481927710843374,0.012048192771084338,-8.228915662650603,0.07357449417535254,-5.1287553648068664,-7.852851011649294,2.0,2.4139194139194133,414.26403641881643,-1.5121496416292743,2.4101159606083566,1.283841267991375,1335.5311355311355,-1.0,77.55433710701747,2.4202928755202144,
2023-08-09 15:52:21.451000,-5.518072289156627,0.0,-8.204819277108435,0.06131207847946045,-5.192519926425506,-7.835683629675046,2.0,2.4153846153846152,414.0127388535032,-1.2301147951751068,2.309772157799662,1.1385117417399924,1358.974358974359,-1.0,77.55433710701747,2.4202358601440785,
2023-08-09 15:52:21.459000,-5.506024096385542,0.0,-8.25301204819277,0.16676885346413242,-5.204782342121398,-7.872470876762722,2.0,2.4153846153846152,414.0127388535032,-1.0864168754734578,1.6137754210127615,1.240254064448458,1377.2893772893772,-1.0,77.55433710701747,2.4201788407896956,
2023-08-09 15:52:21.466000,-5.518072289156627,0.012048192771084338,-8.240963855421688,0.12017167381974249,-5.12385039852851,-7.865113427345187,2.0,2.4153846153846152,414.0127388535032,-0.9279179534992129,0.9570537847444776,0.8694132043587202,1394.139194139194,-1.0,77.55433710701747,2.420121807285837,
2023-08-09 15:52:21.474000,-5.518072289156627,0.012048192771084338,-8.289156626506024,0.13243408951563457,-5.187614960147148,-7.889638258736971,2.0,2.4139194139194133,414.26403641881643,-0.496591107744304,1.0040207447118465,0.9258201736495535,1407.3260073260071,-1.0,77.55433710701747,2.4200647499048755,
2023-08-09 15:52:21.482000,-5.481927710843374,0.0,-8.25301204819277,0.07357449417535254,-5.1287553648068664,-7.916615573267934,2.0,2.4139194139194133,414.26403641881643,-0.2832002797039811,1.144105821339083,0.8159198181924125,1414.6520146520145,-1.0,77.55433710701747,2.420007658901727,
2023-08-09 15:52:21.489000,-5.457831325301205,0.024096385542168676,-8.27710843373494,0.1618638871857756,-5.1704475781729,-7.919068056407112,2.0,2.4139194139194133,414.26403641881643,0.2943884389021622,0.4449624147776945,1.0695180933512034,1421.245421245421,-1.0,77.55433710701747,2.419950524014474,
2023-08-09 15:52:21.497000,-5.493975903614458,0.024096385542168676,-8.301204819277109,0.13979153893316984,-5.175352544451257,-7.970570202329858,2.0,2.4139194139194133,414.26403641881643,-0.23157158673736986,0.5602237631839622,1.336402307557834,1425.6410256410256,-1.0,77.55433710701747,2.419893335471575,
2023-08-09 15:52:21.505000,-5.481927710843374,0.0,-8.289156626506024,0.07847946045370938,-5.116492949110975,-7.923973022685469,2.0,2.4139194139194133,414.26403641881643,0.12738185420429898,1.000757531612378,1.359594429229066,1430.03663003663,-1.0,77.55433710701747,2.4198360839777933,
2023-08-09 15:52:21.512000,-5.481927710843374,0.012048192771084338,-8.313253012048193,0.08583690987124463,-5.133660331085223,-7.948497854077253,2.0,2.4139194139194133,414.26403641881643,-0.3721228366645294,1.7860264553347693,1.412155468795525,1440.2930402930401,-1.0,77.55433710701747,2.419778760768551,
2023-08-09 15:52:21.520000,-5.493975903614458,0.024096385542168676,-8.313253012048193,0.10300429184549356,-5.190067443286327,-7.96811771919068,2.0,2.4153846153846152,414.0127388535032,-0.19521006934327773,2.1236524678049054,1.2648447060194628,1462.2710622710622,-1.0,77.55433710701747,2.4197213580515053,
2023-08-09 15:52:21.528000,-5.493975903614458,0.024096385542168676,-8.265060240963855,0.07357449417535254,-5.153280196198651,-7.8847332924586135,2.0,2.4139194139194133,414.26403641881643,-0.4479925412271997,2.566167472757997,1.3619252957286871,1503.2967032967033,-1.0,77.55433710701747,2.419663869026321,
2023-08-09 15:52:21.535000,-5.481927710843374,0.0,-8.25301204819277,0.09809932556713671,-5.160637645616186,-7.857755977927651,2.0,2.4139194139194133,414.26403641881643,-0.3641978905658169,1.7997785676825357,0.935143639648039,1569.9633699633698,-1.0,77.55433710701747,2.41960628748262,
2023-08-09 15:52:21.543000,-5.445783132530121,0.024096385542168676,-8.228915662650603,0.10300429184549356,-5.138565297363581,-7.916615573267934,2.0,2.4139194139194133,414.26403641881643,-0.4645416933745115,1.3886137171493516,0.8174348814171672,1664.4688644688645,-1.0,77.55433710701747,2.419548607292657,
2023-08-09 15:52:21.551000,-5.457831325301205,0.012048192771084338,-8.204819277108435,0.1226241569589209,-5.118945432250153,-7.889638258736971,2.0,2.4139194139194133,414.26403641881643,-0.5026513606433196,0.4568498339257624,0.7013577297360285,1789.7435897435896,-1.0,77.55433710701747,2.4194908228857677,
2023-08-09 15:52:21.558000,-5.46987951807229,0.04819277108433735,-8.228915662650603,0.10545677498467197,-5.131207847946045,-7.894543225015328,2.0,2.4139194139194133,414.26403641881643,-0.7374861604801599,-0.10220849600838972,0.721286638307791,1942.8571428571427,-1.0,77.55433710701747,2.4194329297215886,
2023-08-09 15:52:21.566000,-5.481927710843374,0.03614457831325302,-8.25301204819277,0.15450643776824033,-5.1066830165542605,-7.901900674432863,2.0,2.4153846153846152,414.0127388535032,-0.6223413553988696,-0.5180350795408196,0.19171376959384612,2117.948717948718,842.59033203125,71.20898225280695,2.4193749242370197,
2023-08-09 15:52:21.574000,-5.46987951807229,0.03614457831325302,-8.27710843373494,0.10300429184549356,-5.136112814224402,-7.8847332924586135,2.0,2.4139194139194133,414.26403641881643,-0.6888875939630557,-0.21350737136530376,0.520482489365422,2301.8315018315016,-1.0,71.20898225280695,2.4193168038636133,
2023-08-09 15:52:21.581000,-5.46987951807229,0.03614457831325302,-8.27710843373494,0.1103617412630288,-5.101778050275904,-7.901900674432863,2.0,2.4139194139194133,414.26403641881643,-0.5246780490647394,-0.12015616805547498,0.19532661266825985,2478.388278388278,-1.0,71.20898225280695,2.419258566622755,
2023-08-09 15:52:21.589000,-5.457831325301205,0.024096385542168676,-8.25301204819277,0.056407112201103615,-5.118945432250153,-7.9141630901287545,2.0,2.4153846153846152,414.0127388535032,-0.5162869296661036,-0.1139793718314785,0.19008216304411138,2638.095238095238,-1.0,71.20898225280695,2.419200210615164,
2023-08-09 15:52:21.596000,-5.493975903614458,0.03614457831325302,-8.265060240963855,0.12752912323727775,-5.180257510729613,-7.9288779889638255,2.0,2.4153846153846152,414.0127388535032,-0.5247945923897203,0.196258959268107,-0.22469553056348662,2767.7655677655675,-1.0,71.20898225280695,2.4191417349843984,
2023-08-09 15:52:21.604000,-5.481927710843374,0.03614457831325302,-8.265060240963855,0.07847946045370938,-5.094420600858369,-7.9141630901287545,2.0,2.4153846153846152,414.0127388535032,-0.7620768020511632,0.28937707592797757,-0.23949653283608235,2805.8608058608056,-1.0,71.20898225280695,2.419083140000421,
2023-08-09 15:52:21.612000,-5.506024096385542,0.04819277108433735,-8.25301204819277,0.08828939301042305,-5.167995095033722,-7.887185775597793,2.0,2.4153846153846152,414.0127388535032,-0.4936775246197779,0.4419322883281858,-0.4214206631315191,2805.8608058608056,-1.0,71.20898225280695,2.4190244266170966,
2023-08-09 15:52:21.619000,-5.506024096385542,0.03614457831325302,-8.265060240963855,0.10545677498467197,-5.199877375843041,-7.955855303494788,2.0,2.4153846153846152,414.0127388535032,-0.19858982576773065,0.31618204067362204,-0.5404113979371832,2805.8608058608056,-1.0,71.20898225280695,2.418965596944569,
2023-08-09 15:52:21.627000,-5.506024096385542,0.03614457831325302,-8.25301204819277,0.11526670754138564,-5.204782342121398,-7.941140404659717,2.0,2.4153846153846152,414.0127388535032,-0.2699143406561397,0.1936950061185234,-0.27644076685507823,2805.8608058608056,-1.0,71.20898225280695,2.4189066537377526,
2023-08-09 15:52:21.635000,-5.493975903614458,0.024096385542168676,-8.301204819277109,0.1520539546290619,-5.209687308399754,-7.911710606989576,2.0,2.4153846153846152,414.0127388535032,-0.29788473865159426,-0.09358428995979219,-0.3643144338907986,2764.102564102564,-1.0,71.20898225280695,2.4188475999880183,
2023-08-09 15:52:21.642000,-5.506024096385542,0.024096385542168676,-8.27710843373494,0.1520539546290619,-5.131207847946045,-7.8994481912936845,2.0,2.4139194139194133,414.26403641881643,-0.2619893945574272,0.3978789114853446,0.0658469786142993,2660.8058608058604,-1.0,71.20898225280695,2.4187884398850494,
2023-08-09 15:52:21.650000,-5.493975903614458,0.012048192771084338,-8.265060240963855,0.1079092581238504,-5.199877375843041,-7.843041079092581,2.0,2.4153846153846152,414.0127388535032,0.06374919876464077,0.5231629858399868,-0.4540527941262167,2524.5421245421244,-1.0,71.20898225280695,2.418729177809571,
2023-08-09 15:52:21.658000,-5.518072289156627,0.012048192771084338,-8.228915662650603,0.034334763948497854,-5.221949724095647,-7.850398528510116,2.0,2.4139194139194133,414.26403641881643,0.3270205698968589,0.17038634112231268,0.035545714119224546,2363.369963369963,-1.0,71.20898225280695,2.4186698188003035,
2023-08-09 15:52:21.665000,-5.493975903614458,0.024096385542168676,-8.228915662650603,0.11771919068056406,-5.141017780502759,-7.850398528510116,2.0,2.4139194139194133,414.26403641881643,0.22201503408892218,-0.027038051395604393,-0.19579278596818409,2189.7435897435894,-1.0,71.20898225280695,2.418610369019497,
2023-08-09 15:52:21.673000,-5.506024096385542,0.0,-8.216867469879519,0.11771919068056406,-5.138565297363581,-7.8749233599019,2.0,2.4139194139194133,414.26403641881643,0.49880543091894336,-0.6385408775712388,-0.20977798496591135,2010.2564102564102,-1.0,71.20898225280695,2.4185508347413855,
2023-08-09 15:52:21.681000,-5.46987951807229,0.0,-8.25301204819277,0.04414469650521152,-5.114040465971796,-7.8920907418761495,2.0,2.4139194139194133,414.26403641881643,0.11677641163102377,-0.30056523512615696,-0.02692150807062616,1835.8974358974358,-1.0,71.20898225280695,2.4184912228142736,
2023-08-09 15:52:21.688000,-5.493975903614458,0.0,-8.27710843373494,0.06131207847946045,-5.175352544451257,-7.894543225015328,2.0,2.4139194139194133,414.26403641881643,0.2720121205057982,-0.3474156517685452,-0.28786201270322237,1668.8644688644688,-1.0,71.20898225280695,2.4184315406627372,
2023-08-09 15:52:21.696000,-5.518072289156627,0.03614457831325302,-8.25301204819277,0.06866952789699571,-5.187614960147148,-7.946045370938075,2.0,2.4124542124542123,414.5156392347404,0.6105704795757825,0.23704912301148132,-0.11759221490589136,1512.8205128205127,-1.0,71.20898225280695,2.4183717958299615,
2023-08-09 15:52:21.704000,-5.493975903614458,0.024096385542168676,-8.301204819277109,0.04904966278356836,-5.18516247700797,-7.946045370938075,2.0,2.4124542124542123,414.5156392347404,0.2906590525027685,0.005477536274111463,0.17260066429695248,1373.6263736263736,-1.0,71.20898225280695,2.4183119964663238,
2023-08-09 15:52:21.711000,-5.481927710843374,0.012048192771084338,-8.289156626506024,0.14224402207234824,-5.074800735744941,-7.931330472103004,2.0,2.4139194139194133,414.26403641881643,0.07843365771225394,-0.319212167123129,0.5207155760153835,1249.084249084249,-1.0,71.20898225280695,2.41825215114957,
2023-08-09 15:52:21.719000,-5.46987951807229,0.024096385542168676,-8.289156626506024,0.12507664009809932,-5.167995095033722,-7.933782955242182,2.0,2.4139194139194133,414.26403641881643,-0.08507662723617551,0.5053318571178823,-0.030883981119980676,1143.5897435897434,-1.0,71.20898225280695,2.418192268911127,
2023-08-09 15:52:21.727000,-5.493975903614458,0.012048192771084338,-8.265060240963855,0.04659717964438994,-5.172900061312078,-7.963212752912323,2.0,2.4139194139194133,414.26403641881643,0.34729910844356265,0.8799021036070163,-0.04720004661732989,1056.4102564102564,-1.0,71.20898225280695,2.4181323597874855,
2023-08-09 15:52:21.734000,-5.530120481927711,0.012048192771084338,-8.240963855421688,0.0539546290619252,-5.219497240956468,-7.923973022685469,2.0,2.4139194139194133,414.26403641881643,0.3468329351436393,0.8548452887360861,0.31979488374803317,985.3479853479853,-1.0,71.20898225280695,2.418072434352065,
2023-08-09 15:52:21.742000,-5.493975903614458,0.024096385542168676,-8.25301204819277,0.09074187614960147,-5.192519926425506,-7.896995708154506,2.0,2.4139194139194133,414.26403641881643,-0.004428646349280464,-0.07132451488840903,-0.004778276324223407,929.6703296703296,-1.0,71.20898225280695,2.418012503703331,
2023-08-09 15:52:21.750000,-5.457831325301205,0.04819277108433735,-8.27710843373494,0.14714898835070508,-5.1287553648068664,-7.977927651747394,2.0,2.4124542124542123,414.5156392347404,5.82716624905918E-4,-0.04685041664238651,-0.03461336751937482,889.3772893772893,-1.0,71.20898225280695,2.4179525794513803,
2023-08-09 15:52:21.757000,-5.493975903614458,0.04819277108433735,-8.325301204819278,0.134886572654813,-5.145922746781116,-7.896995708154506,2.0,2.4124542124542123,414.5156392347404,0.3048773381504566,-0.034962997494316896,-0.2036011887419153,863.7362637362637,-1.0,71.20898225280695,2.41789267321038,
2023-08-09 15:52:21.765000,-5.481927710843374,0.03614457831325302,-8.27710843373494,0.13243408951563457,-5.192519926425506,-7.9362354383813605,2.0,2.4124542124542123,414.5156392347404,0.39659693491055364,0.39088631198648227,-0.29625313210185905,852.7472527472527,-1.0,71.20898225280695,2.4178327965101314,
2023-08-09 15:52:21.773000,-5.46987951807229,0.03614457831325302,-8.27710843373494,0.11771919068056406,-5.114040465971796,-7.889638258736971,2.0,2.4139194139194133,414.26403641881643,0.4265485694306859,0.752403706077733,-0.2813355865042825,853.4798534798534,-1.0,71.20898225280695,2.4177729612308383,
2023-08-09 15:52:21.780000,-5.493975903614458,0.03614457831325302,-8.301204819277109,0.15941140404659718,-5.10913549969344,-7.9068056407112195,2.0,2.4124542124542123,414.5156392347404,0.5893595944292304,0.6978614299865991,-0.3716566633646056,868.8644688644688,-1.0,71.20898225280695,2.417713180070884,
2023-08-09 15:52:21.788000,-5.481927710843374,0.04819277108433735,-8.27710843373494,0.18638871857755976,-5.104230533415082,-7.867565910484365,2.0,2.4124542124542123,414.5156392347404,0.9039100285531138,0.6299166715226377,0.19474389604335393,894.5054945054944,-1.0,71.20898225280695,2.417653466099769,
2023-08-09 15:52:21.796000,-5.457831325301205,0.024096385542168676,-8.27710843373494,0.07357449417535254,-5.03065603923973,-7.86020846106683,2.0,2.4124542124542123,414.5156392347404,0.49495950119456883,0.7011246430860677,-0.3744537031641518,928.9377289377288,-1.0,71.20898225280695,2.4175938322055095,
2023-08-09 15:52:21.803000,-5.46987951807229,0.012048192771084338,-8.240963855421688,0.10055180870631514,-5.12385039852851,-7.8847332924586135,2.0,2.4124542124542123,414.5156392347404,0.7626595186760692,0.3933337218110833,-0.11491171843132736,967.7655677655677,-1.0,71.20898225280695,2.4175342915235842,
2023-08-09 15:52:21.811000,-5.433734939759036,0.03614457831325302,-8.25301204819277,0.15450643776824033,-5.104230533415082,-7.887185775597793,2.0,2.4124542124542123,414.5156392347404,1.058096847503059,0.16549152147310714,-0.19369500611852467,1014.6520146520146,-1.0,71.20898225280695,2.417474857406736,
2023-08-09 15:52:21.819000,-5.46987951807229,0.024096385542168676,-8.27710843373494,0.11526670754138564,-5.143470263641937,-7.946045370938075,2.0,2.4139194139194133,414.26403641881643,0.876522347182565,-0.3791154361633935,-0.28739583940329855,1068.131868131868,-1.0,71.20898225280695,2.417415543393618,
2023-08-09 15:52:21.826000,-5.445783132530121,0.04819277108433735,-8.313253012048193,0.11771919068056406,-5.0551808706315144,-7.894543225015328,2.0,2.4124542124542123,414.5156392347404,0.8029835091195149,-0.7528698793776598,-0.031233611094924486,1125.2747252747251,-1.0,71.20898225280695,2.417356364126974,
2023-08-09 15:52:21.834000,-5.445783132530121,0.04819277108433735,-8.301204819277109,0.15941140404659718,-5.104230533415082,-7.973022685469037,2.0,2.4124542124542123,414.5156392347404,0.7950585630208025,-0.7772274342987014,-0.37142357671464393,1183.8827838827838,-1.0,71.20898225280695,2.417297334374831,
2023-08-09 15:52:21.842000,-5.433734939759036,0.060240963855421686,-8.349397590361447,0.15695892090741875,-5.074800735744941,-8.02942979767014,2.0,2.4124542124542123,414.5156392347404,0.5733931589068227,-0.742147893479402,-0.3704912301147947,1241.7582417582416,-1.0,71.20898225280695,2.417238468508867,
2023-08-09 15:52:21.849000,-5.421686746987952,0.060240963855421686,-8.349397590361447,0.14224402207234824,-5.0993255671367255,-8.002452483139178,2.0,2.410989010989011,414.767547857794,0.719305401783113,-0.49344443796981446,-0.4020744711846625,1295.2380952380952,-1.0,71.20898225280695,2.417179780895349,
2023-08-09 15:52:21.857000,-5.445783132530121,0.08433734939759037,-8.3855421686747,0.1103617412630288,-5.138565297363581,-7.997547516860821,2.0,2.410989010989011,414.767547857794,0.4368043820290186,-0.39951051803507975,-0.7871336169220913,1346.5201465201465,-1.0,71.20898225280695,2.417121285862221,
2023-08-09 15:52:21.865000,-5.457831325301205,0.08433734939759037,-8.313253012048193,0.15695892090741875,-5.0993255671367255,-7.948497854077253,2.0,2.4124542124542123,414.5156392347404,0.430511042480043,-0.3996270613600589,-0.7863178136472236,1393.4065934065934,-1.0,71.20898225280695,2.4170629979493157,
2023-08-09 15:52:21.872000,-5.457831325301205,0.0963855421686747,-8.27710843373494,0.14224402207234824,-5.116492949110975,-7.904353157572041,2.0,2.4124542124542123,414.5156392347404,0.7490239496532836,-0.7353883806304996,-1.3190373521356569,1435.164835164835,-1.0,71.20898225280695,2.4170049313828725,
2023-08-09 15:52:21.880000,-5.46987951807229,0.07228915662650603,-8.265060240963855,0.17412630288166767,-5.114040465971796,-7.879828326180257,2.0,2.4124542124542123,414.5156392347404,0.5313210185886592,-1.147485577763534,-1.6042188683643144,1470.3296703296703,-1.0,71.20898225280695,2.416947100180346,
2023-08-09 15:52:21.888000,-5.506024096385542,0.04819277108433735,-8.25301204819277,0.12752912323727775,-5.143470263641937,-7.901900674432863,2.0,2.4124542124542123,414.5156392347404,0.8963347124293455,-2.3051104248004184,-1.994289377075928,1498.9010989010987,-1.0,71.20898225280695,2.4168895181502315,
2023-08-09 15:52:21.895000,-5.518072289156627,0.024096385542168676,-8.25301204819277,0.10545677498467197,-5.177805027590435,-7.911710606989576,2.0,2.4124542124542123,414.5156392347404,0.9809451663655976,-2.86067245498514,-2.28879435930307,1517.9487179487178,-1.0,71.20898225280695,2.4168321988569614,
2023-08-09 15:52:21.903000,-5.518072289156627,-0.012048192771084338,-8.25301204819277,0.07357449417535254,-5.209687308399754,-7.9141630901287545,2.0,2.4124542124542123,414.5156392347404,1.2331449216246138,-3.1348988986655795,-2.351611211467864,1528.937728937729,-1.0,71.20898225280695,2.4167751555858636,
2023-08-09 15:52:21.911000,-5.518072289156627,-0.03614457831325302,-8.27710843373494,0.041692213366033105,-5.207234825260576,-7.889638258736971,2.0,2.4124542124542123,414.5156392347404,1.4978148126566053,-2.6411048307208187,-2.5975176271779037,1529.6703296703295,-1.0,71.20898225280695,2.4167184013084215,
2023-08-09 15:52:21.918000,-5.518072289156627,-0.03614457831325302,-8.27710843373494,0.041692213366033105,-5.226854690374004,-7.938687921520539,2.0,2.4124542124542123,414.5156392347404,2.0842608239613076,-2.254996795058563,-2.229007633587786,1519.4139194139193,-1.0,71.20898225280695,2.4166619486480205,
2023-08-09 15:52:21.926000,-5.518072289156627,-0.03614457831325302,-8.301204819277109,0.03678724708767627,-5.197424892703863,-7.894543225015328,2.0,2.4124542124542123,414.5156392347404,2.7276965211817488,-1.7650486568381807,-1.8977915039916085,1502.5641025641025,-1.0,71.20898225280695,2.416605809846395,
2023-08-09 15:52:21.934000,-5.530120481927711,-0.012048192771084338,-8.240963855421688,0.09809932556713671,-5.253832004904966,-7.896995708154506,2.0,2.4124542124542123,414.5156392347404,2.723967134782355,-1.7409241885671005,-1.3083153662373994,1479.120879120879,-1.0,71.20898225280695,2.4165499967310207,
2023-08-09 15:52:21.941000,-5.542168674698796,-0.012048192771084338,-8.25301204819277,0.134886572654813,-5.182709993868792,-7.86020846106683,2.0,2.410989010989011,414.767547857794,2.9527416817201795,-2.29963288852631,-0.9993590117126037,1449.8168498168498,-1.0,71.20898225280695,2.416494520683613,
2023-08-09 15:52:21.949000,-5.518072289156627,0.012048192771084338,-8.204819277108435,0.056407112201103615,-5.163090128755364,-7.889638258736971,2.0,2.410989010989011,414.767547857794,3.0888642852980586,-3.190956237981471,-0.6911019171376954,1414.6520146520145,-1.0,71.20898225280695,2.4164393921172924,
2023-08-09 15:52:21.957000,-5.530120481927711,0.03614457831325302,-8.19277108433735,0.08338442673206621,-5.199877375843041,-7.8479460453709375,2.0,2.410989010989011,414.767547857794,2.659169046092885,-3.907464599965035,-0.47701182914748574,1375.8241758241757,-1.0,71.20898225280695,2.4163846208336364,
2023-08-09 15:52:21.964000,-5.566265060240964,-0.024096385542168676,-8.156626506024097,0.017167381974248927,-5.204782342121398,-7.757204169221336,2.0,2.410989010989011,414.767547857794,2.6286346949478467,-4.731892080881066,0.33214847619602567,1336.263736263736,-1.0,71.20898225280695,2.4163302159229523,
2023-08-09 15:52:21.972000,-5.542168674698796,-0.012048192771084338,-8.132530120481928,0.1226241569589209,-5.126302881667688,-7.8038013488657265,2.0,2.410989010989011,414.767547857794,2.1706194277722743,-5.525785210652058,0.5306217586387738,1299.6336996336995,-1.0,71.20898225280695,2.4162761853119723,
2023-08-09 15:52:21.979000,-5.506024096385542,0.03614457831325302,-8.19277108433735,0.13979153893316984,-5.187614960147148,-7.82832618025751,2.0,2.410989010989011,414.767547857794,2.262222481207389,-5.128838645766562,0.39321717848610205,1262.2710622710622,-1.0,71.20898225280695,2.4162225366840704,
2023-08-09 15:52:21.987000,-5.493975903614458,0.07228915662650603,-8.216867469879519,0.12507664009809932,-5.158185162477007,-7.855303494788473,2.0,2.410989010989011,414.767547857794,2.2164209544898315,-4.365479867140608,0.1336751937532776,1227.106227106227,-1.0,71.20898225280695,2.4161692773833807,
2023-08-09 15:52:21.995000,-5.493975903614458,0.04819277108433735,-8.25301204819277,0.1496014714898835,-5.177805027590435,-7.975475168608216,2.0,2.4124542124542123,414.5156392347404,2.2011537789173126,-3.815861546529921,-0.18693549326962314,1194.1391941391942,-1.0,71.20898225280695,2.4161164138997253,
2023-08-09 15:52:22.002000,-5.46987951807229,0.0,-8.301204819277109,0.12507664009809932,-5.1066830165542605,-7.960760269773145,2.0,2.4095238095238094,415.0197628458498,2.0026804964745644,-2.930365363323814,-0.4464774780024476,1164.102564102564,-1.0,71.20898225280695,2.4160639518824363,
2023-08-09 15:52:22.010000,-5.493975903614458,0.024096385542168676,-8.325301204819278,0.04414469650521152,-5.163090128755364,-8.066217044757817,2.0,2.410989010989011,414.767547857794,1.2545888934211293,-1.510518035079539,-0.5380805314375621,1139.194139194139,-1.0,71.20898225280695,2.4160118961909114,
2023-08-09 15:52:22.018000,-5.530120481927711,0.0,-8.325301204819278,0.06131207847946045,-5.24647455548743,-7.92152053954629,2.0,2.410989010989011,414.767547857794,1.2851232445661676,-0.2738768137054933,-0.6296835848726766,1120.8791208791208,-1.0,71.20898225280695,2.415960251126999,
2023-08-09 15:52:22.025000,-5.530120481927711,0.0,-8.301204819277109,0.019619865113427344,-5.204782342121398,-7.975475168608216,2.0,2.410989010989011,414.767547857794,1.2698560689936484,-0.04486918011770709,-0.6754851115902338,1109.89010989011,-1.0,71.20898225280695,2.4159090199642854,
2023-08-09 15:52:22.033000,-5.506024096385542,-0.012048192771084338,-8.27710843373494,0.056407112201103615,-5.155732679337829,-7.950950337216431,2.0,2.410989010989011,414.767547857794,1.1019171376959385,-1.0525027679039667,-0.522813355865043,1101.098901098901,-1.0,71.20898225280695,2.4158582045485226,
2023-08-09 15:52:22.041000,-5.518072289156627,-0.024096385542168676,-8.301204819277109,0.06866952789699571,-5.160637645616186,-7.955855303494788,2.0,2.410989010989011,414.767547857794,1.4988637025814346,-1.876930248819997,-0.3243400734222949,1094.5054945054944,-1.0,71.20898225280695,2.415807805778802,
2023-08-09 15:52:22.048000,-5.542168674698796,-0.012048192771084338,-8.27710843373494,0.06376456161863887,-5.194972409564684,-7.904353157572041,2.0,2.410989010989011,414.767547857794,1.1477186644134958,-2.5181516228657985,-0.7823553405978674,1090.8424908424909,-1.0,71.20898225280695,2.4157578235986072,
2023-08-09 15:52:22.056000,-5.55421686746988,-0.024096385542168676,-8.240963855421688,0.06131207847946045,-5.18516247700797,-7.9141630901287545,2.0,2.410989010989011,414.767547857794,0.8271079773905949,-2.976166890041371,-0.9502942718955774,1088.6446886446886,-1.0,71.20898225280695,2.4157082569896158,
2023-08-09 15:52:22.064000,-5.530120481927711,-0.024096385542168676,-8.216867469879519,-0.009809932556713672,-5.175352544451257,-7.8626609442060085,2.0,2.410989010989011,414.767547857794,0.5675659926577705,-3.1135714701940427,-1.057164500903211,1087.9120879120878,-1.0,71.20898225280695,2.4156591039684012,
2023-08-09 15:52:22.071000,-5.530120481927711,-0.060240963855421686,-8.168674698795181,0.002452483139178418,-5.221949724095647,-7.86020846106683,2.0,2.410989010989011,414.767547857794,0.6591690460928851,-2.8692966610337374,-1.5762484703688597,1086.4468864468863,-1.0,71.20898225280695,2.415610361586184,
2023-08-09 15:52:22.079000,-5.506024096385542,-0.060240963855421686,-8.19277108433735,-0.004904966278356836,-5.217044757817289,-7.8332311465358675,2.0,2.410989010989011,414.767547857794,0.4148942369325797,-2.8845638366062567,-1.8357904551016841,1086.4468864468863,-1.0,71.20898225280695,2.415562025931801,
2023-08-09 15:52:22.087000,-5.518072289156627,-0.07228915662650603,-8.19277108433735,-0.07112201103617412,-5.204782342121398,-7.835683629675046,2.0,2.410989010989011,414.767547857794,0.4148942369325797,-2.3196783404230503,-2.003729386399394,1088.6446886446886,-1.0,71.20898225280695,2.4155140921379843,
2023-08-09 15:52:22.094000,-5.530120481927711,-0.08433734939759037,-8.19277108433735,0.0,-5.167995095033722,-7.8479460453709375,2.0,2.410989010989011,414.767547857794,0.3996270613600606,-1.9838004778276306,-2.6449507604451954,1089.3772893772893,-1.0,71.20898225280695,2.415466554391103,
2023-08-09 15:52:22.102000,-5.55421686746988,-0.12048192771084337,-8.216867469879519,-0.07602697731453095,-5.268546903740036,-7.835683629675046,2.0,2.410989010989011,414.767547857794,0.6591690460928851,-2.3349455159955697,-2.40067595128489,1089.3772893772893,-1.0,71.20898225280695,2.415419405944422,
2023-08-09 15:52:22.110000,-5.55421686746988,-0.10843373493975904,-8.216867469879519,-0.07357449417535254,-5.244022072348252,-7.8405885959534025,2.0,2.410989010989011,414.767547857794,0.9950469086883048,-1.9532661266825926,-2.6449507604451954,1088.6446886446886,-1.0,71.20898225280695,2.4153726391350308,
2023-08-09 15:52:22.117000,-5.55421686746988,-0.13253012048192772,-8.19277108433735,-0.02207234825260576,-5.288166768853464,-7.8626609442060085,2.0,2.410989010989011,414.767547857794,1.2393217178486102,-2.1670065846978597,-2.5838820581551194,1090.10989010989,-1.0,71.20898225280695,2.4153262454044,
2023-08-09 15:52:22.125000,-5.566265060240964,-0.14457831325301207,-8.19277108433735,-0.10055180870631514,-5.214592274678111,-7.879828326180257,2.0,2.4095238095238094,415.0197628458498,1.1477186644134958,-2.1364722335528215,-2.8128896917429054,1090.8424908424909,-1.0,71.20898225280695,2.415280215322732,
2023-08-09 15:52:22.133000,-5.602409638554217,-0.16867469879518074,-8.216867469879519,-0.14469650521152666,-5.320049049662783,-7.889638258736971,2.0,2.4095238095238094,415.0197628458498,0.5217644659402133,-2.075403531262745,-2.5991492337276383,1095.2380952380952,-1.0,71.20898225280695,2.4152345381243565,
2023-08-09 15:52:22.140000,-5.602409638554217,-0.16867469879518074,-8.19277108433735,-0.15450643776824033,-5.224402207234825,-7.740036787247087,2.0,2.410989010989011,414.767547857794,0.5217644659402133,-2.075403531262745,-2.5991492337276383,1101.098901098901,-1.0,71.20898225280695,2.415189201667396,
2023-08-09 15:52:22.148000,-5.566265060240964,-0.16867469879518074,-8.156626506024097,-0.09074187614960147,-5.219497240956468,-7.793991416309012,2.0,2.410989010989011,414.767547857794,1.4530621758638773,-2.8234951343161803,-2.477011829147486,1110.6227106227107,-1.0,71.20898225280695,2.4151441934143376,
2023-08-09 15:52:22.156000,-5.566265060240964,-0.1566265060240964,-8.168674698795181,-0.06376456161863887,-5.266094420600858,-7.8038013488657265,2.0,2.4095238095238094,415.0197628458498,1.74313851174174,-4.182273760270379,-2.522813355865043,1119.4139194139193,-1.0,71.20898225280695,2.4150995005373606,
2023-08-09 15:52:22.163000,-5.566265060240964,-0.14457831325301207,-8.204819277108435,-0.056407112201103615,-5.261189454322501,-7.8626609442060085,2.0,2.4095238095238094,415.0197628458498,1.941611794184488,-4.7471592564535845,-2.40067595128489,1128.937728937729,-1.0,71.20898225280695,2.415055109467453,
2023-08-09 15:52:22.171000,-5.542168674698796,-0.13253012048192772,-8.168674698795181,-0.12507664009809932,-5.204782342121398,-7.806253832004905,2.0,2.4095238095238094,415.0197628458498,2.140085076627236,-5.0830371190490045,-1.5915156459413788,1140.6593406593406,-1.0,71.20898225280695,2.4150110058003795,
2023-08-09 15:52:22.179000,-5.530120481927711,-0.10843373493975904,-8.156626506024097,-0.041692213366033105,-5.1704475781729,-7.852851011649294,2.0,2.410989010989011,414.767547857794,2.109550725482198,-4.640289027445951,-1.2098362566284018,1153.113553113553,-1.0,71.20898225280695,2.4149671743096146,
2023-08-09 15:52:22.186000,-5.55421686746988,-0.10843373493975904,-8.19277108433735,-0.02207234825260576,-5.293071735131821,-7.820968730839975,2.0,2.4095238095238094,415.0197628458498,2.3690927102150225,-4.640289027445951,-1.4083095390711498,1166.3003663003662,-1.0,71.20898225280695,2.4149235994888825,
2023-08-09 15:52:22.194000,-5.542168674698796,-0.08433734939759037,-8.180722891566266,0.017167381974248927,-5.261189454322501,-7.8111587982832615,2.0,2.4095238095238094,415.0197628458498,2.0484820231921215,-4.212808111415417,-1.1335003787658062,1180.952380952381,-1.0,71.20898225280695,2.414880264725809,
2023-08-09 15:52:22.202000,-5.55421686746988,-0.08433734939759037,-8.168674698795181,-0.03923973022685469,-5.270999386879215,-7.8479460453709375,2.0,2.410989010989011,414.767547857794,1.7278713361692208,-2.9914340656138902,-1.0113629741856536,1193.4065934065934,-1.0,71.20898225280695,2.4148371518986265,
2023-08-09 15:52:22.209000,-5.590361445783133,-0.0963855421686747,-8.19277108433735,-0.04414469650521152,-5.315144083384427,-7.820968730839975,2.0,2.410989010989011,414.767547857794,2.0179476720470833,-2.8540294854612185,-0.7823553405978674,1204.3956043956043,-1.0,71.20898225280695,2.414794243329424,
2023-08-09 15:52:22.217000,-5.578313253012048,-0.0963855421686747,-8.168674698795181,-0.04659717964438994,-5.290619251992642,-7.823421213979153,2.0,2.4095238095238094,415.0197628458498,1.6820698094516635,-1.9074645999650353,-0.18693549326962314,1213.1868131868132,-1.0,71.20898225280695,2.414751521843588,
2023-08-09 15:52:22.225000,-5.578313253012048,-0.08433734939759037,-8.19277108433735,-0.002452483139178418,-5.261189454322501,-7.850398528510116,2.0,2.4095238095238094,415.0197628458498,1.7736728628867782,-0.9608997144688521,-0.15640114212458497,1218.3150183150183,-1.0,71.20898225280695,2.4147089689353494,
2023-08-09 15:52:22.232000,-5.602409638554217,-0.10843373493975904,-8.19277108433735,-0.03923973022685469,-5.342121397915389,-7.867565910484365,2.0,2.4095238095238094,415.0197628458498,1.6820698094516635,-0.16700658469785976,0.28634694947846845,1222.7106227106226,-1.0,71.20898225280695,2.41466656528937,
2023-08-09 15:52:22.240000,-5.602409638554217,-0.08433734939759037,-8.204819277108435,-0.02452483139178418,-5.315144083384427,-7.8111587982832615,2.0,2.4095238095238094,415.0197628458498,1.1171843132684576,0.2910086824777127,0.8054309189441172,1224.9084249084249,-1.0,71.20898225280695,2.4146242917246883,
2023-08-09 15:52:22.248000,-5.614457831325302,-0.10843373493975904,-8.240963855421688,-0.041692213366033105,-5.339668914776211,-7.867565910484365,2.0,2.4095238095238094,415.0197628458498,0.9187110308257095,0.9016957053784761,1.3703164151273233,1226.3736263736264,-1.0,71.20898225280695,2.4145821287687084,
2023-08-09 15:52:22.255000,-5.650602409638554,-0.10843373493975904,-8.216867469879519,0.01226241569589209,-5.302881667688534,-7.8920907418761495,2.0,2.4095238095238094,415.0197628458498,0.4148942369325797,1.7566575374395448,1.9962706136006059,1227.106227106227,-1.0,71.20898225280695,2.414540056724688,
2023-08-09 15:52:22.263000,-5.614457831325302,-0.10843373493975904,-8.240963855421688,-0.02207234825260576,-5.24892703862661,-7.8479460453709375,2.0,2.4095238095238094,415.0197628458498,0.6133675193753277,1.8940621175922165,2.194743896043354,1227.8388278388277,-1.0,71.20898225280695,2.4144980557399283,
2023-08-09 15:52:22.271000,-5.602409638554217,-0.10843373493975904,-8.240963855421688,-0.03923973022685469,-5.290619251992642,-7.8700183936235435,2.0,2.4095238095238094,415.0197628458498,0.33855835906998427,2.581085018355575,2.4542858807761783,1229.3040293040292,-1.0,71.20898225280695,2.414456105874389,
2023-08-09 15:52:22.278000,-5.566265060240964,-0.10843373493975904,-8.216867469879519,-0.12017167381974249,-5.229307173513182,-7.911710606989576,2.0,2.4095238095238094,415.0197628458498,0.43016141250509876,2.962764407668552,2.958102674669308,1226.3736263736264,-1.0,71.20898225280695,2.4144141871695974,
2023-08-09 15:52:22.286000,-5.566265060240964,-0.12048192771084337,-8.204819277108435,-0.09074187614960147,-5.23175965665236,-7.879828326180257,2.0,2.4095238095238094,415.0197628458498,0.21642095448983162,3.466581201561682,2.988637025814346,1224.1758241758241,-1.0,71.20898225280695,2.414372279717604,
2023-08-09 15:52:22.294000,-5.566265060240964,-0.14457831325301207,-8.204819277108435,0.02207234825260576,-5.197424892703863,-7.830778663396689,2.0,2.4095238095238094,415.0197628458498,-0.18052561039566456,3.7108560107219875,3.0344385525319035,1223.4432234432234,-1.0,71.20898225280695,2.414330363729797,
2023-08-09 15:52:22.301000,-5.530120481927711,-0.14457831325301207,-8.204819277108435,0.007357449417535254,-5.229307173513182,-7.808706315144083,2.0,2.4095238095238094,415.0197628458498,-0.36373171726589354,3.603985781714354,3.2023774838296135,1225.6410256410256,-1.0,71.20898225280695,2.4142884191475056,
2023-08-09 15:52:22.309000,-5.518072289156627,-0.1566265060240964,-8.228915662650603,-0.0956468424279583,-5.241569589209074,-7.92152053954629,2.0,2.408058608058608,415.27228475813814,-0.8675485111590233,3.6650544840044303,3.09550725482198,1234.4322344322343,-1.0,71.20898225280695,2.414246425777154,
2023-08-09 15:52:22.317000,-5.506024096385542,-0.14457831325301207,-8.289156626506024,-0.0809319435928878,-5.1704475781729,-7.931330472103004,2.0,2.4095238095238094,415.0197628458498,-0.989685915739176,3.9245964687372545,3.2481790105471706,1255.6776556776556,-1.0,71.20898225280695,2.4142043642688975,
2023-08-09 15:52:22.324000,-5.518072289156627,-0.1566265060240964,-8.240963855421688,-0.08338442673206621,-5.158185162477007,-7.955855303494788,2.0,2.4095238095238094,415.0197628458498,-1.004953091311695,4.077268224462445,3.2329118349746517,1292.3076923076922,-1.0,71.20898225280695,2.414162216007277,
2023-08-09 15:52:22.332000,-5.506024096385542,-0.1566265060240964,-8.216867469879519,-0.134886572654813,-5.118945432250153,-7.9068056407112195,2.0,2.4095238095238094,415.0197628458498,-1.4171668317697104,3.9093292931647357,3.446652292989919,1350.9157509157508,-1.0,71.20898225280695,2.41411996278829,
2023-08-09 15:52:22.340000,-5.493975903614458,-0.0963855421686747,-8.265060240963855,0.02452483139178418,-5.158185162477007,-7.938687921520539,2.0,2.4095238095238094,415.0197628458498,-1.2644950760445195,3.7261231862945063,3.0649729036769418,1435.8974358974358,-1.0,71.20898225280695,2.4140775864600488,
2023-08-09 15:52:22.347000,-5.46987951807229,-0.10843373493975904,-8.289156626506024,-0.08338442673206621,-5.116492949110975,-7.909258123850398,2.0,2.4095238095238094,415.0197628458498,-1.539304236349863,3.848260590874659,3.141308781539537,1548.7179487179485,-1.0,71.20898225280695,2.4140350695101214,
2023-08-09 15:52:22.355000,-5.457831325301205,-0.08433734939759037,-8.27710843373494,-0.11281422440220723,-5.111587982832618,-7.941140404659717,2.0,2.4095238095238094,415.0197628458498,-1.8599149233727637,3.863527766447178,2.8359652700891553,1693.040293040293,-1.0,71.20898225280695,2.413992395547144,
2023-08-09 15:52:22.362000,-5.481927710843374,-0.08433734939759037,-8.301204819277109,-0.007357449417535254,-5.089515634580012,-7.923973022685469,2.0,2.4095238095238094,415.0197628458498,-1.2797622516170386,3.1765048656838193,2.042072140318163,1863.003663003663,-1.0,71.20898225280695,2.4139495488673983,
