Shimmer_F5D4_Timestamp_FormattedUnix_CAL,Shimmer_F5D4_Accel_LN_X_CAL,Shimmer_F5D4_Accel_LN_Y_CAL,Shimmer_F5D4_Accel_LN_Z_CAL,Shimmer_F5D4_Accel_WR_X_CAL,Shimmer_F5D4_Accel_WR_Y_CAL,Shimmer_F5D4_Accel_WR_Z_CAL,Shimmer_F5D4_GSR_Range_CAL,Shimmer_F5D4_GSR_Skin_Conductance_CAL,Shimmer_F5D4_GSR_Skin_Resistance_CAL,Shimmer_F5D4_Gyro_X_CAL,Shimmer_F5D4_Gyro_Y_CAL,Shimmer_F5D4_Gyro_Z_CAL,Shimmer_F5D4_PPG_A13_CAL,Shimmer_F5D4_PPG_IBI_CAL,Shimmer_F5D4_PPGtoHR_CAL,Shimmer_F5D4_GSR_Skin_Conductance_LPF_CAL,
yyyy/mm/dd hh:mm:ss.000,m/(s^2),m/(s^2),m/(s^2),m/(s^2),m/(s^2),m/(s^2),no_units,uS,kOhms,deg/s,deg/s,deg/s,mV,ms,BPM,uS,
2023-08-17 13:37:08.617000,-9.518072289156628,-1.0240963855421688,-1.6626506024096386,-0.956468424279583,-9.50889025137952,-1.2949110974862048,2.0,1.9274725274725273,518.8141391106044,0.5068469203426367,-1.0202202668842142,0.24940271545947168,1501.098901098901,-1.0,59.34081854400579,1.9288637838599014,
2023-08-17 13:37:08.624000,-9.518072289156628,-1.0481927710843375,-1.6626506024096386,-0.9908031882280809,-9.469650521152667,-1.2924586143470262,2.0,1.9274725274725273,518.8141391106044,0.30231338500087473,-0.415943126857409,0.3060427714002684,1496.7032967032967,-1.0,59.34081854400579,1.9288497476135922,
2023-08-17 13:37:08.632000,-9.530120481927712,-1.036144578313253,-1.710843373493976,-0.9368485591661557,-9.454935622317596,-1.2826486817903127,2.0,1.9274725274725273,518.8141391106044,0.23833109958627052,-0.4105821339082801,0.6063749198764645,1495.970695970696,-1.0,59.34081854400579,1.9288358130663905,
2023-08-17 13:37:08.640000,-9.530120481927712,-1.0120481927710845,-1.6867469879518073,-0.9074187614960146,-9.562844880441446,-1.3390557939914163,2.0,1.9274725274725273,518.8141391106044,0.23250393333721828,-0.3292348930715,0.4448458714527128,1496.7032967032967,-1.0,59.34081854400579,1.9288219727517495,
2023-08-17 13:37:08.647000,-9.518072289156628,-1.036144578313253,-1.6626506024096386,-0.8902513795217657,-9.415695892090742,-1.2679337829552422,2.0,1.9274725274725273,518.8141391106044,0.24229357263562765,-0.09626478643435664,0.6673270788415601,1495.970695970696,-1.0,59.34081854400579,1.9288082189041766,
2023-08-17 13:37:08.655000,-9.506024096385543,-1.036144578313253,-1.6506024096385543,-0.8779889638258737,-9.452483139178417,-1.3194359288779889,2.0,1.9274725274725273,518.8141391106044,-0.007342229473806583,-0.3833109958627123,0.09265194335994463,1494.5054945054944,-1.0,59.34081854400579,1.9287945434955234,
2023-08-17 13:37:08.663000,-9.506024096385543,-1.0240963855421688,-1.63855421686747,-0.9417535254445125,-9.430410790925812,-1.3071735131820967,2.0,1.9274725274725273,518.8141391106044,-0.17970980712079695,-0.056756599265776704,0.331099586271196,1491.5750915750914,-1.0,59.34081854400579,1.928780938272413,
2023-08-17 13:37:08.670000,-9.518072289156628,-1.036144578313253,-1.674698795180723,-0.9540159411404046,-9.474555487431024,-1.3169834457388105,2.0,1.9274725274725273,518.8141391106044,0.04813239321717919,0.06841093176388291,-0.05850474914049272,1487.179487179487,-1.0,59.34081854400579,1.9287673947946535,
2023-08-17 13:37:08.678000,-9.542168674698795,-1.036144578313253,-1.63855421686747,-0.9393010423053341,-9.445125689760882,-1.3513182096873084,2.0,1.9274725274725273,518.8141391106044,-0.031117067769944086,-0.17376609754676214,0.33343045277081795,1479.8534798534797,-1.0,59.34081854400579,1.9287539044744704,
2023-08-17 13:37:08.686000,-9.506024096385543,-1.036144578313253,-1.63855421686747,-0.9098712446351931,-9.518700183936234,-1.3194359288779889,2.0,1.9274725274725273,518.8141391106044,0.21129304819066438,-0.09335120330983052,0.25080123535924476,1472.5274725274724,-1.0,59.34081854400579,1.928740458616391,
2023-08-17 13:37:08.693000,-9.518072289156628,-1.0240963855421688,-1.6626506024096386,-0.9343960760269773,-9.50889025137952,-1.2973635806253832,2.0,1.9274725274725273,518.8141391106044,-0.006992599498864074,-0.4081347240836773,0.2424101159606085,1468.8644688644688,-1.0,59.34081854400579,1.9287270484576224,
2023-08-17 13:37:08.701000,-9.542168674698795,-1.0240963855421688,-1.6987951807228916,-0.9417535254445125,-9.472103004291846,-1.30226854690374,2.0,1.9274725274725273,518.8141391106044,0.06619660858924355,0.1499912592506264,0.17388264087174343,1465.201465201465,-1.0,59.34081854400579,1.9287136652087293,
2023-08-17 13:37:08.709000,-9.542168674698795,-1.036144578313253,-1.6626506024096386,-0.9147762109135499,-9.526057633353771,-1.331698344573881,2.0,1.9274725274725273,518.8141391106044,0.2475380222597757,-0.03298176096964094,0.5464716508361979,1463.003663003663,-1.0,59.34081854400579,1.9287003000944574,
2023-08-17 13:37:08.716000,-9.55421686746988,-1.0120481927710845,-1.6506024096385543,-0.9098712446351931,-9.506437768240342,-1.356223175965665,2.0,1.9274725274725273,518.8141391106044,0.13542334362799405,-0.014334828972670657,-0.25686148825826,1460.8058608058607,-1.0,59.34081854400579,1.9286869443945185,
2023-08-17 13:37:08.724000,-9.55421686746988,-1.0120481927710845,-1.6987951807228916,-0.9687308399754752,-9.47946045370938,-1.2752912323727774,2.0,1.9274725274725273,518.8141391106044,0.36000233086649985,0.019229648621874467,0.3965969349105528,1460.07326007326,-1.0,59.34081854400579,1.9286735894841602,
2023-08-17 13:37:08.732000,-9.542168674698795,-1.0240963855421688,-1.6987951807228916,-0.9491109748620478,-9.55793991416309,-1.2998160637645615,2.0,1.9260073260073258,519.2088246481552,0.2797039799545473,0.25254938523396037,0.31280228424916995,1457.8754578754579,-1.0,59.34081854400579,1.9286602268743493,
2023-08-17 13:37:08.739000,-9.530120481927712,-1.0240963855421688,-1.710843373493976,-0.9417535254445125,-9.513795217657878,-1.3267933782955241,2.0,1.9274725274725273,518.8141391106044,0.2759745935551536,0.14591224287628843,0.30394499155060944,1451.2820512820513,-1.0,59.34081854400579,1.928646848216598,
2023-08-17 13:37:08.747000,-9.542168674698795,-1.0240963855421688,-1.710843373493976,-0.956468424279583,-9.518700183936234,-1.3464132434089515,2.0,1.9274725274725273,518.8141391106044,-0.030883981119980676,0.46722218984907593,0.4806246722218986,1443.2234432234432,-1.0,59.34081854400579,1.9286334456950844,
2023-08-17 13:37:08.755000,-9.530120481927712,-1.0481927710843375,-1.6867469879518073,-0.9711833231146535,-9.50889025137952,-1.356223175965665,2.0,1.9274725274725273,518.8141391106044,0.2597750713827861,0.2961365887768782,0.4865683817959323,1435.8974358974358,-1.0,59.34081854400579,1.9286200121007635,
2023-08-17 13:37:08.762000,-9.542168674698795,-1.0120481927710845,-1.6987951807228916,-0.8951563458001226,-9.530962599632128,-1.3832004904966277,2.0,1.9274725274725273,518.8141391106044,0.04253831361808689,0.17434881417166806,0.40242410115960614,1426.3736263736262,-1.0,59.34081854400579,1.928606539955586,
2023-08-17 13:37:08.770000,-9.55421686746988,-1.036144578313253,-1.6626506024096386,-0.9074187614960146,-9.555487431023911,-1.3194359288779889,2.0,1.9260073260073258,519.2088246481552,0.20744711846628985,-0.1559349688246612,0.25627877163335494,1418.3150183150183,-1.0,59.34081854400579,1.928593021617879,
2023-08-17 13:37:08.777000,-9.55421686746988,-1.0240963855421688,-1.6867469879518073,-0.927038626609442,-9.516247700797056,-1.2679337829552422,2.0,1.9274725274725273,518.8141391106044,0.20628168521647974,-0.15069051920051313,0.2533651885088284,1413.9194139194137,-1.0,59.34081854400579,1.9285794493141977,
2023-08-17 13:37:08.785000,-9.518072289156628,-1.0120481927710845,-1.6867469879518073,-0.8828939301042305,-9.49417535254445,-1.30226854690374,2.0,1.9274725274725273,518.8141391106044,-0.13472408367810731,-0.299283258551366,-0.013402482372821795,1413.1868131868132,-1.0,59.34081854400579,1.928565815590216,
2023-08-17 13:37:08.793000,-9.542168674698795,-1.0120481927710845,-1.6626506024096386,-0.8485591661557327,-9.47946045370938,-1.2654812998160636,2.0,1.9274725274725273,518.8141391106044,-0.0564069692908342,-0.17096905774721688,0.1022084960083908,1419.047619047619,-1.0,59.34081854400579,1.9285521138640696,
2023-08-17 13:37:08.800000,-9.530120481927712,-1.0120481927710845,-1.6626506024096386,-0.9000613120784794,-9.5113427345187,-1.3047210300429184,2.0,1.9274725274725273,518.8141391106044,0.09463317988462146,-0.19660858924305122,0.03671114736903421,1427.106227106227,-1.0,59.34081854400579,1.9285383379950642,
2023-08-17 13:37:08.808000,-9.55421686746988,-1.0120481927710845,-1.6987951807228916,-0.9417535254445125,-9.415695892090742,-1.3218884120171672,2.0,1.9274725274725273,518.8141391106044,-0.16887127789755835,-0.19136413961890317,0.07656896451255796,1437.3626373626373,-1.0,59.34081854400579,1.9285244823085343,
2023-08-17 13:37:08.816000,-9.542168674698795,-1.0120481927710845,-1.6867469879518073,-0.9172286940527283,-9.452483139178417,-1.2949110974862048,2.0,1.9274725274725273,518.8141391106044,-0.13938581667734945,-0.4166423868072957,0.14731076277606195,1445.4212454212454,-1.0,59.34081854400579,1.9285105416188861,
2023-08-17 13:37:08.823000,-9.542168674698795,-1.0240963855421688,-1.6626506024096386,-0.927038626609442,-9.516247700797056,-1.3071735131820967,2.0,1.9274725274725273,518.8141391106044,-0.0027970397995452823,-0.2901928792028434,0.06386574208962205,1449.8168498168498,-1.0,59.34081854400579,1.9284965112507757,
2023-08-17 13:37:08.831000,-9.506024096385543,-1.036144578313253,-1.6867469879518073,-0.9343960760269773,-9.472103004291846,-1.3464132434089515,2.0,1.9274725274725273,518.8141391106044,0.17737894062117676,-0.20837946506613828,-0.09440009323466021,1454.212454212454,-1.0,59.34081854400579,1.9284823870583336,
2023-08-17 13:37:08.839000,-9.518072289156628,-1.0120481927710845,-1.6626506024096386,-0.8583690987124463,-9.501532801961986,-1.3415082771305946,2.0,1.9260073260073258,519.2088246481552,-0.09847910960899774,-0.11304702523163007,0.2228308373637902,1456.4102564102564,-1.0,59.34081854400579,1.9284681654423925,
2023-08-17 13:37:08.846000,-9.518072289156628,-1.0120481927710845,-1.63855421686747,-0.9662783568362967,-9.454935622317596,-1.3120784794604536,2.0,1.9274725274725273,518.8141391106044,-0.2209661441640929,-0.03135015441990576,0.0018646931996970718,1457.8754578754579,-1.0,59.34081854400579,1.928453842873009,
2023-08-17 13:37:08.854000,-9.506024096385543,-1.0,-1.63855421686747,-0.8853464132434089,-9.49417535254445,-1.3733905579399142,2.0,1.9274725274725273,518.8141391106044,-0.008158032748674174,-0.3053435114503817,0.134490997028145,1459.3406593406592,-1.0,59.34081854400579,1.928439416323036,
2023-08-17 13:37:08.862000,-9.530120481927712,-1.0,-1.674698795180723,-0.8828939301042305,-9.489270386266094,-1.2777437155119558,2.0,1.9274725274725273,518.8141391106044,-0.13122778392867526,0.4030068177845118,0.006992599498863422,1459.3406593406592,-1.0,59.34081854400579,1.9284248838036089,
2023-08-17 13:37:08.869000,-9.542168674698795,-0.9879518072289157,-1.674698795180723,-0.9711833231146535,-9.423053341508277,-1.3366033108522377,2.0,1.9274725274725273,518.8141391106044,-0.09894528290892109,-0.1333255637783338,-0.03146669774488659,1458.6080586080584,-1.0,59.34081854400579,1.9284102439145108,
2023-08-17 13:37:08.877000,-9.518072289156628,-1.0120481927710845,-1.674698795180723,-0.9245861434702636,-9.503985285101164,-1.331698344573881,2.0,1.9274725274725273,518.8141391106044,-0.037760037293863916,0.1443971796515358,-0.06666278188916755,1457.8754578754579,-1.0,59.34081854400579,1.9283954963081658,
2023-08-17 13:37:08.885000,-9.530120481927712,-1.0,-1.674698795180723,-0.9123237277743715,-9.489270386266094,-1.3120784794604536,2.0,1.9260073260073258,519.2088246481552,-0.23436862653691515,0.19136413961890317,-0.3787658061884503,1454.212454212454,-1.0,59.34081854400579,1.9283806411685243,
2023-08-17 13:37:08.892000,-9.518072289156628,-1.0120481927710845,-1.6506024096385543,-0.9172286940527283,-9.5113427345187,-1.285101164929491,2.0,1.9260073260073258,519.2088246481552,-0.4617446535749662,-0.019462735271837873,-0.20103723559233125,1452.7472527472526,-1.0,59.34081854400579,1.9283656787570407,
2023-08-17 13:37:08.900000,-9.542168674698795,-1.0240963855421688,-1.6626506024096386,-0.9368485591661557,-9.530962599632128,-1.290006131207848,2.0,1.9274725274725273,518.8141391106044,0.13693840685274666,0.10803566225744368,-0.17528116077151693,1451.2820512820513,-1.0,59.34081854400579,1.9283506093071925,
2023-08-17 13:37:08.908000,-9.542168674698795,-1.0120481927710845,-1.6867469879518073,-0.9319435928877988,-9.50889025137952,-1.2777437155119558,2.0,1.9274725274725273,518.8141391106044,0.18017598042072205,0.052327952916496244,-0.3173474739234308,1447.6190476190475,-1.0,59.34081854400579,1.9283354335454455,
2023-08-17 13:37:08.915000,-9.55421686746988,-1.0,-1.63855421686747,-0.8779889638258737,-9.489270386266094,-1.2483139178418148,2.0,1.9274725274725273,518.8141391106044,0.2708466872559881,0.011421245848144537,-0.24544024241011586,1440.2930402930401,-1.0,59.34081854400579,1.9283201532443788,
2023-08-17 13:37:08.923000,-9.542168674698795,-1.0,-1.6506024096385543,-0.8362967504598405,-9.5113427345187,-1.3120784794604536,2.0,1.9260073260073258,519.2088246481552,0.19264611619369584,-0.025639531495834356,-0.20511625196666855,1432.9670329670328,-1.0,59.34081854400579,1.9283047707561154,
2023-08-17 13:37:08.931000,-9.542168674698795,-1.0,-1.674698795180723,-0.9687308399754752,-9.55793991416309,-1.314530962599632,2.0,1.9274725274725273,518.8141391106044,0.4206048598566511,0.08530971388613719,0.1879843831944524,1424.9084249084249,-1.0,59.34081854400579,1.9282892885091207,
2023-08-17 13:37:08.938000,-9.518072289156628,-1.0240963855421688,-1.6626506024096386,-0.9687308399754752,-9.474555487431024,-1.3586756591048437,2.0,1.9274725274725273,518.8141391106044,0.29532078550201063,0.15150632247538073,0.02750422469553056,1416.8498168498168,-1.0,59.34081854400579,1.9282737094164066,
2023-08-17 13:37:08.946000,-9.530120481927712,-1.0240963855421688,-1.6626506024096386,-0.9662783568362967,-9.523605150214593,-1.290006131207848,2.0,1.9274725274725273,518.8141391106044,0.2631548278072373,0.09311811665986884,0.05535807936600428,1413.9194139194137,-1.0,59.34081854400579,1.9282580373861076,
2023-08-17 13:37:08.954000,-9.542168674698795,-1.0240963855421688,-1.674698795180723,-0.9172286940527283,-9.464745554874309,-1.2998160637645615,2.0,1.9260073260073258,519.2088246481552,0.17015325447234927,-0.02587261814579603,0.14404754967659222,1415.3846153846152,-1.0,59.34081854400579,1.9282422768475183,
2023-08-17 13:37:08.961000,-9.530120481927712,-1.036144578313253,-1.6506024096385543,-0.9491109748620478,-9.49662783568363,-1.3096259963212753,2.0,1.9274725274725273,518.8141391106044,-0.04463609346774715,0.17609696404638409,-0.013985198997727495,1417.5824175824175,-1.0,59.34081854400579,1.9282264322409113,
2023-08-17 13:37:08.969000,-9.530120481927712,-1.036144578313253,-1.674698795180723,-0.9540159411404046,-9.49417535254445,-1.2679337829552422,2.0,1.9260073260073258,519.2088246481552,0.08018180758696997,0.2532486451838471,-0.10687022900763359,1419.7802197802198,-1.0,59.34081854400579,1.928210508877073,
2023-08-17 13:37:08.977000,-9.530120481927712,-1.0240963855421688,-1.63855421686747,-0.973635806253832,-9.516247700797056,-1.2777437155119558,2.0,1.9274725274725273,518.8141391106044,0.05162869296660949,0.6660451022667683,-0.25942544140784335,1419.047619047619,-1.0,59.34081854400579,1.9281945124239706,
2023-08-17 13:37:08.984000,-9.542168674698795,-1.036144578313253,-1.674698795180723,-0.9123237277743715,-9.457388105456774,-1.226241569589209,2.0,1.9260073260073258,519.2088246481552,-0.02330866499621242,0.31175339432433985,-0.3497465182681663,1417.5824175824175,-1.0,59.34081854400579,1.9281784484265383,
2023-08-17 13:37:08.992000,-9.518072289156628,-1.036144578313253,-1.6506024096385543,-0.9834457388105456,-9.518700183936234,-1.2777437155119558,2.0,1.9274725274725273,518.8141391106044,0.1911310529689415,0.09754676300914931,0.022026688421420616,1413.9194139194137,-1.0,59.34081854400579,1.928162322807863,
2023-08-17 13:37:09,-9.55421686746988,-1.0481927710843375,-1.6987951807228916,-0.8927038626609441,-9.477007970570202,-1.2752912323727774,2.0,1.9274725274725273,518.8141391106044,0.15954781189907408,0.46349280344968224,-0.08426082396130749,1410.989010989011,-1.0,59.34081854400579,1.9281461418070915,
2023-08-17 13:37:09.007000,-9.542168674698795,-1.0240963855421688,-1.674698795180723,-0.9417535254445125,-9.489270386266094,-1.2483139178418148,2.0,1.9274725274725273,518.8141391106044,-0.08810675368568247,0.1713186877221611,-0.4356389487792087,1406.5934065934066,-1.0,59.34081854400579,1.9281299124785685,
2023-08-17 13:37:09.015000,-9.542168674698795,-1.0240963855421688,-1.674698795180723,-0.9074187614960146,-9.506437768240342,-1.3071735131820967,2.0,1.9260073260073258,519.2088246481552,0.260357788007692,0.23063924013752143,-0.2329701066371423,1403.6630036630036,-1.0,59.34081854400579,1.9281136422075023,
2023-08-17 13:37:09.023000,-9.518072289156628,-1.036144578313253,-1.6506024096385543,-0.9613733905579399,-9.481912936848559,-1.3513182096873084,2.0,1.9274725274725273,518.8141391106044,0.24182739933570255,0.19579278596818364,-0.15313792902511505,1402.197802197802,-1.0,59.34081854400579,1.9280973381904967,
2023-08-17 13:37:09.030000,-9.55421686746988,-1.036144578313253,-1.6626506024096386,-0.973635806253832,-9.484365419987737,-1.3047210300429184,2.0,1.9260073260073258,519.2088246481552,-0.11269739525668582,0.48272245207155845,0.11094924538197067,1400.0,-1.0,59.34081854400579,1.9280810082869184,
2023-08-17 13:37:09.038000,-9.566265060240964,-1.0120481927710845,-1.6626506024096386,-0.9049662783568363,-9.540772532188841,-1.3194359288779889,2.0,1.9274725274725273,518.8141391106044,0.023891381621118337,0.10978381213215971,0.22061651418914976,1397.8021978021977,-1.0,59.34081854400579,1.9280646609564227,
2023-08-17 13:37:09.046000,-9.55421686746988,-1.0120481927710845,-1.674698795180723,-0.8804414469650521,-9.50889025137952,-1.2654812998160636,2.0,1.9274725274725273,518.8141391106044,-0.22224812073888384,0.16444263154827787,0.1448633529514596,1395.6043956043954,-1.0,59.34081854400579,1.9280483047056207,
2023-08-17 13:37:09.053000,-9.542168674698795,-0.9879518072289157,-1.6867469879518073,-0.8951563458001226,-9.506437768240342,-1.366033108522379,2.0,1.9274725274725273,518.8141391106044,-0.22201503408892218,0.1580327486743197,0.14497989627644065,1392.6739926739926,-1.0,59.34081854400579,1.9280319485888788,
2023-08-17 13:37:09.061000,-9.506024096385543,-1.0120481927710845,-1.6987951807228916,-0.9540159411404046,-9.545677498467198,-1.3218884120171672,2.0,1.9274725274725273,518.8141391106044,-0.11526134840626943,-0.06316648213973486,0.17621350737136537,1392.6739926739926,-1.0,59.34081854400579,1.9280156012679994,
2023-08-17 13:37:09.069000,-9.530120481927712,-1.0,-1.6867469879518073,-0.9123237277743715,-9.555487431023911,-1.2752912323727774,2.0,1.9274725274725273,518.8141391106044,-0.13169395722860036,-0.06934327836373134,0.11351319853155406,1391.9413919413919,-1.0,59.34081854400579,1.9279992715126504,
2023-08-17 13:37:09.076000,-9.530120481927712,-1.0,-1.6987951807228916,-0.9172286940527283,-9.540772532188841,-1.3537706928264868,2.0,1.9260073260073258,519.2088246481552,-0.4231688130062347,0.12481790105471711,0.020278538546704816,1391.9413919413919,-1.0,59.34081854400579,1.9279829681389382,
2023-08-17 13:37:09.084000,-9.542168674698795,-1.0,-1.674698795180723,-0.944206008583691,-9.49417535254445,-1.314530962599632,2.0,1.9274725274725273,518.8141391106044,0.05023017306683771,-0.01678223879727343,0.07994872093700829,1391.2087912087911,-1.0,59.34081854400579,1.9279666990674524,
2023-08-17 13:37:09.092000,-9.542168674698795,-1.0120481927710845,-1.6506024096385543,-0.9368485591661557,-9.47946045370938,-1.3194359288779889,2.0,1.9274725274725273,518.8141391106044,-0.25965852805780526,-0.12586679097954637,0.18705203659460398,1394.139194139194,-1.0,59.34081854400579,1.927950472666424,
2023-08-17 13:37:09.099000,-9.518072289156628,-1.0120481927710845,-1.6987951807228916,-0.956468424279583,-9.46229307173513,-1.231146535867566,2.0,1.9274725274725273,518.8141391106044,-0.382961365887768,-0.3104714177495489,0.09346774663481157,1396.3369963369962,-1.0,59.34081854400579,1.9279342981821708,
2023-08-17 13:37:09.107000,-9.542168674698795,-1.0120481927710845,-1.710843373493976,-0.9417535254445125,-9.523605150214593,-1.2752912323727774,2.0,1.9260073260073258,519.2088246481552,-0.15476953557484935,-0.25068469203426347,0.2581434648330518,1395.6043956043954,-1.0,59.34081854400579,1.927918184766632,
2023-08-17 13:37:09.115000,-9.542168674698795,-1.0,-1.674698795180723,-0.9074187614960146,-9.49662783568363,-1.3071735131820967,2.0,1.9274725274725273,518.8141391106044,-0.38634112231221923,-0.4803915855719365,0.024357554921041902,1392.6739926739926,-1.0,59.34081854400579,1.927902140963462,
2023-08-17 13:37:09.122000,-9.518072289156628,-1.0120481927710845,-1.6626506024096386,-0.9491109748620478,-9.47946045370938,-1.2949110974862048,2.0,1.9274725274725273,518.8141391106044,-0.41501078025756055,-0.29695239205174584,-0.04020744711846625,1389.7435897435896,-1.0,59.34081854400579,1.927886174650178,
2023-08-17 13:37:09.130000,-9.530120481927712,-1.0,-1.674698795180723,-0.8927038626609441,-9.457388105456774,-1.2875536480686696,2.0,1.9260073260073258,519.2088246481552,-0.4891323349455166,-0.09743021968416674,-0.009206922673503872,1388.278388278388,-1.0,59.34081854400579,1.9278702936103365,
2023-08-17 13:37:09.138000,-9.518072289156628,-1.0,-1.674698795180723,-0.8436541998773758,-9.481912936848559,-1.2998160637645615,2.0,1.9260073260073258,519.2088246481552,-0.592622807528699,-0.3267874832468972,-0.056873142590758194,1389.7435897435896,-1.0,59.34081854400579,1.9278545050521754,
2023-08-17 13:37:09.145000,-9.493975903614459,-1.0120481927710845,-1.6626506024096386,-0.9908031882280809,-9.452483139178417,-1.2630288166768853,2.0,1.9274725274725273,518.8141391106044,-0.30044869180117784,-0.18646931996969937,-0.3813297593380339,1391.9413919413919,-1.0,59.34081854400579,1.9278388159725508,
2023-08-17 13:37:09.153000,-9.530120481927712,-1.0,-1.674698795180723,-0.9098712446351931,-9.472103004291846,-1.2949110974862048,2.0,1.9274725274725273,518.8141391106044,-0.19206339956878993,-0.23110541343744478,-0.22842491696288098,1391.9413919413919,-1.0,59.34081854400579,1.9278232340147576,
2023-08-17 13:37:09.160000,-9.506024096385543,-1.0,-1.63855421686747,-0.9049662783568363,-9.47946045370938,-1.3218884120171672,2.0,1.9260073260073258,519.2088246481552,-0.4334246256045691,0.047083503292348186,-0.03065089447001922,1391.9413919413919,-1.0,59.34081854400579,1.9278077670281695,
2023-08-17 13:37:09.168000,-9.506024096385543,-0.9879518072289157,-1.6506024096385543,-0.8755364806866952,-9.459840588595952,-1.2924586143470262,2.0,1.9260073260073258,519.2088246481552,-0.44496241477769277,-0.07388846803799265,-0.4112813938581668,1390.4761904761904,-1.0,59.34081854400579,1.9277924221041234,
2023-08-17 13:37:09.176000,-9.530120481927712,-1.0120481927710845,-1.63855421686747,-0.9098712446351931,-9.533415082771306,-1.3292458614347025,2.0,1.9274725274725273,518.8141391106044,-0.1962589592681087,0.26758347415651773,-0.19660858924305102,1389.7435897435896,-1.0,59.34081854400579,1.9277772054915747,
2023-08-17 13:37:09.183000,-9.566265060240964,-1.0120481927710845,-1.6506024096385543,-0.9221336603310851,-9.489270386266094,-1.3341508277130594,2.0,1.9274725274725273,518.8141391106044,-0.31408426082396174,-0.12843074412913,-0.21071033156575955,1389.0109890109889,-1.0,59.34081854400579,1.9277621235313886,
2023-08-17 13:37:09.191000,-9.55421686746988,-0.9879518072289157,-1.63855421686747,-0.9000613120784794,-9.474555487431024,-1.2703862660944205,2.0,1.9260073260073258,519.2088246481552,-0.3095390711497005,-0.12470135772973627,-0.20884563836606249,1383.8827838827838,-1.0,59.34081854400579,1.9277471827131782,
2023-08-17 13:37:09.199000,-9.55421686746988,-1.0,-1.63855421686747,-0.8828939301042305,-9.472103004291846,-1.231146535867566,2.0,1.9245421245421244,519.604111153407,-0.19742439251791882,0.1827399335703039,-0.2686323640813472,1381.6849816849815,-1.0,59.34081854400579,1.9277323891738178,
2023-08-17 13:37:09.206000,-9.566265060240964,-0.9879518072289157,-1.6626506024096386,-0.9025137952176578,-9.501532801961986,-1.2752912323727774,2.0,1.9245421245421244,519.604111153407,-0.3609346774663483,-0.33646057922032574,-0.09801293630907287,1378.7545787545787,-1.0,59.34081854400579,1.9277177476002547,
2023-08-17 13:37:09.214000,-9.55421686746988,-1.0120481927710845,-1.6626506024096386,-0.9540159411404046,-9.489270386266094,-1.290006131207848,2.0,1.9260073260073258,519.2088246481552,-0.29229065905250196,-0.45475205407610214,-0.07878328768719775,1378.7545787545787,-1.0,59.34081854400579,1.9277032611829572,
2023-08-17 13:37:09.222000,-9.542168674698795,-1.0120481927710845,-1.6626506024096386,-0.9368485591661557,-9.560392397302268,-1.2654812998160636,2.0,1.9260073260073258,519.2088246481552,-0.14929199930073964,-0.06701241186411114,0.16758930132276675,1379.4871794871794,-1.0,59.34081854400579,1.9276889330428566,
2023-08-17 13:37:09.229000,-9.578313253012048,-1.0120481927710845,-1.674698795180723,-0.9515634580012262,-9.562844880441446,-1.2998160637645615,2.0,1.9274725274725273,518.8141391106044,0.005244449624148055,-0.2795874366295665,0.04510226676767093,1382.4175824175823,-1.0,59.34081854400579,1.9276747662877476,
2023-08-17 13:37:09.237000,-9.55421686746988,-0.9879518072289157,-1.6626506024096386,-0.9393010423053341,-9.484365419987737,-1.280196198651134,2.0,1.9260073260073258,519.2088246481552,-0.329934153021385,-0.2767903968300212,0.12202086125517161,1383.8827838827838,-1.0,59.34081854400579,1.9276607640374308,
2023-08-17 13:37:09.245000,-9.530120481927712,-1.0120481927710845,-1.6626506024096386,-0.9221336603310851,-9.530962599632128,-1.2949110974862048,2.0,1.9274725274725273,518.8141391106044,-0.29567041547695316,-0.21117650486568357,0.044752636792727556,1384.6153846153845,-1.0,59.34081854400579,1.9276469289948126,
2023-08-17 13:37:09.252000,-9.542168674698795,-1.0240963855421688,-1.674698795180723,-0.9393010423053341,-9.501532801961986,-1.280196198651134,2.0,1.9274725274725273,518.8141391106044,-0.22772565701299533,-0.330983042946216,0.02960200454518974,1383.150183150183,-1.0,59.34081854400579,1.9276332634069608,
2023-08-17 13:37:09.260000,-9.55421686746988,-1.0240963855421688,-1.6626506024096386,-0.9172286940527283,-9.47946045370938,-1.314530962599632,2.0,1.9260073260073258,519.2088246481552,-0.3333139094458362,-0.43424042887943676,0.5497348639356681,1379.4871794871794,-1.0,59.34081854400579,1.9276197695899848,
2023-08-17 13:37:09.268000,-9.493975903614459,-1.0120481927710845,-1.6144578313253013,-0.9025137952176578,-9.499080318822807,-1.2826486817903127,2.0,1.9260073260073258,519.2088246481552,-0.08530971388613719,-0.29112522580269184,0.16455917487325916,1376.5567765567764,-1.0,59.34081854400579,1.9276064489802394,
2023-08-17 13:37:09.275000,-9.44578313253012,-1.0,-1.5903614457831325,-0.8804414469650521,-9.440220723482526,-1.25567136725935,2.0,1.9260073260073258,519.2088246481552,-0.49449332789464545,0.04941436979197012,-0.1250509877046792,1373.6263736263736,-1.0,59.34081854400579,1.9275933020658633,
2023-08-17 13:37:09.283000,-9.44578313253012,-1.0,-1.6144578313253013,-0.9098712446351931,-9.408338442673205,-1.2679337829552422,2.0,1.9260073260073258,519.2088246481552,-0.4886661616455915,0.35347590466756085,-0.6731542450906123,1369.230769230769,-1.0,59.34081854400579,1.9275803288448112,
2023-08-17 13:37:09.291000,-9.46987951807229,-1.0240963855421688,-1.63855421686747,-0.9319435928877988,-9.383813611281422,-1.280196198651134,2.0,1.9260073260073258,519.2088246481552,-0.16479226152322038,0.5034671639181872,-0.6513606433191538,1364.8351648351647,-1.0,59.34081854400579,1.9275675288263636,
2023-08-17 13:37:09.298000,-9.506024096385543,-1.0,-1.674698795180723,-0.8976088289393009,-9.484365419987737,-1.314530962599632,2.0,1.9274725274725273,518.8141391106044,-0.1199230814055133,0.8037993123943825,-0.5391294213623913,1358.974358974359,-1.0,59.34081854400579,1.9275549010340134,
2023-08-17 13:37:09.306000,-9.55421686746988,-1.0,-1.6867469879518073,-0.8779889638258737,-9.52851011649295,-1.260576333537707,2.0,1.9260073260073258,519.2088246481552,-0.18250684692034225,0.7849192937474506,-0.5659343861080358,1354.5787545787546,-1.0,59.34081854400579,1.9275424445023852,
2023-08-17 13:37:09.314000,-9.602409638554217,-0.9879518072289157,-1.674698795180723,-0.9025137952176578,-9.567749846719803,-1.3194359288779889,2.0,1.9260073260073258,519.2088246481552,-0.3798146961132802,0.6437853271953851,-0.6525260765689646,1353.113553113553,-1.0,59.34081854400579,1.9275301578623676,
2023-08-17 13:37:09.321000,-9.602409638554217,-0.9759036144578314,-1.674698795180723,-0.8755364806866952,-9.553034947884733,-1.285101164929491,2.0,1.9260073260073258,519.2088246481552,-0.04230522696812521,0.3479983683934494,-0.5885437911543614,1353.113553113553,-1.0,59.34081854400579,1.9275180388235795,
2023-08-17 13:37:09.329000,-9.578313253012048,-0.9879518072289157,-1.6626506024096386,-0.973635806253832,-9.54322501532802,-1.2752912323727774,2.0,1.9260073260073258,519.2088246481552,-0.04288794359303113,0.34578404521881,-0.5849309480799486,1353.8461538461538,-1.0,59.34081854400579,1.9275060846411511,
2023-08-17 13:37:09.337000,-9.566265060240964,-1.0120481927710845,-1.6626506024096386,-0.9049662783568363,-9.521152667075413,-1.2728387492335989,2.0,1.9260073260073258,519.2088246481552,0.07983217761202745,-0.15954781189907408,-0.5792203251558767,1355.3113553113553,-1.0,59.34081854400579,1.9274942921259273,
2023-08-17 13:37:09.344000,-9.542168674698795,-0.9879518072289157,-1.6626506024096386,-0.8559166155732679,-9.530962599632128,-1.290006131207848,2.0,1.9245421245421244,519.604111153407,0.3236408134724077,0.011071615873200292,-0.14637841617621353,1355.3113553113553,-1.0,59.34081854400579,1.9274826576559227,
2023-08-17 13:37:09.352000,-9.530120481927712,-1.0,-1.6867469879518073,-0.9000613120784794,-9.538320049049663,-1.3341508277130594,2.0,1.9260073260073258,519.2088246481552,0.20022143231746412,-0.2320377600372932,-0.19124759629392235,1356.0439560439559,-1.0,59.34081854400579,1.9274711771542157,
2023-08-17 13:37:09.360000,-9.518072289156628,-0.9879518072289157,-1.674698795180723,-0.9466584917228693,-9.575107296137338,-1.2728387492335989,2.0,1.9260073260073258,519.2088246481552,0.35149466814288144,-0.1562845987996037,0.06782821513897787,1358.974358974359,-1.0,59.34081854400579,1.9274598459981753,
2023-08-17 13:37:09.367000,-9.542168674698795,-1.0,-1.6987951807228916,-0.8853464132434089,-9.521152667075413,-1.2875536480686696,2.0,1.9260073260073258,519.2088246481552,0.10418973253306914,-0.020628168521647974,-0.1626944816735623,1363.3699633699632,-1.0,59.34081854400579,1.927448659137855,
2023-08-17 13:37:09.375000,-9.530120481927712,-1.0,-1.63855421686747,-0.9294911097486205,-9.484365419987737,-1.3366033108522377,2.0,1.9260073260073258,519.2088246481552,0.05792203251558681,-0.08402773731134625,0.4037060777343977,1369.230769230769,-1.0,59.34081854400579,1.9274376111456573,
2023-08-17 13:37:09.383000,-9.55421686746988,-1.0120481927710845,-1.63855421686747,-0.8485591661557327,-9.523605150214593,-1.2385039852851012,2.0,1.9260073260073258,519.2088246481552,0.13542334362799405,-0.250335062059321,0.35872035429170784,1375.091575091575,-1.0,59.34081854400579,1.9274266962322835,
2023-08-17 13:37:09.390000,-9.530120481927712,-1.0,-1.6626506024096386,-0.9245861434702636,-9.440220723482526,-1.2728387492335989,2.0,1.9260073260073258,519.2088246481552,-0.0973136763591859,-0.032865217644660105,0.31245265427422636,1379.4871794871794,-1.0,59.34081854400579,1.9274159082637365,
2023-08-17 13:37:09.398000,-9.542168674698795,-1.0,-1.6626506024096386,-0.9343960760269773,-9.474555487431024,-1.280196198651134,2.0,1.9260073260073258,519.2088246481552,-0.1885670998193579,-0.21572169453994486,0.06817784511392103,1380.952380952381,1133.6669921875,52.92559491762679,1.9274052407793278,
2023-08-17 13:37:09.406000,-9.518072289156628,-0.9759036144578314,-1.63855421686747,-0.8976088289393009,-9.472103004291846,-1.2998160637645615,2.0,1.9260073260073258,519.2088246481552,-0.16968708117242592,-0.26187285123244636,-0.1441640930015733,1380.2197802197802,-1.0,52.92559491762679,1.927394687010652,
2023-08-17 13:37:09.413000,-9.506024096385543,-1.0,-1.674698795180723,-0.9319435928877988,-9.440220723482526,-1.2630288166768853,2.0,1.9260073260073258,519.2088246481552,-0.1798263504457778,0.026105704795757703,-0.03507954081929947,1380.2197802197802,-1.0,52.92559491762679,1.9273842399014791,
2023-08-17 13:37:09.421000,-9.530120481927712,-1.0120481927710845,-1.6626506024096386,-0.9098712446351931,-9.481912936848559,-1.2875536480686696,2.0,1.9260073260073258,519.2088246481552,0.15978089854903574,0.358137637666803,0.05850474914049316,1378.7545787545787,-1.0,52.92559491762679,1.927373892128523,
2023-08-17 13:37:09.429000,-9.542168674698795,-0.9879518072289157,-1.6506024096385543,-0.9196811771919068,-9.49417535254445,-1.3366033108522377,2.0,1.9260073260073258,519.2088246481552,-0.1290134607540359,0.21443971796515393,0.028786201270322147,1374.3589743589744,-1.0,52.92559491762679,1.9273636361230175,
2023-08-17 13:37:09.436000,-9.506024096385543,-1.0,-1.6265060240963856,-0.9049662783568363,-9.450030656039239,-1.2752912323727774,2.0,1.9260073260073258,519.2088246481552,0.21245848144047624,0.28821164267816574,-0.09276848668492503,1372.161172161172,-1.0,52.92559491762679,1.927353464093055,
2023-08-17 13:37:09.444000,-9.518072289156628,-1.0120481927710845,-1.6265060240963856,-0.9540159411404046,-9.474555487431024,-1.3047210300429184,2.0,1.9260073260073258,519.2088246481552,0.060602528990151255,0.054891906066079854,-0.4097663306334129,1372.161172161172,-1.0,52.92559491762679,1.9273433680466379,
2023-08-17 13:37:09.452000,-9.542168674698795,-1.0240963855421688,-1.6626506024096386,-0.8976088289393009,-9.523605150214593,-1.3194359288779889,2.0,1.9260073260073258,519.2088246481552,-0.13740458015267176,0.3250393333721812,-0.5571936367344559,1375.091575091575,-1.0,52.92559491762679,1.927333339815363,
2023-08-17 13:37:09.459000,-9.55421686746988,-1.0,-1.674698795180723,-0.8779889638258737,-9.521152667075413,-1.2654812998160636,2.0,1.9260073260073258,519.2088246481552,-0.3185129071732422,0.5842316881300631,-0.49169628809509935,1375.8241758241757,-1.0,52.92559491762679,1.9273233710786872,
2023-08-17 13:37:09.467000,-9.578313253012048,-1.0240963855421688,-1.6626506024096386,-0.9466584917228693,-9.523605150214593,-1.3218884120171672,2.0,1.9260073260073258,519.2088246481552,-0.514189149816445,0.38016432608822276,-0.39613076161062877,1375.091575091575,-1.0,52.92559491762679,1.9273134533887195,
2023-08-17 13:37:09.475000,-9.578313253012048,-1.0,-1.6867469879518073,-0.8755364806866952,-9.491722869405272,-1.285101164929491,2.0,1.9260073260073258,519.2088246481552,-0.02167705844647724,-0.14218285647689471,-0.3014975817260065,1375.091575091575,-1.0,52.92559491762679,1.9273035781954422,
2023-08-17 13:37:09.482000,-9.55421686746988,-1.0,-1.6867469879518073,-0.9049662783568363,-9.553034947884733,-1.3586756591048437,2.0,1.9260073260073258,519.2088246481552,-0.08297884738651524,-0.26140667793252126,-0.11712604160596693,1375.8241758241757,-1.0,52.92559491762679,1.9272937368723257,
2023-08-17 13:37:09.490000,-9.542168674698795,-1.0,-1.674698795180723,-0.9221336603310851,-9.530962599632128,-1.2826486817903127,2.0,1.9260073260073258,519.2088246481552,-0.40452188100926445,-0.1818075869704555,-0.04207214031816311,1376.5567765567764,-1.0,52.92559491762679,1.92728392074225,
2023-08-17 13:37:09.498000,-9.530120481927712,-0.9759036144578314,-1.6867469879518073,-0.9196811771919068,-9.44757817290006,-1.3243408951563458,2.0,1.9245421245421244,519.604111153407,-0.1420663131519139,-0.19392809276848677,0.17329992424683882,1373.6263736263736,-1.0,52.92559491762679,1.927274121103656,
2023-08-17 13:37:09.505000,-9.506024096385543,-0.9759036144578314,-1.674698795180723,-0.8976088289393009,-9.521152667075413,-1.3292458614347025,2.0,1.9260073260073258,519.2088246481552,-0.3871569255870868,-0.3732882699143412,-0.17970980712079718,1371.4285714285713,-1.0,52.92559491762679,1.9272643292220701,
2023-08-17 13:37:09.513000,-9.55421686746988,-0.963855421686747,-1.6506024096385543,-0.8534641324340895,-9.489270386266094,-1.290006131207848,2.0,1.9260073260073258,519.2088246481552,-0.11129887535691405,-0.8413262630382847,0.019579278596818277,1370.6959706959706,-1.0,52.92559491762679,1.9272545367097405,
2023-08-17 13:37:09.521000,-9.530120481927712,-0.9879518072289157,-1.6626506024096386,-0.8902513795217657,-9.518700183936234,-1.3267933782955241,2.0,1.9260073260073258,519.2088246481552,-0.30895635452479453,-0.6059087465765404,-0.19474389604335393,1372.8937728937728,-1.0,52.92559491762679,1.9272447355881706,
2023-08-17 13:37:09.528000,-9.542168674698795,-1.0120481927710845,-1.6506024096385543,-0.9172286940527283,-9.521152667075413,-1.2924586143470262,2.0,1.9260073260073258,519.2088246481552,-0.13857001340248185,-0.37165666336460607,-0.2884447293281278,1375.091575091575,-1.0,52.92559491762679,1.9272349174017718,
2023-08-17 13:37:09.536000,-9.518072289156628,-1.0,-1.6626506024096386,-0.9147762109135499,-9.464745554874309,-1.226241569589209,2.0,1.9260073260073258,519.2088246481552,0.18378882349513492,-0.20266884214206687,-0.10372355923314493,1374.3589743589744,-1.0,52.92559491762679,1.9272250733137413,
2023-08-17 13:37:09.543000,-9.55421686746988,-0.9879518072289157,-1.63855421686747,-0.8730839975475169,-9.450030656039239,-1.2875536480686696,2.0,1.9260073260073258,519.2088246481552,0.16758930132276742,-0.15651768544956537,-0.3026630149758172,1373.6263736263736,-1.0,52.92559491762679,1.9272151946222484,
2023-08-17 13:37:09.551000,-9.542168674698795,-0.9879518072289157,-1.6506024096385543,-0.9025137952176578,-9.477007970570202,-1.3218884120171672,2.0,1.9260073260073258,519.2088246481552,-0.060602528990151255,0.34893071499329953,0.06503117533943215,1370.6959706959706,-1.0,52.92559491762679,1.927205272783734,
2023-08-17 13:37:09.559000,-9.542168674698795,-0.9759036144578314,-1.6867469879518073,-0.9000613120784794,-9.46229307173513,-1.2630288166768853,2.0,1.9260073260073258,519.2088246481552,-0.07563661791270866,0.20837946506613828,-0.1200396247304937,1366.3003663003662,-1.0,52.92559491762679,1.9271952998938067,
2023-08-17 13:37:09.566000,-9.530120481927712,-0.9879518072289157,-1.6506024096385543,-0.8534641324340895,-9.457388105456774,-1.2630288166768853,2.0,1.9260073260073258,519.2088246481552,0.1827399335703039,-0.18821746984441537,-0.4241011596060838,1360.4395604395604,-1.0,52.92559491762679,1.927185268184824,
2023-08-17 13:37:09.574000,-9.493975903614459,-0.9518072289156627,-1.63855421686747,-0.9294911097486205,-9.467198038013489,-1.2679337829552422,2.0,1.9260073260073258,519.2088246481552,-0.09428354990967895,-0.12400209777984952,-0.13204358720354287,1356.0439560439559,-1.0,52.92559491762679,1.9271751696271155,
2023-08-17 13:37:09.582000,-9.493975903614459,-0.9759036144578314,-1.6626506024096386,-0.8706315144083384,-9.430410790925812,-1.2115266707541386,2.0,1.9260073260073258,519.2088246481552,-0.13996853330225537,-0.12388555445486868,-0.4639589767496069,1355.3113553113553,-1.0,52.92559491762679,1.9271649964429292,
2023-08-17 13:37:09.589000,-9.518072289156628,-0.9759036144578314,-1.63855421686747,-0.9098712446351931,-9.49417535254445,-1.2164316370324952,2.0,1.9260073260073258,519.2088246481552,-0.26163976458248295,0.4106986772332609,0.013402482372822011,1357.5091575091574,-1.0,52.92559491762679,1.9271547411272507,
2023-08-17 13:37:09.597000,-9.542168674698795,-0.9759036144578314,-1.6626506024096386,-0.8853464132434089,-9.477007970570202,-1.290006131207848,2.0,1.9260073260073258,519.2088246481552,0.030883981119980676,0.3472991084435644,-0.19905599906765356,1364.8351648351647,-1.0,52.92559491762679,1.9271443964681234,
2023-08-17 13:37:09.605000,-9.55421686746988,-0.9879518072289157,-1.6506024096385543,-0.8559166155732679,-9.489270386266094,-1.2581238503985284,2.0,1.9260073260073258,519.2088246481552,0.030068177845113085,0.3460171318687717,-0.19625895926810785,1371.4285714285713,-1.0,52.92559491762679,1.9271339555664233,
2023-08-17 13:37:09.612000,-9.590361445783133,-0.9879518072289157,-1.6265060240963856,-0.8853464132434089,-9.521152667075413,-1.280196198651134,2.0,1.9260073260073258,519.2088246481552,-0.38214556261290217,0.5570770934094744,-0.32806945982168906,1380.952380952381,-1.0,52.92559491762679,1.9271234118550558,
2023-08-17 13:37:09.620000,-9.578313253012048,-1.0,-1.674698795180723,-0.9809932556713672,-9.491722869405272,-1.2385039852851012,2.0,1.9260073260073258,519.2088246481552,0.049064739817027615,0.24427480916030533,-0.5839986014801004,1389.0109890109889,-1.0,52.92559491762679,1.9271127591175257,
2023-08-17 13:37:09.628000,-9.55421686746988,-1.0120481927710845,-1.6506024096385543,-0.8779889638258737,-9.472103004291846,-1.2777437155119558,2.0,1.9260073260073258,519.2088246481552,0.052561039566459654,0.25091777868422516,-0.5179185362158378,1398.5347985347985,-1.0,52.92559491762679,1.9271019915058334,
2023-08-17 13:37:09.635000,-9.542168674698795,-1.0120481927710845,-1.6506024096385543,-0.9025137952176578,-9.46229307173513,-1.2286940527283874,2.0,1.9260073260073258,519.2088246481552,-0.052327952916496244,0.18565351669483177,-0.43657129537905737,1406.5934065934066,-1.0,52.92559491762679,1.927091104015553,
2023-08-17 13:37:09.643000,-9.530120481927712,-1.0120481927710845,-1.6626506024096386,-0.9245861434702636,-9.393623543838135,-1.2875536480686696,2.0,1.9260073260073258,519.2088246481552,0.07214031816327662,0.0597867257152854,-0.06339956878969784,1415.3846153846152,-1.0,52.92559491762679,1.9270800919771487,
2023-08-17 13:37:09.651000,-9.518072289156628,-1.0120481927710845,-1.6626506024096386,-0.9221336603310851,-9.499080318822807,-1.25567136725935,2.0,1.9245421245421244,519.604111153407,0.04300448691801197,0.1339082804032397,-0.22854146028786204,1423.4432234432234,-1.0,52.92559491762679,1.9270689511083732,
2023-08-17 13:37:09.658000,-9.518072289156628,-1.0,-1.6626506024096386,-0.944206008583691,-9.445125689760882,-1.280196198651134,2.0,1.9245421245421244,519.604111153407,-0.0010488899248292638,0.11759221490589136,-0.08530971388613719,1430.03663003663,-1.0,52.92559491762679,1.9270576774611918,
2023-08-17 13:37:09.666000,-9.566265060240964,-1.0,-1.63855421686747,-0.9466584917228693,-9.489270386266094,-1.314530962599632,2.0,1.9260073260073258,519.2088246481552,-0.0924188567099821,0.0533768428413255,0.17469844414661145,1436.6300366300366,-1.0,52.92559491762679,1.9270462668745032,
2023-08-17 13:37:09.674000,-9.542168674698795,-1.0120481927710845,-1.674698795180723,-0.9491109748620478,-9.54322501532802,-1.2777437155119558,2.0,1.9260073260073258,519.2088246481552,-0.016432608822329185,0.16001398519899743,0.31245265427422636,1445.4212454212454,-1.0,52.92559491762679,1.9270347154772656,
2023-08-17 13:37:09.681000,-9.55421686746988,-1.0,-1.674698795180723,-0.9000613120784794,-9.484365419987737,-1.3586756591048437,2.0,1.9260073260073258,519.2088246481552,-3.496299749425094E-4,0.2209661441640929,0.11036652875706518,1456.4102564102564,-1.0,52.92559491762679,1.9270230198362022,
2023-08-17 13:37:09.689000,-9.530120481927712,-1.0,-1.6867469879518073,-0.9417535254445125,-9.540772532188841,-1.2973635806253832,2.0,1.9260073260073258,519.2088246481552,-0.07656896451255708,-0.05629042596585336,-0.10244158265835333,1470.3296703296703,-1.0,52.92559491762679,1.927011176997933,
2023-08-17 13:37:09.697000,-9.530120481927712,-1.0240963855421688,-1.6506024096385543,-0.9074187614960146,-9.452483139178417,-1.290006131207848,2.0,1.9260073260073258,519.2088246481552,0.15500262222481276,0.24928617213449172,0.11328011188159218,1482.7838827838827,-1.0,52.92559491762679,1.9269991844953944,
2023-08-17 13:37:09.704000,-9.55421686746988,-1.0,-1.6506024096385543,-0.9343960760269773,-9.477007970570202,-1.3267933782955241,2.0,1.9260073260073258,519.2088246481552,-0.07482081463784107,0.015733348872444163,0.09836256628401603,1493.040293040293,-1.0,52.92559491762679,1.9269870408112266,
2023-08-17 13:37:09.712000,-9.566265060240964,-1.0240963855421688,-1.6867469879518073,-0.8902513795217657,-9.526057633353771,-1.3243408951563458,2.0,1.9260073260073258,519.2088246481552,0.20150340889225504,0.215605151214964,0.0372938639939397,1501.8315018315018,-1.0,52.92559491762679,1.9269747448572503,
2023-08-17 13:37:09.720000,-9.578313253012048,-1.0,-1.674698795180723,-0.9393010423053341,-9.577559779276516,-1.3635806253832004,2.0,1.9260073260073258,519.2088246481552,0.4923955480449852,0.25989161470776695,0.14754384942602428,1509.89010989011,-1.0,52.92559491762679,1.9269622955570513,
2023-08-17 13:37:09.727000,-9.578313253012048,-0.9879518072289157,-1.6626506024096386,-0.9343960760269773,-9.560392397302268,-1.3635806253832004,2.0,1.9260073260073258,519.2088246481552,0.23063924013752143,-0.16933745119748342,-0.10022725948371332,1514.2857142857142,-1.0,52.92559491762679,1.9269496923408063,
2023-08-17 13:37:09.735000,-9.542168674698795,-0.9879518072289157,-1.674698795180723,-0.9196811771919068,-9.530962599632128,-1.2924586143470262,2.0,1.9260073260073258,519.2088246481552,0.2168871277897567,-0.4729328127731491,-0.08158032748674304,1515.018315018315,-1.0,52.92559491762679,1.9269369351465433,
2023-08-17 13:37:09.743000,-9.566265060240964,-0.9879518072289157,-1.674698795180723,-0.9049662783568363,-9.49662783568363,-1.3096259963212753,2.0,1.9260073260073258,519.2088246481552,0.23320319328710504,-0.29916671522638516,-0.03309830429462134,1512.087912087912,-1.0,52.92559491762679,1.926924024420532,
2023-08-17 13:37:09.750000,-9.518072289156628,-0.9879518072289157,-1.6506024096385543,-0.8706315144083384,-9.49417535254445,-1.3243408951563458,2.0,1.9260073260073258,519.2088246481552,0.050929433016724465,-0.5244449624147777,-0.07656896451255774,1508.4249084249084,-1.0,52.92559491762679,1.9269109611167874,
2023-08-17 13:37:09.758000,-9.530120481927712,-0.9759036144578314,-1.674698795180723,-0.8828939301042305,-9.477007970570202,-1.2630288166768853,2.0,1.9260073260073258,519.2088246481552,-0.04067362041839003,-0.3791154361633935,0.019113105296894282,1504.7619047619046,-1.0,52.92559491762679,1.9268977466957193,
2023-08-17 13:37:09.766000,-9.518072289156628,-0.9759036144578314,-1.6506024096385543,-0.9025137952176578,-9.477007970570202,-1.2237890864500305,2.0,1.9260073260073258,519.2088246481552,0.130178894003846,-0.25138395198415026,0.03787658061884518,1500.3663003663003,-1.0,52.92559491762679,1.9268843831219296,
2023-08-17 13:37:09.773000,-9.518072289156628,-1.0,-1.6265060240963856,-0.8804414469650521,-9.474555487431024,-1.3267933782955241,2.0,1.9260073260073258,519.2088246481552,-0.09882873958394024,-0.11024998543208478,-0.1577996620243574,1495.970695970696,-1.0,52.92559491762679,1.9268708733190254,
2023-08-17 13:37:09.781000,-9.530120481927712,-1.0,-1.6626506024096386,-0.8632740649908032,-9.477007970570202,-1.2703862660944205,2.0,1.9260073260073258,519.2088246481552,0.011071615873200292,-0.033797564244508534,-0.0018646931996970718,1493.7728937728937,-1.0,52.92559491762679,1.9268572210984733,
2023-08-17 13:37:09.789000,-9.506024096385543,-0.9759036144578314,-1.63855421686747,-0.8951563458001226,-9.467198038013489,-1.2115266707541386,2.0,1.9260073260073258,519.2088246481552,-0.3073247479750594,0.011537789173125373,-0.4272478293805722,1490.10989010989,-1.0,52.92559491762679,1.9268434306664852,
2023-08-17 13:37:09.796000,-9.506024096385543,-0.9879518072289157,-1.6144578313253013,-0.8853464132434089,-9.523605150214593,-1.2654812998160636,2.0,1.9260073260073258,519.2088246481552,-0.25942544140784357,0.2843657129537912,-0.026921508070625294,1485.7142857142856,-1.0,52.92559491762679,1.9268295061642264,
2023-08-17 13:37:09.804000,-9.518072289156628,-0.9759036144578314,-1.63855421686747,-0.9393010423053341,-9.489270386266094,-1.2237890864500305,2.0,1.9245421245421244,519.604111153407,-0.31816327719829796,0.29648621875182074,-0.4531204475263678,1481.3186813186812,-1.0,52.92559491762679,1.9268154517316582,
2023-08-17 13:37:09.812000,-9.542168674698795,-1.0,-1.63855421686747,-0.8632740649908032,-9.467198038013489,-1.25567136725935,2.0,1.9245421245421244,519.604111153407,-0.17679622399627085,0.354058621292465,-0.41850708000699255,1476.923076923077,-1.0,52.92559491762679,1.92680127195625,
2023-08-17 13:37:09.819000,-9.55421686746988,-1.0120481927710845,-1.6265060240963856,-0.9098712446351931,-9.464745554874309,-1.2483139178418148,2.0,1.9245421245421244,519.604111153407,-0.2980012819765751,0.18215721694539974,-0.49064739817026964,1472.5274725274724,-1.0,52.92559491762679,1.9267869717235695,
2023-08-17 13:37:09.827000,-9.542168674698795,-1.0,-1.6626506024096386,-0.9221336603310851,-9.533415082771306,-1.3218884120171672,2.0,1.9260073260073258,519.2088246481552,0.11631023833110044,0.11665986830604294,-0.3020802983509117,1468.8644688644688,-1.0,52.92559491762679,1.9267725561704714,
2023-08-17 13:37:09.835000,-9.566265060240964,-1.0,-1.674698795180723,-0.9221336603310851,-9.526057633353771,-1.2385039852851012,2.0,1.9260073260073258,519.2088246481552,0.13157741390361952,0.08309539071149782,-0.268166190781423,1465.9340659340658,-1.0,52.92559491762679,1.9267580311637376,
2023-08-17 13:37:09.842000,-9.566265060240964,-1.0,-1.63855421686747,-0.8927038626609441,-9.506437768240342,-1.2654812998160636,2.0,1.9260073260073258,519.2088246481552,0.0870578637608532,0.1877512965444903,-0.037177320668958645,1461.5384615384614,-1.0,52.92559491762679,1.9267434028984038,
2023-08-17 13:37:09.850000,-9.542168674698795,-1.0,-1.6265060240963856,-0.9074187614960146,-9.535867565910484,-1.25567136725935,2.0,1.9260073260073258,519.2088246481552,-0.29508769885204894,0.3228250101975401,0.30138103840102565,1454.9450549450548,-1.0,52.92559491762679,1.926728677494822,
2023-08-17 13:37:09.858000,-9.55421686746988,-0.9879518072289157,-1.6506024096385543,-0.9025137952176578,-9.550582464745554,-1.226241569589209,2.0,1.9260073260073258,519.2088246481552,0.1491754559757588,0.07575316123768949,-0.08181341413670536,1449.084249084249,-1.0,52.92559491762679,1.926713861931387,
2023-08-17 13:37:09.865000,-9.542168674698795,-1.0,-1.6506024096385543,-0.9221336603310851,-9.513795217657878,-1.3169834457388105,2.0,1.9260073260073258,519.2088246481552,0.3474156517685452,-0.11048307208204645,0.31758056057339334,1443.2234432234432,-1.0,52.92559491762679,1.9266989639589744,
2023-08-17 13:37:09.873000,-9.530120481927712,-0.9879518072289157,-1.6506024096385543,-0.8828939301042305,-9.52851011649295,-1.2507664009809931,2.0,1.9260073260073258,519.2088246481552,0.3142008041489426,-0.045684983392576414,0.20919526834100588,1440.2930402930401,-1.0,52.92559491762679,1.9266839915938243,
2023-08-17 13:37:09.881000,-9.542168674698795,-0.9879518072289157,-1.6987951807228916,-0.8853464132434089,-9.516247700797056,-1.2532188841201717,2.0,1.9260073260073258,519.2088246481552,0.3119864809743015,-0.046500786667444005,0.2082629217411572,1440.2930402930401,-1.0,52.92559491762679,1.9266689526442238,
2023-08-17 13:37:09.888000,-9.590361445783133,-0.963855421686747,-1.6626506024096386,-0.851011649294911,-9.49662783568363,-1.2581238503985284,2.0,1.9245421245421244,519.604111153407,-0.010372355923315273,0.06165141891498225,0.17656313734630852,1440.2930402930401,-1.0,52.92559491762679,1.9266538552192234,
2023-08-17 13:37:09.896000,-9.55421686746988,-0.9759036144578314,-1.6867469879518073,-0.944206008583691,-9.442673206621704,-1.3341508277130594,2.0,1.9260073260073258,519.2088246481552,0.18728512324456695,0.24567332906007885,0.49391061126973956,1442.4908424908424,-1.0,52.92559491762679,1.9266387076398077,
2023-08-17 13:37:09.903000,-9.542168674698795,-0.9759036144578314,-1.6506024096385543,-0.8706315144083384,-9.5113427345187,-1.2973635806253832,2.0,1.9260073260073258,519.2088246481552,-0.16793893129770993,0.07552007458772783,0.32165957694773045,1445.4212454212454,-1.0,52.92559491762679,1.9266235183492664,
2023-08-17 13:37:09.911000,-9.530120481927712,-0.9879518072289157,-1.674698795180723,-0.9049662783568363,-9.506437768240342,-1.2949110974862048,2.0,1.9245421245421244,519.604111153407,0.15581842549968036,-0.30615931472524927,0.2883281860031466,1447.6190476190475,-1.0,52.92559491762679,1.9266082964195046,
2023-08-17 13:37:09.919000,-9.530120481927712,-0.963855421686747,-1.63855421686747,-0.9074187614960146,-9.489270386266094,-1.3047210300429184,2.0,1.9245421245421244,519.604111153407,0.29427189557718136,-0.4563836606258373,0.2847153429287337,1449.084249084249,-1.0,52.92559491762679,1.92659305058105,
2023-08-17 13:37:09.926000,-9.518072289156628,-0.963855421686747,-1.6626506024096386,-0.86817903126916,-9.469650521152667,-1.3071735131820967,2.0,1.9245421245421244,519.604111153407,-0.17831128722102518,-0.2699143406561397,0.006876056173882803,1446.8864468864467,-1.0,52.92559491762679,1.9265777891308442,
2023-08-17 13:37:09.934000,-9.530120481927712,-1.0,-1.674698795180723,-0.9025137952176578,-9.484365419987737,-1.2630288166768853,2.0,1.9260073260073258,519.2088246481552,-0.220383427539187,-0.25313210185886625,-0.13111124060369442,1443.2234432234432,-1.0,52.92559491762679,1.9265625203640562,
2023-08-17 13:37:09.942000,-9.518072289156628,-0.9759036144578314,-1.674698795180723,-0.9417535254445125,-9.44757817290006,-1.2458614347026364,2.0,1.9260073260073258,519.2088246481552,0.25872618145795684,0.06969290833867559,0.07085834158848547,1441.7582417582416,-1.0,52.92559491762679,1.9265472530396912,
2023-08-17 13:37:09.949000,-9.530120481927712,-0.9759036144578314,-1.63855421686747,-0.9049662783568363,-9.518700183936234,-1.1992642550582464,2.0,1.9260073260073258,519.2088246481552,-0.1064040557077085,0.10046034613367542,0.05640696929083376,1443.2234432234432,-1.0,52.92559491762679,1.9265319964248326,
2023-08-17 13:37:09.957000,-9.530120481927712,-0.9879518072289157,-1.63855421686747,-0.9245861434702636,-9.450030656039239,-1.226241569589209,2.0,1.9245421245421244,519.604111153407,0.03484645416933779,-0.006876056173883237,-0.24777110890973716,1443.2234432234432,-1.0,52.92559491762679,1.9265167593557686,
2023-08-17 13:37:09.965000,-9.530120481927712,-0.963855421686747,-1.6626506024096386,-0.9196811771919068,-9.467198038013489,-1.231146535867566,2.0,1.9245421245421244,519.604111153407,0.006409882873958155,0.20628168521647974,-0.36571295379057167,1446.153846153846,-1.0,52.92559491762679,1.9265015507051766,
2023-08-17 13:37:09.972000,-9.542168674698795,-0.9759036144578314,-1.6626506024096386,-0.8730839975475169,-9.481912936848559,-1.280196198651134,2.0,1.9245421245421244,519.604111153407,-0.03869238389371234,0.2819183031291884,-0.25488025173358186,1447.6190476190475,-1.0,52.92559491762679,1.926486379182876,
2023-08-17 13:37:09.980000,-9.542168674698795,-0.9759036144578314,-1.6626506024096386,-0.8877988963825874,-9.506437768240342,-1.2679337829552422,2.0,1.9245421245421244,519.604111153407,0.23809801293630886,0.15908163859914898,-0.3287687197715751,1449.084249084249,-1.0,52.92559491762679,1.9264712528521586,
2023-08-17 13:37:09.988000,-9.55421686746988,-0.9759036144578314,-1.6265060240963856,-0.8485591661557327,-9.474555487431024,-1.2998160637645615,2.0,1.9260073260073258,519.2088246481552,-0.12866383077909166,0.16246139502360019,-0.2505681487092827,1448.3516483516482,-1.0,52.92559491762679,1.92645617959376,
2023-08-17 13:37:09.995000,-9.542168674698795,-0.963855421686747,-1.6265060240963856,-0.8804414469650521,-9.499080318822807,-1.2213366033108521,2.0,1.9245421245421244,519.604111153407,-0.08099761086183756,0.14789347940096786,-0.18891672979430083,1446.153846153846,-1.0,52.92559491762679,1.9264411675696635,
2023-08-17 13:37:10.003000,-9.542168674698795,-0.9759036144578314,-1.6506024096385543,-0.8877988963825874,-9.486817903126916,-1.3194359288779889,2.0,1.9245421245421244,519.604111153407,-0.15418681894994518,0.20814637841617661,-0.32340772682244623,1444.6886446886447,-1.0,52.92559491762679,1.926426224773748,
2023-08-17 13:37:10.011000,-9.542168674698795,-0.9759036144578314,-1.6506024096385543,-0.8927038626609441,-9.5113427345187,-1.3071735131820967,2.0,1.9260073260073258,519.2088246481552,0.1699201678223876,0.1333255637783338,0.03088398111998133,1443.2234432234432,-1.0,52.92559491762679,1.9264113584785294,
2023-08-17 13:37:10.018000,-9.542168674698795,-0.9759036144578314,-1.6506024096385543,-0.8534641324340895,-9.526057633353771,-1.30226854690374,2.0,1.9260073260073258,519.2088246481552,0.10803566225744368,-0.14160013985199055,-0.047666219917254324,1441.0256410256409,-1.0,52.92559491762679,1.9263965761578368,
2023-08-17 13:37:10.026000,-9.55421686746988,-0.963855421686747,-1.63855421686747,-0.8608215818516247,-9.474555487431024,-1.2875536480686696,2.0,1.9245421245421244,519.604111153407,-0.16444263154827787,-0.12388555445486868,-0.09358428995979262,1438.095238095238,-1.0,52.92559491762679,1.9263818855315196,
2023-08-17 13:37:10.034000,-9.542168674698795,-0.9759036144578314,-1.6626506024096386,-0.8976088289393009,-9.513795217657878,-1.314530962599632,2.0,1.9245421245421244,519.604111153407,-0.022725948371306502,0.15302138570013335,-0.1538371889750016,1434.4322344322343,-1.0,52.92559491762679,1.9263672935935334,
2023-08-17 13:37:10.041000,-9.55421686746988,-0.9879518072289157,-1.63855421686747,-0.9000613120784794,-9.518700183936234,-1.2679337829552422,2.0,1.9245421245421244,519.604111153407,0.37480333313909386,-0.1806421537206454,-0.05897092244041737,1427.8388278388277,-1.0,52.92559491762679,1.9263528065196676,
2023-08-17 13:37:10.049000,-9.530120481927712,-1.0120481927710845,-1.6265060240963856,-0.9172286940527283,-9.530962599632128,-1.231146535867566,2.0,1.9245421245421244,519.604111153407,0.174931530796574,-0.025989161470776866,0.06654623856418627,1418.3150183150183,-1.0,52.92559491762679,1.9263384301011877,
2023-08-17 13:37:10.057000,-9.55421686746988,-0.9879518072289157,-1.63855421686747,-0.9245861434702636,-9.457388105456774,-1.2777437155119558,2.0,1.9245421245421244,519.604111153407,-0.010022725948371029,-0.16211176504865768,-0.05372647281626932,1408.7912087912086,-1.0,52.92559491762679,1.9263241697214901,
2023-08-17 13:37:10.064000,-9.542168674698795,-0.9879518072289157,-1.602409638554217,-0.9049662783568363,-9.464745554874309,-1.2875536480686696,2.0,1.9245421245421244,519.604111153407,0.3102383310995855,-0.022376318396363993,0.1017423227084668,1400.7326007326005,-1.0,52.92559491762679,1.9263100298759397,
2023-08-17 13:37:10.072000,-9.55421686746988,-1.0,-1.6144578313253013,-0.9000613120784794,-9.503985285101164,-1.260576333537707,2.0,1.9245421245421244,519.604111153407,0.17085251442223603,-0.17539770409649733,-0.09486626653458421,1396.3369963369962,-1.0,52.92559491762679,1.9262960146758532,
2023-08-17 13:37:10.080000,-9.55421686746988,-0.9879518072289157,-1.6506024096385543,-0.9049662783568363,-9.560392397302268,-1.2679337829552422,2.0,1.9245421245421244,519.604111153407,0.07820057106229227,-0.006642969523919828,-0.12248703455509583,1395.6043956043954,-1.0,52.92559491762679,1.9262821282497662,
2023-08-17 13:37:10.087000,-9.542168674698795,-0.9879518072289157,-1.63855421686747,-0.9393010423053341,-9.491722869405272,-1.2998160637645615,2.0,1.9245421245421244,519.604111153407,-0.046500786667444005,-0.18880018646931956,0.017364955422178044,1395.6043956043954,-1.0,52.92559491762679,1.9262683742329663,
2023-08-17 13:37:10.095000,-9.542168674698795,-1.0120481927710845,-1.63855421686747,-0.8877988963825874,-9.503985285101164,-1.2752912323727774,2.0,1.9260073260073258,519.2088246481552,0.2760911368801344,0.22481207388846747,0.019229648621875334,1392.6739926739926,-1.0,52.92559491762679,1.9262547557511984,
2023-08-17 13:37:10.103000,-9.542168674698795,-1.0,-1.6626506024096386,-0.8902513795217657,-9.46229307173513,-1.2507664009809931,2.0,1.9260073260073258,519.2088246481552,0.36489715051570365,0.05430918944117393,-0.19183031291882738,1389.0109890109889,-1.0,52.92559491762679,1.9262412758986711,
2023-08-17 13:37:10.110000,-9.530120481927712,-1.0,-1.6987951807228916,-0.8877988963825874,-9.540772532188841,-1.2875536480686696,2.0,1.9230769230769231,520.0,0.4215372064564995,0.21956762426431942,-0.2034846454169336,1386.8131868131868,-1.0,52.92559491762679,1.9262279377972855,
2023-08-17 13:37:10.118000,-9.542168674698795,-1.0,-1.674698795180723,-0.8657265481299815,-9.457388105456774,-1.2875536480686696,2.0,1.9245421245421244,519.604111153407,0.6321309946972788,-0.0587378357904544,-0.07633587786259542,1386.080586080586,-1.0,52.92559491762679,1.9262147436057069,
2023-08-17 13:37:10.126000,-9.542168674698795,-1.0,-1.6626506024096386,-0.8755364806866952,-9.513795217657878,-1.3267933782955241,2.0,1.9245421245421244,519.604111153407,0.13705495017772923,0.3655964104655904,-0.44041722510343234,1386.080586080586,-1.0,52.92559491762679,1.9262016947973073,
2023-08-17 13:37:10.133000,-9.542168674698795,-1.0120481927710845,-1.6506024096385543,-0.9025137952176578,-9.452483139178417,-1.2679337829552422,2.0,1.9245421245421244,519.604111153407,-0.033914107569489364,0.16211176504865768,-0.19148068294388446,1386.8131868131868,-1.0,52.92559491762679,1.92618879219016,
2023-08-17 13:37:10.141000,-9.542168674698795,-0.9879518072289157,-1.6626506024096386,-0.9098712446351931,-9.499080318822807,-1.361128142244022,2.0,1.9260073260073258,519.2088246481552,0.05535807936600493,0.022725948371306502,0.13216013052852413,1390.4761904761904,-1.0,52.92559491762679,1.9261760355552786,
2023-08-17 13:37:10.149000,-9.542168674698795,-0.9879518072289157,-1.6867469879518073,-0.9074187614960146,-9.587369711833231,-1.3366033108522377,2.0,1.9245421245421244,519.604111153407,0.0973136763591859,0.1574500320494138,0.10185886603344807,1393.4065934065934,-1.0,52.92559491762679,1.926163424597922,
2023-08-17 13:37:10.156000,-9.566265060240964,-1.0,-1.6626506024096386,-0.9221336603310851,-9.5113427345187,-1.3047210300429184,2.0,1.9245421245421244,519.604111153407,0.14113396655206545,0.17003671114736846,-0.09859565293397814,1396.3369963369962,-1.0,52.92559491762679,1.9261509585351415,
2023-08-17 13:37:10.164000,-9.542168674698795,-0.9759036144578314,-1.6626506024096386,-0.8853464132434089,-9.545677498467198,-1.3439607602697732,2.0,1.9245421245421244,519.604111153407,0.1396189033273111,0.16689004137288066,-0.09789639298409182,1400.0,-1.0,52.92559491762679,1.9261386355714707,
2023-08-17 13:37:10.172000,-9.55421686746988,-0.9879518072289157,-1.6506024096385543,-0.927038626609442,-9.533415082771306,-1.2654812998160636,2.0,1.9245421245421244,519.604111153407,-0.07750131111240552,-0.26163976458248295,-0.06514771866441342,1403.6630036630036,-1.0,52.92559491762679,1.9261264533597426,
2023-08-17 13:37:10.179000,-9.55421686746988,-0.9879518072289157,-1.6626506024096386,-0.8412017167381973,-9.484365419987737,-1.2728387492335989,2.0,1.9245421245421244,519.604111153407,0.05803857584056938,0.014451372297651493,-0.020278538546704597,1405.8608058608058,-1.0,52.92559491762679,1.9261144090062206,
2023-08-17 13:37:10.187000,-9.55421686746988,-1.0,-1.6626506024096386,-0.8240343347639485,-9.49662783568363,-1.2826486817903127,2.0,1.9245421245421244,519.604111153407,-0.034613367519376124,0.16887127789755835,0.16327719829846735,1408.058608058608,-1.0,52.92559491762679,1.9261024990779068,
2023-08-17 13:37:10.195000,-9.566265060240964,-1.0,-1.6506024096385543,-0.9245861434702636,-9.501532801961986,-1.356223175965665,2.0,1.9245421245421244,519.604111153407,-0.06642969523920522,-0.12365246780490702,0.31478352077384764,1410.2564102564102,-1.0,52.92559491762679,1.9260907196120383,
2023-08-17 13:37:10.202000,-9.55421686746988,-0.9879518072289157,-1.6506024096385543,-0.9098712446351931,-9.526057633353771,-1.280196198651134,2.0,1.9245421245421244,519.604111153407,0.10046034613367542,0.2425266592855893,0.3735213565643029,1411.7216117216117,-1.0,52.92559491762679,1.926079066127759,
2023-08-17 13:37:10.210000,-9.530120481927712,-1.0,-1.6506024096385543,-0.8632740649908032,-9.5113427345187,-1.3120784794604536,2.0,1.9245421245421244,519.604111153407,-0.13006235067886518,-0.17038634112231268,0.2633879144571994,1410.2564102564102,-1.0,52.92559491762679,1.9260675336399489,
2023-08-17 13:37:10.218000,-9.518072289156628,-0.9879518072289157,-1.6626506024096386,-0.8951563458001226,-9.506437768240342,-1.2507664009809931,2.0,1.9245421245421244,519.604111153407,-0.19217994289377077,-0.019229648621874467,0.12481790105471711,1406.5934065934066,-1.0,52.92559491762679,1.92605611667518,
2023-08-17 13:37:10.225000,-9.542168674698795,-1.0120481927710845,-1.6506024096385543,-0.9025137952176578,-9.49417535254445,-1.285101164929491,2.0,1.9245421245421244,519.604111153407,-0.2838995396538661,-0.5266592855894171,0.29275683235242705,1401.4652014652013,-1.0,52.92559491762679,1.926044809289754,
2023-08-17 13:37:10.233000,-9.530120481927712,-1.0,-1.6626506024096386,-0.8877988963825874,-9.530962599632128,-1.2507664009809931,2.0,1.9245421245421244,519.604111153407,-0.08379465066138284,-0.004428646349280464,0.44601130470252337,1394.139194139194,-1.0,52.92559491762679,1.9260336050897897,
2023-08-17 13:37:10.241000,-9.55421686746988,-0.9879518072289157,-1.63855421686747,-0.8461066830165542,-9.516247700797056,-1.3390557939914163,2.0,1.9245421245421244,519.604111153407,-0.464192063399569,-0.11374628518151682,0.03228250101975418,1387.5457875457876,-1.0,52.92559491762679,1.9260224972532716,
2023-08-17 13:37:10.248000,-9.530120481927712,-0.9879518072289157,-1.6265060240963856,-0.9049662783568363,-9.486817903126916,-1.30226854690374,2.0,1.9245421245421244,519.604111153407,-0.17248412097197122,-0.603927510051861,0.11083270205698983,1383.8827838827838,-1.0,52.92559491762679,1.926011478554008,
2023-08-17 13:37:10.256000,-9.566265060240964,-0.9879518072289157,-1.6506024096385543,-0.8240343347639485,-9.5113427345187,-1.2703862660944205,2.0,1.9245421245421244,519.604111153407,0.1630441116485061,0.07039216828856061,0.09661441640930002,1382.4175824175823,-1.0,52.92559491762679,1.9260005413874102,
2023-08-17 13:37:10.264000,-9.542168674698795,-0.9879518072289157,-1.6506024096385543,-0.838749233599019,-9.523605150214593,-1.2434089515634579,2.0,1.9245421245421244,519.604111153407,-0.45009032107686,-0.4216537497814821,-0.2687489074063283,1378.7545787545787,-1.0,52.92559491762679,1.9259896777980094,
2023-08-17 13:37:10.271000,-9.518072289156628,-0.9879518072289157,-1.6506024096385543,-0.8485591661557327,-9.52851011649295,-1.331698344573881,2.0,1.9230769230769231,520.0,-0.4792261523221264,-0.3153662373987527,-0.27620768020511616,1375.8241758241757,-1.0,52.92559491762679,1.9259788799664777,
2023-08-17 13:37:10.279000,-9.542168674698795,-0.9879518072289157,-1.674698795180723,-0.8828939301042305,-9.486817903126916,-1.2483139178418148,2.0,1.9245421245421244,519.604111153407,-0.20092069226735085,-0.14777693607598702,-0.01165433249810621,1376.5567765567764,-1.0,52.92559491762679,1.9259681392224972,
2023-08-17 13:37:10.286000,-9.55421686746988,-0.9518072289156627,-1.63855421686747,-0.8191293684855916,-9.533415082771306,-1.2409564684242795,2.0,1.9245421245421244,519.604111153407,-0.23320319328710504,-0.16211176504865768,-0.026105704795757703,1380.2197802197802,-1.0,52.92559491762679,1.9259574460762134,
2023-08-17 13:37:10.294000,-9.542168674698795,-0.963855421686747,-1.63855421686747,-0.9123237277743715,-9.526057633353771,-1.2949110974862048,2.0,1.9245421245421244,519.604111153407,0.04009090379348585,-0.15873200862420647,0.07750131111240595,1384.6153846153845,-1.0,52.92559491762679,1.9259467912681025,
2023-08-17 13:37:10.302000,-9.530120481927712,-0.9759036144578314,-1.63855421686747,-0.8608215818516247,-9.491722869405272,-1.2385039852851012,2.0,1.9245421245421244,519.604111153407,0.06945982168871218,-0.10838529223238792,-0.03333139094458345,1389.7435897435896,-1.0,52.92559491762679,1.9259361653443798,
2023-08-17 13:37:10.309000,-9.518072289156628,-0.9879518072289157,-1.602409638554217,-0.927038626609442,-9.49417535254445,-1.25567136725935,2.0,1.9245421245421244,519.604111153407,-0.3743371598391705,-0.11712604160596629,0.08647514713594771,1392.6739926739926,-1.0,52.92559491762679,1.9259255591491817,
2023-08-17 13:37:10.317000,-9.530120481927712,-0.9759036144578314,-1.63855421686747,-0.9172286940527283,-9.501532801961986,-1.3096259963212753,2.0,1.9245421245421244,519.604111153407,-0.11293048190664923,-0.15640114212458453,-0.039158557193636555,1394.139194139194,-1.0,52.92559491762679,1.9259149633347044,
2023-08-17 13:37:10.325000,-9.530120481927712,-0.9879518072289157,-1.63855421686747,-0.8583690987124463,-9.484365419987737,-1.25567136725935,2.0,1.9245421245421244,519.604111153407,-0.46570712662432334,0.01736495542217761,0.049181283142008016,1394.139194139194,-1.0,52.92559491762679,1.9259043679761216,
2023-08-17 13:37:10.332000,-9.566265060240964,-0.963855421686747,-1.6626506024096386,-0.8485591661557327,-9.489270386266094,-1.2188841201716738,2.0,1.9245421245421244,519.604111153407,-0.08041489423693338,0.21816910436454764,-0.0611852456150576,1393.4065934065934,-1.0,52.92559491762679,1.9258937631003097,
2023-08-17 13:37:10.340000,-9.566265060240964,-0.963855421686747,-1.6265060240963856,-0.8902513795217657,-9.518700183936234,-1.2483139178418148,2.0,1.9245421245421244,519.604111153407,-0.0033797564244512,0.26478643435697247,-0.12493444437969795,1393.4065934065934,-1.0,52.92559491762679,1.9258831387224122,
2023-08-17 13:37:10.348000,-9.578313253012048,-0.9759036144578314,-1.6265060240963856,-0.8068669527896996,-9.506437768240342,-1.285101164929491,2.0,1.9245421245421244,519.604111153407,-0.10920109550725551,0.03239904434473502,-0.06608006526426184,1391.9413919413919,-1.0,52.92559491762679,1.9258724848827966,
2023-08-17 13:37:10.355000,-9.55421686746988,-0.9879518072289157,-1.6506024096385543,-0.9221336603310851,-9.49662783568363,-1.2752912323727774,2.0,1.9245421245421244,519.604111153407,-0.13600606025289824,0.38319445253773143,0.026105704795757703,1391.2087912087911,-1.0,52.92559491762679,1.9258617916842287,
2023-08-17 13:37:10.363000,-9.542168674698795,-0.9879518072289157,-1.6265060240963856,-0.9711833231146535,-9.49417535254445,-1.30226854690374,2.0,1.9245421245421244,519.604111153407,-0.056640055940795866,-0.0949828098595657,-0.03542917079424284,1389.0109890109889,-1.0,52.92559491762679,1.925851049329146,
2023-08-17 13:37:10.371000,-9.530120481927712,-1.0,-1.602409638554217,-0.9294911097486205,-9.469650521152667,-1.260576333537707,2.0,1.9245421245421244,519.604111153407,-0.09882873958394024,0.1333255637783338,0.18029252374570245,1386.080586080586,-1.0,52.92559491762679,1.925840248156886,
2023-08-17 13:37:10.378000,-9.542168674698795,-1.0,-1.6265060240963856,-0.9000613120784794,-9.49417535254445,-1.2458614347026364,2.0,1.9245421245421244,519.604111153407,0.04067362041839003,-0.11234776528174331,-0.23331973661208544,1380.952380952381,-1.0,52.92559491762679,1.925829379138566,
2023-08-17 13:37:10.386000,-9.530120481927712,-0.9879518072289157,-1.6144578313253013,-0.8019619865113427,-9.484365419987737,-1.2409564684242795,2.0,1.9245421245421244,519.604111153407,-0.01969582192179955,0.16246139502360019,-0.10512207913291756,1375.8241758241757,-1.0,52.92559491762679,1.925818433388643,
2023-08-17 13:37:10.394000,-9.530120481927712,-0.9759036144578314,-1.602409638554217,-0.8632740649908032,-9.47946045370938,-1.2507664009809931,2.0,1.9245421245421244,519.604111153407,0.16525843482314548,0.6170969057747215,-0.20721403181632775,1372.8937728937728,-1.0,52.92559491762679,1.9258074017799585,
2023-08-17 13:37:10.401000,-9.518072289156628,-0.9759036144578314,-1.6626506024096386,-0.8755364806866952,-9.440220723482526,-1.2335990190067443,2.0,1.9245421245421244,519.604111153407,0.1333255637783338,0.19963871569255817,-0.29357263562729463,1370.6959706959706,-1.0,52.92559491762679,1.925796275471294,
2023-08-17 13:37:10.409000,-9.506024096385543,-0.9759036144578314,-1.6506024096385543,-0.8877988963825874,-9.454935622317596,-1.2581238503985284,2.0,1.9245421245421244,519.604111153407,0.25359827515878963,0.3793485228133551,-0.5337684284132624,1369.230769230769,-1.0,52.92559491762679,1.9257850459414785,
2023-08-17 13:37:10.417000,-9.506024096385543,-0.9518072289156627,-1.6265060240963856,-0.9123237277743715,-9.506437768240342,-1.2164316370324952,2.0,1.9230769230769231,520.0,0.1287803741040725,0.6641804090670714,-0.31571586737369606,1366.3003663003662,-1.0,52.92559491762679,1.9257737050225712,
2023-08-17 13:37:10.424000,-9.518072289156628,-0.9518072289156627,-1.602409638554217,-0.8412017167381973,-9.452483139178417,-1.2728387492335989,2.0,1.9230769230769231,520.0,-0.01048889924829611,0.8268748907406333,-0.32748674319678356,1361.904761904762,-1.0,52.92559491762679,1.925762244897206,
2023-08-17 13:37:10.432000,-9.518072289156628,-0.9518072289156627,-1.63855421686747,-0.8706315144083384,-9.503985285101164,-1.2483139178418148,2.0,1.9245421245421244,519.604111153407,-0.06980945166365643,0.7771108909737189,-0.6590525027679037,1361.1721611721612,-1.0,52.92559491762679,1.925750657990108,
2023-08-17 13:37:10.440000,-9.55421686746988,-0.963855421686747,-1.63855421686747,-0.9074187614960146,-9.5113427345187,-1.213979153893317,2.0,1.9245421245421244,519.604111153407,-0.06980945166365643,0.7724491579744768,-0.6524095332439835,1361.1721611721612,-1.0,52.92559491762679,1.9257389369964837,
2023-08-17 13:37:10.447000,-9.518072289156628,-0.9759036144578314,-1.6506024096385543,-0.8951563458001226,-9.450030656039239,-1.2483139178418148,2.0,1.9245421245421244,519.604111153407,0.08542625721111802,0.7836373171726596,-0.6925004370374684,1361.904761904762,-1.0,52.92559491762679,1.9257270750471787,
2023-08-17 13:37:10.455000,-9.542168674698795,-1.0,-1.6506024096385543,-0.9711833231146535,-9.427958307786634,-1.2434089515634579,2.0,1.9245421245421244,519.604111153407,0.16199522172367511,0.8387623098887012,-0.582017364955422,1364.8351648351647,-1.0,52.92559491762679,1.925715065767695,
2023-08-17 13:37:10.463000,-9.55421686746988,-0.9879518072289157,-1.63855421686747,-0.9319435928877988,-9.486817903126916,-1.2875536480686696,2.0,1.9245421245421244,519.604111153407,0.25173358195909273,1.1855952450323404,-0.25977507138278655,1369.9633699633698,-1.0,52.92559491762679,1.9257029037587265,
2023-08-17 13:37:10.470000,-9.566265060240964,-1.0,-1.6265060240963856,-0.9393010423053341,-9.49662783568363,-1.3047210300429184,2.0,1.9245421245421244,519.604111153407,-0.1491754559757588,1.2569197599207511,-0.6876056173882638,1374.3589743589744,-1.0,52.92559491762679,1.9256905840920735,
2023-08-17 13:37:10.478000,-9.530120481927712,-1.0,-1.6506024096385543,-0.9196811771919068,-9.50889025137952,-1.3047210300429184,2.0,1.9245421245421244,519.604111153407,0.07738476778742467,1.158207563661792,-0.5313210185886601,1378.7545787545787,-1.0,52.92559491762679,1.9256781019088383,
2023-08-17 13:37:10.486000,-9.542168674698795,-1.036144578313253,-1.6626506024096386,-0.86817903126916,-9.538320049049663,-1.2581238503985284,2.0,1.9245421245421244,519.604111153407,0.015849892197425,1.1325680321659575,-0.6045102266767669,1382.4175824175823,-1.0,52.92559491762679,1.9256654529290176,
2023-08-17 13:37:10.493000,-9.590361445783133,-1.036144578313253,-1.674698795180723,-0.9932556713672593,-9.550582464745554,-1.2875536480686696,2.0,1.9245421245421244,519.604111153407,-0.15255521240021,0.7549676592273183,-0.4161762135073715,1385.3479853479853,-1.0,52.92559491762679,1.9256526339244857,
2023-08-17 13:37:10.501000,-9.566265060240964,-1.036144578313253,-1.6506024096385543,-0.9294911097486205,-9.545677498467198,-1.3194359288779889,2.0,1.9245421245421244,519.604111153407,0.04428646349280291,0.823495134316182,0.07668550783753879,1385.3479853479853,-1.0,52.92559491762679,1.9256396422071231,
2023-08-17 13:37:10.509000,-9.578313253012048,-1.0120481927710845,-1.6626506024096386,-0.9417535254445125,-9.54322501532802,-1.2728387492335989,2.0,1.9245421245421244,519.604111153407,-0.0026804964745644456,1.3035370899131744,-0.44018413845347026,1383.8827838827838,-1.0,52.92559491762679,1.9256264756769401,
2023-08-17 13:37:10.516000,-9.590361445783133,-1.0602409638554218,-1.6867469879518073,-0.9196811771919068,-9.575107296137338,-1.290006131207848,2.0,1.9245421245421244,519.604111153407,0.1778451139211001,0.32806945982168817,0.18926635976924422,1381.6849816849815,-1.0,52.92559491762679,1.9256131327984318,
2023-08-17 13:37:10.524000,-9.590361445783133,-1.0602409638554218,-1.6867469879518073,-0.9662783568362967,-9.503985285101164,-1.3243408951563458,2.0,1.9245421245421244,519.604111153407,-0.022609405046325665,0.44030068177845066,0.5406444845871452,1380.952380952381,1057.06787109375,56.76078295513598,1.9255996126442143,
2023-08-17 13:37:10.532000,-9.55421686746988,-1.0240963855421688,-1.674698795180723,-0.9858982219497241,-9.474555487431024,-1.280196198651134,2.0,1.9245421245421244,519.604111153407,-0.05512499271604152,-0.31688130062350706,0.20068760561738833,1380.2197802197802,-1.0,56.76078295513598,1.925585914866866,
2023-08-17 13:37:10.539000,-9.530120481927712,-1.0240963855421688,-1.6626506024096386,-0.9368485591661557,-9.503985285101164,-1.2777437155119558,2.0,1.9245421245421244,519.604111153407,-0.16246139502360019,-0.10477244915797505,0.2748091603053435,1380.2197802197802,-1.0,56.76078295513598,1.925572039280174,
2023-08-17 13:37:10.547000,-9.542168674698795,-1.0481927710843375,-1.6626506024096386,-0.9515634580012262,-9.486817903126916,-1.2998160637645615,2.0,1.9245421245421244,519.604111153407,-0.11386282850649766,0.030650894470019004,0.838296136588777,1382.4175824175823,-1.0,56.76078295513598,1.925557986351608,
2023-08-17 13:37:10.555000,-9.542168674698795,-1.0120481927710845,-1.6867469879518073,-0.8951563458001226,-9.457388105456774,-1.3120784794604536,2.0,1.9245421245421244,519.604111153407,-0.27947089330458563,-0.7048540294854615,0.6783986947147603,1385.3479853479853,-1.0,56.76078295513598,1.9255437576580996,
2023-08-17 13:37:10.562000,-9.518072289156628,-1.0,-1.6626506024096386,-0.8902513795217657,-9.491722869405272,-1.30226854690374,2.0,1.9245421245421244,519.604111153407,-0.7508886428529804,-0.49962123419381094,0.6751354816152905,1387.5457875457876,-1.0,56.76078295513598,1.9255293553569697,
2023-08-17 13:37:10.570000,-9.518072289156628,-1.0,-1.6987951807228916,-0.9000613120784794,-9.484365419987737,-1.2728387492335989,2.0,1.9230769230769231,520.0,-0.34858108501835533,-0.4038226210593794,0.4567332906007807,1387.5457875457876,-1.0,56.76078295513598,1.9255147822169112,
2023-08-17 13:37:10.578000,-9.530120481927712,-0.9759036144578314,-1.6626506024096386,-0.8583690987124463,-9.435315757204169,-1.3218884120171672,2.0,1.9230769230769231,520.0,-0.4206048598566511,-0.3728220966144162,0.23763183963638465,1387.5457875457876,-1.0,56.76078295513598,1.9255000410846723,
2023-08-17 13:37:10.585000,-9.506024096385543,-0.963855421686747,-1.6626506024096386,-0.8240343347639485,-9.49417535254445,-1.3439607602697732,2.0,1.9245421245421244,519.604111153407,-0.37200629333954854,-0.35685566109201033,0.12924654740399757,1386.8131868131868,-1.0,56.76078295513598,1.9254851343818251,
2023-08-17 13:37:10.593000,-9.506024096385543,-0.963855421686747,-1.6867469879518073,-0.8534641324340895,-9.450030656039239,-1.2826486817903127,2.0,1.9230769230769231,520.0,-0.44624439135248545,-0.43260882232970155,0.034380280869413145,1383.8827838827838,-1.0,56.76078295513598,1.9254700655301975,
2023-08-17 13:37:10.601000,-9.493975903614459,-0.9759036144578314,-1.674698795180723,-0.8632740649908032,-9.474555487431024,-1.2924586143470262,2.0,1.9245421245421244,519.604111153407,-0.35289318804265496,-0.35102849484295806,0.29497115552706726,1380.2197802197802,-1.0,56.76078295513598,1.9254548385113999,
2023-08-17 13:37:10.608000,-9.542168674698795,-0.963855421686747,-1.710843373493976,-0.9294911097486205,-9.50889025137952,-1.2875536480686696,2.0,1.9245421245421244,519.604111153407,-0.5633704329584518,-0.3468329351436393,-0.043470660217936184,1375.091575091575,-1.0,56.76078295513598,1.9254394578129224,
2023-08-17 13:37:10.616000,-9.55421686746988,-0.9759036144578314,-1.6867469879518073,-0.8927038626609441,-9.454935622317596,-1.280196198651134,2.0,1.9245421245421244,519.604111153407,-0.2836664530039044,-0.06782821513897873,-0.13507371365305068,1369.9633699633698,-1.0,56.76078295513598,1.925423929392626,
2023-08-17 13:37:10.624000,-9.542168674698795,-0.9759036144578314,-1.6626506024096386,-0.8951563458001226,-9.499080318822807,-1.3194359288779889,2.0,1.9245421245421244,519.604111153407,-0.6809626478643431,0.012237049123012128,-0.30336227492570356,1362.6373626373625,-1.0,56.76078295513598,1.9254082596760007,
2023-08-17 13:37:10.631000,-9.55421686746988,-0.9759036144578314,-1.6506024096385543,-0.9172286940527283,-9.518700183936234,-1.2875536480686696,2.0,1.9245421245421244,519.604111153407,-0.5223471825651193,-0.002214323174639364,-0.33494551599557143,1356.0439560439559,-1.0,56.76078295513598,1.9253924551141526,
2023-08-17 13:37:10.639000,-9.530120481927712,-0.963855421686747,-1.6265060240963856,-0.8828939301042305,-9.435315757204169,-1.2679337829552422,2.0,1.9230769230769231,520.0,-0.42596585280578,-0.13857001340248185,-0.625371481848377,1350.9157509157508,-1.0,56.76078295513598,1.9253765226539128,
2023-08-17 13:37:10.647000,-9.530120481927712,-0.9879518072289157,-1.63855421686747,-0.8755364806866952,-9.506437768240342,-1.280196198651134,2.0,1.9245421245421244,519.604111153407,-0.4685041664238686,-0.12167123128022758,-0.45498514072606466,1347.985347985348,-1.0,56.76078295513598,1.9253604696795592,
2023-08-17 13:37:10.654000,-9.542168674698795,-0.9759036144578314,-1.6626506024096386,-0.9025137952176578,-9.46229307173513,-1.2875536480686696,2.0,1.9245421245421244,519.604111153407,-0.6624322591923554,0.1537206456500201,-0.37468678981411346,1347.2527472527472,-1.0,56.76078295513598,1.925344303883899,
2023-08-17 13:37:10.662000,-9.530120481927712,-0.9759036144578314,-1.63855421686747,-0.8730839975475169,-9.503985285101164,-1.2434089515634579,2.0,1.9245421245421244,519.604111153407,-0.4733989860730724,0.07645242118757625,-0.5099935901171262,1345.7875457875457,-1.0,56.76078295513598,1.9253280333466725,
2023-08-17 13:37:10.669000,-9.542168674698795,-0.963855421686747,-1.6626506024096386,-0.8534641324340895,-9.452483139178417,-1.2385039852851012,2.0,1.9245421245421244,519.604111153407,-0.24031233611094996,-0.015616805547461593,-0.3225919235475789,1345.054945054945,-1.0,56.76078295513598,1.9253116670004342,
2023-08-17 13:37:10.677000,-9.566265060240964,-0.963855421686747,-1.63855421686747,-0.8338442673206621,-9.545677498467198,-1.2507664009809931,2.0,1.9230769230769231,520.0,-0.3913524852864056,-0.18378882349513492,0.1554687955247361,1345.054945054945,-1.0,56.76078295513598,1.9252952145360813,
2023-08-17 13:37:10.685000,-9.55421686746988,-0.963855421686747,-1.6265060240963856,-0.9025137952176578,-9.533415082771306,-1.25567136725935,2.0,1.9245421245421244,519.604111153407,-0.021560515121496402,-0.2887943593030716,0.08134724083678094,1347.985347985348,-1.0,56.76078295513598,1.925278684936416,
2023-08-17 13:37:10.692000,-9.566265060240964,-0.963855421686747,-1.6506024096385543,-0.8362967504598405,-9.49417535254445,-1.2385039852851012,2.0,1.9230769230769231,520.0,0.08600897383602393,-0.5146553231163684,-0.08530971388613719,1354.5787545787546,-1.0,56.76078295513598,1.9252620869398152,
2023-08-17 13:37:10.700000,-9.530120481927712,-0.963855421686747,-1.63855421686747,-0.8534641324340895,-9.5113427345187,-1.3194359288779889,2.0,1.9230769230769231,520.0,0.4517219276265952,-0.09964454285880783,-0.19124759629392235,1361.1721611721612,-1.0,56.76078295513598,1.925245429993533,
2023-08-17 13:37:10.708000,-9.530120481927712,-0.963855421686747,-1.6626506024096386,-0.8608215818516247,-9.499080318822807,-1.25567136725935,2.0,1.9230769230769231,520.0,0.3278363731717265,-0.1434648330516874,-0.41687547345725784,1367.032967032967,-1.0,56.76078295513598,1.9252287236267698,
2023-08-17 13:37:10.715000,-9.518072289156628,-0.963855421686747,-1.6506024096385543,-0.8927038626609441,-9.49417535254445,-1.2998160637645615,2.0,1.9245421245421244,519.604111153407,0.3252724200221429,-0.14288211642678147,-0.41186411048307187,1370.6959706959706,-1.0,56.76078295513598,1.9252119769273142,
2023-08-17 13:37:10.723000,-9.506024096385543,-0.9518072289156627,-1.6265060240963856,-0.8657265481299815,-9.535867565910484,-1.2752912323727774,2.0,1.9230769230769231,520.0,0.44694365130237224,-0.0033797564244512,0.12703222422935734,1370.6959706959706,-1.0,56.76078295513598,1.9251951990698617,
2023-08-17 13:37:10.731000,-9.530120481927712,-0.963855421686747,-1.6506024096385543,-0.8436541998773758,-9.52851011649295,-1.285101164929491,2.0,1.9230769230769231,520.0,0.24928617213449172,-0.09358428995979219,-0.024357554921041684,1371.4285714285713,-1.0,56.76078295513598,1.9251783998093916,
2023-08-17 13:37:10.738000,-9.542168674698795,-0.9518072289156627,-1.6867469879518073,-0.86817903126916,-9.469650521152667,-1.2826486817903127,2.0,1.9245421245421244,519.604111153407,0.2954373288269915,0.012120505798029556,0.05256103956645878,1369.9633699633698,-1.0,56.76078295513598,1.925161589310634,
2023-08-17 13:37:10.746000,-9.518072289156628,-0.9759036144578314,-1.6506024096385543,-0.8608215818516247,-9.516247700797056,-1.3096259963212753,2.0,1.9230769230769231,520.0,0.44799254122720145,0.1604801584989225,-0.06945982168871305,1368.4981684981683,-1.0,56.76078295513598,1.9251447785071256,
2023-08-17 13:37:10.754000,-9.530120481927712,-0.963855421686747,-1.6506024096385543,-0.8461066830165542,-9.442673206621704,-1.3218884120171672,2.0,1.9230769230769231,520.0,0.4926286346949486,0.14101742322708463,0.1304119806538081,1368.4981684981683,-1.0,56.76078295513598,1.925127977702569,
2023-08-17 13:37:10.761000,-9.530120481927712,-0.9759036144578314,-1.674698795180723,-0.9221336603310851,-9.513795217657878,-1.2483139178418148,2.0,1.9230769230769231,520.0,0.04696695996736735,0.27259483713070415,0.16048015849892205,1367.032967032967,-1.0,56.76078295513598,1.9251111960851415,
2023-08-17 13:37:10.769000,-9.542168674698795,-0.9759036144578314,-1.6506024096385543,-0.8608215818516247,-9.526057633353771,-1.2777437155119558,2.0,1.9245421245421244,519.604111153407,-0.07540353126274699,-0.08437736728628875,0.2215488607889984,1367.7655677655678,-1.0,56.76078295513598,1.9250944421873415,
2023-08-17 13:37:10.777000,-9.566265060240964,-1.0,-1.674698795180723,-0.9172286940527283,-9.513795217657878,-1.3267933782955241,2.0,1.9230769230769231,520.0,0.07924946098712153,0.3561564011421253,-0.038342753918769394,1371.4285714285713,-1.0,56.76078295513598,1.925077724871069,
2023-08-17 13:37:10.784000,-9.566265060240964,-0.9879518072289157,-1.674698795180723,-0.8877988963825874,-9.518700183936234,-1.3709380748007356,2.0,1.9230769230769231,520.0,0.3531262746926166,0.19893945574267316,0.34345317871918896,1377.2893772893772,-1.0,56.76078295513598,1.925061052837952,
2023-08-17 13:37:10.792000,-9.578313253012048,-1.0,-1.6867469879518073,-0.8877988963825874,-9.548129981606376,-1.3488657265481299,2.0,1.9230769230769231,520.0,0.4577821805256108,0.012936309072897147,0.15861546529922477,1383.150183150183,-1.0,56.76078295513598,1.9250444336480839,
2023-08-17 13:37:10.800000,-9.542168674698795,-1.0120481927710845,-1.674698795180723,-0.8927038626609441,-9.516247700797056,-1.2949110974862048,2.0,1.9230769230769231,520.0,0.2690985373812721,-0.32399044344735195,0.04824893654215959,1389.0109890109889,-1.0,56.76078295513598,1.9250278750940153,
2023-08-17 13:37:10.807000,-9.542168674698795,-1.0,-1.674698795180723,-0.9098712446351931,-9.481912936848559,-1.290006131207848,2.0,1.9245421245421244,519.604111153407,0.14323174640172398,-0.4577821805256108,-0.08880601363556921,1397.069597069597,-1.0,56.76078295513598,1.9250113851004735,
2023-08-17 13:37:10.815000,-9.530120481927712,-1.0,-1.6626506024096386,-0.9515634580012262,-9.50889025137952,-1.3194359288779889,2.0,1.9230769230769231,520.0,0.5674494493327897,-0.5751413087815388,0.06200104888992476,1407.3260073260071,-1.0,56.76078295513598,1.924994971697181,
2023-08-17 13:37:10.823000,-9.530120481927712,-1.0120481927710845,-1.674698795180723,-0.9589209074187615,-9.530962599632128,-1.285101164929491,2.0,1.9230769230769231,520.0,0.5314375619136418,-0.6453003904201394,0.05920400909037948,1417.5824175824175,-1.0,56.76078295513598,1.924978642572234,
2023-08-17 13:37:10.830000,-9.518072289156628,-1.0120481927710845,-1.674698795180723,-0.9221336603310851,-9.49417535254445,-1.3488657265481299,2.0,1.9230769230769231,520.0,0.20465007866674456,-0.6856243808635852,0.11689295495600505,1429.3040293040292,-1.0,56.76078295513598,1.9249624045226468,
2023-08-17 13:37:10.838000,-9.542168674698795,-0.9879518072289157,-1.674698795180723,-0.8976088289393009,-9.499080318822807,-1.3194359288779889,2.0,1.9230769230769231,520.0,0.29567041547695316,-0.6191946856243801,-0.20616514189149804,1441.7582417582416,-1.0,56.76078295513598,1.924946263431306,
2023-08-17 13:37:10.846000,-9.542168674698795,-0.9879518072289157,-1.6867469879518073,-0.9098712446351931,-9.533415082771306,-1.30226854690374,2.0,1.9230769230769231,520.0,-0.041372880368276785,-0.4160596701823898,-0.34333663539420767,1453.4798534798533,-1.0,56.76078295513598,1.9249302247704654,
2023-08-17 13:37:10.853000,-9.542168674698795,-1.0120481927710845,-1.674698795180723,-0.9172286940527283,-9.47946045370938,-1.260576333537707,2.0,1.9230769230769231,520.0,-0.07085834158848568,-0.39683002156051533,-0.1418332265019522,1468.131868131868,-1.0,56.76078295513598,1.9249142940027588,
2023-08-17 13:37:10.861000,-9.542168674698795,-1.0,-1.6506024096385543,-0.8362967504598405,-9.489270386266094,-1.2703862660944205,2.0,1.9230769230769231,520.0,-0.026688421420663622,-0.30033214847619527,0.3202610570479574,1483.5164835164835,-1.0,56.76078295513598,1.9248984760707135,
2023-08-17 13:37:10.869000,-9.566265060240964,-0.9879518072289157,-1.6265060240963856,-0.9074187614960146,-9.526057633353771,-1.3366033108522377,2.0,1.9230769230769231,520.0,-0.025289901520890112,-0.3896043354116896,0.25686148825826,1495.2380952380952,-1.0,56.76078295513598,1.9248827753806652,
2023-08-17 13:37:10.876000,-9.55421686746988,-0.9759036144578314,-1.63855421686747,-0.8951563458001226,-9.489270386266094,-1.30226854690374,2.0,1.9216117216117214,520.3964925657644,-0.25138395198415026,-0.23530097313676357,-0.23052269681254017,1503.2967032967033,-1.0,56.76078295513598,1.9248671957885126,
2023-08-17 13:37:10.884000,-9.55421686746988,-0.9879518072289157,-1.63855421686747,-0.838749233599019,-9.486817903126916,-1.2973635806253832,2.0,1.9230769230769231,520.0,-0.3538255346425034,-0.49391061126973956,-0.02797039799545499,1507.6923076923076,-1.0,56.76078295513598,1.924851740552585,
2023-08-17 13:37:10.892000,-9.55421686746988,-1.0,-1.63855421686747,-0.9049662783568363,-9.540772532188841,-1.2752912323727774,2.0,1.9230769230769231,520.0,0.017831128722102692,-0.5367985548627707,-0.13227667385350497,1506.9597069597069,-1.0,56.76078295513598,1.9248364122186539,
2023-08-17 13:37:10.899000,-9.55421686746988,-1.0,-1.63855421686747,-0.9809932556713672,-9.550582464745554,-1.2679337829552422,2.0,1.9230769230769231,520.0,-0.1806421537206454,-0.5021851873433946,-0.17493153079657356,1504.7619047619046,-1.0,56.76078295513598,1.9248212127150266,
2023-08-17 13:37:10.907000,-9.55421686746988,-1.0120481927710845,-1.63855421686747,-0.8657265481299815,-9.516247700797056,-1.2679337829552422,2.0,1.9230769230769231,520.0,0.0055940795990905645,-0.5580094400093228,-0.0010488899248296977,1501.098901098901,-1.0,56.76078295513598,1.9248061433799177,
2023-08-17 13:37:10.915000,-9.55421686746988,-0.9759036144578314,-1.6265060240963856,-0.9589209074187615,-9.540772532188841,-1.2654812998160636,2.0,1.9230769230769231,520.0,-0.0870578637608532,-0.5230464425150042,-0.3946156983858751,1497.4358974358972,-1.0,56.76078295513598,1.9247912049562361,
2023-08-17 13:37:10.922000,-9.530120481927712,-0.9759036144578314,-1.6144578313253013,-0.8853464132434089,-9.491722869405272,-1.2924586143470262,2.0,1.9230769230769231,520.0,-0.11549443505623284,-0.5828331682302896,-0.2204999708641687,1490.10989010989,-1.0,56.76078295513598,1.9247763975886314,
2023-08-17 13:37:10.930000,-9.55421686746988,-1.0,-1.63855421686747,-0.8583690987124463,-9.454935622317596,-1.2507664009809931,2.0,1.9230769230769231,520.0,0.025289901520890112,-0.7043878561855363,-0.09346774663481136,1478.3882783882782,-1.0,56.76078295513598,1.924761720822841,
2023-08-17 13:37:10.938000,-9.506024096385543,-1.0120481927710845,-1.6144578313253013,-0.8976088289393009,-9.472103004291846,-1.2973635806253832,2.0,1.9230769230769231,520.0,0.22248120738884725,-0.7167414486335293,-0.12213740458015267,1468.8644688644688,-1.0,56.76078295513598,1.9247471736073938,
2023-08-17 13:37:10.945000,-9.542168674698795,-1.0,-1.63855421686747,-0.8779889638258737,-9.435315757204169,-1.2679337829552422,2.0,1.9230769230769231,520.0,0.09719713303420506,-0.3929840918361408,-0.06001981236524664,1462.2710622710622,-1.0,56.76078295513598,1.92473275429768,
2023-08-17 13:37:10.953000,-9.530120481927712,-1.0,-1.602409638554217,-0.8755364806866952,-9.472103004291846,-1.2458614347026364,2.0,1.9230769230769231,520.0,-0.23728220966144126,-0.160829788473865,-0.4090670706835266,1458.6080586080584,-1.0,56.76078295513598,1.9247184606624126,
2023-08-17 13:37:10.961000,-9.493975903614459,-1.0,-1.6265060240963856,-0.9123237277743715,-9.452483139178417,-1.2581238503985284,2.0,1.9230769230769231,520.0,-0.22084960083911206,-0.021793601771458074,-0.29753510867665045,1457.8754578754579,-1.0,56.76078295513598,1.9247042898924807,
2023-08-17 13:37:10.968000,-9.542168674698795,-1.0,-1.6144578313253013,-0.9515634580012262,-9.49417535254445,-1.260576333537707,2.0,1.9230769230769231,520.0,-0.23401899656197264,0.008507662723616683,-0.40289027445953013,1456.4102564102564,-1.0,56.76078295513598,1.9246902386121922,
2023-08-17 13:37:10.976000,-9.518072289156628,-1.0,-1.6506024096385543,-0.9074187614960146,-9.484365419987737,-1.260576333537707,2.0,1.9230769230769231,520.0,-0.20150340889225504,0.19287920284365753,-0.3404230522696811,1452.7472527472526,-1.0,56.76078295513598,1.9246763028928904,
2023-08-17 13:37:10.984000,-9.518072289156628,-1.0120481927710845,-1.6265060240963856,-0.956468424279583,-9.489270386266094,-1.2335990190067443,2.0,1.9230769230769231,520.0,-0.3527766447176741,0.4222364664063863,-0.18600314666977427,1447.6190476190475,-1.0,56.76078295513598,1.9246624782689108,
2023-08-17 13:37:10.991000,-9.530120481927712,-1.0240963855421688,-1.63855421686747,-0.9540159411404046,-9.526057633353771,-1.2703862660944205,2.0,1.9230769230769231,520.0,-0.34811491171843195,0.41990559990676607,-0.18600314666977427,1446.153846153846,-1.0,56.76078295513598,1.9246487597558375,
2023-08-17 13:37:10.999000,-9.542168674698795,-1.0240963855421688,-1.674698795180723,-0.9196811771919068,-9.530962599632128,-1.2777437155119558,2.0,1.9230769230769231,520.0,-0.6668609055416359,0.3107045043995106,0.0588543791154361,1446.153846153846,-1.0,56.76078295513598,1.924635141871016,
2023-08-17 13:37:11.007000,-9.542168674698795,-1.0120481927710845,-1.6867469879518073,-0.8166768853464133,-9.49662783568363,-1.2654812998160636,2.0,1.9230769230769231,520.0,-0.5705961191072775,0.0037293863993937094,0.16490880484820208,1447.6190476190475,-1.0,56.76078295513598,1.9246216186562577,
2023-08-17 13:37:11.014000,-9.55421686746988,-1.0,-1.6506024096385543,-0.9294911097486205,-9.516247700797056,-1.2213366033108521,2.0,1.9230769230769231,520.0,-0.5977507138278662,0.3713070333896618,-0.05151214964162952,1449.8168498168498,-1.0,56.76078295513598,1.9246081837026519,
2023-08-17 13:37:11.022000,-9.578313253012048,-1.0120481927710845,-1.6506024096385543,-0.9294911097486205,-9.577559779276516,-1.3267933782955241,2.0,1.9230769230769231,520.0,-0.39321717848610244,0.4912301147951751,-0.004079016374337087,1454.212454212454,-1.0,56.76078295513598,1.924594830177419,
2023-08-17 13:37:11.030000,-9.566265060240964,-1.0120481927710845,-1.674698795180723,-0.9221336603310851,-9.55793991416309,-1.3292458614347025,2.0,1.9216117216117214,520.3964925657644,-0.5723442689819935,0.027970397995454557,0.2103607015908164,1457.8754578754579,-1.0,56.76078295513598,1.9245815508527027,
2023-08-17 13:37:11.037000,-9.566265060240964,-1.0,-1.6626506024096386,-0.927038626609442,-9.521152667075413,-1.3292458614347025,2.0,1.9230769230769231,520.0,-0.568964512557544,0.17901054717091022,0.45335353417632995,1458.6080586080584,-1.0,56.76078295513598,1.9245683381013952,
2023-08-17 13:37:11.045000,-9.542168674698795,-0.9879518072289157,-1.6626506024096386,-0.8632740649908032,-9.464745554874309,-1.3218884120171672,2.0,1.9230769230769231,520.0,-0.5492686906357445,-0.1117650486568374,0.2665345842316881,1454.212454212454,-1.0,56.76078295513598,1.9245551838248378,
2023-08-17 13:37:11.052000,-9.542168674698795,-1.0120481927710845,-1.6987951807228916,-0.8853464132434089,-9.489270386266094,-1.3096259963212753,2.0,1.9230769230769231,520.0,-1.0915447817726232,0.19252957286871328,0.2802866965794532,1445.4212454212454,-1.0,56.76078295513598,1.924542079590137,
2023-08-17 13:37:11.060000,-9.566265060240964,-1.0,-1.6626506024096386,-0.8779889638258737,-9.518700183936234,-1.3096259963212753,2.0,1.9230769230769231,520.0,-1.050987704679214,-0.20663131519142225,0.2643202610570478,1435.164835164835,-1.0,56.76078295513598,1.924529016699112,
2023-08-17 13:37:11.068000,-9.566265060240964,-0.9879518072289157,-1.674698795180723,-0.86817903126916,-9.54322501532802,-1.2532188841201717,2.0,1.9230769230769231,520.0,-1.0883981119981354,-0.4206048598566511,0.3086067245498516,1424.1758241758241,-1.0,56.76078295513598,1.9245159862238088,
2023-08-17 13:37:11.075000,-9.530120481927712,-0.9879518072289157,-1.6626506024096386,-0.9589209074187615,-9.506437768240342,-1.331698344573881,2.0,1.9230769230769231,520.0,-1.3672862886778152,-0.40289027445953096,-0.1195734514305695,1416.117216117216,-1.0,56.76078295513598,1.924502979043238,
2023-08-17 13:37:11.083000,-9.518072289156628,-1.0120481927710845,-1.6626506024096386,-0.9417535254445125,-9.481912936848559,-1.2654812998160636,2.0,1.9230769230769231,520.0,-1.58394032981761,-0.17271720762193288,-0.07272303478818254,1408.7912087912086,-1.0,56.76078295513598,1.924489985881203,
2023-08-17 13:37:11.091000,-9.481927710843374,-1.0,-1.63855421686747,-0.8632740649908032,-9.489270386266094,-1.290006131207848,2.0,1.9230769230769231,520.0,-1.417866091719597,-0.27888817667968147,-0.011188159198181996,1407.3260073260071,-1.0,56.76078295513598,1.9244769973450755,
2023-08-17 13:37:11.098000,-9.493975903614459,-0.9879518072289157,-1.6626506024096386,-0.8779889638258737,-9.445125689760882,-1.231146535867566,2.0,1.9230769230769231,520.0,-1.895111007517044,-0.5535807936600424,-0.2849484295786958,1407.3260073260071,-1.0,56.76078295513598,1.9244640039653607,
2023-08-17 13:37:11.106000,-9.506024096385543,-1.0,-1.6867469879518073,-0.9049662783568363,-9.398528510116492,-1.2630288166768853,2.0,1.9230769230769231,520.0,-1.9234310354874429,-0.5482198007109135,-0.15966435522405448,1408.058608058608,-1.0,56.76078295513598,1.9244509962359004,
2023-08-17 13:37:11.114000,-9.506024096385543,-1.0,-1.6626506024096386,-0.9123237277743715,-9.50889025137952,-1.3071735131820967,2.0,1.9230769230769231,520.0,-1.9354349979604915,-0.39146902861138644,-0.47969232562205016,1408.7912087912086,-1.0,56.76078295513598,1.9244379646545646,
2023-08-17 13:37:11.121000,-9.530120481927712,-1.0120481927710845,-1.6626506024096386,-0.9172286940527283,-9.533415082771306,-1.285101164929491,2.0,1.9230769230769231,520.0,-2.450556494376785,-0.2498688887593959,-0.33937416234485185,1409.5238095238094,-1.0,56.76078295513598,1.9244248997642417,
2023-08-17 13:37:11.129000,-9.530120481927712,-1.0,-1.6867469879518073,-0.927038626609442,-9.489270386266094,-1.3243408951563458,2.0,1.9230769230769231,520.0,-2.349280344968242,-0.06561389196433763,-0.5961191072781306,1411.7216117216117,-1.0,56.76078295513598,1.9244117921939905,
2023-08-17 13:37:11.137000,-9.55421686746988,-0.9879518072289157,-1.63855421686747,-0.8951563458001226,-9.530962599632128,-1.2728387492335989,2.0,1.9230769230769231,520.0,-2.5423926344618613,0.013635569022783902,-0.884214206631315,1415.3846153846152,-1.0,56.76078295513598,1.924398632700165,
2023-08-17 13:37:11.144000,-9.530120481927712,-0.9879518072289157,-1.6265060240963856,-0.8730839975475169,-9.457388105456774,-1.3096259963212753,2.0,1.9230769230769231,520.0,-2.2466056756599255,-0.13822038342753934,-1.076627236175048,1416.8498168498168,-1.0,56.76078295513598,1.924385412207352,
2023-08-17 13:37:11.152000,-9.530120481927712,-0.9759036144578314,-1.674698795180723,-0.8779889638258737,-9.503985285101164,-1.30226854690374,2.0,1.9230769230769231,520.0,-2.547637084086009,-0.060952158965095496,-1.3872151972495772,1416.8498168498168,-1.0,56.76078295513598,1.9243721218489525,
2023-08-17 13:37:11.160000,-9.542168674698795,-0.9759036144578314,-1.6626506024096386,-0.8976088289393009,-9.562844880441446,-1.3047210300429184,2.0,1.9230769230769231,520.0,-2.677932521414836,-0.10535516578287923,-1.2528407435464133,1415.3846153846152,-1.0,56.76078295513598,1.924358753007221,
2023-08-17 13:37:11.167000,-9.542168674698795,-0.9759036144578314,-1.674698795180723,-0.9172286940527283,-9.545677498467198,-1.2875536480686696,2.0,1.9230769230769231,520.0,-2.7914457199463896,-0.21036070159081596,-1.2583182798205235,1416.8498168498168,-1.0,56.76078295513598,1.9243452973526227,
2023-08-17 13:37:11.175000,-9.55421686746988,-0.9759036144578314,-1.6626506024096386,-0.8657265481299815,-9.513795217657878,-1.2703862660944205,2.0,1.9230769230769231,520.0,-2.79703979954548,0.02132742847153473,-1.3400151506322473,1421.245421245421,-1.0,56.76078295513598,1.924331746882314,
2023-08-17 13:37:11.183000,-9.55421686746988,-0.9879518072289157,-1.674698795180723,-0.8730839975475169,-9.521152667075413,-1.2875536480686696,2.0,1.9216117216117214,520.3964925657644,-2.849833925761901,-0.24054542276091162,-1.2375735679738942,1426.3736263736262,-1.0,56.76078295513598,1.9243180939575972,
2023-08-17 13:37:11.190000,-9.542168674698795,-0.9879518072289157,-1.6506024096385543,-0.9098712446351931,-9.54322501532802,-1.2409564684242795,2.0,1.9216117216117214,520.3964925657644,-2.7788590408484364,-0.5441407843365773,-1.227084668725599,1432.9670329670328,-1.0,56.76078295513598,1.924304331305393,
2023-08-17 13:37:11.198000,-9.542168674698795,-1.0,-1.6265060240963856,-0.9540159411404046,-9.47946045370938,-1.2777437155119558,2.0,1.9216117216117214,520.3964925657644,-2.5257269389895685,-0.40149175455975744,-1.3068003030126447,1441.0256410256409,-1.0,56.76078295513598,1.9242904519137156,
2023-08-17 13:37:11.206000,-9.542168674698795,-1.0,-1.6265060240963856,-0.9098712446351931,-9.481912936848559,-1.2679337829552422,2.0,1.9230769230769231,520.0,-2.793660043121029,-0.5369150981877515,-1.4762542975351085,1444.6886446886447,-1.0,56.76078295513598,1.9242764485711563,
2023-08-17 13:37:11.213000,-9.542168674698795,-1.0120481927710845,-1.6144578313253013,-0.9098712446351931,-9.501532801961986,-1.2703862660944205,2.0,1.9230769230769231,520.0,-2.8901579162053506,-0.7295612143814456,-1.5827748965677988,1446.153846153846,-1.0,56.76078295513598,1.9242623144560485,
2023-08-17 13:37:11.221000,-9.518072289156628,-0.9879518072289157,-1.6144578313253013,-0.9491109748620478,-9.454935622317596,-1.2532188841201717,2.0,1.9230769230769231,520.0,-2.7737311345492692,-0.1604801584989225,-1.3380339141075697,1446.153846153846,-1.0,56.76078295513598,1.9242480437232814,
2023-08-17 13:37:11.229000,-9.518072289156628,-0.9759036144578314,-1.602409638554217,-0.9074187614960146,-9.477007970570202,-1.2188841201716738,2.0,1.9230769230769231,520.0,-2.856943068585746,-0.4647747800244749,-1.477769360759862,1443.2234432234432,-1.0,56.76078295513598,1.924233631071499,
2023-08-17 13:37:11.236000,-9.493975903614459,-1.0,-1.6144578313253013,-0.8755364806866952,-9.442673206621704,-1.231146535867566,2.0,1.9230769230769231,520.0,-2.7568323524270153,-0.2515004953091311,-1.6150573975875533,1440.2930402930401,-1.0,56.76078295513598,1.9242190717662728,
2023-08-17 13:37:11.244000,-9.506024096385543,-1.0,-1.5903614457831325,-0.9074187614960146,-9.545677498467198,-1.2458614347026364,2.0,1.9230769230769231,520.0,-2.57945341180584,0.025173358195909275,-2.040090903793485,1435.8974358974358,-1.0,56.76078295513598,1.9242043616613065,
2023-08-17 13:37:11.252000,-9.530120481927712,-1.0120481927710845,-1.602409638554217,-0.8976088289393009,-9.523605150214593,-1.2115266707541386,2.0,1.9230769230769231,520.0,-2.1466115028261767,-0.11328011188159173,-1.9152730027387683,1430.03663003663,-1.0,56.76078295513598,1.9241894972175912,
2023-08-17 13:37:11.259000,-9.566265060240964,-1.0,-1.566265060240964,-0.9123237277743715,-9.545677498467198,-1.2335990190067443,2.0,1.9216117216117214,520.3964925657644,-2.08111415418682,-0.04067362041839003,-1.9586271196317226,1424.1758241758241,-1.0,56.76078295513598,1.9241744755204526,
2023-08-17 13:37:11.267000,-9.566265060240964,-1.0,-1.5783132530120483,-0.9074187614960146,-9.587369711833231,-1.1919068056407112,2.0,1.9230769230769231,520.0,-2.0592040090903776,-0.03985781714352244,-1.9405629042596584,1416.8498168498168,-1.0,56.76078295513598,1.9241592938017702,
2023-08-17 13:37:11.275000,-9.55421686746988,-1.0120481927710845,-1.5903614457831325,-0.8534641324340895,-9.538320049049663,-1.2017167381974247,2.0,1.9216117216117214,520.3964925657644,-1.7213449099702802,0.36944234018996497,-2.2764407668550777,1408.7912087912086,-1.0,56.76078295513598,1.9241439498731359,
2023-08-17 13:37:11.282000,-9.55421686746988,-1.0240963855421688,-1.5903614457831325,-0.9123237277743715,-9.535867565910484,-1.2483139178418148,2.0,1.9230769230769231,520.0,-1.3861663073247488,0.623739875298643,-2.1822737602703794,1402.197802197802,-1.0,56.76078295513598,1.9241284421681253,
2023-08-17 13:37:11.290000,-9.542168674698795,-0.9879518072289157,-1.5783132530120483,-0.8902513795217657,-9.445125689760882,-1.2286940527283874,2.0,1.9230769230769231,520.0,-1.0971388613717155,0.8162694481673564,-1.5981586154653,1395.6043956043954,-1.0,56.76078295513598,1.9241127697124656,
2023-08-17 13:37:11.298000,-9.506024096385543,-0.9879518072289157,-1.5542168674698795,-0.9147762109135499,-9.477007970570202,-1.1943592887798895,2.0,1.9230769230769231,520.0,-0.6883048773381497,0.6560223763183956,-1.9497698269331631,1387.5457875457876,-1.0,56.76078295513598,1.924096932653842,
2023-08-17 13:37:11.305000,-9.506024096385543,-1.0,-1.566265060240964,-0.9343960760269773,-9.499080318822807,-1.2335990190067443,2.0,1.9230769230769231,520.0,-0.6315482780723712,1.2602995163452007,-1.9618903327311934,1383.150183150183,-1.0,56.76078295513598,1.9240809318064667,
2023-08-17 13:37:11.313000,-9.542168674698795,-1.0,-1.602409638554217,-0.9196811771919068,-9.499080318822807,-1.1992642550582464,2.0,1.9230769230769231,520.0,-0.37643493968883074,1.5243866907522865,-1.669250043703747,1381.6849816849815,-1.0,56.76078295513598,1.9240647686513017,
2023-08-17 13:37:11.321000,-9.542168674698795,-0.9879518072289157,-1.5783132530120483,-0.9319435928877988,-9.44757817290006,-1.260576333537707,2.0,1.9230769230769231,520.0,-0.3250393333721795,1.9389312977099236,-1.5609812947963406,1382.4175824175823,-1.0,56.76078295513598,1.9240484453340871,
2023-08-17 13:37:11.328000,-9.518072289156628,-0.9759036144578314,-1.6144578313253013,-0.8608215818516247,-9.47946045370938,-1.2115266707541386,2.0,1.9230769230769231,520.0,0.048598566517100796,1.81551191655498,-1.4696113280111882,1384.6153846153845,-1.0,56.76078295513598,1.9240319646612014,
2023-08-17 13:37:11.336000,-9.518072289156628,-0.963855421686747,-1.6506024096385543,-0.8877988963825874,-9.503985285101164,-1.2679337829552422,2.0,1.9216117216117214,520.3964925657644,-0.23972961948604404,1.9842666511275557,-1.2865217644659397,1386.8131868131868,-1.0,56.76078295513598,1.9240153300934046,
2023-08-17 13:37:11.344000,-9.542168674698795,-1.0,-1.63855421686747,-0.927038626609442,-9.533415082771306,-1.2213366033108521,2.0,1.9230769230769231,520.0,0.5305052153137917,2.366878387040383,-1.0902628051978331,1387.5457875457876,-1.0,56.76078295513598,1.9239985457026927,
2023-08-17 13:37:11.351000,-9.578313253012048,-0.963855421686747,-1.63855421686747,-0.927038626609442,-9.535867565910484,-1.2164316370324952,2.0,1.9216117216117214,520.3964925657644,0.3031291882757406,2.4414661150282626,-1.0790746459996512,1387.5457875457876,-1.0,56.76078295513598,1.9239816165151744,
2023-08-17 13:37:11.359000,-9.566265060240964,-0.9879518072289157,-1.6265060240963856,-0.8927038626609441,-9.58982219497241,-1.331698344573881,2.0,1.9230769230769231,520.0,-0.04545189674261474,2.4220033797564247,-1.0368859623565054,1387.5457875457876,-1.0,56.76078295513598,1.923964548042188,
2023-08-17 13:37:11.367000,-9.566265060240964,-1.036144578313253,-1.6626506024096386,-0.9172286940527283,-9.570202329858981,-1.2483139178418148,2.0,1.9230769230769231,520.0,-0.23891381621117644,2.573160072256861,-0.7652234718256519,1389.0109890109889,-1.0,56.76078295513598,1.9239473457738587,
2023-08-17 13:37:11.374000,-9.55421686746988,-1.036144578313253,-1.6506024096385543,-0.927038626609442,-9.44757817290006,-1.3047210300429184,2.0,1.9230769230769231,520.0,-0.048598566517100796,2.246139502360002,-0.679214497989628,1391.2087912087911,-1.0,56.76078295513598,1.923930015757223,
2023-08-17 13:37:11.382000,-9.55421686746988,-1.0240963855421688,-1.674698795180723,-0.9294911097486205,-9.50889025137952,-1.3758430410790925,2.0,1.9230769230769231,520.0,-0.36384826059087266,2.198007109142823,-0.8669657945341183,1392.6739926739926,-1.0,56.76078295513598,1.923912564610168,
2023-08-17 13:37:11.390000,-9.542168674698795,-1.0481927710843375,-1.6867469879518073,-0.9343960760269773,-9.533415082771306,-1.3782955242182708,2.0,1.9230769230769231,520.0,-0.6145329526251396,2.346716391818658,-0.5983334304527712,1394.8717948717947,-1.0,56.76078295513598,1.9238949994990138,
2023-08-17 13:37:11.397000,-9.542168674698795,-1.0602409638554218,-1.710843373493976,-1.0521152667075413,-9.513795217657878,-1.3807480073574494,2.0,1.9230769230769231,520.0,-0.6499621234193816,2.0229590350212683,-0.48342171202144346,1395.6043956043954,-1.0,56.76078295513598,1.9238773281146775,
2023-08-17 13:37:11.405000,-9.542168674698795,-1.072289156626506,-1.7228915662650603,-0.9540159411404046,-9.477007970570202,-1.356223175965665,2.0,1.9230769230769231,520.0,-0.48516986189615946,1.3691509818775136,-0.7518209894528293,1397.069597069597,-1.0,56.76078295513598,1.9238595586475495,
2023-08-17 13:37:11.412000,-9.55421686746988,-1.072289156626506,-1.7349397590361446,-1.0055180870631515,-9.499080318822807,-1.3415082771305946,2.0,1.9230769230769231,520.0,-1.2988753569139322,1.3277781015092351,-1.0951576248470374,1396.3369963369962,-1.0,56.76078295513598,1.9238416997612007,
2023-08-17 13:37:11.420000,-9.518072289156628,-1.0843373493975905,-1.674698795180723,-0.9883507050889024,-9.489270386266094,-1.331698344573881,2.0,1.9230769230769231,520.0,-1.6015383718897511,1.6086475147135944,-1.3308082279587443,1393.4065934065934,-1.0,56.76078295513598,1.9238237605650703,
2023-08-17 13:37:11.428000,-9.518072289156628,-1.1325301204819278,-1.6987951807228916,-1.0226854690374003,-9.44757817290006,-1.3537706928264868,2.0,1.9230769230769231,520.0,-1.688945865625547,1.8284482256278771,-1.3034205465881934,1389.7435897435896,-1.0,56.76078295513598,1.9238057510441393,
2023-08-17 13:37:11.435000,-9.542168674698795,-1.144578313253012,-1.746987951807229,-1.074187614960147,-9.437768240343347,-1.390557939914163,2.0,1.9230769230769231,520.0,-2.280403239904432,2.246256045684983,-1.7342812190431791,1386.080586080586,-1.0,56.76078295513598,1.9237876815048522,
2023-08-17 13:37:11.443000,-9.566265060240964,-1.1325301204819278,-1.7710843373493976,-1.0398528510116491,-9.489270386266094,-1.4101778050275904,2.0,1.9230769230769231,520.0,-2.3638482605908724,2.26350445778218,-1.7368451721927636,1380.2197802197802,-1.0,56.76078295513598,1.923769562124417,
2023-08-17 13:37:11.451000,-9.566265060240964,-1.1566265060240966,-1.7951807228915664,-1.0668301655426118,-9.503985285101164,-1.4567749846719804,2.0,1.9230769230769231,520.0,-2.583882058155119,1.8683060427713996,-2.090437620185304,1372.8937728937728,-1.0,56.76078295513598,1.923751403870647,
2023-08-17 13:37:11.458000,-9.530120481927712,-1.144578313253012,-1.7951807228915664,-1.0177805027590434,-9.469650521152667,-1.4248927038626609,2.0,1.9230769230769231,520.0,-2.6482139735446655,1.6593438610803555,-2.1667734980479,1367.7655677655678,-1.0,56.76078295513598,1.9237332184036469,
2023-08-17 13:37:11.466000,-9.506024096385543,-1.144578313253012,-1.7831325301204821,-1.1158798283261802,-9.457388105456774,-1.4273451870018392,2.0,1.9230769230769231,520.0,-3.0929433016723964,1.4218285647689524,-2.3026630149758183,1366.3003663003662,-1.0,56.76078295513598,1.923715017556162,
2023-08-17 13:37:11.474000,-9.493975903614459,-1.1927710843373494,-1.7951807228915664,-1.120784794604537,-9.43286327406499,-1.3930104230533413,2.0,1.9230769230769231,520.0,-2.9684750305926237,1.371948021677059,-1.9921915972262692,1367.032967032967,-1.0,56.76078295513598,1.9236968128479934,
2023-08-17 13:37:11.481000,-9.55421686746988,-1.216867469879518,-1.7710843373493976,-1.103617412630288,-9.513795217657878,-1.3832004904966277,2.0,1.9230769230769231,520.0,-2.893537672629802,1.4604044053376857,-1.7635335936134253,1371.4285714285713,-1.0,56.76078295513598,1.9236786155249308,
2023-08-17 13:37:11.489000,-9.578313253012048,-1.180722891566265,-1.7831325301204821,-1.108522378908645,-9.506437768240342,-1.4224402207234825,2.0,1.9216117216117214,520.3964925657644,-3.305751413087817,1.3642561622283098,-1.7338150457432544,1375.091575091575,-1.0,56.76078295513598,1.9236604370183383,
2023-08-17 13:37:11.497000,-9.55421686746988,-1.1566265060240966,-1.7951807228915664,-1.0398528510116491,-9.486817903126916,-1.471489883507051,2.0,1.9216117216117214,520.3964925657644,-3.119631723093062,0.8717440708583404,-1.842200337975641,1378.7545787545787,-1.0,56.76078295513598,1.9236422888775826,
2023-08-17 13:37:11.504000,-9.530120481927712,-1.1927710843373494,-1.7951807228915664,-1.0938074800735744,-9.523605150214593,-1.4935622317596566,2.0,1.9216117216117214,520.3964925657644,-2.9970281452129823,0.28856127265311,-1.7192471301206211,1380.952380952381,-1.0,56.76078295513598,1.9236241825982738,
2023-08-17 13:37:11.512000,-9.493975903614459,-1.180722891566265,-1.8072289156626506,-1.1109748620478233,-9.474555487431024,-1.3807480073574494,2.0,1.9230769230769231,520.0,-2.934677466348115,0.32107686032282584,-1.5933803391410744,1383.8827838827838,-1.0,56.76078295513598,1.9236061295544342,
2023-08-17 13:37:11.520000,-9.481927710843374,-1.144578313253012,-1.7831325301204821,-1.0692826486817903,-9.467198038013489,-1.407725321888412,2.0,1.9216117216117214,520.3964925657644,-3.4835965270089138,0.6013635569022773,-1.273818542043005,1389.0109890109889,-1.0,56.76078295513598,1.9235881414575813,
2023-08-17 13:37:11.527000,-9.493975903614459,-1.180722891566265,-1.8072289156626506,-1.137952176578786,-9.398528510116492,-1.3586756591048437,2.0,1.9230769230769231,520.0,-2.957986131344326,0.32259192354757843,-1.45562612901346,1396.3369963369962,-1.0,56.76078295513598,1.9235702294443477,
2023-08-17 13:37:11.535000,-9.493975903614459,-1.180722891566265,-1.8192771084337351,-1.0545677498467196,-9.454935622317596,-1.4126302881667687,2.0,1.9230769230769231,520.0,-3.0177728570596094,0.18425499679505827,-0.5645358662082636,1402.197802197802,-1.0,56.76078295513598,1.92355240453549,
2023-08-17 13:37:11.543000,-9.493975903614459,-1.1927710843373494,-1.8192771084337351,-1.0766400980993256,-9.457388105456774,-1.4469650521152666,2.0,1.9216117216117214,520.3964925657644,-2.985490356039859,0.1786609171959677,-0.5528815337101565,1406.5934065934066,-1.0,56.76078295513598,1.9235346785532508,
2023-08-17 13:37:11.550000,-9.518072289156628,-1.180722891566265,-1.8313253012048194,-1.091354996934396,-9.435315757204169,-1.4445125689760883,2.0,1.9230769230769231,520.0,-3.213565643027795,-0.2680496474564411,-0.6627818891672992,1408.7912087912086,-1.0,56.76078295513598,1.9235170621926847,
2023-08-17 13:37:11.558000,-9.481927710843374,-1.1927710843373494,-1.8433734939759037,-1.0668301655426118,-9.499080318822807,-1.4690374003678723,2.0,1.9216117216117214,520.3964925657644,-3.347707010080998,-0.49659110774430576,-0.3094225278247179,1406.5934065934066,-1.0,56.76078295513598,1.9234995654825546,
2023-08-17 13:37:11.566000,-9.481927710843374,-1.1927710843373494,-1.8192771084337351,-1.1526670754138564,-9.49417535254445,-1.5033721643163702,2.0,1.9216117216117214,520.3964925657644,-3.4087757123710745,-0.8324689703397256,-0.03461336751937438,1397.8021978021977,-1.0,56.76078295513598,1.9234821987374522,
2023-08-17 13:37:11.573000,-9.518072289156628,-1.2048192771084338,-1.8313253012048194,-1.1477621091354997,-9.452483139178417,-1.491109748620478,2.0,1.9230769230769231,520.0,-3.698852048248937,-0.5729269856069011,-0.03461336751937438,1386.8131868131868,-1.0,56.76078295513598,1.9234649719312842,
2023-08-17 13:37:11.581000,-9.530120481927712,-1.1927710843373494,-1.8433734939759037,-1.1428571428571428,-9.548129981606376,-1.4469650521152666,2.0,1.9230769230769231,520.0,-3.714119223821456,-0.4507895810267485,0.19439426606841187,1375.8241758241757,-1.0,56.76078295513598,1.9234478951264422,
2023-08-17 13:37:11.589000,-9.55421686746988,-1.2289156626506024,-1.9156626506024097,-1.1477621091354997,-9.52851011649295,-1.5229920294297976,2.0,1.9216117216117214,520.3964925657644,-4.385874949012296,-0.8324689703397256,0.33179884622108363,1367.7655677655678,-1.0,56.76078295513598,1.9234309785179315,
2023-08-17 13:37:11.596000,-9.542168674698795,-1.2409638554216869,-1.8674698795180724,-1.125689760882894,-9.521152667075413,-1.5107296137339055,2.0,1.9216117216117214,520.3964925657644,-4.2942718955771815,-1.275217061942779,0.6371423576714653,1361.1721611721612,-1.0,56.76078295513598,1.9234142314610638,
2023-08-17 13:37:11.604000,-9.542168674698795,-1.2289156626506024,-1.9036144578313254,-1.1477621091354997,-9.503985285101164,-1.525444512568976,2.0,1.9216117216117214,520.3964925657644,-4.233203193287105,-1.8553697336985042,0.6982110599615416,1358.2417582417581,-1.0,56.76078295513598,1.923397662378989,
2023-08-17 13:37:11.612000,-9.542168674698795,-1.2650602409638554,-1.8795180722891567,-1.2041692213366033,-9.535867565910484,-1.525444512568976,2.0,1.9230769230769231,520.0,-4.401142124584815,-2.3133850008740766,1.0340889225569614,1358.2417582417581,-1.0,56.76078295513598,1.923381279196263,
2023-08-17 13:37:11.619000,-9.55421686746988,-1.2530120481927711,-1.8795180722891567,-1.179644389944819,-9.533415082771306,-1.5278969957081545,2.0,1.9216117216117214,520.3964925657644,-4.950760445195502,-3.0156750772099543,1.2020278538546714,1357.5091575091574,-1.0,56.76078295513598,1.9233650898082515,
2023-08-17 13:37:11.627000,-9.55421686746988,-1.2409638554216869,-1.8674698795180724,-1.1943592887798895,-9.530962599632128,-1.5695892090741874,2.0,1.9216117216117214,520.3964925657644,-4.996561971913059,-3.5194918711030843,1.5684400675951293,1353.8461538461538,-1.0,56.76078295513598,1.9233491016385151,
2023-08-17 13:37:11.635000,-9.566265060240964,-1.2530120481927711,-1.8795180722891567,-1.150214592274678,-9.5113427345187,-1.4935622317596566,2.0,1.9216117216117214,520.3964925657644,-5.088165025348173,-3.840102558125985,1.7821805256103966,1352.3809523809523,-1.0,56.76078295513598,1.923333320635529,
2023-08-17 13:37:11.642000,-9.55421686746988,-1.2409638554216869,-1.8674698795180724,-1.184549356223176,-9.550582464745554,-1.5303494788473329,2.0,1.9201465201465202,520.7935902327356,-4.996561971913059,-4.404988054309191,2.1485927393508546,1350.9157509157508,-1.0,56.76078295513598,1.9233177517788287,
2023-08-17 13:37:11.650000,-9.542168674698795,-1.216867469879518,-1.8554216867469882,-1.1134273451870018,-9.513795217657878,-1.5009196811771919,2.0,1.9216117216117214,520.3964925657644,-5.469844414661151,-5.09201095507255,2.1333255637783353,1353.8461538461538,-1.0,56.76078295513598,1.9233023999728773,
2023-08-17 13:37:11.658000,-9.55421686746988,-1.2289156626506024,-1.8313253012048194,-1.1134273451870018,-9.474555487431024,-1.4347026364193745,2.0,1.9216117216117214,520.3964925657644,-5.729386399393975,-5.733232329118351,2.5455393042363506,1360.4395604395604,-1.0,56.76078295513598,1.9232872698554149,
