Shimmer_F5D4_Timestamp_FormattedUnix_CAL,Shimmer_F5D4_Accel_LN_X_CAL,Shimmer_F5D4_Accel_LN_Y_CAL,Shimmer_F5D4_Accel_LN_Z_CAL,Shimmer_F5D4_Accel_WR_X_CAL,Shimmer_F5D4_Accel_WR_Y_CAL,Shimmer_F5D4_Accel_WR_Z_CAL,Shimmer_F5D4_GSR_Range_CAL,Shimmer_F5D4_GSR_Skin_Conductance_CAL,Shimmer_F5D4_GSR_Skin_Resistance_CAL,Shimmer_F5D4_Gyro_X_CAL,Shimmer_F5D4_Gyro_Y_CAL,Shimmer_F5D4_Gyro_Z_CAL,Shimmer_F5D4_PPG_A13_CAL,Shimmer_F5D4_PPG_IBI_CAL,Shimmer_F5D4_PPGtoHR_CAL,Shimmer_F5D4_GSR_Skin_Conductance_LPF_CAL,
yyyy/mm/dd hh:mm:ss.000,m/(s^2),m/(s^2),m/(s^2),m/(s^2),m/(s^2),m/(s^2),no_units,uS,kOhms,deg/s,deg/s,deg/s,mV,ms,BPM,uS,
2023-08-08 18:25:50.935000,-7.9397590361445785,-1.4337349397590362,-5.63855421686747,-1.3930104230533413,-7.762722256284488,-5.361128142244022,3.0,0.6635586635586636,1507.0257611241216,0.20884563836606335,0.04836547986714086,0.18099178369558877,1338.4615384615383,-1.0,95.52424448547275,0.6639287183088836,
2023-08-08 18:25:50.943000,-7.91566265060241,-1.4337349397590362,-5.674698795180723,-1.4150827713059473,-7.738197424892704,-5.3660331085223785,3.0,0.6635586635586636,1507.0257611241216,0.16036361517394165,0.07820057106229227,0.09148651011013323,1335.5311355311355,-1.0,95.52424448547275,0.6639268634843462,
2023-08-08 18:25:50.951000,-7.91566265060241,-1.421686746987952,-5.650602409638554,-1.361128142244022,-7.718577559779276,-5.390557939914163,3.0,0.6635586635586636,1507.0257611241216,0.08192995746168598,0.2287745469378246,0.001981236524678125,1333.3333333333333,-1.0,95.52424448547275,0.6639249976253665,
2023-08-08 18:25:50.958000,-7.927710843373494,-1.421686746987952,-5.662650602409639,-1.3733905579399142,-7.748007357449417,-5.339055793991416,3.0,0.6631146631146633,1508.0348175426848,-0.011887419148067882,0.25359827515878963,0.09661441640930002,1330.4029304029302,-1.0,95.52424448547275,0.6639231187094451,
2023-08-08 18:25:50.966000,-7.903614457831326,-1.4337349397590362,-5.686746987951808,-1.407725321888412,-7.748007357449417,-5.324340895156346,3.0,0.6635586635586636,1507.0257611241216,0.323407726822446,0.3096556144746813,-0.11712604160596715,1329.6703296703297,-1.0,95.52424448547275,0.6639212245548779,
2023-08-08 18:25:50.974000,-7.9397590361445785,-1.4337349397590362,-5.63855421686747,-1.3709380748007356,-7.686695278969957,-5.375843041079093,3.0,0.6635586635586636,1507.0257611241216,-0.12248703455509517,0.13798729677757768,0.41839053668201176,1331.135531135531,-1.0,95.52424448547275,0.6639193128223237,
2023-08-08 18:25:50.981000,-7.9397590361445785,-1.4457831325301205,-5.63855421686747,-1.3930104230533413,-7.74310239117106,-5.319435928877989,3.0,0.6631146631146633,1508.0348175426848,-0.41093176388322433,-0.09323465998484969,0.16910436454752045,1333.3333333333333,-1.0,95.52424448547275,0.6639173813248356,
2023-08-08 18:25:50.989000,-7.903614457831326,-1.4337349397590362,-5.626506024096386,-1.4175352544451256,-7.851011649294911,-5.351318209687308,3.0,0.6635586635586636,1507.0257611241216,0.004778276324222974,0.09113688013518942,-0.07959909096206534,1335.5311355311355,-1.0,95.52424448547275,0.6639154277416798,
2023-08-08 18:25:50.997000,-7.9397590361445785,-1.457831325301205,-5.650602409638554,-1.4297976701410178,-7.716125076640098,-5.331698344573881,3.0,0.6635586635586636,1507.0257611241216,-0.08857292698560755,0.18110832702057048,-0.14393100635161118,1336.263736263736,-1.0,95.52424448547275,0.6639134497478896,
2023-08-08 18:25:51.004000,-7.9397590361445785,-1.421686746987952,-5.662650602409639,-1.366033108522379,-7.787247087676271,-5.3218884120171674,3.0,0.6635586635586636,1507.0257611241216,-0.0896218169104368,-0.27923780665462394,-0.25359827515879046,1338.4615384615383,-1.0,95.52424448547275,0.6639114451756174,
2023-08-08 18:25:51.012000,-7.9397590361445785,-1.4457831325301205,-5.650602409638554,-1.437155119558553,-7.755364806866952,-5.380748007357449,3.0,0.6635586635586636,1507.0257611241216,-0.21315774139036126,0.42526659285589496,-0.14812656605092953,1339.194139194139,-1.0,95.52424448547275,0.6639094118779063,
2023-08-08 18:25:51.020000,-7.9397590361445785,-1.4698795180722892,-5.650602409638554,-1.4028203556100551,-7.748007357449417,-5.309625996321275,3.0,0.6631146631146633,1508.0348175426848,0.08985490356039848,0.11957345143056906,-0.08985490356039848,1339.194139194139,-1.0,95.52424448547275,0.663907347870271,
2023-08-08 18:25:51.027000,-7.927710843373494,-1.457831325301205,-5.674698795180723,-1.4175352544451256,-7.75781729000613,-5.356223175965665,3.0,0.6631146631146633,1508.0348175426848,-0.11106578870695237,0.33424625604568464,-0.12388555445486868,1340.6593406593406,-1.0,95.52424448547275,0.6639052511641632,
2023-08-08 18:25:51.035000,-7.963855421686747,-1.4337349397590362,-5.686746987951808,-1.4297976701410178,-7.711220110361741,-5.351318209687308,3.0,0.6635586635586636,1507.0257611241216,-0.28086941320435915,0.5453062175863874,-0.12703222422935734,1342.1245421245421,-1.0,95.52424448547275,0.66390311973931,
2023-08-08 18:25:51.043000,-7.9397590361445785,-1.4337349397590362,-5.650602409638554,-1.4445125689760883,-7.733292458614347,-5.3366033108522375,3.0,0.6635586635586636,1507.0257611241216,0.054425732766156504,0.3272536565468206,-0.05081288969174277,1343.5897435897434,-1.0,95.52424448547275,0.6639009516758126,
2023-08-08 18:25:51.050000,-7.91566265060241,-1.421686746987952,-5.626506024096386,-1.3415082771305946,-7.77498467198038,-5.324340895156346,3.0,0.6635586635586636,1507.0257611241216,-0.14579569955130758,0.07971563428704662,-0.1258667909795468,1339.194139194139,-1.0,95.52424448547275,0.6638987449127757,
2023-08-08 18:25:51.058000,-7.91566265060241,-1.421686746987952,-5.614457831325302,-1.3807480073574494,-7.794604537093807,-5.3292458614347025,3.0,0.6631146631146633,1508.0348175426848,-0.11258085193170499,-0.5185012528407429,-0.12237049123011477,1335.5311355311355,-1.0,95.52424448547275,0.6638964974225218,
2023-08-08 18:25:51.065000,-7.91566265060241,-1.4457831325301205,-5.602409638554217,-1.3930104230533413,-7.792152053954629,-5.3586756591048434,3.0,0.6635586635586636,1507.0257611241216,0.02703805139560613,-0.30394499155060817,-0.12050579803041792,1330.4029304029302,-1.0,95.52424448547275,0.6638942070548259,
2023-08-08 18:25:51.073000,-7.951807228915663,-1.421686746987952,-5.674698795180723,-1.3979153893316982,-7.787247087676271,-5.351318209687308,3.0,0.6635586635586636,1507.0257611241216,0.07307266476312506,0.014567915622632328,-0.056173882640871656,1326.007326007326,-1.0,95.52424448547275,0.663891871540406,
2023-08-08 18:25:51.081000,-7.975903614457832,-1.4337349397590362,-5.650602409638554,-1.3464132434089515,-7.824034334763948,-5.427345187001839,3.0,0.6635586635586636,1507.0257611241216,0.13216013052852368,0.1341413670532014,0.20593205524153593,1325.2747252747251,-1.0,95.52424448547275,0.6638894888029679,
2023-08-08 18:25:51.088000,-7.951807228915663,-1.4337349397590362,-5.674698795180723,-1.361128142244022,-7.777437155119558,-5.4028203556100545,3.0,0.6635586635586636,1507.0257611241216,-0.005244449624148055,0.21036070159081596,0.26758347415651773,1325.2747252747251,-1.0,95.52424448547275,0.6638870568244035,
2023-08-08 18:25:51.096000,-7.951807228915663,-1.4337349397590362,-5.650602409638554,-1.4003678724708768,-7.76026977314531,-5.3660331085223785,3.0,0.6631146631146633,1508.0348175426848,-0.0048948196492038095,0.20814637841617661,0.26583532428180173,1328.937728937729,-1.0,95.52424448547275,0.6638845737878076,
2023-08-08 18:25:51.104000,-7.927710843373494,-1.4337349397590362,-5.650602409638554,-1.4052728387492335,-7.74310239117106,-5.356223175965665,3.0,0.6635586635586636,1507.0257611241216,0.2421770293106468,0.008973836023541765,-0.19369500611852467,1333.3333333333333,-1.0,95.52424448547275,0.6638820377736379,
2023-08-08 18:25:51.111000,-7.927710843373494,-1.4337349397590362,-5.650602409638554,-1.419987737584304,-7.767627222562845,-5.319435928877989,3.0,0.6635586635586636,1507.0257611241216,0.06071907231513382,0.17621350737136493,-0.29939980187634774,1342.1245421245421,-1.0,95.52424448547275,0.6638794467644097,
2023-08-08 18:25:51.119000,-7.927710843373494,-1.4337349397590362,-5.686746987951808,-1.3782955242182708,-7.730839975475168,-5.415082771305947,3.0,0.6635586635586636,1507.0257611241216,0.42841326263038276,-0.20569896859157383,-0.1575665753743955,1350.9157509157508,-1.0,95.52424448547275,0.663876799096659,
2023-08-08 18:25:51.127000,-7.927710843373494,-1.457831325301205,-5.650602409638554,-1.4101778050275904,-7.703862660944206,-5.324340895156346,3.0,0.6635586635586636,1507.0257611241216,0.41221374045801523,-0.1420663131519139,-0.01619952217236751,1358.2417582417581,-1.0,95.52424448547275,0.6638740933068837,
2023-08-08 18:25:51.134000,-7.9397590361445785,-1.457831325301205,-5.626506024096386,-1.419987737584304,-7.750459840588595,-5.388105456774984,3.0,0.6635586635586636,1507.0257611241216,0.27073014393100553,-0.3074412913000402,0.2724782938057224,1366.3003663003662,-1.0,95.52424448547275,0.6638713279888865,
2023-08-08 18:25:51.142000,-7.903614457831326,-1.4457831325301205,-5.674698795180723,-1.3832004904966277,-7.755364806866952,-5.331698344573881,3.0,0.6635586635586636,1507.0257611241216,-0.049647456441931796,-0.13682186352776582,0.2862304061534876,1374.3589743589744,-1.0,95.52424448547275,0.6638685018004541,
2023-08-08 18:25:51.150000,-7.91566265060241,-1.457831325301205,-5.614457831325302,-1.3366033108522377,-7.730839975475168,-5.331698344573881,3.0,0.6635586635586636,1507.0257611241216,-0.03333139094458345,0.033797564244508534,-0.3125691975992074,1382.4175824175823,-1.0,95.52424448547275,0.6638656134700623,
2023-08-08 18:25:51.157000,-7.903614457831326,-1.457831325301205,-5.626506024096386,-1.4518700183936235,-7.794604537093807,-5.380748007357449,3.0,0.6635586635586636,1507.0257611241216,0.013402482372822228,0.38634112231221923,0.08740749373579615,1391.9413919413919,-1.0,95.52424448547275,0.6638626618035782,
2023-08-08 18:25:51.165000,-7.951807228915663,-1.457831325301205,-5.614457831325302,-1.4101778050275904,-7.733292458614347,-5.3145309625996315,3.0,0.6635586635586636,1507.0257611241216,-0.15302138570013335,0.3062758580502301,-0.06503117533943259,1407.3260073260071,-1.0,95.52424448547275,0.6638596456909339,
2023-08-08 18:25:51.173000,-7.9397590361445785,-1.457831325301205,-5.650602409638554,-1.407725321888412,-7.748007357449417,-5.356223175965665,3.0,0.6635586635586636,1507.0257611241216,-0.1363556902278425,0.4843540586212919,-0.06316648213973529,1429.3040293040292,-1.0,95.52424448547275,0.6638565639740015,
2023-08-08 18:25:51.180000,-7.9397590361445785,-1.457831325301205,-5.674698795180723,-1.471489883507051,-7.74310239117106,-5.3586756591048434,3.0,0.6626706626706625,1509.0452261306534,-0.2126915680904379,0.26338791445719895,-0.16992016782238803,1447.6190476190475,-1.0,95.52424448547275,0.6638534156122659,
2023-08-08 18:25:51.188000,-7.927710843373494,-1.4819277108433735,-5.650602409638554,-1.4126302881667687,-7.748007357449417,-5.3292458614347025,3.0,0.6631146631146633,1508.0348175426848,0.09370083328477302,-0.27574150690519195,-0.10768603228250118,1465.9340659340658,-1.0,95.52424448547275,0.6638501996570338,
2023-08-08 18:25:51.196000,-7.951807228915663,-1.4457831325301205,-5.650602409638554,-1.3832004904966277,-7.75781729000613,-5.31698344573881,3.0,0.6631146631146633,1508.0348175426848,0.09067070683526607,-0.16980362449740677,0.16945399452246382,1482.7838827838827,-1.0,95.52424448547275,0.6638469150550557,
2023-08-08 18:25:51.203000,-7.927710843373494,-1.421686746987952,-5.626506024096386,-1.366033108522379,-7.725935009196811,-5.341508277130594,3.0,0.6635586635586636,1507.0257611241216,0.14987471592564555,-0.32492279004720037,0.32119340364780624,1497.4358974358972,-1.0,95.52424448547275,0.6638435608232505,
2023-08-08 18:25:51.211000,-7.927710843373494,-1.457831325301205,-5.626506024096386,-1.3881054567749846,-7.738197424892704,-5.375843041079093,3.0,0.6635586635586636,1507.0257611241216,0.039624730493560766,0.04032399044344752,0.18180758697045635,1510.6227106227104,-1.0,95.52424448547275,0.6638401362124335,
2023-08-08 18:25:51.219000,-7.903614457831326,-1.4337349397590362,-5.614457831325302,-1.3709380748007356,-7.752912323727774,-5.370938074800735,3.0,0.6631146631146633,1508.0348175426848,0.1290134607540359,0.06724549851407281,-0.06293339548977318,1517.9487179487178,-1.0,95.52424448547275,0.6638366407326998,
2023-08-08 18:25:51.226000,-7.91566265060241,-1.4337349397590362,-5.614457831325302,-1.385652973635806,-7.730839975475168,-5.388105456774984,3.0,0.6635586635586636,1507.0257611241216,0.09649787308431831,0.20115377891731254,0.07400501136297435,1519.4139194139193,-1.0,95.52424448547275,0.6638330738701633,
2023-08-08 18:25:51.234000,-7.91566265060241,-1.4457831325301205,-5.650602409638554,-1.390557939914163,-7.716125076640098,-5.3660331085223785,3.0,0.6631146631146633,1508.0348175426848,0.24555678573509626,0.4253831361808758,-0.17271720762193332,1516.4835164835163,-1.0,95.52424448547275,0.6638294352189339,
2023-08-08 18:25:51.242000,-7.91566265060241,-1.457831325301205,-5.662650602409639,-1.4003678724708768,-7.777437155119558,-5.407725321888412,3.0,0.6635586635586636,1507.0257611241216,0.057572402540644295,0.4969407377192465,0.20837946506613828,1511.3553113553112,-1.0,95.52424448547275,0.6638257244950702,
2023-08-08 18:25:51.249000,-7.927710843373494,-1.457831325301205,-5.650602409638554,-1.4175352544451256,-7.767627222562845,-5.405272838749234,3.0,0.6635586635586636,1507.0257611241216,-0.3889050754618028,0.38412679913757986,0.17388264087174385,1502.5641025641025,-1.0,95.52424448547275,0.6638219413903503,
2023-08-08 18:25:51.257000,-7.927710843373494,-1.4698795180722892,-5.674698795180723,-1.4175352544451256,-7.735744941753525,-5.341508277130594,3.0,0.6631146631146633,1508.0348175426848,0.08647514713594728,0.559641046559058,0.047782763242235377,1490.8424908424906,-1.0,95.52424448547275,0.6638180858939231,
2023-08-08 18:25:51.265000,-7.963855421686747,-1.4819277108433735,-5.662650602409639,-1.4739423666462292,-7.804414469650521,-5.400367872470876,3.0,0.6635586635586636,1507.0257611241216,-0.2516170386341119,0.44647747800244714,-0.36652875706543925,1476.923076923077,-1.0,95.52424448547275,0.6638141581349798,
2023-08-08 18:25:51.272000,-7.951807228915663,-1.493975903614458,-5.662650602409639,-1.3782955242182708,-7.782342121397915,-5.31698344573881,3.0,0.6635586635586636,1507.0257611241216,-0.5240953324398352,0.3630324573160068,-0.31851290717324177,1464.4688644688645,-1.0,95.52424448547275,0.6638101583638841,
2023-08-08 18:25:51.280000,-7.951807228915663,-1.4819277108433735,-5.626506024096386,-1.4641324340895157,-7.767627222562845,-5.309625996321275,3.0,0.6635586635586636,1507.0257611241216,-0.565468212808112,-0.009906182623390191,-0.08764058038575825,1454.212454212454,-1.0,95.52424448547275,0.663806087113806,
2023-08-08 18:25:51.288000,-7.9397590361445785,-1.4819277108433735,-5.602409638554217,-1.4763948497854076,-7.745554874310239,-5.3292458614347025,3.0,0.6635586635586636,1507.0257611241216,-0.422469553056348,0.26187285123244636,0.2661849542567451,1444.6886446886447,-1.0,95.52424448547275,0.663801945064161,
2023-08-08 18:25:51.295000,-7.951807228915663,-1.493975903614458,-5.614457831325302,-1.4690374003678723,-7.770079705702023,-5.380748007357449,3.0,0.6631146631146633,1508.0348175426848,-0.14299865975176232,0.19754093584289967,0.15640114212458497,1432.2344322344322,597.47314453125,100.42292368985596,0.6637977330424745,
2023-08-08 18:25:51.303000,-7.951807228915663,-1.4819277108433735,-5.626506024096386,-1.4592274678111588,-7.706315144083384,-5.353770692826487,3.0,0.6631146631146633,1508.0348175426848,-0.05069634636676106,-0.0510459763417053,0.033797564244508096,1418.3150183150183,-1.0,100.42292368985596,0.6637934518766122,
2023-08-08 18:25:51.311000,-7.9397590361445785,-1.4819277108433735,-5.662650602409639,-1.461679950950337,-7.801961986511342,-5.375843041079093,3.0,0.6635586635586636,1507.0257611241216,-0.3865742089621809,-0.17178486102208446,0.23460171318687725,1402.197802197802,-1.0,100.42292368985596,0.6637891022353389,
2023-08-08 18:25:51.318000,-7.9397590361445785,-1.4698795180722892,-5.650602409638554,-1.4028203556100551,-7.762722256284488,-5.324340895156346,3.0,0.6635586635586636,1507.0257611241216,-0.3817959326379579,0.3178136472233555,0.09521589650952737,1387.5457875457876,-1.0,100.42292368985596,0.6637846850746298,
2023-08-08 18:25:51.326000,-7.927710843373494,-1.457831325301205,-5.662650602409639,-1.385652973635806,-7.733292458614347,-5.346413243408951,3.0,0.6635586635586636,1507.0257611241216,-0.30231338500087473,0.590291941029077,0.5245615057397586,1378.021978021978,-1.0,100.42292368985596,0.6637802017857543,
2023-08-08 18:25:51.334000,-7.91566265060241,-1.4457831325301205,-5.650602409638554,-1.407725321888412,-7.721030042918454,-5.294911097486205,3.0,0.6631146631146633,1508.0348175426848,-0.14766039275100445,0.7877163335469959,0.7961074529456326,1373.6263736263736,-1.0,100.42292368985596,0.663775653768421,
2023-08-08 18:25:51.341000,-7.891566265060241,-1.4096385542168675,-5.662650602409639,-1.3930104230533413,-7.738197424892704,-5.334150827713059,3.0,0.6631146631146633,1508.0348175426848,0.053143756191363835,0.5691975992075057,0.37958160946331815,1372.8937728937728,-1.0,100.42292368985596,0.6637710425789453,
2023-08-08 18:25:51.349000,-7.891566265060241,-1.3975903614457832,-5.650602409638554,-1.3366033108522377,-7.686695278969957,-5.3635806253832,3.0,0.6635586635586636,1507.0257611241216,-0.03834275391876983,0.2742264436804376,0.7586970456267116,1374.3589743589744,-1.0,100.42292368985596,0.6637663698760831,
2023-08-08 18:25:51.357000,-7.903614457831326,-1.385542168674699,-5.650602409638554,-1.3782955242182708,-7.750459840588595,-5.3218884120171674,3.0,0.6631146631146633,1508.0348175426848,0.29648621875182074,0.37853271953848755,0.31175339432434024,1376.5567765567764,-1.0,100.42292368985596,0.6637616374295504,
2023-08-08 18:25:51.364000,-7.9397590361445785,-1.3614457831325302,-5.650602409638554,-1.3096259963212753,-7.797057020232986,-5.31698344573881,3.0,0.6635586635586636,1507.0257611241216,0.37165666336460607,0.48085775887185983,0.3090728978497758,1378.7545787545787,-1.0,100.42292368985596,0.6637568471385358,
2023-08-08 18:25:51.372000,-7.927710843373494,-1.3614457831325302,-5.662650602409639,-1.280196198651134,-7.755364806866952,-5.405272838749234,3.0,0.6635586635586636,1507.0257611241216,0.36687838704038306,0.47666219917254277,0.3074412913000406,1378.021978021978,-1.0,100.42292368985596,0.6637520010181611,
2023-08-08 18:25:51.380000,-7.927710843373494,-1.3614457831325302,-5.686746987951808,-1.366033108522379,-7.745554874310239,-5.405272838749234,3.0,0.6635586635586636,1507.0257611241216,0.3155993240487144,0.33587786259541985,0.2581434648330518,1372.161172161172,-1.0,100.42292368985596,0.6637471013558727,
2023-08-08 18:25:51.387000,-7.891566265060241,-1.3734939759036144,-5.674698795180723,-1.437155119558553,-7.6817903126916,-5.449417535254445,3.0,0.6640026640026641,1506.0180541624873,0.8633529514597045,0.47223355282326235,-0.05151214964162908,1364.8351648351647,-1.0,100.42292368985596,0.6637421505696243,
2023-08-08 18:25:51.395000,-7.903614457831326,-1.3614457831325302,-5.674698795180723,-1.2875536480686696,-7.76026977314531,-5.400367872470876,3.0,0.6631146631146633,1508.0348175426848,0.3398403356447752,0.440067595128489,-0.03659460404405338,1358.974358974359,-1.0,100.42292368985596,0.6637371513537965,
2023-08-08 18:25:51.403000,-7.927710843373494,-1.3614457831325302,-5.662650602409639,-1.290006131207848,-7.748007357449417,-5.3366033108522375,3.0,0.6635586635586636,1507.0257611241216,0.36955888351494753,0.14637841617621353,-0.4179243633820871,1353.8461538461538,-1.0,100.42292368985596,0.6637321063987955,
2023-08-08 18:25:51.410000,-7.927710843373494,-1.3614457831325302,-5.674698795180723,-1.3096259963212753,-7.779889638258736,-5.370938074800735,3.0,0.6635586635586636,1507.0257611241216,0.184954256744945,0.09603169978439496,-0.38692383893712473,1350.9157509157508,-1.0,100.42292368985596,0.6637270183555564,
2023-08-08 18:25:51.418000,-7.951807228915663,-1.3614457831325302,-5.674698795180723,-1.3218884120171672,-7.765174739423666,-5.4028203556100545,3.0,0.6631146631146633,1508.0348175426848,0.4154769535574856,0.20057106229240662,-0.36874308024007907,1349.4505494505493,-1.0,100.42292368985596,0.6637218901291545,
2023-08-08 18:25:51.426000,-7.9397590361445785,-1.385542168674699,-5.674698795180723,-1.2752912323727774,-7.762722256284488,-5.3954629061925194,3.0,0.6635586635586636,1507.0257611241216,0.07738476778742467,-0.20045451896742578,-0.32154303362274916,1347.985347985348,-1.0,100.42292368985596,0.663716724586224,
2023-08-08 18:25:51.433000,-7.9397590361445785,-1.385542168674699,-5.650602409638554,-1.3439607602697732,-7.804414469650521,-5.370938074800735,3.0,0.6631146631146633,1508.0348175426848,-0.10733640230755867,-0.7965736262455568,-0.24450789581026744,1349.4505494505493,-1.0,100.42292368985596,0.663711524677579,
2023-08-08 18:25:51.441000,-7.9397590361445785,-1.385542168674699,-5.662650602409639,-1.3537706928264868,-7.777437155119558,-5.390557939914163,3.0,0.6631146631146633,1508.0348175426848,-0.01759804207214102,-0.683293514363965,-0.347881825068469,1354.5787545787546,-1.0,100.42292368985596,0.6637062934428191,
2023-08-08 18:25:51.448000,-7.975903614457832,-1.421686746987952,-5.650602409638554,-1.356223175965665,-7.738197424892704,-5.339055793991416,3.0,0.6635586635586636,1507.0257611241216,0.08682477711089152,-0.2825010197540943,-0.33168230289610146,1361.1721611721612,-1.0,100.42292368985596,0.6637010338442468,
2023-08-08 18:25:51.456000,-7.927710843373494,-1.4457831325301205,-5.662650602409639,-1.356223175965665,-7.725935009196811,-5.3218884120171674,3.0,0.6631146631146633,1508.0348175426848,0.21980071091428283,-0.41792436338208666,-0.19322883281860045,1364.8351648351647,-1.0,100.42292368985596,0.663695749047565,
2023-08-08 18:25:51.464000,-7.963855421686747,-1.457831325301205,-5.650602409638554,-1.4347026364193745,-7.740649908031882,-5.331698344573881,3.0,0.6635586635586636,1507.0257611241216,0.0027970397995452823,-0.3073247479750594,-0.05465881941611774,1364.102564102564,-1.0,100.42292368985596,0.663690442286738,
2023-08-08 18:25:51.471000,-7.927710843373494,-1.457831325301205,-5.63855421686747,-1.4469650521152666,-7.74310239117106,-5.378295524218271,3.0,0.6635586635586636,1507.0257611241216,0.42771400268049603,-0.3331973661208554,0.15966435522405448,1364.8351648351647,-1.0,100.42292368985596,0.663685116846281,
2023-08-08 18:25:51.479000,-7.9397590361445785,-1.493975903614458,-5.626506024096386,-1.496014714898835,-7.76026977314531,-5.2998160637645615,3.0,0.6631146631146633,1508.0348175426848,0.5308548452887358,-0.11782530155585304,0.15861546529922477,1367.7655677655678,-1.0,100.42292368985596,0.6636797762136862,
2023-08-08 18:25:51.487000,-7.91566265060241,-1.4819277108433735,-5.63855421686747,-1.4935622317596566,-7.728387492335989,-5.3439607602697725,3.0,0.6626706626706625,1509.0452261306534,0.7395839403298184,-0.5450731309364257,0.33937416234485185,1369.9633699633698,-1.0,100.42292368985596,0.6636744236458236,
2023-08-08 18:25:51.494000,-7.879518072289157,-1.5060240963855422,-5.626506024096386,-1.5009196811771919,-7.75781729000613,-5.353770692826487,3.0,0.6631146631146633,1508.0348175426848,0.7795583007983217,-0.2063982285414606,0.046151156692500625,1372.8937728937728,-1.0,100.42292368985596,0.6636690622887652,
2023-08-08 18:25:51.502000,-7.891566265060241,-1.5060240963855422,-5.650602409638554,-1.471489883507051,-7.689147762109135,-5.388105456774984,3.0,0.6631146631146633,1508.0348175426848,0.4844706019462727,0.1434648330516874,0.2894936192529571,1374.3589743589744,-1.0,100.42292368985596,0.6636636955425602,
2023-08-08 18:25:51.510000,-7.891566265060241,-1.5180722891566265,-5.614457831325302,-1.466584917228694,-7.706315144083384,-5.390557939914163,3.0,0.6635586635586636,1507.0257611241216,0.43598857875415103,0.5224637258901,0.16351028494842945,1375.091575091575,-1.0,100.42292368985596,0.6636583267754935,
2023-08-08 18:25:51.517000,-7.867469879518072,-1.5060240963855422,-5.650602409638554,-1.4469650521152666,-7.721030042918454,-5.351318209687308,3.0,0.6631146631146633,1508.0348175426848,0.6166307324747982,0.6116193695006118,0.3306334129712722,1373.6263736263736,-1.0,100.42292368985596,0.6636529594858522,
2023-08-08 18:25:51.525000,-7.891566265060241,-1.4819277108433735,-5.650602409638554,-1.4396076026977314,-7.76026977314531,-5.34886572654813,3.0,0.6635586635586636,1507.0257611241216,0.6736204183905365,0.6542742264436813,-0.006409882873958589,1370.6959706959706,-1.0,100.42292368985596,0.6636475971551264,
2023-08-08 18:25:51.533000,-7.91566265060241,-1.4819277108433735,-5.614457831325302,-1.4420600858369097,-7.708767627222563,-5.31698344573881,3.0,0.6635586635586636,1507.0257611241216,0.5154711263912359,0.6205932055241535,-0.1614125050987705,1367.7655677655678,-1.0,100.42292368985596,0.6636422431011035,
2023-08-08 18:25:51.540000,-7.91566265060241,-1.457831325301205,-5.63855421686747,-1.3439607602697732,-7.713672593500919,-5.324340895156346,3.0,0.6631146631146633,1508.0348175426848,0.435289318804266,0.7098653924596461,-0.4075520074587727,1365.5677655677655,-1.0,100.42292368985596,0.6636369007780645,
2023-08-08 18:25:51.548000,-7.91566265060241,-1.4457831325301205,-5.650602409638554,-1.419987737584304,-7.6621704475781724,-5.3660331085223785,3.0,0.6635586635586636,1507.0257611241216,0.6287512382728278,0.6296835848726762,-0.4370374686789816,1364.102564102564,-1.0,100.42292368985596,0.6636315734806771,
2023-08-08 18:25:51.556000,-7.927710843373494,-1.4337349397590362,-5.662650602409639,-1.3464132434089515,-7.738197424892704,-5.397915389331698,3.0,0.6631146631146633,1508.0348175426848,0.3626828273410643,1.0386341122312228,-0.6494959501194569,1361.904761904762,-1.0,100.42292368985596,0.6636262644635543,
2023-08-08 18:25:51.563000,-7.951807228915663,-1.4337349397590362,-5.674698795180723,-1.3979153893316982,-7.718577559779276,-5.3954629061925194,3.0,0.6631146631146633,1508.0348175426848,0.06957636501369302,0.6972787133616914,-0.4785268923722392,1361.1721611721612,-1.0,100.42292368985596,0.663620976943272,
2023-08-08 18:25:51.571000,-7.951807228915663,-1.4337349397590362,-5.662650602409639,-1.4273451870018392,-7.789699570815451,-5.422440220723482,3.0,0.6631146631146633,1508.0348175426848,-0.023541751646174093,0.9212749839752931,-0.47514713594778846,1363.3699633699632,-1.0,100.42292368985596,0.6636157139302047,
2023-08-08 18:25:51.579000,-7.975903614457832,-1.4337349397590362,-5.698795180722892,-1.361128142244022,-7.74310239117106,-5.427345187001839,3.0,0.6631146631146633,1508.0348175426848,-0.024241011596060846,0.8539129421362394,-0.3953149583357614,1362.6373626373625,-1.0,100.42292368985596,0.6636104783583554,
2023-08-08 18:25:51.586000,-7.963855421686747,-1.421686746987952,-5.662650602409639,-1.4150827713059473,-7.782342121397915,-5.346413243408951,3.0,0.6635586635586636,1507.0257611241216,0.020278538546705464,0.0848435405862121,-0.45183847095157603,1360.4395604395604,-1.0,100.42292368985596,0.6636052730765977,
2023-08-08 18:25:51.594000,-7.963855421686747,-1.4096385542168675,-5.686746987951808,-1.3733905579399142,-7.767627222562845,-5.405272838749234,3.0,0.6631146631146633,1508.0348175426848,-0.3174640172484112,0.2819183031291884,-0.26408717440708573,1356.0439560439559,-1.0,100.42292368985596,0.6636001009894027,
2023-08-08 18:25:51.602000,-7.951807228915663,-1.4337349397590362,-5.698795180722892,-1.4543225015328018,-7.74310239117106,-5.429797670141017,3.0,0.6631146631146633,1508.0348175426848,-0.08694132043587237,0.20045451896742578,-0.002097779849658962,1350.9157509157508,-1.0,100.42292368985596,0.6635949649210904,
2023-08-08 18:25:51.609000,-7.951807228915663,-1.4457831325301205,-5.674698795180723,-1.4273451870018392,-7.765174739423666,-5.385652973635806,3.0,0.6631146631146633,1508.0348175426848,-0.3786492628634701,0.13693840685274666,-0.04568498339257598,1348.7179487179487,-1.0,100.42292368985596,0.663589867448828,
2023-08-08 18:25:51.617000,-7.951807228915663,-1.4457831325301205,-5.650602409638554,-1.3881054567749846,-7.806866952789699,-5.407725321888412,3.0,0.6631146631146633,1508.0348175426848,-0.41990559990676607,-0.24555678573509626,0.3079074645999648,1348.7179487179487,-1.0,100.42292368985596,0.6635848110338077,
2023-08-08 18:25:51.625000,-7.9397590361445785,-1.457831325301205,-5.710843373493976,-1.4052728387492335,-7.755364806866952,-5.422440220723482,3.0,0.6631146631146633,1508.0348175426848,-0.41699201678223824,-0.2154886078899832,0.6446011304702522,1350.9157509157508,-1.0,100.42292368985596,0.6635797980140086,
2023-08-08 18:25:51.632000,-7.9397590361445785,-1.4698795180722892,-5.698795180722892,-1.3782955242182708,-7.765174739423666,-5.390557939914163,3.0,0.6631146631146633,1508.0348175426848,-0.35091195151797727,0.19579278596818364,0.4726997261231861,1354.5787545787546,-1.0,100.42292368985596,0.6635748305973278,
2023-08-08 18:25:51.640000,-7.927710843373494,-1.4819277108433735,-5.686746987951808,-1.4273451870018392,-7.76026977314531,-5.375843041079093,3.0,0.6626706626706625,1509.0452261306534,-0.05803857584056938,0.25196666860905614,0.8661499912592506,1357.5091575091574,-1.0,100.42292368985596,0.6635699109938475,
2023-08-08 18:25:51.648000,-7.903614457831326,-1.493975903614458,-5.650602409638554,-1.4052728387492335,-7.721030042918454,-5.3954629061925194,3.0,0.6631146631146633,1508.0348175426848,-0.056640055940795866,0.2505681487092827,0.8607889983101218,1357.5091575091574,-1.0,100.42292368985596,0.6635650412401157,
2023-08-08 18:25:51.655000,-7.903614457831326,-1.493975903614458,-5.698795180722892,-1.4322501532801961,-7.765174739423666,-5.41017780502759,3.0,0.6631146631146633,1508.0348175426848,-0.970805897092244,-0.1962589592681087,0.4575490938756483,1357.5091575091574,-1.0,100.42292368985596,0.663560223172974,
2023-08-08 18:25:51.663000,-7.879518072289157,-1.5060240963855422,-5.674698795180723,-1.5082771305947271,-7.703862660944206,-5.417535254445125,3.0,0.6631146631146633,1508.0348175426848,-0.32107686032282584,0.0632830254647157,0.8497173824369211,1355.3113553113553,-1.0,100.42292368985596,0.6635554584457325,
2023-08-08 18:25:51.671000,-7.867469879518072,-1.5060240963855422,-5.686746987951808,-1.4837522992029428,-7.728387492335989,-5.429797670141017,3.0,0.6631146631146633,1508.0348175426848,-0.34881417166831696,-0.36629567041547717,0.21432317464017264,1353.113553113553,-1.0,100.42292368985596,0.6635507484059117,
2023-08-08 18:25:51.678000,-7.867469879518072,-1.5060240963855422,-5.686746987951808,-1.5156345800122624,-7.701410177805027,-5.419987737584304,3.0,0.6631146631146633,1508.0348175426848,-0.438785618553698,0.10791911893246285,0.4731658994231103,1350.18315018315,-1.0,100.42292368985596,0.6635460942396861,
2023-08-08 18:25:51.686000,-7.879518072289157,-1.5180722891566265,-5.710843373493976,-1.461679950950337,-7.713672593500919,-5.383200490496628,3.0,0.6631146631146633,1508.0348175426848,-0.1003438028086946,0.167356214672804,0.8497173824369211,1348.7179487179487,-1.0,100.42292368985596,0.6635414969676027,
2023-08-08 18:25:51.694000,-7.867469879518072,-1.5180722891566265,-5.710843373493976,-1.4763948497854076,-7.689147762109135,-5.444512568976088,3.0,0.6631146631146633,1508.0348175426848,-0.4678049064739819,0.3343627993706655,0.6721053551657831,1347.2527472527472,-1.0,100.42292368985596,0.6635369574408914,
2023-08-08 18:25:51.701000,-7.867469879518072,-1.5180722891566265,-5.698795180722892,-1.4420600858369097,-7.686695278969957,-5.439607602697731,3.0,0.6631146631146633,1508.0348175426848,-0.9382903094225281,-0.15640114212458453,0.5138395198415012,1347.2527472527472,-1.0,100.42292368985596,0.6635324763383935,
2023-08-08 18:25:51.709000,-7.867469879518072,-1.493975903614458,-5.686746987951808,-1.4101778050275904,-7.6695278969957075,-5.397915389331698,3.0,0.6631146631146633,1508.0348175426848,-0.7342229473806895,0.17656313734630918,0.3107045043995106,1346.5201465201465,-1.0,100.42292368985596,0.6635280541641297,
2023-08-08 18:25:51.717000,-7.891566265060241,-1.457831325301205,-5.686746987951808,-1.4322501532801961,-7.664622930717351,-5.380748007357449,3.0,0.6631146631146633,1508.0348175426848,-0.6836431443389076,-0.027271138045567803,0.12703222422935734,1343.5897435897434,-1.0,100.42292368985596,0.6635236912455289,
2023-08-08 18:25:51.724000,-7.879518072289157,-1.457831325301205,-5.710843373493976,-1.39546290619252,-7.74310239117106,-5.3733905579399135,3.0,0.6635586635586636,1507.0257611241216,-0.7691859448750064,-0.10652059903269108,0.5387797913874484,1341.3919413919414,-1.0,100.42292368985596,0.6635193877323243,
2023-08-08 18:25:51.732000,-7.927710843373494,-1.457831325301205,-5.698795180722892,-1.4739423666462292,-7.740649908031882,-5.41017780502759,3.0,0.6631146631146633,1508.0348175426848,-0.6425033506205924,-0.2478876522347182,-0.043121030242992804,1340.6593406593406,-1.0,100.42292368985596,0.6635151437454414,
2023-08-08 18:25:51.740000,-7.903614457831326,-1.4337349397590362,-5.710843373493976,-1.4224402207234825,-7.6989576946658485,-5.473942366646229,3.0,0.6631146631146633,1508.0348175426848,-0.7119631723093064,-0.1715517743721228,-0.11794184488083474,1342.1245421245421,-1.0,100.42292368985596,0.6635109592498574,
2023-08-08 18:25:51.747000,-7.927710843373494,-1.4457831325301205,-5.746987951807229,-1.4297976701410178,-7.713672593500919,-5.459227467811158,3.0,0.6635586635586636,1507.0257611241216,-0.6601013926927335,-0.6173299924246831,-0.117242584930948,1345.054945054945,-1.0,100.42292368985596,0.6635068338966544,
2023-08-08 18:25:51.755000,-7.903614457831326,-1.4337349397590362,-5.698795180722892,-1.4224402207234825,-7.725935009196811,-5.412630288166769,3.0,0.6626706626706625,1509.0452261306534,-0.6257211118233208,-0.8746576539828682,-0.23844764291125223,1347.985347985348,-1.0,100.42292368985596,0.6635027673129373,
2023-08-08 18:25:51.763000,-7.903614457831326,-1.4337349397590362,-5.710843373493976,-1.4052728387492335,-7.701410177805027,-5.388105456774984,3.0,0.6631146631146633,1508.0348175426848,-1.0305926228075295,-0.8236116776411629,-0.2674669308315365,1351.6483516483515,-1.0,100.42292368985596,0.663498758827694,
2023-08-08 18:25:51.770000,-7.903614457831326,-1.4096385542168675,-5.662650602409639,-1.2826486817903127,-7.74310239117106,-5.378295524218271,3.0,0.6631146631146633,1508.0348175426848,-0.7767612609987764,-1.2304644251500492,-0.14474680962647876,1354.5787545787546,-1.0,100.42292368985596,0.6634948074435383,
2023-08-08 18:25:51.778000,-7.891566265060241,-1.385542168674699,-5.674698795180723,-1.3832004904966277,-7.6989576946658485,-5.351318209687308,3.0,0.6631146631146633,1508.0348175426848,-0.7998368393450271,-0.8709282675834745,-0.2506846920342639,1354.5787545787546,-1.0,100.42292368985596,0.6634909121385216,
2023-08-08 18:25:51.786000,-7.891566265060241,-1.3734939759036144,-5.626506024096386,-1.3267933782955241,-7.679337829552422,-5.3586756591048434,3.0,0.6631146631146633,1508.0348175426848,-0.9311811665986832,-1.0629916671522643,-0.18868364314433872,1351.6483516483515,-1.0,100.42292368985596,0.6634870717319838,
2023-08-08 18:25:51.793000,-7.891566265060241,-1.385542168674699,-5.63855421686747,-1.25567136725935,-7.706315144083384,-5.356223175965665,3.0,0.6626706626706625,1509.0452261306534,-0.739350853679855,-1.3609929491288377,-0.40160829788473873,1342.1245421245421,-1.0,100.42292368985596,0.663483284889805,
2023-08-08 18:25:51.801000,-7.91566265060241,-1.3614457831325302,-5.614457831325302,-1.3586756591048437,-7.777437155119558,-5.312078479460453,3.0,0.6626706626706625,1509.0452261306534,-0.548336344035896,-1.16461744653575,-0.3841267991375794,1333.3333333333333,-1.0,100.42292368985596,0.663479550119735,
2023-08-08 18:25:51.808000,-7.9397590361445785,-1.385542168674699,-5.614457831325302,-1.2777437155119558,-7.716125076640098,-5.341508277130594,3.0,0.6631146631146633,1508.0348175426848,-0.8509993590117133,-1.1107744303944993,-0.8568265252607655,1324.5421245421244,-1.0,100.42292368985596,0.6634758655968758,
2023-08-08 18:25:51.816000,-7.927710843373494,-1.385542168674699,-5.626506024096386,-1.3684855916615573,-7.797057020232986,-5.368485591661557,3.0,0.6631146631146633,1508.0348175426848,-0.49227900472000435,-0.783520773847677,-0.49997086416875475,1318.6813186813185,-1.0,100.42292368985596,0.6634722294682399,
2023-08-08 18:25:51.824000,-7.963855421686747,-1.385542168674699,-5.590361445783133,-1.3464132434089515,-7.792152053954629,-5.353770692826487,3.0,0.6631146631146633,1508.0348175426848,-0.5174523629159137,-0.7620768020511632,-0.34217120214439717,1313.5531135531135,-1.0,100.42292368985596,0.6634686398703393,
2023-08-08 18:25:51.831000,-7.9397590361445785,-1.385542168674699,-5.614457831325302,-1.3464132434089515,-7.752912323727774,-5.339055793991416,3.0,0.6631146631146633,1508.0348175426848,-0.4202552298817086,-0.5728104422819186,-0.41454460695763634,1312.087912087912,-1.0,100.42292368985596,0.6634650946704119,
2023-08-08 18:25:51.839000,-7.9397590361445785,-1.385542168674699,-5.602409638554217,-1.3832004904966277,-7.762722256284488,-5.2924586143470265,3.0,0.6631146631146633,1508.0348175426848,0.18075869704562622,-0.6293339548977336,-0.38202901928792043,1313.5531135531135,-1.0,100.42292368985596,0.6634615917623573,
2023-08-08 18:25:51.847000,-7.951807228915663,-1.385542168674699,-5.602409638554217,-1.2949110974862048,-7.750459840588595,-5.326793378295524,3.0,0.6631146631146633,1508.0348175426848,0.4714177495483947,-0.6848085775887194,-0.27107977390594934,1316.4835164835165,-1.0,100.42292368985596,0.6634581289159884,
2023-08-08 18:25:51.854000,-7.951807228915663,-1.3975903614457832,-5.614457831325302,-1.361128142244022,-7.77498467198038,-5.353770692826487,3.0,0.6631146631146633,1508.0348175426848,0.33179884622108186,-0.315133150748791,0.1575665753743955,1321.6117216117216,-1.0,100.42292368985596,0.6634547036582512,
2023-08-08 18:25:51.862000,-7.9397590361445785,-1.4096385542168675,-5.614457831325302,-1.3930104230533413,-7.792152053954629,-5.280196198651134,3.0,0.6631146631146633,1508.0348175426848,0.49962123419381094,-0.1792436338208736,0.3372763824951925,1328.2051282051282,-1.0,100.42292368985596,0.6634513134315682,
2023-08-08 18:25:51.870000,-7.927710843373494,-1.421686746987952,-5.63855421686747,-1.4175352544451256,-7.811771919068056,-5.3218884120171674,3.0,0.6631146631146633,1508.0348175426848,0.7571819824019577,0.24718839228483144,0.1198065380805316,1337.7289377289376,-1.0,100.42292368985596,0.6634479556032811,
2023-08-08 18:25:51.877000,-7.927710843373494,-1.385542168674699,-5.602409638554217,-1.3513182096873084,-7.787247087676271,-5.31698344573881,3.0,0.6626706626706625,1509.0452261306534,0.7992541227201212,0.6862070974884912,0.7135947788590407,1350.9157509157508,-1.0,100.42292368985596,0.663444627614184,
2023-08-08 18:25:51.885000,-7.927710843373494,-1.4096385542168675,-5.626506024096386,-1.3881054567749846,-7.794604537093807,-5.3292458614347025,3.0,0.6631146631146633,1508.0348175426848,0.623273701998718,0.6177961657246083,0.6163976458248351,1365.5677655677655,-1.0,100.42292368985596,0.6634413266802098,
2023-08-08 18:25:51.893000,-7.91566265060241,-1.421686746987952,-5.650602409638554,-1.3807480073574494,-7.752912323727774,-5.368485591661557,3.0,0.6631146631146633,1508.0348175426848,0.45043995105180423,0.5399452246372585,0.9626478643435699,1381.6849816849815,-1.0,100.42292368985596,0.6634380498026134,
2023-08-08 18:25:51.900000,-7.91566265060241,-1.3975903614457832,-5.674698795180723,-1.3488657265481299,-7.728387492335989,-5.3439607602697725,3.0,0.6631146631146633,1508.0348175426848,0.7189557718081704,0.3542917079424284,0.5880776178544372,1398.5347985347985,-1.0,100.42292368985596,0.6634347940866252,
2023-08-08 18:25:51.908000,-7.927710843373494,-1.3975903614457832,-5.674698795180723,-1.437155119558553,-7.75781729000613,-5.4028203556100545,3.0,0.6631146631146633,1508.0348175426848,0.5892430511042478,0.3377425557951167,0.8752403706077733,1416.117216117216,-1.0,100.42292368985596,0.6634315566131361,
2023-08-08 18:25:51.916000,-7.91566265060241,-1.3975903614457832,-5.662650602409639,-1.3243408951563458,-7.671980380134886,-5.3954629061925194,3.0,0.6631146631146633,1508.0348175426848,1.010197540935843,0.015616805547461593,0.884214206631315,1435.164835164835,-1.0,100.42292368985596,0.6634283344492965,
2023-08-08 18:25:51.923000,-7.927710843373494,-1.385542168674699,-5.72289156626506,-1.361128142244022,-7.689147762109135,-5.449417535254445,3.0,0.6631146631146633,1508.0348175426848,0.9395722859973191,-0.0927684866849246,0.5109259367169746,1453.4798534798533,-1.0,100.42292368985596,0.6634251246592414,
2023-08-08 18:25:51.931000,-7.879518072289157,-1.3975903614457832,-5.710843373493976,-1.3390557939914163,-7.6695278969957075,-5.449417535254445,3.0,0.6631146631146633,1508.0348175426848,0.9314142532486449,-0.09440009323465978,0.5067303770176563,1468.8644688644688,-1.0,100.42292368985596,0.6634219243149054,
2023-08-08 18:25:51.939000,-7.891566265060241,-1.421686746987952,-5.698795180722892,-1.366033108522379,-7.664622930717351,-5.464132434089516,3.0,0.6626706626706625,1509.0452261306534,1.3063341297127213,-0.26082396130761537,0.30359536157566563,1482.051282051282,-1.0,100.42292368985596,0.6634187306456293,
2023-08-08 18:25:51.946000,-7.891566265060241,-1.3975903614457832,-5.686746987951808,-1.366033108522379,-7.667075413856529,-5.449417535254445,3.0,0.6626706626706625,1509.0452261306534,0.565002039508187,-0.45813181050055335,0.07295612143814464,1490.10989010989,-1.0,100.42292368985596,0.6634155407406035,
2023-08-08 18:25:51.954000,-7.879518072289157,-1.3975903614457832,-5.698795180722892,-1.390557939914163,-7.706315144083384,-5.439607602697731,3.0,0.6626706626706625,1509.0452261306534,0.5617388264087165,-0.775828914398928,-0.33984033564477606,1494.5054945054944,-1.0,100.42292368985596,0.6634123515489543,
2023-08-08 18:25:51.962000,-7.891566265060241,-1.4096385542168675,-5.698795180722892,-1.331698344573881,-7.694052728387492,-5.476394849785407,3.0,0.6631146631146633,1508.0348175426848,0.08461045393625043,-0.8456383660625844,-0.7196550317580563,1493.7728937728937,-1.0,100.42292368985596,0.6634091601562723,
2023-08-08 18:25:51.969000,-7.903614457831326,-1.421686746987952,-5.710843373493976,-1.356223175965665,-7.713672593500919,-5.478847332924586,3.0,0.6631146631146633,1508.0348175426848,-0.17586387739642242,-0.7619602587261807,-0.7141774954839462,1490.10989010989,-1.0,100.42292368985596,0.6634059637944713,
2023-08-08 18:25:51.977000,-7.927710843373494,-1.421686746987952,-5.710843373493976,-1.4003678724708768,-7.721030042918454,-5.449417535254445,3.0,0.6631146631146633,1508.0348175426848,-0.11118233203193321,-0.4951925878445305,-1.0767437795000292,1484.2490842490843,-1.0,100.42292368985596,0.6634027598729904,
2023-08-08 18:25:51.985000,-7.91566265060241,-1.4337349397590362,-5.698795180722892,-1.390557939914163,-7.728387492335989,-5.3635806253832,3.0,0.6631146631146633,1508.0348175426848,-0.43202610570479566,-1.0713827865509002,-1.172892022609405,1473.9926739926739,-1.0,100.42292368985596,0.6633995457117445,
2023-08-08 18:25:51.992000,-7.91566265060241,-1.457831325301205,-5.698795180722892,-1.461679950950337,-7.75781729000613,-5.356223175965665,3.0,0.6631146631146633,1508.0348175426848,-0.3556902278422002,-1.1258085193170568,-1.1937532777810151,1462.2710622710622,-1.0,100.42292368985596,0.6633963185715581,
2023-08-08 18:25:52,-7.9397590361445785,-1.4698795180722892,-5.710843373493976,-1.4420600858369097,-7.784794604537093,-5.3635806253832,3.0,0.6626706626706625,1509.0452261306534,-0.5974010838529219,-1.1173008565934384,-1.4452537730901462,1450.5494505494505,-1.0,100.42292368985596,0.6633930758117792,
2023-08-08 18:25:52.008000,-7.951807228915663,-1.493975903614458,-5.674698795180723,-1.4641324340895157,-7.76026977314531,-5.3635806253832,3.0,0.6631146631146633,1508.0348175426848,-0.7463434531787191,-1.0622924072023776,-1.389895693724142,1438.095238095238,674.072265625,89.0112278160087,0.6633898147490548,
2023-08-08 18:25:52.015000,-7.9397590361445785,-1.4819277108433735,-5.650602409638554,-1.4469650521152666,-7.723482526057633,-5.41017780502759,3.0,0.6626706626706625,1509.0452261306534,-0.6193112289493626,-1.1485344676883633,-1.121962589592681,1424.1758241758241,-1.0,89.0112278160087,0.663386532792543,
2023-08-08 18:25:52.023000,-7.963855421686747,-1.5180722891566265,-5.650602409638554,-1.4420600858369097,-7.789699570815451,-5.3218884120171674,3.0,0.6631146631146633,1508.0348175426848,-0.8910902628051974,-1.0913116951226616,-0.9162636210011071,1410.989010989011,-1.0,89.0112278160087,0.6633832274610517,
2023-08-08 18:25:52.031000,-7.9397590361445785,-1.4819277108433735,-5.650602409638554,-1.4788473329245861,-7.721030042918454,-5.339055793991416,3.0,0.6631146631146633,1508.0348175426848,-0.8378299632888527,-1.4184488083445013,-1.2154303362274927,1398.5347985347985,-1.0,89.0112278160087,0.6633798963787011,
2023-08-08 18:25:52.038000,-7.975903614457832,-1.5180722891566265,-5.650602409638554,-1.4641324340895157,-7.777437155119558,-5.339055793991416,3.0,0.6631146631146633,1508.0348175426848,-0.3589534409416706,-1.3444437969815277,-0.5812015616805548,1386.080586080586,-1.0,89.0112278160087,0.663376537579275,
2023-08-08 18:25:52.046000,-7.963855421686747,-1.493975903614458,-5.626506024096386,-1.4445125689760883,-7.76026977314531,-5.2924586143470265,3.0,0.6631146631146633,1508.0348175426848,-0.23611677641163117,-1.376143581376376,-0.8067128955189091,1372.8937728937728,-1.0,89.0112278160087,0.6633731492144794,
2023-08-08 18:25:52.054000,-7.91566265060241,-1.493975903614458,-5.602409638554217,-1.4788473329245861,-7.762722256284488,-5.290006131207847,3.0,0.6631146631146633,1508.0348175426848,-0.41699201678223824,-0.8289726705902918,-0.23600023308664989,1363.3699633699632,-1.0,89.0112278160087,0.6633697294321098,
2023-08-08 18:25:52.061000,-7.927710843373494,-1.4819277108433735,-5.614457831325302,-1.4788473329245861,-7.713672593500919,-5.290006131207847,3.0,0.6631146631146633,1508.0348175426848,-0.2773731134549271,-0.776295087698853,-0.5251442223646641,1356.0439560439559,-1.0,89.0112278160087,0.6633662765305648,
2023-08-08 18:25:52.069000,-7.9397590361445785,-1.4819277108433735,-5.590361445783133,-1.4248927038626609,-7.750459840588595,-5.30226854690374,3.0,0.6631146631146633,1508.0348175426848,0.014101742322708983,-0.6674436221665401,-0.10978381213216014,1350.9157509157508,-1.0,89.0112278160087,0.6633627889636885,
2023-08-08 18:25:52.077000,-7.9397590361445785,-1.4819277108433735,-5.590361445783133,-1.4175352544451256,-7.794604537093807,-5.265481299816064,3.0,0.6626706626706625,1509.0452261306534,-0.01619952217236751,-0.6188450556494375,-0.1555853388497174,1345.054945054945,-1.0,89.0112278160087,0.6633592654839723,
2023-08-08 18:25:52.084000,-7.927710843373494,-1.4698795180722892,-5.590361445783133,-1.4175352544451256,-7.777437155119558,-5.2998160637645615,3.0,0.6631146631146633,1508.0348175426848,0.45789872385059166,0.01200396247304872,-0.017364955422178478,1342.8571428571427,-1.0,89.0112278160087,0.6633557048381917,
2023-08-08 18:25:52.092000,-7.927710843373494,-1.4698795180722892,-5.626506024096386,-1.4396076026977314,-7.76026977314531,-5.3366033108522375,3.0,0.6631146631146633,1508.0348175426848,0.08915564361051173,0.10465590583299249,-0.09195268341005744,1345.054945054945,-1.0,89.0112278160087,0.6633521057708665,
2023-08-08 18:25:52.100000,-7.927710843373494,-1.457831325301205,-5.626506024096386,-1.4322501532801961,-7.745554874310239,-5.2924586143470265,3.0,0.6626706626706625,1509.0452261306534,0.16490880484820297,0.02925237457024723,0.17038634112231182,1345.7875457875457,-1.0,89.0112278160087,0.6633484673355388,
2023-08-08 18:25:52.107000,-7.927710843373494,-1.4819277108433735,-5.63855421686747,-1.4812998160637645,-7.708767627222563,-5.341508277130594,3.0,0.6626706626706625,1509.0452261306534,0.3011479517510629,-0.06083561564011466,0.018530388671988578,1347.985347985348,-1.0,89.0112278160087,0.6633447888866727,
2023-08-08 18:25:52.115000,-7.91566265060241,-1.4698795180722892,-5.626506024096386,-1.4126302881667687,-7.6989576946658485,-5.331698344573881,3.0,0.6626706626706625,1509.0452261306534,0.40766855078375397,0.01619952217236751,0.09335120330983052,1351.6483516483515,-1.0,89.0112278160087,0.6633410698803085,
2023-08-08 18:25:52.123000,-7.903614457831326,-1.4698795180722892,-5.63855421686747,-1.4052728387492335,-7.801961986511342,-5.393010423053341,3.0,0.6631146631146633,1508.0348175426848,0.2524328419089795,0.33820872909504,0.1362391469028608,1356.7765567765566,-1.0,89.0112278160087,0.6633373095983881,
2023-08-08 18:25:52.130000,-7.927710843373494,-1.457831325301205,-5.650602409638554,-1.4126302881667687,-7.772532188841201,-5.393010423053341,3.0,0.6626706626706625,1509.0452261306534,0.1774954839461576,0.07470427131286024,0.16455917487325916,1361.1721611721612,-1.0,89.0112278160087,0.6633335074679729,
2023-08-08 18:25:52.138000,-7.927710843373494,-1.4698795180722892,-5.662650602409639,-1.3832004904966277,-7.782342121397915,-5.3292458614347025,3.0,0.6626706626706625,1509.0452261306534,-0.01911310529689363,-0.15581842549967861,0.37690111298875323,1366.3003663003662,-1.0,89.0112278160087,0.6633296632200322,
2023-08-08 18:25:52.146000,-7.9397590361445785,-1.4819277108433735,-5.662650602409639,-1.4322501532801961,-7.752912323727774,-5.370938074800735,3.0,0.6631146631146633,1508.0348175426848,-0.01678223879727343,0.24007924946098655,0.31501660742380977,1370.6959706959706,-1.0,89.0112278160087,0.6633257765689712,
2023-08-08 18:25:52.153000,-7.903614457831326,-1.457831325301205,-5.662650602409639,-1.4445125689760883,-7.770079705702023,-5.331698344573881,3.0,0.6631146631146633,1508.0348175426848,-0.2917079424275978,0.13041198065380769,0.6201270322242293,1374.3589743589744,-1.0,89.0112278160087,0.6633218473703003,
2023-08-08 18:25:52.161000,-7.9397590361445785,-1.4457831325301205,-5.662650602409639,-1.4052728387492335,-7.735744941753525,-5.393010423053341,3.0,0.6626706626706625,1509.0452261306534,0.2447409824602304,0.007575316123769991,0.3687430802400795,1376.5567765567764,-1.0,89.0112278160087,0.6633178757883167,
2023-08-08 18:25:52.169000,-7.9397590361445785,-1.4698795180722892,-5.662650602409639,-1.385652973635806,-7.733292458614347,-5.437155119558553,3.0,0.6631146631146633,1508.0348175426848,-0.0011654332498101003,0.2700308839811205,0.4581318105005538,1379.4871794871794,-1.0,89.0112278160087,0.6633138620057536,
2023-08-08 18:25:52.176000,-7.927710843373494,-1.4457831325301205,-5.698795180722892,-1.461679950950337,-7.762722256284488,-5.434702636419375,3.0,0.6631146631146633,1508.0348175426848,0.05885437911543697,0.16351028494842945,0.6372589009964452,1381.6849816849815,-1.0,89.0112278160087,0.6633098064873559,
2023-08-08 18:25:52.184000,-7.91566265060241,-1.4337349397590362,-5.674698795180723,-1.4347026364193745,-7.75781729000613,-5.44206008583691,3.0,0.6626706626706625,1509.0452261306534,0.17959326379581614,-0.07820057106229227,0.5249111357147019,1380.952380952381,-1.0,89.0112278160087,0.6633057099768264,
2023-08-08 18:25:52.191000,-7.91566265060241,-1.457831325301205,-5.674698795180723,-1.4420600858369097,-7.711220110361741,-5.393010423053341,3.0,0.6626706626706625,1509.0452261306534,-0.0981294796340535,-0.09067070683526607,0.6415710040207444,1380.2197802197802,-1.0,89.0112278160087,0.6633015730778816,
2023-08-08 18:25:52.199000,-7.903614457831326,-1.457831325301205,-5.662650602409639,-1.4175352544451256,-7.708767627222563,-5.287553648068669,3.0,0.6626706626706625,1509.0452261306534,0.11712604160596629,-0.04603461336751892,0.2844822562787716,1378.021978021978,-1.0,89.0112278160087,0.663297396516716,
2023-08-08 18:25:52.207000,-7.903614457831326,-1.4337349397590362,-5.650602409638554,-1.3807480073574494,-7.701410177805027,-5.388105456774984,3.0,0.6631146631146633,1508.0348175426848,0.11700949828098545,-0.04673387331740568,0.28331682302896105,1374.3589743589744,-1.0,89.0112278160087,0.6632931811160457,
2023-08-08 18:25:52.214000,-7.891566265060241,-1.4337349397590362,-5.650602409638554,-1.39546290619252,-7.723482526057633,-5.324340895156346,3.0,0.6626706626706625,1509.0452261306534,0.04102325039333428,0.05827166249053105,0.43598857875415187,1372.161172161172,-1.0,89.0112278160087,0.6632889279496067,
2023-08-08 18:25:52.222000,-7.903614457831326,-1.4096385542168675,-5.650602409638554,-1.3782955242182708,-7.711220110361741,-5.339055793991416,3.0,0.6631146631146633,1508.0348175426848,0.07167414486335329,0.058388205815511886,0.311636850999359,1372.161172161172,-1.0,89.0112278160087,0.6632846383372082,
2023-08-08 18:25:52.230000,-7.91566265060241,-1.3975903614457832,-5.662650602409639,-1.4224402207234825,-7.809319435928877,-5.415082771305947,3.0,0.6631146631146633,1508.0348175426848,-0.034613367519376124,-0.21607132451488736,0.04894819649204591,1370.6959706959706,-1.0,89.0112278160087,0.6632803135416168,
2023-08-08 18:25:52.237000,-7.903614457831326,-1.3975903614457832,-5.63855421686747,-1.385652973635806,-7.740649908031882,-5.346413243408951,3.0,0.6631146631146633,1508.0348175426848,-0.27772274342986963,-0.28891090262805247,0.09463317988462232,1369.230769230769,-1.0,89.0112278160087,0.6632759550826215,
2023-08-08 18:25:52.245000,-7.91566265060241,-1.4096385542168675,-5.626506024096386,-1.39546290619252,-7.752912323727774,-5.3366033108522375,3.0,0.6631146631146633,1508.0348175426848,-0.22772565701299533,-0.16094633179884585,0.2755084202552298,1367.7655677655678,-1.0,89.0112278160087,0.6632715647214804,
2023-08-08 18:25:52.253000,-7.9397590361445785,-1.421686746987952,-5.63855421686747,-1.3415082771305946,-7.782342121397915,-5.353770692826487,3.0,0.6626706626706625,1509.0452261306534,-0.21001107161587346,-0.3539420779674842,-0.07645242118757668,1365.5677655677655,-1.0,89.0112278160087,0.663267144307212,
2023-08-08 18:25:52.260000,-7.951807228915663,-1.4096385542168675,-5.614457831325302,-1.390557939914163,-7.787247087676271,-5.385652973635806,3.0,0.6626706626706625,1509.0452261306534,-0.27212866383077905,-0.48516986189615946,-0.07482081463784195,1361.904761904762,-1.0,89.0112278160087,0.6632626957614741,
2023-08-08 18:25:52.268000,-7.951807228915663,-1.421686746987952,-5.650602409638554,-1.390557939914163,-7.750459840588595,-5.3292458614347025,3.0,0.6626706626706625,1509.0452261306534,-0.11642678165608127,0.1341413670532014,-0.3489307149932987,1358.974358974359,-1.0,89.0112278160087,0.6632582208928438,
2023-08-08 18:25:52.276000,-7.927710843373494,-1.4096385542168675,-5.63855421686747,-1.3758430410790925,-7.762722256284488,-5.375843041079093,3.0,0.6626706626706625,1509.0452261306534,-0.22399627061359986,-0.3817959326379579,-0.44088339840335655,1357.5091575091574,-1.0,89.0112278160087,0.6632537214014523,
2023-08-08 18:25:52.283000,-7.91566265060241,-1.421686746987952,-5.626506024096386,-1.3341508277130594,-7.762722256284488,-5.415082771305947,3.0,0.6626706626706625,1509.0452261306534,-0.2870462094283556,-0.4974069110191716,-0.2875123827282794,1356.7765567765566,-1.0,89.0112278160087,0.6632491988825637,
2023-08-08 18:25:52.291000,-7.927710843373494,-1.3975903614457832,-5.662650602409639,-1.3415082771305946,-7.755364806866952,-5.3292458614347025,3.0,0.6631146631146633,1508.0348175426848,0.06223413553988644,-0.2790047200046623,-0.4389021618786784,1356.0439560439559,-1.0,89.0112278160087,0.6632446548397711,
2023-08-08 18:25:52.299000,-7.9397590361445785,-1.3975903614457832,-5.626506024096386,-1.3439607602697732,-7.735744941753525,-5.361128142244022,3.0,0.6626706626706625,1509.0452261306534,-0.17026979779733184,-0.5486859740108386,-0.28110249985432084,1354.5787545787546,-1.0,89.0112278160087,0.6632400911136628,
2023-08-08 18:25:52.306000,-7.951807228915663,-1.421686746987952,-5.650602409638554,-1.3464132434089515,-7.725935009196811,-5.334150827713059,3.0,0.6631146631146633,1508.0348175426848,-0.03251558766971586,-0.4197890565817852,-0.3084901812248703,1353.8461538461538,-1.0,89.0112278160087,0.6632355095866622,
2023-08-08 18:25:52.314000,-7.927710843373494,-1.4096385542168675,-5.614457831325302,-1.4003678724708768,-7.82158185162477,-5.319435928877989,3.0,0.6626706626706625,1509.0452261306534,0.18122487034555132,-0.4616281102499854,0.09090379348522817,1353.113553113553,-1.0,89.0112278160087,0.6632309121760098,
2023-08-08 18:25:52.322000,-7.9397590361445785,-1.4096385542168675,-5.590361445783133,-1.366033108522379,-7.6989576946658485,-5.339055793991416,3.0,0.6626706626706625,1509.0452261306534,0.0090903793485226,0.04556844006759558,-0.12190431793019056,1352.3809523809523,-1.0,89.0112278160087,0.6632263009656237,
2023-08-08 18:25:52.329000,-7.951807228915663,-1.4096385542168675,-5.602409638554217,-1.3464132434089515,-7.801961986511342,-5.3292458614347025,3.0,0.6626706626706625,1509.0452261306534,0.021443971796515564,-0.25651185828331574,-0.36466406386574196,1353.113553113553,-1.0,89.0112278160087,0.6632216778909609,
2023-08-08 18:25:52.337000,-7.9397590361445785,-1.421686746987952,-5.614457831325302,-1.4126302881667687,-7.745554874310239,-5.304721030042918,3.0,0.6626706626706625,1509.0452261306534,0.03426373754443188,-0.20301847211700938,-0.19008216304411138,1353.113553113553,-1.0,89.0112278160087,0.6632170448710558,
2023-08-08 18:25:52.345000,-7.903614457831326,-1.4096385542168675,-5.614457831325302,-1.3194359288779889,-7.711220110361741,-5.297363580625383,3.0,0.6631146631146633,1508.0348175426848,0.15500262222481276,-0.3162985839986011,-0.029951634520133115,1354.5787545787546,-1.0,89.0112278160087,0.663212403801848,
2023-08-08 18:25:52.352000,-7.927710843373494,-1.421686746987952,-5.63855421686747,-1.4028203556100551,-7.684242795830778,-5.351318209687308,3.0,0.6626706626706625,1509.0452261306534,0.18472117009498334,-0.04859856651710253,0.08006526426198957,1353.8461538461538,-1.0,89.0112278160087,0.6632077566988805,
2023-08-08 18:25:52.360000,-7.9397590361445785,-1.4337349397590362,-5.614457831325302,-1.3782955242182708,-7.755364806866952,-5.334150827713059,3.0,0.6626706626706625,1509.0452261306534,0.42724782938057265,0.41337917370782534,-0.26583532428180173,1350.9157509157508,-1.0,89.0112278160087,0.6632031055633922,
2023-08-08 18:25:52.368000,-7.9397590361445785,-1.4337349397590362,-5.614457831325302,-1.3439607602697732,-7.792152053954629,-5.309625996321275,3.0,0.6626706626706625,1509.0452261306534,0.21245848144047624,0.10931763883223636,-0.2612901346075404,1348.7179487179487,-1.0,89.0112278160087,0.6631984522170329,
2023-08-08 18:25:52.375000,-7.927710843373494,-1.4096385542168675,-5.614457831325302,-1.4101778050275904,-7.730839975475168,-5.30226854690374,3.0,0.6626706626706625,1509.0452261306534,0.15255521240021,0.08321193403647865,-0.30254647165083637,1346.5201465201465,-1.0,89.0112278160087,0.6631937984346217,
2023-08-08 18:25:52.383000,-7.951807228915663,-1.4457831325301205,-5.626506024096386,-1.3390557939914163,-7.762722256284488,-5.356223175965665,3.0,0.6626706626706625,1509.0452261306534,0.44426315482780776,0.19474389604335438,0.12982926402890263,1345.7875457875457,-1.0,89.0112278160087,0.6631891459383559,
2023-08-08 18:25:52.391000,-7.975903614457832,-1.421686746987952,-5.63855421686747,-1.3709380748007356,-7.740649908031882,-5.339055793991416,3.0,0.6626706626706625,1509.0452261306534,0.5043995105180357,0.38074704271312865,-0.18949944641920632,1345.054945054945,-1.0,89.0112278160087,0.663184496392238,
2023-08-08 18:25:52.398000,-7.975903614457832,-1.4337349397590362,-5.662650602409639,-1.3243408951563458,-7.708767627222563,-5.3660331085223785,3.0,0.6626706626706625,1509.0452261306534,0.5529980770351381,-0.04428646349280291,-0.2644368043820291,1342.1245421245421,-1.0,89.0112278160087,0.6631798513967668,
2023-08-08 18:25:52.406000,-7.963855421686747,-1.4457831325301205,-5.614457831325302,-1.3930104230533413,-7.770079705702023,-5.361128142244022,3.0,0.6622266622266622,1510.0569896077775,0.2919410290775594,0.09859565293397857,-0.09440009323465978,1339.194139194139,-1.0,89.0112278160087,0.6631752123451491,
2023-08-08 18:25:52.414000,-7.9397590361445785,-1.4337349397590362,-5.63855421686747,-1.39546290619252,-7.782342121397915,-5.400367872470876,3.0,0.6626706626706625,1509.0452261306534,0.1857700600198126,-0.006060252899015646,-0.03542917079424284,1334.065934065934,-1.0,89.0112278160087,0.6631705805671538,
2023-08-08 18:25:52.421000,-7.9397590361445785,-1.4337349397590362,-5.602409638554217,-1.3464132434089515,-7.6621704475781724,-5.351318209687308,3.0,0.6626706626706625,1509.0452261306534,0.5370316415127324,0.408833984033564,-0.02249286172134483,1328.937728937729,-1.0,89.0112278160087,0.6631659575593664,
2023-08-08 18:25:52.429000,-7.963855421686747,-1.4698795180722892,-5.626506024096386,-1.449417535254445,-7.733292458614347,-5.3586756591048434,3.0,0.6626706626706625,1509.0452261306534,0.09346774663481136,0.3328477361459129,-0.2843657129537903,1323.8095238095236,-1.0,89.0112278160087,0.6631613447042356,
2023-08-08 18:25:52.437000,-7.9397590361445785,-1.457831325301205,-5.674698795180723,-1.471489883507051,-7.789699570815451,-5.356223175965665,3.0,0.6626706626706625,1509.0452261306534,0.24613950236000218,0.407085834158848,-0.14696113280111855,1325.2747252747251,-1.0,89.0112278160087,0.6631567431491451,
2023-08-08 18:25:52.444000,-7.9397590361445785,-1.4698795180722892,-5.63855421686747,-1.4420600858369097,-7.799509503372164,-5.34886572654813,3.0,0.6626706626706625,1509.0452261306534,0.2283083736378995,0.4914632014451368,-0.08635860381096688,1328.937728937729,-1.0,89.0112278160087,0.6631521539520422,
2023-08-08 18:25:52.452000,-7.951807228915663,-1.493975903614458,-5.614457831325302,-1.4935622317596566,-7.77498467198038,-5.3292458614347025,3.0,0.6626706626706625,1509.0452261306534,0.44030068177845066,0.40801818075869645,-0.3323815628459878,1329.6703296703297,-1.0,89.0112278160087,0.6631475780781944,
2023-08-08 18:25:52.460000,-7.927710843373494,-1.4819277108433735,-5.614457831325302,-1.4518700183936235,-7.752912323727774,-5.405272838749234,3.0,0.6626706626706625,1509.0452261306534,0.30033214847619527,0.5266592855894171,-0.07260649146320128,1331.135531135531,-1.0,89.0112278160087,0.6631430165361293,
2023-08-08 18:25:52.467000,-7.9397590361445785,-1.4819277108433735,-5.614457831325302,-1.491109748620478,-7.76026977314531,-5.331698344573881,3.0,0.6631146631146633,1508.0348175426848,0.4372705553289437,0.4753802225977501,-0.10384010255812576,1333.3333333333333,-1.0,89.0112278160087,0.6631384702161486,
2023-08-08 18:25:52.475000,-7.91566265060241,-1.4819277108433735,-5.614457831325302,-1.419987737584304,-7.718577559779276,-5.2703862660944205,3.0,0.6626706626706625,1509.0452261306534,0.05244449624147708,0.608472699726124,-0.4544024241011596,1336.263736263736,-1.0,89.0112278160087,0.6631339399101205,
2023-08-08 18:25:52.483000,-7.91566265060241,-1.4819277108433735,-5.614457831325302,-1.4150827713059473,-7.765174739423666,-5.356223175965665,3.0,0.6626706626706625,1509.0452261306534,0.05547462269098577,0.6028786201270316,-0.4495076044519549,1337.7289377289376,-1.0,89.0112278160087,0.6631294263317495,
2023-08-08 18:25:52.490000,-7.9397590361445785,-1.493975903614458,-5.614457831325302,-1.4396076026977314,-7.797057020232986,-5.375843041079093,3.0,0.6626706626706625,1509.0452261306534,0.19672513256803206,0.33937416234485185,0.05920400909037948,1339.194139194139,-1.0,89.0112278160087,0.6631249299565223,
2023-08-08 18:25:52.498000,-7.9397590361445785,-1.5060240963855422,-5.614457831325302,-1.449417535254445,-7.75781729000613,-5.361128142244022,3.0,0.6626706626706625,1509.0452261306534,-0.08892255696055006,0.37993123943826107,-0.060485985665171285,1340.6593406593406,-1.0,89.0112278160087,0.6631204512987757,
2023-08-08 18:25:52.506000,-7.951807228915663,-1.5060240963855422,-5.650602409638554,-1.4592274678111588,-7.772532188841201,-5.400367872470876,3.0,0.6626706626706625,1509.0452261306534,-0.09719713303420506,0.6059087465765404,-0.059320552415360314,1339.9267399267399,-1.0,89.0112278160087,0.6631159907526342,
2023-08-08 18:25:52.513000,-7.9397590361445785,-1.5180722891566265,-5.63855421686747,-1.5156345800122624,-7.735744941753525,-5.353770692826487,3.0,0.6626706626706625,1509.0452261306534,0.16723967134782317,0.3900705087116129,-0.16316065497348609,1340.6593406593406,-1.0,89.0112278160087,0.6631115484649593,
2023-08-08 18:25:52.521000,-7.9397590361445785,-1.530120481927711,-5.63855421686747,-1.4935622317596566,-7.735744941753525,-5.356223175965665,3.0,0.6626706626706625,1509.0452261306534,0.20033797564244493,0.81999883456675,-0.022842491696288207,1342.8571428571427,-1.0,89.0112278160087,0.6631071246242615,
2023-08-08 18:25:52.529000,-7.927710843373494,-1.5421686746987953,-5.63855421686747,-1.4862047823421214,-7.755364806866952,-5.3660331085223785,3.0,0.6626706626706625,1509.0452261306534,0.036128430744128734,0.6824777110890975,0.17877746052094853,1345.054945054945,-1.0,89.0112278160087,0.6631027193029325,
2023-08-08 18:25:52.536000,-7.927710843373494,-1.5180722891566265,-5.686746987951808,-1.39546290619252,-7.752912323727774,-5.3660331085223785,3.0,0.6626706626706625,1509.0452261306534,0.04160596701823846,0.5310879319386975,0.1778451139211001,1347.2527472527472,-1.0,89.0112278160087,0.6630983323314855,
2023-08-08 18:25:52.544000,-7.91566265060241,-1.5180722891566265,-5.698795180722892,-1.5009196811771919,-7.750459840588595,-5.432250153280196,3.0,0.6626706626706625,1509.0452261306534,-0.2746926169803627,0.3042946215255524,0.1910145096439598,1345.054945054945,-1.0,89.0112278160087,0.6630939634499919,
2023-08-08 18:25:52.552000,-7.927710843373494,-1.5060240963855422,-5.734939759036145,-1.4837522992029428,-7.713672593500919,-5.397915389331698,3.0,0.6626706626706625,1509.0452261306534,-0.024241011596060846,0.5532311636850998,0.43121030242992847,1341.3919413919414,-1.0,89.0112278160087,0.6630896123106936,
2023-08-08 18:25:52.559000,-7.867469879518072,-1.4698795180722892,-5.72289156626506,-1.471489883507051,-7.659717964438994,-5.451870018393623,3.0,0.6622266622266622,1510.0569896077775,-0.3542917079424284,0.7233844181574491,0.8525144222364663,1337.7289377289376,-1.0,89.0112278160087,0.6630852786198411,
2023-08-08 18:25:52.567000,-7.879518072289157,-1.4457831325301205,-5.734939759036145,-1.4126302881667687,-7.676885346413243,-5.427345187001839,3.0,0.6626706626706625,1509.0452261306534,-0.3020802983509113,0.9412038925470543,0.8719771575083037,1336.9963369963368,-1.0,89.0112278160087,0.6630809619715551,
2023-08-08 18:25:52.574000,-7.855421686746988,-1.4096385542168675,-5.710843373493976,-1.4297976701410178,-7.6989576946658485,-5.412630288166769,3.0,0.6626706626706625,1509.0452261306534,-0.4356389487792085,0.45253773090146276,1.1214964162927568,1340.6593406593406,-1.0,89.0112278160087,0.6630766616924776,
2023-08-08 18:25:52.582000,-7.903614457831326,-1.3975903614457832,-5.72289156626506,-1.3635806253832004,-7.694052728387492,-5.446965052115266,3.0,0.6626706626706625,1509.0452261306534,-0.38564186236233244,0.07621933453761458,1.3079657362624557,1346.5201465201465,-1.0,89.0112278160087,0.6630723770265963,
2023-08-08 18:25:52.590000,-7.891566265060241,-1.385542168674699,-5.72289156626506,-1.3366033108522377,-7.6817903126916,-5.471489883507051,3.0,0.6626706626706625,1509.0452261306534,0.12202086125517184,-0.40452188100926445,1.172892022609405,1352.3809523809523,-1.0,89.0112278160087,0.6630681071500019,
2023-08-08 18:25:52.597000,-7.891566265060241,-1.3614457831325302,-5.746987951807229,-1.2973635806253832,-7.703862660944206,-5.415082771305947,3.0,0.6626706626706625,1509.0452261306534,0.32084377367286243,-0.6430860672454983,1.1298875356913933,1361.1721611721612,-1.0,89.0112278160087,0.6630638513142593,
2023-08-08 18:25:52.605000,-7.855421686746988,-1.3373493975903614,-5.72289156626506,-1.2360515021459226,-7.6817903126916,-5.415082771305947,3.0,0.6626706626706625,1509.0452261306534,0.22551133383835423,-0.9851407260649147,0.4625604568498338,1373.6263736263736,-1.0,89.0112278160087,0.6630596086922598,
2023-08-08 18:25:52.613000,-7.867469879518072,-1.313253012048193,-5.686746987951808,-1.2924586143470262,-7.6621704475781724,-5.486204782342121,3.0,0.6626706626706625,1509.0452261306534,0.08682477711089152,-1.2182273760270372,0.12283666453003898,1386.8131868131868,-1.0,89.0112278160087,0.6630553782559496,
2023-08-08 18:25:52.620000,-7.879518072289157,-1.2891566265060241,-5.674698795180723,-1.1992642550582464,-7.711220110361741,-5.385652973635806,3.0,0.6626706626706625,1509.0452261306534,0.45078958102674677,-1.4957170328069451,-0.3978789114853446,1400.7326007326005,-1.0,89.0112278160087,0.6630511589311009,
2023-08-08 18:25:52.628000,-7.879518072289157,-1.2891566265060241,-5.650602409638554,-1.2949110974862048,-7.721030042918454,-5.3586756591048434,3.0,0.6626706626706625,1509.0452261306534,-0.10442281918303081,-1.4990967892313962,-0.8508828156867316,1414.6520146520145,-1.0,89.0112278160087,0.6630469496030932,
2023-08-08 18:25:52.636000,-7.891566265060241,-1.2771084337349399,-5.626506024096386,-1.2409564684242795,-7.689147762109135,-5.3954629061925194,3.0,0.6626706626706625,1509.0452261306534,0.44379698152788266,-1.334187984383195,-1.389429520424218,1427.8388278388277,-1.0,89.0112278160087,0.6630427492617326,
2023-08-08 18:25:52.643000,-7.91566265060241,-1.3012048192771084,-5.614457831325302,-1.2679337829552422,-7.762722256284488,-5.309625996321275,3.0,0.6626706626706625,1509.0452261306534,0.4234018996561964,-1.4421071033156578,-1.7571237107394673,1441.0256410256409,-1.0,89.0112278160087,0.6630385568484497,
2023-08-08 18:25:52.651000,-7.951807228915663,-1.3012048192771084,-5.626506024096386,-1.3292458614347025,-7.789699570815451,-5.34886572654813,3.0,0.6626706626706625,1509.0452261306534,0.08472699726123126,-1.3654215954781181,-2.1188741914806832,1452.7472527472526,-1.0,89.0112278160087,0.6630343711352417,
2023-08-08 18:25:52.659000,-7.975903614457832,-1.3253012048192772,-5.590361445783133,-1.2826486817903127,-7.801961986511342,-5.250766400980993,3.0,0.6626706626706625,1509.0452261306534,0.023425208321193255,-0.9838587494901238,-2.17236757764699,1462.2710622710622,-1.0,89.0112278160087,0.6630301908805339,
2023-08-08 18:25:52.666000,-7.975903614457832,-1.3614457831325302,-5.542168674698796,-1.3047210300429184,-7.860821581851624,-5.3292458614347025,3.0,0.6626706626706625,1509.0452261306534,0.24567332906007885,-1.1122894936192538,-1.8160946331798846,1468.131868131868,-1.0,89.0112278160087,0.663026014835914,
2023-08-08 18:25:52.674000,-8.012048192771084,-1.3975903614457832,-5.55421686746988,-1.361128142244022,-7.843654199877375,-5.265481299816064,3.0,0.6626706626706625,1509.0452261306534,0.05885437911543697,-1.4666977448866612,-1.688363149000641,1471.062271062271,-1.0,89.0112278160087,0.6630218417530078,
2023-08-08 18:25:52.682000,-8.012048192771084,-1.4457831325301205,-5.55421686746988,-1.4150827713059473,-7.900061312078479,-5.218884120171674,3.0,0.6626706626706625,1509.0452261306534,0.04113979371831512,-0.9055416351028489,-1.4746226909853737,1468.8644688644688,-1.0,89.0112278160087,0.6630176703904753,
2023-08-08 18:25:52.689000,-8.060240963855422,-1.457831325301205,-5.530120481927711,-1.437155119558553,-7.855916615573268,-5.258123850398528,3.0,0.6626706626706625,1509.0452261306534,-0.022959035021269912,-1.0319911427073012,-1.0466756016549152,1463.003663003663,-1.0,89.0112278160087,0.6630134995210814,
2023-08-08 18:25:52.697000,-8.036144578313253,-1.493975903614458,-5.518072289156627,-1.4518700183936235,-7.895156345800122,-5.253218884120171,3.0,0.6626706626706625,1509.0452261306534,0.5266592855894171,-0.943185129071732,-0.5884272478293806,1454.9450549450548,-1.0,89.0112278160087,0.6630093279388147,
2023-08-08 18:25:52.705000,-8.024096385542169,-1.5421686746987953,-5.518072289156627,-1.5205395462906193,-7.887798896382587,-5.221336603310852,3.0,0.6626706626706625,1509.0452261306534,0.6876056173882646,-0.9605500844939113,-0.15010780257560766,1446.8864468864467,-1.0,89.0112278160087,0.6630051544660283,
2023-08-08 18:25:52.712000,-7.987951807228916,-1.566265060240964,-5.530120481927711,-1.5401594114040464,-7.83629675045984,-5.211526670754139,3.0,0.6622266622266622,1510.0569896077775,0.9963288852630958,-0.35545714119223853,0.5585921566342288,1435.164835164835,-1.0,89.0112278160087,0.6630009779605558,
2023-08-08 18:25:52.720000,-7.951807228915663,-1.5903614457831325,-5.518072289156627,-1.537706928264868,-7.853464132434089,-5.248313917841815,3.0,0.6622266622266622,1510.0569896077775,1.1514480508128895,-0.14929199930073964,1.0924771283724726,1423.4432234432234,-1.0,89.0112278160087,0.6629967974509829,
2023-08-08 18:25:52.728000,-7.963855421686747,-1.5783132530120483,-5.506024096385542,-1.5450643776824033,-7.804414469650521,-5.258123850398528,3.0,0.6626706626706625,1509.0452261306534,0.8628867781597812,0.313385000874075,1.4834799836839343,1410.2564102564102,-1.0,89.0112278160087,0.6629926119422451,
2023-08-08 18:25:52.735000,-7.91566265060241,-1.566265060240964,-5.542168674698796,-1.5205395462906193,-7.762722256284488,-5.22378908645003,3.0,0.6626706626706625,1509.0452261306534,1.3085484528873608,0.7109142823844771,1.7982635044577824,1399.2673992673992,712.371826171875,84.22567793342758,0.6629884204332356,
2023-08-08 18:25:52.743000,-7.927710843373494,-1.5421686746987953,-5.55421686746988,-1.4862047823421214,-7.750459840588595,-5.233599019006744,3.0,0.6626706626706625,1509.0452261306534,1.3852339607248987,1.2723034788182512,1.8466289843249228,1389.7435897435896,-1.0,84.22567793342758,0.6629842219549646,
2023-08-08 18:25:52.751000,-7.879518072289157,-1.5180722891566265,-5.530120481927711,-1.5180870631514407,-7.684242795830778,-5.294911097486205,3.0,0.6626706626706625,1509.0452261306534,1.7659810034380272,1.3261464949595017,1.359594429229066,1380.952380952381,-1.0,84.22567793342758,0.6629800154590593,
2023-08-08 18:25:52.758000,-7.927710843373494,-1.5060240963855422,-5.55421686746988,-1.4175352544451256,-7.6817903126916,-5.2703862660944205,3.0,0.6626706626706625,1509.0452261306534,1.7471009847910954,1.3150748790862996,1.3494551599557132,1372.161172161172,-1.0,84.22567793342758,0.6629758001109771,
2023-08-08 18:25:52.766000,-7.903614457831326,-1.4819277108433735,-5.542168674698796,-1.390557939914163,-7.735744941753525,-5.334150827713059,3.0,0.6626706626706625,1509.0452261306534,1.7284540527941268,1.7600372938639943,1.1246430860672454,1364.8351648351647,-1.0,84.22567793342758,0.6629715751358333,
2023-08-08 18:25:52.774000,-7.91566265060241,-1.4698795180722892,-5.590361445783133,-1.4518700183936235,-7.748007357449417,-5.324340895156346,3.0,0.6626706626706625,1509.0452261306534,1.5539886952974762,1.9117767029893367,0.7638249519258784,1358.974358974359,-1.0,84.22567793342758,0.662967339834261,
2023-08-08 18:25:52.781000,-7.91566265060241,-1.4457831325301205,-5.614457831325302,-1.407725321888412,-7.728387492335989,-5.309625996321275,3.0,0.6626706626706625,1509.0452261306534,1.382553464250334,2.181224870345551,0.4829555387215197,1355.3113553113553,-1.0,84.22567793342758,0.6629630935768493,
2023-08-08 18:25:52.789000,-7.927710843373494,-1.4337349397590362,-5.626506024096386,-1.3709380748007356,-7.701410177805027,-5.400367872470876,3.0,0.6626706626706625,1509.0452261306534,1.135714701940447,2.8480857758871854,-0.040906707068352574,1350.9157509157508,-1.0,84.22567793342758,0.662958835680528,
2023-08-08 18:25:52.797000,-7.927710843373494,-1.4457831325301205,-5.662650602409639,-1.356223175965665,-7.706315144083384,-5.353770692826487,3.0,0.6626706626706625,1509.0452261306534,0.9506439018705212,3.0501719014043465,-0.40766855078375397,1346.5201465201465,-1.0,84.22567793342758,0.6629545657001409,
2023-08-08 18:25:52.804000,-7.9397590361445785,-1.421686746987952,-5.72289156626506,-1.3758430410790925,-7.735744941753525,-5.4028203556100545,3.0,0.6626706626706625,1509.0452261306534,0.8445894761377534,2.9428354990967893,-0.4373870986539245,1343.5897435897434,-1.0,84.22567793342758,0.6629502832725414,
2023-08-08 18:25:52.812000,-7.963855421686747,-1.421686746987952,-5.698795180722892,-1.39546290619252,-7.748007357449417,-5.417535254445125,3.0,0.6626706626706625,1509.0452261306534,0.4200221432317469,2.761144455451313,-0.4972903676941903,1342.8571428571427,-1.0,84.22567793342758,0.6629459879919042,
2023-08-08 18:25:52.820000,-7.987951807228916,-1.4337349397590362,-5.686746987951808,-1.3930104230533413,-7.853464132434089,-5.417535254445125,3.0,0.6626706626706625,1509.0452261306534,0.08787366703572079,1.9855486277023484,-0.590874657653983,1341.3919413919414,-1.0,84.22567793342758,0.6629416795614316,
2023-08-08 18:25:52.827000,-8.012048192771084,-1.4337349397590362,-5.72289156626506,-1.4126302881667687,-7.787247087676271,-5.393010423053341,3.0,0.6626706626706625,1509.0452261306534,0.035662257444205384,2.073072664763125,-0.6047433133267294,1338.4615384615383,-1.0,84.22567793342758,0.6629373577954416,
2023-08-08 18:25:52.835000,-8.012048192771084,-1.4457831325301205,-5.710843373493976,-1.4273451870018392,-7.846106683016554,-5.422440220723482,3.0,0.6622266622266622,1510.0569896077775,-0.06223413553988644,1.6560806479808867,-0.20511625196666877,1333.3333333333333,-1.0,84.22567793342758,0.6629330227598855,
2023-08-08 18:25:52.843000,-8.0,-1.457831325301205,-5.686746987951808,-1.361128142244022,-7.799509503372164,-5.439607602697731,3.0,0.6626706626706625,1509.0452261306534,-0.1434648330516874,0.9534409416700664,-0.4961249344443798,1330.4029304029302,-1.0,84.22567793342758,0.6629286746041066,
2023-08-08 18:25:52.850000,-7.975903614457832,-1.4698795180722892,-5.650602409638554,-1.4420600858369097,-7.809319435928877,-5.419987737584304,3.0,0.6626706626706625,1509.0452261306534,-0.70811724258493,0.9120680613017896,-0.06712895518909155,1331.135531135531,-1.0,84.22567793342758,0.6629243134026167,
2023-08-08 18:25:52.858000,-7.951807228915663,-1.4698795180722892,-5.650602409638554,-1.4739423666462292,-7.718577559779276,-5.3954629061925194,3.0,0.6622266622266622,1510.0569896077775,-0.5486859740108386,1.0994697278713357,0.2830837363789989,1337.7289377289376,-1.0,84.22567793342758,0.6629199393362831,
2023-08-08 18:25:52.866000,-7.927710843373494,-1.493975903614458,-5.686746987951808,-1.4322501532801961,-7.755364806866952,-5.42489270386266,3.0,0.6622266622266622,1510.0569896077775,-0.8952858225045162,0.9675426839927737,0.20639822854146014,1345.054945054945,-1.0,84.22567793342758,0.6629155525534314,
2023-08-08 18:25:52.873000,-7.927710843373494,-1.5180722891566265,-5.662650602409639,-1.471489883507051,-7.76026977314531,-5.3635806253832,3.0,0.6622266622266622,1510.0569896077775,-1.0089155643610503,0.9750014567915628,0.223297010663714,1355.3113553113553,-1.0,84.22567793342758,0.6629111532862417,
2023-08-08 18:25:52.881000,-7.91566265060241,-1.5180722891566265,-5.650602409638554,-1.4763948497854076,-7.674432863274064,-5.3586756591048434,3.0,0.6622266622266622,1510.0569896077775,-0.8600897383602358,0.7718664413495708,0.4369209253540003,1363.3699633699632,-1.0,84.22567793342758,0.6629067419666427,
2023-08-08 18:25:52.889000,-7.903614457831326,-1.5421686746987953,-5.650602409638554,-1.5009196811771919,-7.703862660944206,-5.385652973635806,3.0,0.6626706626706625,1509.0452261306534,-0.6661616455917491,0.6652292989919006,0.4244507895810265,1367.032967032967,-1.0,84.22567793342758,0.6629023189365949,
2023-08-08 18:25:52.896000,-7.855421686746988,-1.530120481927711,-5.662650602409639,-1.5475168608215817,-7.689147762109135,-5.375843041079093,3.0,0.6626706626706625,1509.0452261306534,-0.7649903851756894,0.8032165957694766,0.289260532602995,1369.9633699633698,-1.0,84.22567793342758,0.6628978847541682,
2023-08-08 18:25:52.904000,-7.855421686746988,-1.5180722891566265,-5.662650602409639,-1.4690374003678723,-7.716125076640098,-5.393010423053341,3.0,0.6626706626706625,1509.0452261306534,-0.9100868247771102,1.2296486218751816,0.5089447001922965,1371.4285714285713,-1.0,84.22567793342758,0.6628934402012854,
2023-08-08 18:25:52.912000,-7.879518072289157,-1.5180722891566265,-5.650602409638554,-1.5278969957081545,-7.701410177805027,-5.390557939914163,3.0,0.6626706626706625,1509.0452261306534,-0.9145154711263906,1.0712662432259195,0.1898490763941497,1369.9633699633698,-1.0,84.22567793342758,0.6628889860143194,
2023-08-08 18:25:52.919000,-7.855421686746988,-1.530120481927711,-5.662650602409639,-1.4788473329245861,-7.691600245248313,-5.3439607602697725,3.0,0.6626706626706625,1509.0452261306534,-1.1029660276207678,1.3414136705320208,0.012819765747916744,1367.7655677655678,-1.0,84.22567793342758,0.6628845230299327,
2023-08-08 18:25:52.927000,-7.867469879518072,-1.5542168674698795,-5.650602409638554,-1.5475168608215817,-7.667075413856529,-5.346413243408951,3.0,0.6626706626706625,1509.0452261306534,-1.1797680787832883,1.5764815570188209,0.03577880076918579,1367.032967032967,-1.0,84.22567793342758,0.6628800520426891,
2023-08-08 18:25:52.935000,-7.891566265060241,-1.5421686746987953,-5.686746987951808,-1.5352544451256898,-7.735744941753525,-5.3635806253832,3.0,0.6622266622266622,1510.0569896077775,-0.9357263562729445,1.8699376493211348,-0.18845055649437661,1367.7655677655678,-1.0,84.22567793342758,0.6628755740991246,
2023-08-08 18:25:52.942000,-7.903614457831326,-1.5542168674698795,-5.674698795180723,-1.4739423666462292,-7.762722256284488,-5.427345187001839,3.0,0.6626706626706625,1509.0452261306534,-0.49495950119456883,2.1457956995513094,-0.5025348173183379,1365.5677655677655,-1.0,84.22567793342758,0.6628710903129927,
2023-08-08 18:25:52.950000,-7.903614457831326,-1.5060240963855422,-5.686746987951808,-1.4567749846719804,-7.725935009196811,-5.339055793991416,3.0,0.6626706626706625,1509.0452261306534,-0.8637025814346487,1.8685391294213614,0.024007924946098307,1363.3699633699632,-1.0,84.22567793342758,0.6628666017119176,
2023-08-08 18:25:52.957000,-7.891566265060241,-1.493975903614458,-5.686746987951808,-1.525444512568976,-7.730839975475168,-5.417535254445125,3.0,0.6626706626706625,1509.0452261306534,-0.5633704329584518,1.8818250684692026,-0.4322591923547582,1363.3699633699632,-1.0,84.22567793342758,0.6628621096802265,
2023-08-08 18:25:52.965000,-7.903614457831326,-1.4819277108433735,-5.686746987951808,-1.4543225015328018,-7.689147762109135,-5.41017780502759,3.0,0.6626706626706625,1509.0452261306534,-0.5705961191072775,1.3122778392867562,-0.26222248120738884,1365.5677655677655,-1.0,84.22567793342758,0.6628576156566748,
2023-08-08 18:25:52.973000,-7.927710843373494,-1.4819277108433735,-5.698795180722892,-1.4175352544451256,-7.721030042918454,-5.415082771305947,3.0,0.6626706626706625,1509.0452261306534,-0.4591807004253826,1.234893071499328,-0.26432026105704826,1364.102564102564,-1.0,84.22567793342758,0.6628531211411506,
2023-08-08 18:25:52.980000,-7.91566265060241,-1.457831325301205,-5.698795180722892,-1.4297976701410178,-7.75781729000613,-5.393010423053341,3.0,0.6626706626706625,1509.0452261306534,-0.41163102383310934,1.601305285239786,0.05419264611619396,1360.4395604395604,-1.0,84.22567793342758,0.662848627818945,
2023-08-08 18:25:52.988000,-7.9397590361445785,-1.4337349397590362,-5.710843373493976,-1.419987737584304,-7.74310239117106,-5.451870018393623,3.0,0.6622266622266622,1510.0569896077775,-0.5471709107860843,1.3255637783345957,0.32165957694773045,1356.7765567765566,-1.0,84.22567793342758,0.6628441372693838,
2023-08-08 18:25:52.996000,-7.927710843373494,-1.421686746987952,-5.674698795180723,-1.3807480073574494,-7.804414469650521,-5.44206008583691,3.0,0.6622266622266622,1510.0569896077775,-0.6077734397762372,1.3832527242002226,0.40300681778451136,1352.3809523809523,-1.0,84.22567793342758,0.6628396509721729,
2023-08-08 18:25:53.003000,-7.91566265060241,-1.421686746987952,-5.686746987951808,-1.3096259963212753,-7.721030042918454,-5.353770692826487,3.0,0.6626706626706625,1509.0452261306534,-0.3772507429636966,1.317755375560866,0.3765514830138103,1349.4505494505493,-1.0,84.22567793342758,0.6628351702707591,
2023-08-08 18:25:53.011000,-7.91566265060241,-1.3734939759036144,-5.674698795180723,-1.3390557939914163,-7.708767627222563,-5.385652973635806,3.0,0.6626706626706625,1509.0452261306534,-0.4251500495309124,1.3900122370491217,0.05815511916554978,1347.985347985348,-1.0,84.22567793342758,0.6628306965262284,
2023-08-08 18:25:53.019000,-7.91566265060241,-1.3734939759036144,-5.662650602409639,-1.290006131207848,-7.750459840588595,-5.390557939914163,3.0,0.6617826617826618,1511.070110701107,-0.6418040906707074,1.2634461861196902,0.35312627469261704,1342.1245421245421,-1.0,84.22567793342758,0.662826231420416,
2023-08-08 18:25:53.026000,-7.903614457831326,-1.349397590361446,-5.710843373493976,-1.3537706928264868,-7.77498467198038,-5.393010423053341,3.0,0.6626706626706625,1509.0452261306534,-0.2146728046151156,0.9385233960724898,0.43400734222947374,1338.4615384615383,-1.0,84.22567793342758,0.6628217766317702,
2023-08-08 18:25:53.034000,-7.903614457831326,-1.3734939759036144,-5.674698795180723,-1.3390557939914163,-7.713672593500919,-5.446965052115266,3.0,0.6622266622266622,1510.0569896077775,-0.220383427539187,0.9216246139502355,0.4241011596060836,1336.263736263736,-1.0,84.22567793342758,0.6628173337780691,
2023-08-08 18:25:53.042000,-7.903614457831326,-1.3975903614457832,-5.698795180722892,-1.314530962599632,-7.765174739423666,-5.44206008583691,3.0,0.6626706626706625,1509.0452261306534,-0.3173474739234304,0.9479634053959549,0.61033739292582,1332.6007326007325,-1.0,84.22567793342758,0.6628129044536859,
2023-08-08 18:25:53.049000,-7.927710843373494,-1.385542168674699,-5.674698795180723,-1.331698344573881,-7.725935009196811,-5.4028203556100545,3.0,0.6626706626706625,1509.0452261306534,-0.3031291882757406,0.8675485111590233,0.6776994347648736,1332.6007326007325,-1.0,84.22567793342758,0.6628084900858054,
2023-08-08 18:25:53.057000,-7.891566265060241,-1.3975903614457832,-5.662650602409639,-1.3807480073574494,-7.674432863274064,-5.370938074800735,3.0,0.6626706626706625,1509.0452261306534,-0.24229357263562765,0.878853213682187,0.8037993123943825,1334.7985347985348,-1.0,84.22567793342758,0.6628040922482993,
2023-08-08 18:25:53.065000,-7.891566265060241,-1.4096385542168675,-5.686746987951808,-1.3513182096873084,-7.701410177805027,-5.419987737584304,3.0,0.6626706626706625,1509.0452261306534,0.12202086125517184,0.39018705203659376,0.09346774663481136,1337.7289377289376,-1.0,84.22567793342758,0.6627997125075509,
2023-08-08 18:25:53.072000,-7.879518072289157,-1.4096385542168675,-5.698795180722892,-1.366033108522379,-7.701410177805027,-5.412630288166769,3.0,0.6626706626706625,1509.0452261306534,0.2861138628285072,0.6535749664937944,0.3633820872909502,1339.9267399267399,-1.0,84.22567793342758,0.6627953522895758,
2023-08-08 18:25:53.080000,-7.867469879518072,-1.4337349397590362,-5.734939759036145,-1.366033108522379,-7.652360515021459,-5.417535254445125,3.0,0.6622266622266622,1510.0569896077775,-0.0374104073189214,0.7172076219334544,0.5580094400093237,1342.1245421245421,-1.0,84.22567793342758,0.6627910131629414,
2023-08-08 18:25:53.088000,-7.879518072289157,-1.4457831325301205,-5.734939759036145,-1.3979153893316982,-7.659717964438994,-5.491109748620478,3.0,0.6626706626706625,1509.0452261306534,0.09929491288386533,0.1699201678223876,0.5828331682302896,1344.3223443223442,-1.0,84.22567793342758,0.662786696525603,
2023-08-08 18:25:53.095000,-7.903614457831326,-1.421686746987952,-5.759036144578314,-1.3733905579399142,-7.730839975475168,-5.427345187001839,3.0,0.6622266622266622,1510.0569896077775,0.009556552648447682,0.4253831361808758,0.7153429287337567,1347.2527472527472,-1.0,84.22567793342758,0.6627824037391084,
2023-08-08 18:25:53.103000,-7.91566265060241,-1.4096385542168675,-5.72289156626506,-1.4224402207234825,-7.728387492335989,-5.42489270386266,3.0,0.6626706626706625,1509.0452261306534,0.10092651943359877,0.17574733407144158,0.6324806246722219,1348.7179487179487,-1.0,84.22567793342758,0.6627781362630273,
2023-08-08 18:25:53.111000,-7.879518072289157,-1.4337349397590362,-5.746987951807229,-1.39546290619252,-7.642550582464745,-5.437155119558553,3.0,0.6622266622266622,1510.0569896077775,0.23798146961132802,0.0953324398345082,0.49111357147019385,1350.18315018315,-1.0,84.22567793342758,0.6627738954917503,
2023-08-08 18:25:53.118000,-7.867469879518072,-1.4096385542168675,-5.710843373493976,-1.3881054567749846,-7.667075413856529,-5.388105456774984,3.0,0.6622266622266622,1510.0569896077775,0.17656313734630918,-0.10733640230755867,0.3801643260882236,1349.4505494505493,-1.0,84.22567793342758,0.6627696827618126,
2023-08-08 18:25:53.126000,-7.843373493975904,-1.3975903614457832,-5.72289156626506,-1.3096259963212753,-7.657265481299816,-5.434702636419375,3.0,0.6626706626706625,1509.0452261306534,0.20802983509119577,-0.41477769360759886,0.3316823028961019,1348.7179487179487,-1.0,84.22567793342758,0.6627654990502934,
2023-08-08 18:25:53.134000,-7.819277108433735,-1.4096385542168675,-5.759036144578314,-1.356223175965665,-7.733292458614347,-5.439607602697731,3.0,0.6622266622266622,1510.0569896077775,0.42130411980653787,-0.5495017772857045,0.3755025930889806,1349.4505494505493,-1.0,84.22567793342758,0.6627613454183594,
2023-08-08 18:25:53.141000,-7.891566265060241,-1.421686746987952,-5.759036144578314,-1.3733905579399142,-7.711220110361741,-5.522992029429798,3.0,0.6626706626706625,1509.0452261306534,0.8461045393625077,-0.700425383136181,0.38867198881184073,1352.3809523809523,-1.0,84.22567793342758,0.6627572230079622,
2023-08-08 18:25:53.149000,-7.867469879518072,-1.4337349397590362,-5.759036144578314,-1.390557939914163,-7.703862660944206,-5.417535254445125,3.0,0.6626706626706625,1509.0452261306534,0.4264320261057051,-0.40918361400850656,0.06747858516403492,1355.3113553113553,-1.0,84.22567793342758,0.662753132879732,
2023-08-08 18:25:53.157000,-7.903614457831326,-1.4337349397590362,-5.686746987951808,-1.3832004904966277,-7.654812998160637,-5.513182096873083,3.0,0.6622266622266622,1510.0569896077775,0.4373870986539245,-0.8194161179418441,0.14521298292640256,1359.7069597069597,-1.0,84.22567793342758,0.6627490761707802,
2023-08-08 18:25:53.164000,-7.879518072289157,-1.4457831325301205,-5.686746987951808,-1.4126302881667687,-7.716125076640098,-5.451870018393623,3.0,0.6622266622266622,1510.0569896077775,0.43086067245498555,-0.8303711904900636,-0.5844647747800243,1361.1721611721612,-1.0,84.22567793342758,0.662745053805682,
2023-08-08 18:25:53.172000,-7.843373493975904,-1.4337349397590362,-5.72289156626506,-1.3684855916615573,-7.684242795830778,-5.427345187001839,3.0,0.6617826617826618,1511.070110701107,0.22993998018763467,-1.0406153487559004,-0.577588718606142,1358.2417582417581,-1.0,84.22567793342758,0.6627410664739984,
2023-08-08 18:25:53.180000,-7.903614457831326,-1.4337349397590362,-5.746987951807229,-1.419987737584304,-7.691600245248313,-5.454322501532801,3.0,0.6622266622266622,1510.0569896077775,0.33401316939572295,-0.896101625779382,-0.5242118757648152,1357.5091575091574,-1.0,84.22567793342758,0.6627371147565528,
2023-08-08 18:25:53.187000,-7.927710843373494,-1.4698795180722892,-5.734939759036145,-1.4003678724708768,-7.752912323727774,-5.459227467811158,3.0,0.6626706626706625,1509.0452261306534,-0.11188159198181996,-0.8908571761552357,-0.6529922498688886,1358.2417582417581,-1.0,84.22567793342758,0.6627331990919869,
2023-08-08 18:25:53.195000,-7.903614457831326,-1.457831325301205,-5.746987951807229,-1.3930104230533413,-7.718577559779276,-5.419987737584304,3.0,0.6622266622266622,1510.0569896077775,-0.18705203659460354,-1.0554163510284944,-0.7815395373229999,1357.5091575091574,-1.0,84.22567793342758,0.6627293199558386,
2023-08-08 18:25:53.203000,-7.91566265060241,-1.4457831325301205,-5.710843373493976,-1.3979153893316982,-7.716125076640098,-5.42489270386266,3.0,0.6622266622266622,1510.0569896077775,-0.6301497581726012,-1.1730085659343858,-0.5874949012295322,1357.5091575091574,-1.0,84.22567793342758,0.6627254777419536,
2023-08-08 18:25:53.210000,-7.91566265060241,-1.4698795180722892,-5.686746987951808,-1.4175352544451256,-7.667075413856529,-5.397915389331698,3.0,0.6626706626706625,1509.0452261306534,-0.4728162694481665,-1.4572577355631944,-0.6570712662432256,1358.2417582417581,-1.0,84.22567793342758,0.6627216726020645,
2023-08-08 18:25:53.218000,-7.903614457831326,-1.4337349397590362,-5.710843373493976,-1.4396076026977314,-7.723482526057633,-5.427345187001839,3.0,0.6622266622266622,1510.0569896077775,-0.49985432084377435,-1.7698269331624035,-0.5581259833343045,1362.6373626373625,-1.0,84.22567793342758,0.662717904732764,
2023-08-08 18:25:53.226000,-7.91566265060241,-1.4457831325301205,-5.72289156626506,-1.437155119558553,-7.77498467198038,-5.45677498467198,3.0,0.6626706626706625,1509.0452261306534,-0.542509177786842,-1.2089039100285528,0.029835091195151847,1374.3589743589744,-1.0,84.22567793342758,0.6627141742472699,
2023-08-08 18:25:53.233000,-7.927710843373494,-1.4698795180722892,-5.698795180722892,-1.4592274678111588,-7.779889638258736,-5.419987737584304,3.0,0.6622266622266622,1510.0569896077775,-0.03496299749431863,-1.2933978206398224,0.13915273002738776,1389.7435897435896,-1.0,84.22567793342758,0.6627104811652085,
2023-08-08 18:25:53.241000,-7.91566265060241,-1.4698795180722892,-5.686746987951808,-1.3930104230533413,-7.74310239117106,-5.3660331085223785,3.0,0.6622266622266622,1510.0569896077775,-0.6771167181399685,-1.6235650603111709,-0.013868655672746442,1405.8608058608058,-1.0,84.22567793342758,0.6627068254238283,
2023-08-08 18:25:53.249000,-7.91566265060241,-1.4698795180722892,-5.698795180722892,-1.356223175965665,-7.718577559779276,-5.417535254445125,3.0,0.6626706626706625,1509.0452261306534,-0.20173649554221845,-1.6311403764349393,0.048365479867140425,1424.1758241758241,-1.0,84.22567793342758,0.6627032067192006,
2023-08-08 18:25:53.256000,-7.903614457831326,-1.4819277108433735,-5.674698795180723,-1.4641324340895157,-7.765174739423666,-5.3635806253832,3.0,0.6622266622266622,1510.0569896077775,-0.4166423868072957,-1.866674436221666,0.23366936658702883,1441.0256410256409,-1.0,84.22567793342758,0.6626996247948577,
2023-08-08 18:25:53.264000,-7.903614457831326,-1.4698795180722892,-5.686746987951808,-1.39546290619252,-7.713672593500919,-5.3660331085223785,3.0,0.6626706626706625,1509.0452261306534,-0.15651768544956537,-1.6285764232853555,0.5522988170852514,1455.6776556776556,-1.0,84.22567793342758,0.6626960791764845,
2023-08-08 18:25:53.272000,-7.879518072289157,-1.4698795180722892,-5.674698795180723,-1.4126302881667687,-7.772532188841201,-5.3635806253832,3.0,0.6622266622266622,1510.0569896077775,-0.08204650078666682,-1.59174873259134,0.13565643027795574,1467.3992673992673,-1.0,84.22567793342758,0.6626925693225301,
2023-08-08 18:25:53.279000,-7.867469879518072,-1.4819277108433735,-5.662650602409639,-1.4592274678111588,-7.6989576946658485,-5.370938074800735,3.0,0.6622266622266622,1510.0569896077775,-0.23600023308665033,-1.535225219975525,-0.11199813530679993,1472.5274725274724,-1.0,84.22567793342758,0.6626890947647318,
2023-08-08 18:25:53.287000,-7.867469879518072,-1.4819277108433735,-5.674698795180723,-1.39546290619252,-7.6817903126916,-5.361128142244022,3.0,0.6626706626706625,1509.0452261306534,-0.1911310529689415,-1.0249985432084372,-0.08367810733640244,1471.7948717948716,-1.0,84.22567793342758,0.66268565466317,
2023-08-08 18:25:53.295000,-7.879518072289157,-1.4698795180722892,-5.686746987951808,-1.4543225015328018,-7.706315144083384,-5.412630288166769,3.0,0.6622266622266622,1510.0569896077775,-0.2997494318512911,-1.0080997610861846,-0.19183031291882738,1469.5970695970695,-1.0,84.22567793342758,0.6626822483946729,
2023-08-08 18:25:53.302000,-7.867469879518072,-1.4698795180722892,-5.674698795180723,-1.3758430410790925,-7.652360515021459,-5.388105456774984,3.0,0.6626706626706625,1509.0452261306534,-0.14532952625138426,-0.989685915739176,-0.01025581259833357,1464.4688644688645,-1.0,84.22567793342758,0.6626788753966034,
2023-08-08 18:25:53.310000,-7.891566265060241,-1.4698795180722892,-5.686746987951808,-1.471489883507051,-7.755364806866952,-5.432250153280196,3.0,0.6626706626706625,1509.0452261306534,-0.14649495950119434,-0.9887535691393275,-0.012120505798030423,1458.6080586080584,-1.0,84.22567793342758,0.662675534883467,
2023-08-08 18:25:53.317000,-7.927710843373494,-1.4819277108433735,-5.710843373493976,-1.3881054567749846,-7.708767627222563,-5.375843041079093,3.0,0.6622266622266622,1510.0569896077775,-0.26874890740632784,-0.5441407843365773,0.24532369908513504,1452.014652014652,-1.0,84.22567793342758,0.6626722261601965,
2023-08-08 18:25:53.325000,-7.9397590361445785,-1.4698795180722892,-5.710843373493976,-1.4347026364193745,-7.772532188841201,-5.461679950950337,3.0,0.6622266622266622,1510.0569896077775,-0.3579045510168413,-0.9429520424217703,-0.15267175572519084,1439.5604395604394,-1.0,84.22567793342758,0.662668948339373,
2023-08-08 18:25:53.333000,-7.951807228915663,-1.4457831325301205,-5.72289156626506,-1.4420600858369097,-7.725935009196811,-5.419987737584304,3.0,0.6622266622266622,1510.0569896077775,-0.32550550667210454,-1.0906124351727748,-0.030184721170095224,1424.9084249084249,-1.0,84.22567793342758,0.6626657004637385,
2023-08-08 18:25:53.340000,-7.951807228915663,-1.4698795180722892,-5.698795180722892,-1.3586756591048437,-7.738197424892704,-5.3954629061925194,3.0,0.6622266622266622,1510.0569896077775,0.027387681370550376,-0.9646291008682475,-0.0020977798496593955,1407.3260073260071,-1.0,84.22567793342758,0.6626624816288702,
2023-08-08 18:25:53.348000,-7.951807228915663,-1.457831325301205,-5.686746987951808,-1.4150827713059473,-7.721030042918454,-5.388105456774984,3.0,0.6626706626706625,1509.0452261306534,-0.4619777402249279,-1.3735796282267925,-0.33937416234485185,1389.0109890109889,-1.0,84.22567793342758,0.662659290700892,
2023-08-08 18:25:53.356000,-7.91566265060241,-1.4457831325301205,-5.674698795180723,-1.361128142244022,-7.762722256284488,-5.4028203556100545,3.0,0.6622266622266622,1510.0569896077775,-0.21385700134024802,-1.6276440766855071,-0.3065089447001922,1372.161172161172,-1.0,84.22567793342758,0.6626561264918291,
2023-08-08 18:25:53.363000,-7.91566265060241,-1.421686746987952,-5.662650602409639,-1.461679950950337,-7.750459840588595,-5.378295524218271,3.0,0.6622266622266622,1510.0569896077775,-0.2421770293106468,-1.740341471942193,-0.08985490356039848,1361.1721611721612,-1.0,84.22567793342758,0.6626529877857793,
2023-08-08 18:25:53.371000,-7.891566265060241,-1.4337349397590362,-5.63855421686747,-1.3832004904966277,-7.740649908031882,-5.405272838749234,3.0,0.6622266622266622,1510.0569896077775,-0.05465881941611818,-1.466930831536623,-0.27445953033040055,1353.8461538461538,-1.0,84.22567793342758,0.6626498731843612,
2023-08-08 18:25:53.379000,-7.927710843373494,-1.421686746987952,-5.626506024096386,-1.4150827713059473,-7.735744941753525,-5.2998160637645615,3.0,0.6622266622266622,1510.0569896077775,-0.373987529864228,-1.5795116834683296,-0.1370549501777288,1348.7179487179487,-1.0,84.22567793342758,0.6626467812501146,
2023-08-08 18:25:53.386000,-7.927710843373494,-1.4096385542168675,-5.63855421686747,-1.3341508277130594,-7.755364806866952,-5.3366033108522375,3.0,0.6622266622266622,1510.0569896077775,-0.2518501252840753,-1.304702523162986,-0.18285647689528606,1345.054945054945,-1.0,84.22567793342758,0.6626437105112071,
2023-08-08 18:25:53.394000,-7.903614457831326,-1.3975903614457832,-5.626506024096386,-1.390557939914163,-7.748007357449417,-5.3660331085223785,3.0,0.6622266622266622,1510.0569896077775,-0.22131577413903716,-1.5795116834683296,0.015616805547462026,1345.054945054945,-1.0,84.22567793342758,0.6626406594661812,
2023-08-08 18:25:53.402000,-7.91566265060241,-1.3975903614457832,-5.602409638554217,-1.3930104230533413,-7.735744941753525,-5.346413243408951,3.0,0.6622266622266622,1510.0569896077775,0.12982926402890177,-1.3199696987355052,-0.3355282326204769,1343.5897435897434,-1.0,84.22567793342758,0.6626376265887223,
2023-08-08 18:25:53.409000,-7.903614457831326,-1.4096385542168675,-5.614457831325302,-1.437155119558553,-7.691600245248313,-5.309625996321275,3.0,0.6626706626706625,1509.0452261306534,-0.40452188100926617,-1.0146261872851237,-0.3355282326204769,1340.6593406593406,-1.0,84.22567793342758,0.6626346103324399,
2023-08-08 18:25:53.417000,-7.91566265060241,-1.4337349397590362,-5.602409638554217,-1.3782955242182708,-7.765174739423666,-5.30226854690374,3.0,0.6622266622266622,1510.0569896077775,-0.38925470543674706,-0.8772216071324518,-0.42713128605559136,1339.9267399267399,-1.0,84.22567793342758,0.6626316094236753,
2023-08-08 18:25:53.425000,-7.9397590361445785,-1.4457831325301205,-5.614457831325302,-1.3390557939914163,-7.711220110361741,-5.3366033108522375,3.0,0.6622266622266622,1510.0569896077775,-0.49612493444438066,-0.7856185536973374,-0.36606258376551504,1342.1245421245421,-1.0,84.22567793342758,0.6626286225797036,
2023-08-08 18:25:53.432000,-7.9397590361445785,-1.457831325301205,-5.578313253012048,-1.385652973635806,-7.767627222562845,-5.346413243408951,3.0,0.6622266622266622,1510.0569896077775,-0.22131577413903716,-0.48027504224695566,-0.6103373929258203,1347.2527472527472,-1.0,84.22567793342758,0.6626256482268892,
2023-08-08 18:25:53.440000,-7.91566265060241,-1.457831325301205,-5.566265060240964,-1.39546290619252,-7.782342121397915,-5.319435928877989,3.0,0.6622266622266622,1510.0569896077775,-0.2823844764291135,-0.32760328652176485,-0.6866732707884158,1353.113553113553,-1.0,84.22567793342758,0.6626226847933677,
2023-08-08 18:25:53.448000,-7.951807228915663,-1.4457831325301205,-5.614457831325302,-1.4322501532801961,-7.772532188841201,-5.3145309625996315,3.0,0.6622266622266622,1510.0569896077775,-0.38925470543674706,-0.2818017598042076,-0.24392517918536238,1358.2417582417581,-1.0,84.22567793342758,0.6626197307136112,
2023-08-08 18:25:53.455000,-7.987951807228916,-1.4457831325301205,-5.63855421686747,-1.3881054567749846,-7.831391784181483,-5.312078479460453,3.0,0.6622266622266622,1510.0569896077775,0.06876056173882543,-0.19019870636909308,-0.4118641104830723,1364.102564102564,727.691650390625,82.45250576640805,0.6626167844329045,
2023-08-08 18:25:53.463000,-8.012048192771084,-1.457831325301205,-5.674698795180723,-1.356223175965665,-7.853464132434089,-5.353770692826487,3.0,0.6622266622266622,1510.0569896077775,-0.20604859856651808,-0.3428704620942839,0.12248703455509562,1371.4285714285713,-1.0,82.45250576640805,0.6626138444117163,
2023-08-08 18:25:53.471000,-8.036144578313253,-1.457831325301205,-5.650602409638554,-1.4224402207234825,-7.855916615573268,-5.331698344573881,3.0,0.6622266622266622,1510.0569896077775,0.1908979663189781,-0.1596643552240549,-0.24392517918536238,1378.021978021978,-1.0,82.45250576640805,0.6626109091299572,
2023-08-08 18:25:53.478000,-8.060240963855422,-1.4337349397590362,-5.650602409638554,-1.4396076026977314,-7.9368485591661555,-5.34886572654813,3.0,0.6617826617826618,1511.070110701107,0.2977681953266117,-0.22073305751413125,-0.06071907231513339,1379.4871794871794,-1.0,82.45250576640805,0.6626079772298629,
2023-08-08 18:25:53.486000,-8.036144578313253,-1.4337349397590362,-5.578313253012048,-1.4126302881667687,-7.902513795217658,-5.2703862660944205,3.0,0.6622266622266622,1510.0569896077775,0.17563079074645901,-0.4344735155293984,-0.28972670590291966,1380.2197802197802,-1.0,82.45250576640805,0.6626050473503144,
2023-08-08 18:25:53.494000,-8.012048192771084,-1.4096385542168675,-5.602409638554217,-1.4101778050275904,-7.752912323727774,-5.282648681790312,3.0,0.6622266622266622,1510.0569896077775,0.2519666686090544,-0.5260765689645129,-0.16758930132276698,1380.2197802197802,-1.0,82.45250576640805,0.6626021181101129,
2023-08-08 18:25:53.501000,-7.9397590361445785,-1.385542168674699,-5.602409638554217,-1.3194359288779889,-7.777437155119558,-5.275291232372777,3.0,0.6622266622266622,1510.0569896077775,0.725249111357146,-1.3199696987355052,-0.18285647689528606,1381.6849816849815,-1.0,82.45250576640805,0.6625991881329621,
2023-08-08 18:25:53.509000,-7.951807228915663,-1.385542168674699,-5.566265060240964,-1.361128142244022,-7.784794604537093,-5.312078479460453,3.0,0.6626706626706625,1509.0452261306534,0.40463842433424524,-0.724549851407261,-0.18285647689528606,1381.6849816849815,-1.0,82.45250576640805,0.6625962559333539,
2023-08-08 18:25:53.517000,-7.975903614457832,-1.4096385542168675,-5.590361445783133,-1.3758430410790925,-7.789699570815451,-5.3439607602697725,3.0,0.6626706626706625,1509.0452261306534,0.06876056173882543,-0.8161529048423755,0.09195268341005744,1378.7545787545787,-1.0,82.45250576640805,0.6625933202177395,
2023-08-08 18:25:53.524000,-8.012048192771084,-1.457831325301205,-5.602409638554217,-1.3832004904966277,-7.875536480686695,-5.3635806253832,3.0,0.6622266622266622,1510.0569896077775,0.022959035021268174,0.05407610279121226,-0.19812365246780514,1375.8241758241757,-1.0,82.45250576640805,0.6625903799088436,
2023-08-08 18:25:53.532000,-8.060240963855422,-1.4457831325301205,-5.614457831325302,-1.3979153893316982,-7.904966278356836,-5.31698344573881,3.0,0.6622266622266622,1510.0569896077775,-0.022842491696289074,0.6036944234018993,-0.21339082804032422,1372.161172161172,-1.0,82.45250576640805,0.6625874338615823,
2023-08-08 18:25:53.540000,-8.048192771084338,-1.457831325301205,-5.614457831325302,-1.39546290619252,-7.870631514408338,-5.312078479460453,3.0,0.6622266622266622,1510.0569896077775,0.14509643960142085,0.9243051104248,-0.48819998834566775,1367.032967032967,-1.0,82.45250576640805,0.6625844809839266,
2023-08-08 18:25:53.547000,-8.048192771084338,-1.4096385542168675,-5.590361445783133,-1.4322501532801961,-7.890251379521765,-5.3366033108522375,3.0,0.6626706626706625,1509.0452261306534,0.3435697220441689,0.8327020569896855,-0.8698793776586448,1362.6373626373625,-1.0,82.45250576640805,0.6625815202188604,
2023-08-08 18:25:53.555000,-8.048192771084338,-1.4096385542168675,-5.590361445783133,-1.4003678724708768,-7.900061312078479,-5.319435928877989,3.0,0.6622266622266622,1510.0569896077775,-0.038109667268808156,-0.0680613017889404,-1.3736961715517746,1361.1721611721612,-1.0,82.45250576640805,0.662578550706972,
2023-08-08 18:25:53.563000,-8.072289156626507,-1.4096385542168675,-5.626506024096386,-1.4052728387492335,-7.895156345800122,-5.285101164929491,3.0,0.6622266622266622,1510.0569896077775,0.2519666686090544,-0.6024124468271084,-1.419497698269332,1359.7069597069597,-1.0,82.45250576640805,0.6625755716510121,
2023-08-08 18:25:53.570000,-8.036144578313253,-1.3975903614457832,-5.602409638554217,-1.3513182096873084,-7.912323727774371,-5.326793378295524,3.0,0.6622266622266622,1510.0569896077775,0.22143231746401626,0.038808927218693175,-1.2362915913991028,1357.5091575091574,-1.0,82.45250576640805,0.662572582030981,
2023-08-08 18:25:53.578000,-7.975903614457832,-1.385542168674699,-5.602409638554217,-1.4101778050275904,-7.824034334763948,-5.304721030042918,3.0,0.6622266622266622,1510.0569896077775,0.23669949303653534,0.3899539653866321,-1.6027038051395608,1354.5787545787546,-1.0,82.45250576640805,0.6625695808936407,
2023-08-08 18:25:53.586000,-7.91566265060241,-1.3975903614457832,-5.578313253012048,-1.4322501532801961,-7.752912323727774,-5.309625996321275,3.0,0.6622266622266622,1510.0569896077775,0.23669949303653534,0.3899539653866321,-1.6027038051395608,1353.8461538461538,-1.0,82.45250576640805,0.6625665673538214,
2023-08-08 18:25:53.593000,-7.903614457831326,-1.421686746987952,-5.55421686746988,-1.39546290619252,-7.762722256284488,-5.260576333537706,3.0,0.6622266622266622,1510.0569896077775,-0.16024707184896084,0.13041198065380769,-0.6408717440708586,1356.7765567765566,-1.0,82.45250576640805,0.6625635405955677,
2023-08-08 18:25:53.601000,-7.927710843373494,-1.4337349397590362,-5.590361445783133,-1.4052728387492335,-7.770079705702023,-5.339055793991416,3.0,0.6622266622266622,1510.0569896077775,-0.5113921100168998,0.00827457607365501,-0.4576656372006296,1358.2417582417581,-1.0,82.45250576640805,0.662560499873125,
2023-08-08 18:25:53.609000,-7.867469879518072,-1.4457831325301205,-5.590361445783133,-1.4175352544451256,-7.649908031882281,-5.297363580625383,3.0,0.6622266622266622,1510.0569896077775,-0.6182623390245333,-0.37340481323932206,0.3972961948604391,1359.7069597069597,-1.0,82.45250576640805,0.6625574445117781,
2023-08-08 18:25:53.616000,-7.843373493975904,-1.4819277108433735,-5.626506024096386,-1.496014714898835,-7.721030042918454,-5.3218884120171674,3.0,0.6622266622266622,1510.0569896077775,-0.6945982168871287,0.6494959501194565,0.7026397063108207,1359.7069597069597,-1.0,82.45250576640805,0.6625543740472971,
2023-08-08 18:25:53.624000,-7.891566265060241,-1.530120481927711,-5.63855421686747,-1.5009196811771919,-7.721030042918454,-5.407725321888412,3.0,0.6626706626706625,1509.0452261306534,-1.1220791329176631,1.5960608356156396,0.3514946681428819,1358.974358974359,-1.0,82.45250576640805,0.6625512880673546,
2023-08-08 18:25:53.632000,-7.9397590361445785,-1.530120481927711,-5.698795180722892,-1.4592274678111588,-7.748007357449417,-5.4028203556100545,3.0,0.6617826617826618,1511.070110701107,-1.3816211176504876,1.855602820348464,0.3514946681428819,1357.5091575091574,-1.0,82.45250576640805,0.6625481862336242,
2023-08-08 18:25:53.639000,-7.951807228915663,-1.5421686746987953,-5.72289156626506,-1.5892090741876148,-7.725935009196811,-5.459227467811158,3.0,0.6622266622266622,1510.0569896077775,-1.3358195909329302,2.1151448050812887,0.24462443913524828,1358.974358974359,-1.0,82.45250576640805,0.6625450682931932,
2023-08-08 18:25:53.647000,-7.951807228915663,-1.5421686746987953,-5.710843373493976,-1.419987737584304,-7.69650521152667,-5.422440220723482,3.0,0.6622266622266622,1510.0569896077775,-1.1831478352077394,2.75636617912709,-0.5034671639181868,1357.5091575091574,-1.0,82.45250576640805,0.6625419340266288,
2023-08-08 18:25:53.655000,-7.91566265060241,-1.5060240963855422,-5.674698795180723,-1.4862047823421214,-7.735744941753525,-5.432250153280196,3.0,0.6622266622266622,1510.0569896077775,-1.3510867665054493,2.7258318279820517,-0.9156809043762021,1355.3113553113553,-1.0,82.45250576640805,0.6625387833976872,
2023-08-08 18:25:53.662000,-7.879518072289157,-1.4819277108433735,-5.686746987951808,-1.4445125689760883,-7.701410177805027,-5.42489270386266,3.0,0.6622266622266622,1510.0569896077775,-0.9999417283375104,2.038808927218693,-1.1141541868189502,1352.3809523809523,-1.0,82.45250576640805,0.6625356162766395,
2023-08-08 18:25:53.670000,-7.819277108433735,-1.4698795180722892,-5.710843373493976,-1.3979153893316982,-7.608215818516247,-5.353770692826487,3.0,0.6622266622266622,1510.0569896077775,-1.259483713070335,2.023541751646174,-0.8088106753685684,1350.18315018315,-1.0,82.45250576640805,0.6625324325999089,
2023-08-08 18:25:53.678000,-7.795180722891566,-1.4819277108433735,-5.734939759036145,-1.4248927038626609,-7.568976088289393,-5.429797670141017,3.0,0.6622266622266622,1510.0569896077775,-1.2289493619252967,2.023541751646174,-1.2057572402540646,1347.985347985348,-1.0,82.45250576640805,0.6625292324979001,
2023-08-08 18:25:53.685000,-7.807228915662651,-1.4698795180722892,-5.746987951807229,-1.3782955242182708,-7.591048436541999,-5.508277130594727,3.0,0.6622266622266622,1510.0569896077775,-1.4274226443680447,2.359419614241594,-1.1446885379639884,1344.3223443223442,-1.0,82.45250576640805,0.6625260160070774,
2023-08-08 18:25:53.693000,-7.843373493975904,-1.493975903614458,-5.795180722891566,-1.4518700183936235,-7.6400980993255665,-5.557326793378295,3.0,0.6622266622266622,1510.0569896077775,-1.9770409649787317,2.527358545539304,-1.2210244158265837,1343.5897435897434,-1.0,82.45250576640805,0.6625227830901883,
2023-08-08 18:25:53.700000,-7.879518072289157,-1.530120481927711,-5.819277108433735,-1.5058246474555486,-7.6989576946658485,-5.537706928264868,3.0,0.6622266622266622,1510.0569896077775,-2.267117300856594,2.451022667676708,-1.297360293689179,1342.1245421245421,-1.0,82.45250576640805,0.6625195339225906,
2023-08-08 18:25:53.708000,-7.903614457831326,-1.5421686746987953,-5.83132530120482,-1.4886572654812997,-7.725935009196811,-5.594114040465971,3.0,0.6622266622266622,1510.0569896077775,-2.770934094749724,2.6494959501194564,-1.5416351028494846,1341.3919413919414,-1.0,82.45250576640805,0.662516268731346,
2023-08-08 18:25:53.716000,-7.879518072289157,-1.5783132530120483,-5.795180722891566,-1.525444512568976,-7.713672593500919,-5.559779276517474,3.0,0.6622266622266622,1510.0569896077775,-3.488491346658121,2.0846104539362504,-2.0759862478876525,1341.3919413919414,-1.0,82.45250576640805,0.6625129876657938,
2023-08-08 18:25:53.723000,-7.843373493975904,-1.5542168674698795,-5.819277108433735,-1.59656652360515,-7.630288166768853,-5.554874310239117,3.0,0.6622266622266622,1510.0569896077775,-3.6869646291008693,1.122778392867548,-2.2897267059029196,1341.3919413919414,-1.0,82.45250576640805,0.6625096910835555,
2023-08-08 18:25:53.731000,-7.807228915662651,-1.5903614457831325,-5.807228915662651,-1.5990190067443286,-7.6621704475781724,-5.547516860821582,3.0,0.6622266622266622,1510.0569896077775,-4.129712720703923,0.3899539653866321,-2.3049938814754385,1342.1245421245421,-1.0,82.45250576640805,0.6625063795281024,
2023-08-08 18:25:53.739000,-7.759036144578314,-1.602409638554217,-5.83132530120482,-1.5769466584917229,-7.512568976088289,-5.5744941753525445,3.0,0.6622266622266622,1510.0569896077775,-4.557193636734457,-0.174931530796574,-2.1217877746052096,1342.8571428571427,-1.0,82.45250576640805,0.6625030535787089,
2023-08-08 18:25:53.746000,-7.746987951807229,-1.63855421686747,-5.795180722891566,-1.5843041079092581,-7.539546290619252,-5.537706928264868,3.0,0.6622266622266622,1510.0569896077775,-5.045743255055068,-0.26653458423168847,-2.1370549501777285,1344.3223443223442,-1.0,82.45250576640805,0.6624997137107653,
2023-08-08 18:25:53.754000,-7.72289156626506,-1.674698795180723,-5.795180722891566,-1.6210913549969344,-7.534641324340895,-5.407725321888412,3.0,0.6622266622266622,1510.0569896077775,-5.702231804673388,0.06934327836373134,-2.030184721170095,1344.3223443223442,-1.0,82.45250576640805,0.662496360453794,
2023-08-08 18:25:53.762000,-7.686746987951808,-1.6987951807228916,-5.734939759036145,-1.6701410177805027,-7.475781729000612,-5.461679950950337,3.0,0.6622266622266622,1510.0569896077775,-6.068644018413846,0.13041198065380769,-2.182856476895286,1344.3223443223442,-1.0,82.45250576640805,0.662492994379039,
2023-08-08 18:25:53.769000,-7.674698795180723,-1.7349397590361446,-5.710843373493976,-1.7142857142857142,-7.436541998773758,-5.432250153280196,3.0,0.6622266622266622,1510.0569896077775,-6.083911193986365,0.32888526309655575,-2.534001515063225,1345.7875457875457,-1.0,82.45250576640805,0.6624896159693249,
2023-08-08 18:25:53.777000,-7.674698795180723,-1.746987951807229,-5.734939759036145,-1.7290006131207847,-7.497854077253218,-5.405272838749234,3.0,0.6622266622266622,1510.0569896077775,-6.419789056581785,0.16094633179884585,-2.77827632422353,1346.5201465201465,-1.0,82.45250576640805,0.6624862257656875,
2023-08-08 18:25:53.785000,-7.626506024096386,-1.7349397590361446,-5.710843373493976,-1.7339055793991416,-7.426732066217045,-5.405272838749234,3.0,0.6617826617826618,1511.070110701107,-6.190781422993998,0.8632364081347237,-2.9920167822387973,1345.7875457875457,-1.0,82.45250576640805,0.6624828243647899,
2023-08-08 18:25:53.792000,-7.590361445783133,-1.746987951807229,-5.734939759036145,-1.7584304107909257,-7.43408951563458,-5.34886572654813,3.0,0.6617826617826618,1511.070110701107,-5.809102033681022,0.8937707592797618,-3.3278946448342173,1349.4505494505493,-1.0,82.45250576640805,0.6624794124058734,
2023-08-08 18:25:53.800000,-7.590361445783133,-1.7831325301204821,-5.698795180722892,-1.73635806253832,-7.350705088902513,-5.451870018393623,3.0,0.6622266622266622,1510.0569896077775,-5.488491346658121,1.0617096905774717,-3.801177087582309,1354.5787545787546,-1.0,82.45250576640805,0.662475990526103,
2023-08-08 18:25:53.808000,-7.626506024096386,-1.8554216867469882,-5.710843373493976,-1.8467198038013488,-7.429184549356223,-5.437155119558553,3.0,0.6622266622266622,1510.0569896077775,-5.519025697803159,0.7105646524095328,-4.045451896742614,1357.5091575091574,-1.0,82.45250576640805,0.6624725594966372,
2023-08-08 18:25:53.815000,-7.674698795180723,-1.8674698795180724,-5.759036144578314,-1.8295524218270998,-7.463519313304721,-5.471489883507051,3.0,0.6622266622266622,1510.0569896077775,-5.641163102383312,1.2143814463026625,-4.106520599032691,1358.2417582417581,-1.0,82.45250576640805,0.662469120241553,
2023-08-08 18:25:53.823000,-7.674698795180723,-1.9156626506024097,-5.795180722891566,-1.9251992642550582,-7.470876762722256,-5.532801961986511,3.0,0.6622266622266622,1510.0569896077775,-5.686964629100869,1.8708699959209831,-4.137054950177729,1360.4395604395604,-1.0,82.45250576640805,0.662465673697588,
2023-08-08 18:25:53.831000,-7.662650602409639,-1.927710843373494,-5.783132530120482,-1.8982219497240955,-7.43408951563458,-5.567136725935009,3.0,0.6622266622266622,1510.0569896077775,-5.198415010780258,2.222015034088922,-4.060719072315134,1363.3699633699632,-1.0,82.45250576640805,0.6624622206738234,
2023-08-08 18:25:53.838000,-7.626506024096386,-1.963855421686747,-5.795180722891566,-1.9276517473942365,-7.438994481912936,-5.515634580012262,3.0,0.6622266622266622,1510.0569896077775,-5.625895926810792,2.389953965386632,-4.091253423460172,1367.032967032967,-1.0,82.45250576640805,0.6624587620092132,
2023-08-08 18:25:53.846000,-7.55421686746988,-1.9879518072289157,-5.819277108433735,-1.9840588595953401,-7.370324954015941,-5.5744941753525445,3.0,0.6622266622266622,1510.0569896077775,-5.824369209253541,1.9319386982110596,-3.648505331857118,1374.3589743589744,-1.0,82.45250576640805,0.6624552985598158,
2023-08-08 18:25:53.854000,-7.506024096385542,-2.0120481927710845,-5.867469879518072,-2.0257510729613735,-7.301655426118945,-5.623543838136112,3.0,0.6622266622266622,1510.0569896077775,-6.099178369558884,1.4128547287454107,-2.8393450265136067,1388.278388278388,-1.0,82.45250576640805,0.6624518312071758,
2023-08-08 18:25:53.861000,-7.493975903614459,-2.024096385542169,-5.879518072289157,-1.993868792152054,-7.2992029429797665,-5.638258736971183,3.0,0.6622266622266622,1510.0569896077775,-6.557193636734457,1.5807936600431205,-2.1675893013227667,1401.4652014652013,-1.0,82.45250576640805,0.6624483609844816,
2023-08-08 18:25:53.869000,-7.457831325301205,-2.0843373493975905,-5.963855421686747,-2.094420600858369,-7.230533415082771,-5.679950950337216,3.0,0.6622266622266622,1510.0569896077775,-6.557193636734457,1.5807936600431205,-2.1675893013227667,1414.6520146520145,-1.0,82.45250576640805,0.6624448889260126,
2023-08-08 18:25:53.877000,-7.433734939759036,-2.096385542168675,-6.0361445783132535,-2.0846106683016554,-7.2624156958920905,-5.704475781729,3.0,0.6617826617826618,1511.070110701107,-6.938873026047434,1.2296486218751816,-1.61797098071208,1428.5714285714284,-1.0,82.45250576640805,0.6624414160658915,
2023-08-08 18:25:53.884000,-7.433734939759036,-2.1204819277108435,-6.072289156626506,-2.1164929491109747,-7.235438381361128,-5.763335377069282,3.0,0.6622266622266622,1510.0569896077775,-7.473224171085602,0.8632364081347237,-1.4347648738418508,1441.0256410256409,-1.0,82.45250576640805,0.6624379431488123,
2023-08-08 18:25:53.892000,-7.433734939759036,-2.132530120481928,-6.144578313253012,-2.12385039852851,-7.179031269160024,-5.854077253218883,3.0,0.6622266622266622,1510.0569896077775,-8.236582949711556,0.6189615989744184,-1.419497698269332,1455.6776556776556,-1.0,82.45250576640805,0.6624344709153808,
2023-08-08 18:25:53.900000,-7.457831325301205,-2.144578313253012,-6.168674698795181,-2.160637645616186,-7.208461066830165,-5.954629061925199,3.0,0.6622266622266622,1510.0569896077775,-8.801468445894763,0.6800303012644947,-1.7706427364372708,1471.062271062271,-1.0,82.45250576640805,0.6624310003874929,
2023-08-08 18:25:53.907000,-7.481927710843374,-2.1204819277108435,-6.19277108433735,-2.118945432250153,-7.272225628448804,-5.966891477621091,3.0,0.6622266622266622,1510.0569896077775,-9.290018064215372,-0.32760328652176485,-2.366062583765515,1484.9816849816848,-1.0,82.45250576640805,0.6624275325791625,
2023-08-08 18:25:53.915000,-7.493975903614459,-2.108433734939759,-6.228915662650603,-2.094420600858369,-7.255058246474555,-5.98405885959534,3.0,0.6622266622266622,1510.0569896077775,-9.977040964978732,-1.0756948895751999,-3.4958335761319272,1495.2380952380952,-1.0,82.45250576640805,0.6624240684954498,
