Shimmer_F5D4_Timestamp_FormattedUnix_CAL,Shimmer_F5D4_Accel_LN_X_CAL,Shimmer_F5D4_Accel_LN_Y_CAL,Shimmer_F5D4_Accel_LN_Z_CAL,Shimmer_F5D4_Accel_WR_X_CAL,Shimmer_F5D4_Accel_WR_Y_CAL,Shimmer_F5D4_Accel_WR_Z_CAL,Shimmer_F5D4_GSR_Range_CAL,Shimmer_F5D4_GSR_Skin_Conductance_CAL,Shimmer_F5D4_GSR_Skin_Resistance_CAL,Shimmer_F5D4_Gyro_X_CAL,Shimmer_F5D4_Gyro_Y_CAL,Shimmer_F5D4_Gyro_Z_CAL,Shimmer_F5D4_PPG_A13_CAL,Shimmer_F5D4_PPG_IBI_CAL,Shimmer_F5D4_PPGtoHR_CAL,Shimmer_F5D4_GSR_Skin_Conductance_LPF_CAL,
yyyy/mm/dd hh:mm:ss.000,m/(s^2),m/(s^2),m/(s^2),m/(s^2),m/(s^2),m/(s^2),no_units,uS,kOhms,deg/s,deg/s,deg/s,mV,ms,BPM,uS,
2023-08-12 14:25:15.721000,-9.590361445783133,0.6867469879518072,1.1325301204819278,0.9123237277743715,-9.584917228694053,1.5303494788473329,3.0,0.9339549339549339,1070.7154742096507,-0.0666627818891669,-0.035545714119224546,0.17574733407144114,1384.6153846153845,-1.0,64.73543841164269,0.9350918719972582,
2023-08-12 14:25:15.729000,-9.590361445783133,0.710843373493976,1.108433734939759,0.8755364806866952,-9.582464745554875,1.6088289393010422,3.0,0.9339549339549339,1070.7154742096507,-0.09451663655964061,-0.14055124992716128,0.17341646757181964,1389.0109890109889,-1.0,64.73543841164269,0.9350810694730611,
2023-08-12 14:25:15.737000,-9.590361445783133,0.710843373493976,1.1204819277108435,0.8436541998773758,-9.670754138565297,1.5793991416309012,3.0,0.9339549339549339,1070.7154742096507,-0.4591807004253826,-0.12341938115494361,0.47514713594778846,1393.4065934065934,-1.0,64.73543841164269,0.9350702429053142,
2023-08-12 14:25:15.744000,-9.590361445783133,0.6987951807228916,1.180722891566265,0.9049662783568363,-9.624156958920906,1.5916615573267934,3.0,0.9339549339549339,1070.7154742096507,-0.22562787716333504,-0.12050579803041749,0.1941611794184489,1397.8021978021977,-1.0,64.73543841164269,0.9350593892952028,
2023-08-12 14:25:15.752000,-9.566265060240964,0.6987951807228916,1.1566265060240966,0.8166768853464133,-9.621704475781728,1.5818516247700796,3.0,0.9339549339549339,1070.7154742096507,-0.22201503408892218,-0.11840801818075895,0.19322883281860045,1401.4652014652013,-1.0,64.73543841164269,0.9350485057178457,
2023-08-12 14:25:15.760000,-9.590361445783133,0.6987951807228916,1.1325301204819278,0.8436541998773758,-9.550582464745554,1.5744941753525443,3.0,0.9339549339549339,1070.7154742096507,-0.3091894411747562,-0.08554280053609885,0.17586387739642198,1405.128205128205,-1.0,64.73543841164269,0.935037589194262,
2023-08-12 14:25:15.767000,-9.566265060240964,0.6987951807228916,1.1204819277108435,0.86817903126916,-9.606989576946658,1.5597792765174738,3.0,0.9335109335109334,1071.2247324613556,-0.2894936192529567,-0.09976108618378868,0.23331973661208544,1405.8608058608058,-1.0,64.73543841164269,0.9350266368609401,
2023-08-12 14:25:15.775000,-9.578313253012048,0.710843373493976,1.144578313253012,0.8117719190680563,-9.567749846719803,1.5892090741876148,3.0,0.9339549339549339,1070.7154742096507,-0.11677641163102377,-0.1131635685566109,0.2918244857525786,1404.3956043956043,-1.0,64.73543841164269,0.9350156459583028,
2023-08-12 14:25:15.783000,-9.578313253012048,0.6987951807228916,1.144578313253012,0.9294911097486205,-9.545677498467198,1.5303494788473329,3.0,0.9339549339549339,1070.7154742096507,0.17469844414661231,-0.1885670998193579,-0.07633587786259542,1402.9304029304028,-1.0,64.73543841164269,0.9350046138188685,
2023-08-12 14:25:15.790000,-9.566265060240964,0.6987951807228916,1.1325301204819278,0.9393010423053341,-9.567749846719803,1.5769466584917229,3.0,0.9335109335109334,1071.2247324613556,-0.052561039566459654,-0.01841384534700861,-0.3230580968475031,1400.0,-1.0,64.73543841164269,0.9349935380359067,
2023-08-12 14:25:15.798000,-9.578313253012048,0.6987951807228916,1.0963855421686748,0.8117719190680563,-9.602084610668301,1.5475168608215817,3.0,0.9339549339549339,1070.7154742096507,-0.035429170794241974,0.10395664588310746,-0.014567915622632762,1394.8717948717947,-1.0,64.73543841164269,0.9349824161845881,
2023-08-12 14:25:15.806000,-9.578313253012048,0.6987951807228916,1.1325301204819278,0.8583690987124463,-9.587369711833231,1.5769466584917229,3.0,0.9339549339549339,1070.7154742096507,0.07190723151331495,-0.15616805547462287,0.045218810092651766,1392.6739926739926,-1.0,64.73543841164269,0.934971245958264,
2023-08-12 14:25:15.813000,-9.566265060240964,0.674698795180723,1.1325301204819278,0.7847946045370937,-9.562844880441446,1.5843041079092581,3.0,0.9339549339549339,1070.7154742096507,0.08647514713594728,-0.018646931996970283,0.18145795699551298,1393.4065934065934,-1.0,64.73543841164269,0.9349600253359066,
2023-08-12 14:25:15.821000,-9.566265060240964,0.6867469879518072,1.1325301204819278,0.8632740649908032,-9.61925199264255,1.5916615573267934,3.0,0.9339549339549339,1070.7154742096507,-0.20546588194161217,0.10127614940854301,-0.26152322125750255,1394.8717948717947,-1.0,64.73543841164269,0.9349487524513271,
2023-08-12 14:25:15.829000,-9.578313253012048,0.6987951807228916,1.1204819277108435,0.8583690987124463,-9.570202329858981,1.6039239730226853,3.0,0.9339549339549339,1070.7154742096507,0.14731076277606195,0.024707184895985928,-0.21222539479051325,1396.3369963369962,-1.0,64.73543841164269,0.9349374256007764,
2023-08-12 14:25:15.836000,-9.578313253012048,0.674698795180723,1.144578313253012,0.8779889638258737,-9.602084610668301,1.6161863887185774,3.0,0.9339549339549339,1070.7154742096507,0.08356156401142116,0.23751529631140295,-0.02563953149583349,1397.8021978021977,-1.0,64.73543841164269,0.9349260432501849,
2023-08-12 14:25:15.844000,-9.566265060240964,0.6867469879518072,1.108433734939759,0.9000613120784794,-9.602084610668301,1.5867565910484365,3.0,0.9330669330669329,1071.7344753747325,0.18821746984441537,0.1744653574966489,-0.02563953149583349,1399.2673992673992,-1.0,64.73543841164269,0.9349146040420285,
2023-08-12 14:25:15.852000,-9.578313253012048,0.674698795180723,1.1566265060240966,0.8559166155732679,-9.646229307173513,1.5818516247700796,3.0,0.9335109335109334,1071.2247324613556,0.06386574208962162,0.020628168521647974,0.16257793834858103,1400.7326007326005,-1.0,64.73543841164269,0.9349031066419816,
2023-08-12 14:25:15.859000,-9.578313253012048,0.674698795180723,1.1566265060240966,0.851011649294911,-9.6364193746168,1.554874310239117,3.0,0.9335109335109334,1071.2247324613556,-0.10232503933337228,0.005360992949128891,-0.022725948371306936,1400.0,-1.0,64.73543841164269,0.9348915498301898,
2023-08-12 14:25:15.867000,-9.578313253012048,0.6867469879518072,1.1325301204819278,0.8608215818516247,-9.616799509503371,1.525444512568976,3.0,0.9335109335109334,1071.2247324613556,0.03496299749431863,0.17318338092185798,-0.08134724083678094,1398.5347985347985,-1.0,64.73543841164269,0.9348799325162521,
2023-08-12 14:25:15.875000,-9.578313253012048,0.6987951807228916,1.1204819277108435,0.8240343347639485,-9.609442060085836,1.6088289393010422,3.0,0.9339549339549339,1070.7154742096507,0.1695705378474451,-0.16770584464774824,-0.09591515645941369,1397.069597069597,-1.0,64.73543841164269,0.9348682536252322,
2023-08-12 14:25:15.882000,-9.55421686746988,0.6987951807228916,1.1686746987951808,0.8166768853464133,-9.582464745554875,1.5941140404659717,3.0,0.9339549339549339,1070.7154742096507,0.22807528698793783,-0.09253540003496293,0.288910902628052,1397.069597069597,-1.0,64.73543841164269,0.9348565123985723,
2023-08-12 14:25:15.890000,-9.578313253012048,0.6867469879518072,1.1204819277108435,0.8755364806866952,-9.705088902513795,1.5524218270999386,3.0,0.9339549339549339,1070.7154742096507,-0.0033797564244512,-0.07855020103723478,0.1344909970281452,1397.069597069597,-1.0,64.73543841164269,0.9348447084177429,
2023-08-12 14:25:15.898000,-9.566265060240964,0.710843373493976,1.1325301204819278,0.86817903126916,-9.580012262415696,1.5573267933782955,3.0,0.9339549339549339,1070.7154742096507,0.3784161762135067,-0.06468154536448921,-0.004312103024299194,1396.3369963369962,-1.0,64.73543841164269,0.9348328414684248,
2023-08-12 14:25:15.905000,-9.578313253012048,0.6987951807228916,1.108433734939759,0.8706315144083384,-9.582464745554875,1.5646842427958307,3.0,0.9339549339549339,1070.7154742096507,-0.37387098653924544,0.07202377483829579,0.010605442573276513,1394.8717948717947,-1.0,64.73543841164269,0.9348209115431131,
2023-08-12 14:25:15.913000,-9.602409638554217,0.6867469879518072,1.1204819277108435,0.8657265481299815,-9.63396689147762,1.630901287553648,3.0,0.9339549339549339,1070.7154742096507,-0.06701241186411114,0.05372647281626975,0.20884563836606249,1392.6739926739926,-1.0,64.73543841164269,0.9348089188433961,
2023-08-12 14:25:15.920000,-9.578313253012048,0.6867469879518072,1.1566265060240966,0.8362967504598405,-9.540772532188841,1.5499693439607602,3.0,0.9339549339549339,1070.7154742096507,0.16222830837363852,-0.22283083736378978,0.16222830837363764,1389.7435897435896,-1.0,64.73543841164269,0.9347968637819348,
2023-08-12 14:25:15.928000,-9.578313253012048,0.6987951807228916,1.144578313253012,0.8853464132434089,-9.587369711833231,1.5475168608215817,3.0,0.9335109335109334,1071.2247324613556,0.1769127673212517,-0.20593205524153552,0.022842491696288207,1389.0109890109889,-1.0,64.73543841164269,0.9347847469841325,
2023-08-12 14:25:15.936000,-9.566265060240964,0.6987951807228916,1.144578313253012,0.8313917841814837,-9.58982219497241,1.567136725935009,3.0,0.9339549339549339,1070.7154742096507,-0.03752695064390224,-0.2807528698793783,0.3730551832643787,1390.4761904761904,-1.0,64.73543841164269,0.9347725691402261,
2023-08-12 14:25:15.943000,-9.578313253012048,0.6867469879518072,1.1204819277108435,0.8877988963825874,-9.5113427345187,1.5180870631514407,3.0,0.9339549339549339,1070.7154742096507,-0.15733348872443298,0.39379989511100666,0.32468970339723785,1391.9413919413919,-1.0,64.73543841164269,0.9347603311338016,
2023-08-12 14:25:15.951000,-9.578313253012048,0.6867469879518072,1.108433734939759,0.8976088289393009,-9.587369711833231,1.5744941753525443,3.0,0.9335109335109334,1071.2247324613556,-0.0010488899248292638,-0.27888817667968147,0.019812365246780383,1390.4761904761904,-1.0,64.73543841164269,0.9347480342015527,
2023-08-12 14:25:15.959000,-9.590361445783133,0.6867469879518072,1.108433734939759,0.8755364806866952,-9.545677498467198,1.6210913549969344,3.0,0.9339549339549339,1070.7154742096507,0.22982343686265383,0.014567915622632328,-0.17854437387098643,1387.5457875457876,-1.0,64.73543841164269,0.9347356797843441,
2023-08-12 14:25:15.966000,-9.578313253012048,0.6987951807228916,1.1204819277108435,0.9147762109135499,-9.660944206008583,1.572041692213366,3.0,0.9339549339549339,1070.7154742096507,-0.014218285647689819,-0.1355398869529749,0.26735038750655565,1386.080586080586,-1.0,64.73543841164269,0.9347232694956055,
2023-08-12 14:25:15.974000,-9.55421686746988,0.6867469879518072,1.1204819277108435,0.8706315144083384,-9.626609442060085,1.6039239730226853,3.0,0.9339549339549339,1070.7154742096507,-0.4407668550783757,-0.34893071499329953,-0.1769127673212517,1383.8827838827838,-1.0,64.73543841164269,0.9347108051524929,
2023-08-12 14:25:15.982000,-9.578313253012048,0.710843373493976,1.108433734939759,0.82158185162477,-9.592274678111588,1.5573267933782955,3.0,0.9339549339549339,1070.7154742096507,0.11328011188159173,-0.10302429928325904,0.19008216304411138,1380.952380952381,-1.0,64.73543841164269,0.934698288785642,
2023-08-12 14:25:15.989000,-9.566265060240964,0.674698795180723,1.108433734939759,0.8828939301042305,-9.58982219497241,1.5744941753525443,3.0,0.9339549339549339,1070.7154742096507,0.2508012353592443,-0.10418973253306914,-0.1174756715809101,1383.150183150183,-1.0,64.73543841164269,0.9346857227768779,
2023-08-12 14:25:15.997000,-9.55421686746988,0.6987951807228916,1.1325301204819278,0.9294911097486205,-9.533415082771306,1.5082771305947271,3.0,0.9330669330669329,1071.7344753747325,0.11164850533185655,0.1719014043470653,0.0071091428238449095,1386.080586080586,-1.0,64.73543841164269,0.9346731096988097,
2023-08-12 14:25:16.005000,-9.578313253012048,0.710843373493976,1.1204819277108435,0.8559166155732679,-9.555487431023911,1.5573267933782955,3.0,0.9335109335109334,1071.2247324613556,-0.20802983509119577,0.19975525901753902,-0.05360992949128848,1390.4761904761904,-1.0,64.73543841164269,0.9346604521646121,
2023-08-12 14:25:16.012000,-9.578313253012048,0.710843373493976,1.144578313253012,0.9319435928877988,-9.565297363580624,1.648068669527897,3.0,0.9339549339549339,1070.7154742096507,-0.14358137637666823,-0.18075869704562622,0.05454227609113691,1395.6043956043954,-1.0,64.73543841164269,0.9346477529014099,
2023-08-12 14:25:16.020000,-9.578313253012048,0.6867469879518072,1.144578313253012,0.8559166155732679,-9.577559779276516,1.567136725935009,3.0,0.9339549339549339,1070.7154742096507,0.07295612143814421,-0.07074179826350485,-0.009206922673503872,1403.6630036630036,-1.0,64.73543841164269,0.9346350149177776,
2023-08-12 14:25:16.028000,-9.578313253012048,0.6867469879518072,1.1566265060240966,0.8877988963825874,-9.602084610668301,1.5695892090741874,3.0,0.9339549339549339,1070.7154742096507,0.07295612143814421,-0.07097488491346653,-0.0090903793485226,1409.5238095238094,-1.0,64.73543841164269,0.9346222415325945,
2023-08-12 14:25:16.035000,-9.578313253012048,0.6867469879518072,1.144578313253012,0.8853464132434089,-9.58982219497241,1.5695892090741874,3.0,0.9339549339549339,1070.7154742096507,0.3936833517860258,-0.07097488491346653,0.1286638307790921,1411.7216117216117,-1.0,64.73543841164269,0.9346094362338148,
2023-08-12 14:25:16.043000,-9.578313253012048,0.6867469879518072,1.180722891566265,0.8313917841814837,-9.616799509503371,1.5646842427958307,3.0,0.9339549339549339,1070.7154742096507,-0.17178486102208446,0.2044169920167829,-0.22283083736378978,1409.5238095238094,-1.0,64.73543841164269,0.9345966026755851,
2023-08-12 14:25:16.051000,-9.578313253012048,0.674698795180723,1.144578313253012,0.8755364806866952,-9.611894543225015,1.6063764561618639,3.0,0.9339549339549339,1070.7154742096507,-0.0779674844123306,-0.01200396247304872,0.16152904842375132,1408.058608058608,-1.0,64.73543841164269,0.9345837446749754,
2023-08-12 14:25:16.058000,-9.578313253012048,0.674698795180723,1.1325301204819278,0.8877988963825874,-9.580012262415696,1.5892090741876148,3.0,0.9339549339549339,1070.7154742096507,-0.14055124992716128,0.003496299749432037,-0.05256103956645878,1403.6630036630036,-1.0,64.73543841164269,0.9345708662083233,
2023-08-12 14:25:16.066000,-9.578313253012048,0.6626506024096386,1.1566265060240966,0.838749233599019,-9.582464745554875,1.613733905579399,3.0,0.9339549339549339,1070.7154742096507,-0.002214323174639364,0.17026979779733184,0.009673095973428084,1402.9304029304028,-1.0,64.73543841164269,0.9345579714072129,
2023-08-12 14:25:16.074000,-9.578313253012048,0.674698795180723,1.1566265060240966,0.8632740649908032,-9.616799509503371,1.5622317596566522,3.0,0.9339549339549339,1070.7154742096507,0.05862129246547356,0.0010488899248292638,0.2559291416584115,1402.9304029304028,-1.0,64.73543841164269,0.9345450645540929,
2023-08-12 14:25:16.081000,-9.566265060240964,0.674698795180723,1.1686746987951808,0.8166768853464133,-9.668301655426118,1.5695892090741874,3.0,0.9339549339549339,1070.7154742096507,0.2257444204883159,-0.1823903035953614,0.6240895052735855,1402.9304029304028,-1.0,64.73543841164269,0.9345321500775432,
2023-08-12 14:25:16.089000,-9.55421686746988,0.674698795180723,1.1566265060240966,0.7700797057020232,-9.565297363580624,1.567136725935009,3.0,0.9343989343989343,1070.2066999287242,-0.021443971796515564,-0.10372355923314405,0.49670765106928483,1405.128205128205,-1.0,64.73543841164269,0.9345192325472047,
2023-08-12 14:25:16.097000,-9.55421686746988,0.6987951807228916,1.1204819277108435,0.8289393010423053,-9.562844880441446,1.567136725935009,3.0,0.9339549339549339,1070.7154742096507,-0.3109375910494722,-0.18087524037060707,0.4317930190548335,1409.5238095238094,-1.0,64.73543841164269,0.934506316817679,
2023-08-12 14:25:16.104000,-9.566265060240964,0.6867469879518072,1.108433734939759,0.8264868179031268,-9.61925199264255,1.5401594114040464,3.0,0.9339549339549339,1070.7154742096507,-0.04813239321717919,-0.02622224812073854,0.2313385000874073,1416.117216117216,-1.0,64.73543841164269,0.9344934078954016,
2023-08-12 14:25:16.112000,-9.55421686746988,0.674698795180723,1.0963855421686748,0.8289393010423053,-9.587369711833231,1.5573267933782955,3.0,0.9339549339549339,1070.7154742096507,-0.049064739817027615,-0.23972961948604404,0.12225394790513394,1421.9780219780218,-1.0,64.73543841164269,0.9344805107736914,
2023-08-12 14:25:16.120000,-9.55421686746988,0.674698795180723,1.1204819277108435,0.8608215818516247,-9.599632127529123,1.5180870631514407,3.0,0.9339549339549339,1070.7154742096507,0.07214031816327662,-0.5745585921566346,0.19719130586795627,1426.3736263736262,-1.0,64.73543841164269,0.9344676305653846,
2023-08-12 14:25:16.127000,-9.542168674698795,0.710843373493976,1.0963855421686748,0.8976088289393009,-9.609442060085836,1.5180870631514407,3.0,0.9339549339549339,1070.7154742096507,-0.24916962880950913,0.10046034613367542,0.20896218169104333,1425.6410256410256,926.849365234375,64.73543841164269,0.9344547724964306,
2023-08-12 14:25:16.135000,-9.542168674698795,0.710843373493976,1.1204819277108435,0.8583690987124463,-9.592274678111588,1.567136725935009,3.0,0.9339549339549339,1070.7154742096507,0.14940854262572048,-0.14532952625138426,0.300448691801177,1424.1758241758241,-1.0,64.73543841164269,0.9344419418992158,
2023-08-12 14:25:16.143000,-9.542168674698795,0.6867469879518072,1.1325301204819278,0.9319435928877988,-9.606989576946658,1.572041692213366,3.0,0.9339549339549339,1070.7154742096507,0.0858924305110431,0.0680613017889404,0.31350154419905585,1422.7106227106226,-1.0,64.73543841164269,0.9344291442056166,
2023-08-12 14:25:16.150000,-9.566265060240964,0.710843373493976,1.180722891566265,0.8583690987124463,-9.606989576946658,1.542611894543225,3.0,0.9335109335109334,1071.2247324613556,-0.11374628518151682,0.11328011188159173,0.11258085193170585,1419.047619047619,-1.0,64.73543841164269,0.9344163850785551,
2023-08-12 14:25:16.158000,-9.578313253012048,0.7228915662650602,1.1686746987951808,0.9025137952176578,-9.660944206008583,1.5867565910484365,3.0,0.9339549339549339,1070.7154742096507,0.14696113280111944,0.4044053376842836,0.09603169978439496,1415.3846153846152,-1.0,64.73543841164269,0.9344036703736259,
2023-08-12 14:25:16.166000,-9.590361445783133,0.6987951807228916,1.144578313253012,0.9025137952176578,-9.599632127529123,1.613733905579399,3.0,0.9339549339549339,1070.7154742096507,-0.0844939106112696,0.27993706660451073,0.28110249985432084,1412.4542124542124,-1.0,64.73543841164269,0.9343910059517232,
2023-08-12 14:25:16.173000,-9.602409638554217,0.6867469879518072,1.144578313253012,0.8902513795217657,-9.609442060085836,1.5990190067443286,3.0,0.9339549339549339,1070.7154742096507,0.03892547054367401,0.12540061767962304,0.2807528698793774,1409.5238095238094,-1.0,64.73543841164269,0.9343783977035637,
2023-08-12 14:25:16.181000,-9.602409638554217,0.6987951807228916,1.1566265060240966,0.86817903126916,-9.582464745554875,1.5328019619865112,3.0,0.9343989343989343,1070.2066999287242,-0.03950818716857993,0.2939222656022371,0.4309772157799664,1405.128205128205,-1.0,64.73543841164269,0.9343658515526496,
2023-08-12 14:25:16.189000,-9.566265060240964,0.6867469879518072,1.108433734939759,0.8632740649908032,-9.638871857755978,1.5818516247700796,3.0,0.9343989343989343,1070.2066999287242,-0.17679622399627085,-0.16467571819823956,0.20022143231746412,1402.197802197802,-1.0,64.73543841164269,0.9343533734578371,
2023-08-12 14:25:16.196000,-9.566265060240964,0.674698795180723,1.1204819277108435,0.8730839975475169,-9.626609442060085,1.5941140404659717,3.0,0.9343989343989343,1070.2066999287242,-0.20744711846628985,0.08239613076161106,0.3365771225453057,1402.197802197802,-1.0,64.73543841164269,0.9343409695860095,
2023-08-12 14:25:16.204000,-9.566265060240964,0.674698795180723,1.1325301204819278,0.8240343347639485,-9.584917228694053,1.567136725935009,3.0,0.9343989343989343,1070.2066999287242,0.02330866499621242,-0.01083852922323862,0.3027795583007985,1404.3956043956043,-1.0,64.73543841164269,0.9343286461551955,
2023-08-12 14:25:16.212000,-9.566265060240964,0.6867469879518072,1.108433734939759,0.7676272225628449,-9.611894543225015,1.5646842427958307,3.0,0.9339549339549339,1070.7154742096507,-0.1446302663014975,0.15616805547462287,0.6814288211642673,1407.3260073260071,-1.0,64.73543841164269,0.9343164094374777,
2023-08-12 14:25:16.219000,-9.590361445783133,0.6626506024096386,1.0963855421686748,0.8485591661557327,-9.530962599632128,1.5990190067443286,3.0,0.9339549339549339,1070.7154742096507,0.025639531495834356,-0.0023308664996219363,0.7697686614999127,1415.3846153846152,-1.0,64.73543841164269,0.9343042657302704,
2023-08-12 14:25:16.227000,-9.590361445783133,0.6626506024096386,1.1566265060240966,0.8779889638258737,-9.548129981606376,1.6161863887185774,3.0,0.9339549339549339,1070.7154742096507,-0.06747858516403449,0.08764058038575911,0.5667501893829029,1424.1758241758241,-1.0,64.73543841164269,0.9342922211782028,
2023-08-12 14:25:16.235000,-9.566265060240964,0.674698795180723,1.144578313253012,0.8583690987124463,-9.58982219497241,1.5401594114040464,3.0,0.9343989343989343,1070.2066999287242,0.16455917487325872,-0.053959559466231426,0.36594604044053336,1433.6996336996335,-1.0,64.73543841164269,0.9342802819031514,
2023-08-12 14:25:16.242000,-9.542168674698795,0.6867469879518072,1.1325301204819278,0.8093194359288779,-9.611894543225015,1.6039239730226853,3.0,0.9343989343989343,1070.2066999287242,-0.04789930656721578,-0.19183031291882827,0.46978614299865956,1438.8278388278388,-1.0,64.73543841164269,0.9342684541445565,
2023-08-12 14:25:16.250000,-9.578313253012048,0.6987951807228916,1.1204819277108435,0.9000613120784794,-9.565297363580624,1.5916615573267934,3.0,0.9339549339549339,1070.7154742096507,-0.1687547345725775,0.14567915622632677,0.494842957869588,1442.4908424908424,-1.0,64.73543841164269,0.9342567442720857,
2023-08-12 14:25:16.258000,-9.602409638554217,0.674698795180723,1.108433734939759,0.8976088289393009,-9.621704475781728,1.572041692213366,3.0,0.9339549339549339,1070.7154742096507,-0.04195559699318271,0.31175339432433985,0.6716391818658584,1440.2930402930401,-1.0,64.73543841164269,0.9342451584898498,
2023-08-12 14:25:16.265000,-9.578313253012048,0.6867469879518072,1.1325301204819278,0.9172286940527283,-9.631514408338441,1.5744941753525443,3.0,0.9339549339549339,1070.7154742096507,-0.17516461744653566,0.004195559699318791,0.2200337975642445,1432.9670329670328,-1.0,64.73543841164269,0.9342337026680348,
2023-08-12 14:25:16.273000,-9.578313253012048,0.6867469879518072,1.144578313253012,0.8559166155732679,-9.606989576946658,1.5916615573267934,3.0,0.9339549339549339,1070.7154742096507,0.21245848144047624,0.06608006526426272,0.45778218052561,1424.9084249084249,-1.0,64.73543841164269,0.9342223824926066,
2023-08-12 14:25:16.281000,-9.578313253012048,0.6867469879518072,1.1325301204819278,0.838749233599019,-9.631514408338441,1.5990190067443286,3.0,0.9339549339549339,1070.7154742096507,0.16980362449740677,-0.23868072956121478,0.37445370316415133,1419.047619047619,-1.0,64.73543841164269,0.9342112037424779,
2023-08-12 14:25:16.288000,-9.566265060240964,0.674698795180723,1.1325301204819278,0.9368485591661557,-9.61925199264255,1.5769466584917229,3.0,0.9339549339549339,1070.7154742096507,0.08286230406153441,-0.3708408600897385,0.5512499271604213,1416.8498168498168,-1.0,64.73543841164269,0.9342001721195674,
2023-08-12 14:25:16.296000,-9.566265060240964,0.710843373493976,1.1325301204819278,0.8534641324340895,-9.621704475781728,1.567136725935009,3.0,0.9339549339549339,1070.7154742096507,0.039624730493560766,-0.2566284016082983,0.43284190897966324,1414.6520146520145,-1.0,64.73543841164269,0.9341892932492146,
2023-08-12 14:25:16.303000,-9.578313253012048,0.7228915662650602,1.1325301204819278,0.9245861434702636,-9.555487431023911,1.5843041079092581,3.0,0.9330669330669329,1071.7344753747325,0.08717440708583403,-0.0393916438435991,0.24194394266068384,1413.1868131868132,-1.0,64.73543841164269,0.9341785727982912,
2023-08-12 14:25:16.311000,-9.55421686746988,0.710843373493976,1.1325301204819278,0.8927038626609441,-9.570202329858981,1.5303494788473329,3.0,0.9335109335109334,1071.2247324613556,0.0896218169104368,-0.03531262746926114,0.23518442981178272,1413.1868131868132,-1.0,64.73543841164269,0.9341680161567083,
2023-08-12 14:25:16.319000,-9.566265060240964,0.7349397590361446,1.1325301204819278,0.8853464132434089,-9.570202329858981,1.5499693439607602,3.0,0.9339549339549339,1070.7154742096507,0.2607074179826345,0.013868655672745575,0.1960258726181462,1414.6520146520145,-1.0,64.73543841164269,0.9341576285131893,
2023-08-12 14:25:16.326000,-9.542168674698795,0.7228915662650602,1.1204819277108435,0.8902513795217657,-9.55793991416309,1.5499693439607602,3.0,0.9335109335109334,1071.2247324613556,0.30674203135015515,0.09451663655964061,0.32667093992191554,1415.3846153846152,-1.0,64.73543841164269,0.9341474150044186,
2023-08-12 14:25:16.334000,-9.578313253012048,0.7349397590361446,1.1325301204819278,0.9466584917228693,-9.594727161250766,1.572041692213366,3.0,0.9339549339549339,1070.7154742096507,0.21478934794009644,0.01911310529689363,0.016082978847386676,1413.9194139194137,-1.0,64.73543841164269,0.9341373804589198,
2023-08-12 14:25:16.342000,-9.578313253012048,0.710843373493976,1.144578313253012,0.8927038626609441,-9.582464745554875,1.554874310239117,3.0,0.9339549339549339,1070.7154742096507,0.2168871277897567,0.311636850999359,0.350445778218053,1410.989010989011,-1.0,64.73543841164269,0.9341275293860006,
2023-08-12 14:25:16.349000,-9.590361445783133,0.7228915662650602,1.108433734939759,0.9319435928877988,-9.594727161250766,1.5941140404659717,3.0,0.9339549339549339,1070.7154742096507,0.30767437795000363,0.48027504224695566,0.2999825185012528,1406.5934065934066,-1.0,64.73543841164269,0.9341178662836597,
2023-08-12 14:25:16.357000,-9.590361445783133,0.7228915662650602,1.1325301204819278,0.8828939301042305,-9.616799509503371,1.5793991416309012,3.0,0.9339549339549339,1070.7154742096507,-0.013169395722860555,0.14486335295145916,0.05023017306683771,1402.197802197802,-1.0,64.73543841164269,0.9341083956172487,
2023-08-12 14:25:16.365000,-9.602409638554217,0.710843373493976,1.0843373493975905,0.927038626609442,-9.624156958920906,1.567136725935009,3.0,0.9339549339549339,1070.7154742096507,0.02051162519666714,0.160829788473865,0.2767903968300216,1399.2673992673992,-1.0,64.73543841164269,0.9340991216603705,
2023-08-12 14:25:16.372000,-9.578313253012048,0.710843373493976,1.108433734939759,0.8755364806866952,-9.641324340895157,1.542611894543225,3.0,0.9339549339549339,1070.7154742096507,0.02086125517160965,-0.2501019754093576,0.3331973661208554,1397.069597069597,-1.0,64.73543841164269,0.9340900484853067,
2023-08-12 14:25:16.380000,-9.614457831325302,0.710843373493976,1.1325301204819278,0.8632740649908032,-9.626609442060085,1.537706928264868,3.0,0.9339549339549339,1070.7154742096507,-0.1333255637783338,-0.07924946098712153,0.14509643960142216,1393.4065934065934,-1.0,64.73543841164269,0.9340811799537211,
2023-08-12 14:25:16.388000,-9.578313253012048,0.7349397590361446,1.1204819277108435,0.8436541998773758,-9.555487431023911,1.5622317596566522,3.0,0.9339549339549339,1070.7154742096507,-0.07074179826350485,-0.13857001340248185,0.46197774022492877,1391.9413919413919,-1.0,64.73543841164269,0.934072519707682,
2023-08-12 14:25:16.395000,-9.566265060240964,0.710843373493976,1.1204819277108435,0.8804414469650521,-9.562844880441446,1.537706928264868,3.0,0.9339549339549339,1070.7154742096507,-0.025756074820815194,-0.04498572344268966,-0.03274867431967796,1391.2087912087911,-1.0,64.73543841164269,0.9340640711610384,
2023-08-12 14:25:16.403000,-9.55421686746988,0.710843373493976,1.108433734939759,0.86817903126916,-9.594727161250766,1.59656652360515,3.0,0.9339549339549339,1070.7154742096507,-0.1653749781481263,-0.07750131111240552,0.37538604976399975,1391.2087912087911,-1.0,64.73543841164269,0.9340558374911881,
2023-08-12 14:25:16.411000,-9.590361445783133,0.7228915662650602,1.1204819277108435,0.8534641324340895,-9.599632127529123,1.5180870631514407,3.0,0.9339549339549339,1070.7154742096507,-0.25651185828331746,-0.10803566225744368,0.46267700017481506,1390.4761904761904,-1.0,64.73543841164269,0.934047821631284,
2023-08-12 14:25:16.418000,-9.590361445783133,0.710843373493976,1.1325301204819278,0.9000613120784794,-9.621704475781728,1.554874310239117,3.0,0.9339549339549339,1070.7154742096507,-0.057572402540644295,-0.0640988287395833,0.2572111182332029,1389.7435897435896,-1.0,64.73543841164269,0.9340400262629094,
2023-08-12 14:25:16.426000,-9.566265060240964,0.710843373493976,1.1325301204819278,0.8436541998773758,-9.641324340895157,1.6088289393010422,3.0,0.9339549339549339,1070.7154742096507,-0.04335411689295448,-0.11129887535691405,0.25208321193403616,1388.278388278388,-1.0,64.73543841164269,0.9340324538092549,
2023-08-12 14:25:16.434000,-9.55421686746988,0.710843373493976,1.1566265060240966,0.9368485591661557,-9.660944206008583,1.5352544451256898,3.0,0.9339549339549339,1070.7154742096507,-0.22865800361284375,-0.05151214964162865,0.09812947963405436,1383.150183150183,-1.0,64.73543841164269,0.9340251064288384,
2023-08-12 14:25:16.441000,-9.566265060240964,0.7228915662650602,1.1566265060240966,0.8534641324340895,-9.587369711833231,1.5843041079092581,3.0,0.9339549339549339,1070.7154742096507,-0.13775421012761427,0.02214323174640232,0.2337859099120101,1379.4871794871794,-1.0,64.73543841164269,0.9340179860098008,
2023-08-12 14:25:16.449000,-9.566265060240964,0.6987951807228916,1.144578313253012,0.9025137952176578,-9.609442060085836,1.6088289393010422,3.0,0.9339549339549339,1070.7154742096507,-0.5340015150632255,-0.24124468271079838,-0.15045743255055102,1378.7545787545787,-1.0,64.73543841164269,0.9340110941648041,
2023-08-12 14:25:16.457000,-9.542168674698795,0.710843373493976,1.1204819277108435,0.8583690987124463,-9.582464745554875,1.554874310239117,3.0,0.9335109335109334,1071.2247324613556,0.32399044344735195,-0.2399627061360057,-0.07435464133791729,1379.4871794871794,-1.0,64.73543841164269,0.9340044322265616,
2023-08-12 14:25:16.464000,-9.566265060240964,0.6987951807228916,1.144578313253012,0.8853464132434089,-9.599632127529123,1.5573267933782955,3.0,0.9335109335109334,1071.2247324613556,0.19579278596818364,0.15779966202435805,0.26175630790746424,1380.2197802197802,-1.0,64.73543841164269,0.9339980013722381,
2023-08-12 14:25:16.472000,-9.590361445783133,0.6987951807228916,1.1686746987951808,0.82158185162477,-9.57265481299816,1.6554261189454322,3.0,0.9339549339549339,1070.7154742096507,0.05827166249053105,0.3679272769652123,-0.15197249577530494,1380.952380952381,-1.0,64.73543841164269,0.9339918024189409,
2023-08-12 14:25:16.480000,-9.566265060240964,0.6987951807228916,1.144578313253012,0.8436541998773758,-9.61925199264255,1.6088289393010422,3.0,0.9339549339549339,1070.7154742096507,-0.1250509877046788,0.16922090787250085,0.06339956878969784,1385.3479853479853,-1.0,64.73543841164269,0.9339858358320566,
2023-08-12 14:25:16.487000,-9.578313253012048,0.6987951807228916,1.1204819277108435,0.8853464132434089,-9.641324340895157,1.5401594114040464,3.0,0.9339549339549339,1070.7154742096507,0.18157450032049383,0.3689761668900416,0.15500262222481234,1388.278388278388,-1.0,64.73543841164269,0.9339801017550189,
2023-08-12 14:25:16.495000,-9.578313253012048,0.6987951807228916,1.1686746987951808,0.8853464132434089,-9.567749846719803,1.6088289393010422,3.0,0.9339549339549339,1070.7154742096507,0.10232503933337228,0.06036944234018958,0.06246722218984897,1394.139194139194,-1.0,64.73543841164269,0.9339745998903429,
2023-08-12 14:25:16.503000,-9.602409638554217,0.6987951807228916,1.1325301204819278,0.9098712446351931,-9.533415082771306,1.554874310239117,3.0,0.9339549339549339,1070.7154742096507,0.11607715168113703,0.07645242118757625,0.06386574208962162,1397.8021978021977,-1.0,64.73543841164269,0.9339693296476085,
2023-08-12 14:25:16.510000,-9.566265060240964,0.6987951807228916,1.0963855421686748,0.8338442673206621,-9.555487431023911,1.6112814224402205,3.0,0.9339549339549339,1070.7154742096507,-0.008158032748674174,0.01619952217236751,0.15476953557485024,1402.9304029304028,-1.0,64.73543841164269,0.9339642901429578,
2023-08-12 14:25:16.518000,-9.566265060240964,0.6987951807228916,1.1325301204819278,0.8608215818516247,-9.63396689147762,1.5573267933782955,3.0,0.9339549339549339,1070.7154742096507,0.41722510343220165,0.033681020919527696,-0.2454402424101163,1403.6630036630036,-1.0,64.73543841164269,0.9339594801994165,
2023-08-12 14:25:16.526000,-9.55421686746988,0.6867469879518072,1.144578313253012,0.8412017167381973,-9.587369711833231,1.5916615573267934,3.0,0.9339549339549339,1070.7154742096507,0.4898315948954016,0.048831653167064205,-0.06176796223996222,1403.6630036630036,-1.0,64.73543841164269,0.9339548983480606,
2023-08-12 14:25:16.533000,-9.578313253012048,0.6987951807228916,1.1204819277108435,0.9000613120784794,-9.621704475781728,1.5941140404659717,3.0,0.9339549339549339,1070.7154742096507,0.056640055940795866,-0.02703805139560613,0.36513023716566617,1405.128205128205,-1.0,64.73543841164269,0.9339505428300392,
2023-08-12 14:25:16.541000,-9.578313253012048,0.674698795180723,1.1204819277108435,0.8804414469650521,-9.570202329858981,1.5843041079092581,3.0,0.9339549339549339,1070.7154742096507,0.06934327836373134,0.34298700541926475,0.1008099761086188,1405.8608058608058,-1.0,64.73543841164269,0.933946411738216,
2023-08-12 14:25:16.549000,-9.578313253012048,0.6987951807228916,1.108433734939759,0.8902513795217657,-9.606989576946658,1.5744941753525443,3.0,0.9339549339549339,1070.7154742096507,0.24975234543441507,0.008857292698560929,0.29508769885204855,1405.8608058608058,-1.0,64.73543841164269,0.9339425030005517,
2023-08-12 14:25:16.556000,-9.614457831325302,0.6987951807228916,1.1325301204819278,0.8534641324340895,-9.597179644389945,1.5573267933782955,3.0,0.9339549339549339,1070.7154742096507,0.2160713245148891,0.3476487384185069,0.1672396713478236,1407.3260073260071,-1.0,64.73543841164269,0.933938814236751,
2023-08-12 14:25:16.564000,-9.590361445783133,0.674698795180723,1.1204819277108435,0.8485591661557327,-9.61925199264255,1.5475168608215817,3.0,0.9339549339549339,1070.7154742096507,-0.1846046267700025,0.1934619194685617,0.1961424159431266,1408.7912087912086,-1.0,64.73543841164269,0.9339353427648739,
2023-08-12 14:25:16.572000,-9.614457831325302,0.6987951807228916,1.1204819277108435,0.8657265481299815,-9.597179644389945,1.542611894543225,3.0,0.9339549339549339,1070.7154742096507,0.5779383485810858,-0.21910145096439607,0.6344618611969,1412.4542124542124,-1.0,64.73543841164269,0.9339320856086151,
2023-08-12 14:25:16.579000,-9.614457831325302,0.674698795180723,1.1204819277108435,0.8461066830165542,-9.621704475781728,1.5744941753525443,3.0,0.9339549339549339,1070.7154742096507,-0.1905483363440356,0.0737719247130118,0.5043995105180348,1415.3846153846152,-1.0,64.73543841164269,0.9339290393664956,
2023-08-12 14:25:16.587000,-9.602409638554217,0.6987951807228916,1.1204819277108435,0.8436541998773758,-9.631514408338441,1.5916615573267934,3.0,0.9339549339549339,1070.7154742096507,-0.19008216304411224,0.07575316123768949,0.49798962764407667,1419.047619047619,-1.0,64.73543841164269,0.9339262002408284,
2023-08-12 14:25:16.595000,-9.614457831325302,0.6867469879518072,1.108433734939759,0.8461066830165542,-9.638871857755978,1.5401594114040464,3.0,0.9339549339549339,1070.7154742096507,-0.23471825651185765,-0.4901812248703459,0.7348056640055941,1421.9780219780218,-1.0,64.73543841164269,0.9339235643336818,
2023-08-12 14:25:16.602000,-9.614457831325302,0.6867469879518072,1.1325301204819278,0.8632740649908032,-9.643776824034335,1.5278969957081545,3.0,0.9339549339549339,1070.7154742096507,-0.08204650078666682,-0.04113979371831512,0.5886603344793427,1422.7106227106226,-1.0,64.73543841164269,0.9339211274964939,
2023-08-12 14:25:16.610000,-9.590361445783133,0.6987951807228916,1.1325301204819278,0.9049662783568363,-9.631514408338441,1.5695892090741874,3.0,0.9335109335109334,1071.2247324613556,0.08542625721111802,-0.24019579278596737,0.9768661499912588,1420.5128205128203,-1.0,64.73543841164269,0.9339188853507435,
2023-08-12 14:25:16.618000,-9.578313253012048,0.6987951807228916,1.1566265060240966,0.9098712446351931,-9.594727161250766,1.572041692213366,3.0,0.9335109335109334,1071.2247324613556,0.20593205524153552,-0.3604685041664232,0.9518093351203308,1418.3150183150183,-1.0,64.73543841164269,0.9339168334164466,
2023-08-12 14:25:16.625000,-9.590361445783133,0.6867469879518072,1.1566265060240966,0.8657265481299815,-9.638871857755978,1.567136725935009,3.0,0.9339549339549339,1070.7154742096507,0.021210885146553893,-0.5236291591399101,1.0485402948546125,1416.117216117216,-1.0,64.73543841164269,0.93391496679403,
2023-08-12 14:25:16.633000,-9.602409638554217,0.674698795180723,1.1204819277108435,0.927038626609442,-9.580012262415696,1.5867565910484365,3.0,0.9339549339549339,1070.7154742096507,0.02074471184662881,-0.5204824893654223,1.2848901579162049,1413.1868131868132,-1.0,64.73543841164269,0.9339132803357788,
2023-08-12 14:25:16.641000,-9.602409638554217,0.710843373493976,1.1204819277108435,0.8828939301042305,-9.599632127529123,1.572041692213366,3.0,0.9339549339549339,1070.7154742096507,-0.04195559699318271,-0.8835149466814292,0.9230231338500084,1407.3260073260071,-1.0,64.73543841164269,0.9339117688281361,
2023-08-12 14:25:16.648000,-9.566265060240964,0.710843373493976,1.108433734939759,0.82158185162477,-9.570202329858981,1.5769466584917229,3.0,0.9339549339549339,1070.7154742096507,-0.3755025930889806,-0.6477478002447405,0.8831653167064858,1402.9304029304028,-1.0,64.73543841164269,0.9339104268660559,
2023-08-12 14:25:16.656000,-9.566265060240964,0.710843373493976,1.144578313253012,0.851011649294911,-9.629061925199263,1.567136725935009,3.0,0.9339549339549339,1070.7154742096507,-0.09801293630907265,-0.7656896451255761,1.074412913000408,1400.7326007326005,-1.0,64.73543841164269,0.9339092488665538,
2023-08-12 14:25:16.664000,-9.55421686746988,0.7228915662650602,1.144578313253012,0.9074187614960146,-9.565297363580624,1.537706928264868,3.0,0.9343989343989343,1070.2066999287242,0.07202377483829579,-0.9274517801992895,1.0184721170094984,1401.4652014652013,-1.0,64.73543841164269,0.9339082290826751,
2023-08-12 14:25:16.671000,-9.566265060240964,0.710843373493976,1.144578313253012,0.9319435928877988,-9.560392397302268,1.5646842427958307,3.0,0.9339549339549339,1070.7154742096507,-0.2941553522522005,-0.905425091777868,1.0708000699259952,1402.9304029304028,-1.0,64.73543841164269,0.9339073617671446,
2023-08-12 14:25:16.679000,-9.55421686746988,0.7228915662650602,1.144578313253012,0.9245861434702636,-9.550582464745554,1.613733905579399,3.0,0.9339549339549339,1070.7154742096507,-0.35242701474272986,-0.8226793310413145,0.7577646990268629,1402.9304029304028,-1.0,64.73543841164269,0.9339066409209004,
2023-08-12 14:25:16.686000,-9.542168674698795,0.746987951807229,1.1566265060240966,0.927038626609442,-9.58982219497241,1.5573267933782955,3.0,0.9339549339549339,1070.7154742096507,-0.04416992016782207,-0.7412155468795518,0.5857467513548164,1405.128205128205,-1.0,64.73543841164269,0.9339060603083015,
2023-08-12 14:25:16.694000,-9.530120481927712,0.7228915662650602,1.1325301204819278,0.9515634580012262,-9.469650521152667,1.6088289393010422,3.0,0.9339549339549339,1070.7154742096507,0.033447934269564286,-0.5236291591399101,0.5955363906532255,1405.8608058608058,-1.0,64.73543841164269,0.9339056137389681,
2023-08-12 14:25:16.702000,-9.518072289156628,0.746987951807229,1.1325301204819278,0.944206008583691,-9.535867565910484,1.601471489883507,3.0,0.9339549339549339,1070.7154742096507,-0.013052852397879719,-0.46151156692500456,0.6042771400268048,1403.6630036630036,-1.0,64.73543841164269,0.933905294934394,
2023-08-12 14:25:16.709000,-9.530120481927712,0.746987951807229,1.1566265060240966,0.9025137952176578,-9.584917228694053,1.5843041079092581,3.0,0.9339549339549339,1070.7154742096507,0.06316648213973486,-0.30872326787483284,0.36909271021502243,1405.128205128205,-1.0,64.73543841164269,0.9339050975440324,
2023-08-12 14:25:16.717000,-9.530120481927712,0.7590361445783133,1.144578313253012,0.9098712446351931,-9.49417535254445,1.625996321275291,3.0,0.9339549339549339,1070.7154742096507,-0.08997144688537932,-0.3693257968649841,0.10512207913291756,1405.8608058608058,-1.0,64.73543841164269,0.9339050151615256,
2023-08-12 14:25:16.725000,-9.542168674698795,0.7710843373493976,1.1566265060240966,0.9540159411404046,-9.54322501532802,1.5695892090741874,3.0,0.9339549339549339,1070.7154742096507,0.23180467338733154,-0.36827690694015486,0.14812656605092953,1407.3260073260071,-1.0,64.73543841164269,0.9339050413410207,
2023-08-12 14:25:16.732000,-9.542168674698795,0.7590361445783133,1.1686746987951808,0.9662783568362967,-9.577559779276516,1.6358062538320048,3.0,0.9339549339549339,1070.7154742096507,0.3672280170153256,-0.3497465182681654,-0.037760037293863916,1408.058608058608,-1.0,64.73543841164269,0.933905169613535,
2023-08-12 14:25:16.740000,-9.55421686746988,0.7710843373493976,1.180722891566265,0.9147762109135499,-9.599632127529123,1.601471489883507,3.0,0.9339549339549339,1070.7154742096507,0.5471709107860843,-0.08787366703572079,-0.25278247188392355,1407.3260073260071,-1.0,64.73543841164269,0.9339053935033123,
2023-08-12 14:25:16.748000,-9.566265060240964,0.7590361445783133,1.1566265060240966,0.9957081545064377,-9.584917228694053,1.648068669527897,3.0,0.9339549339549339,1070.7154742096507,-0.009906182623390191,-0.026338791445719375,-0.49437678456966444,1406.5934065934066,-1.0,64.73543841164269,0.9339057065441255,
2023-08-12 14:25:16.755000,-9.55421686746988,0.746987951807229,1.1686746987951808,0.9343960760269773,-9.58982219497241,1.6161863887185774,3.0,0.9343989343989343,1070.2066999287242,0.47712837247246614,0.15686731542450963,-0.5224637258900992,1405.128205128205,-1.0,64.73543841164269,0.9339061022954761,
2023-08-12 14:25:16.763000,-9.55421686746988,0.7590361445783133,1.1566265060240966,0.8951563458001226,-9.614347026364193,1.5892090741876148,3.0,0.9335109335109334,1071.2247324613556,0.39554804498572266,0.20127032224229335,-0.4587145271254586,1398.5347985347985,-1.0,64.73543841164269,0.933906574507931,
2023-08-12 14:25:16.771000,-9.578313253012048,0.746987951807229,1.180722891566265,0.927038626609442,-9.60453709380748,1.542611894543225,3.0,0.9335109335109334,1071.2247324613556,0.2985839986014793,0.45929724375036346,-0.5482198007109148,1393.4065934065934,-1.0,64.73543841164269,0.9339071171397537,
2023-08-12 14:25:16.778000,-9.55421686746988,0.7590361445783133,1.1325301204819278,0.8951563458001226,-9.597179644389945,1.5646842427958307,3.0,0.9339549339549339,1070.7154742096507,0.38564186236233244,0.8373637899889277,-0.5449565876114442,1391.9413919413919,-1.0,64.73543841164269,0.9339077240121668,
2023-08-12 14:25:16.786000,-9.566265060240964,0.746987951807229,1.1325301204819278,0.9491109748620478,-9.597179644389945,1.5793991416309012,3.0,0.9339549339549339,1070.7154742096507,0.5343511450381679,0.6933162403123361,-0.5259600256395313,1392.6739926739926,-1.0,64.73543841164269,0.9339083888355755,
2023-08-12 14:25:16.794000,-9.578313253012048,0.746987951807229,1.1204819277108435,0.8583690987124463,-9.58982219497241,1.613733905579399,3.0,0.9339549339549339,1070.7154742096507,0.48563603519608456,0.24439135248528618,-0.5709457490822208,1395.6043956043954,-1.0,64.73543841164269,0.933909105415258,
2023-08-12 14:25:16.801000,-9.566265060240964,0.746987951807229,1.1204819277108435,0.9147762109135499,-9.61925199264255,1.5229920294297976,3.0,0.9339549339549339,1070.7154742096507,0.4049880543091895,0.5940213274284707,-0.5258434823145499,1396.3369963369962,-1.0,64.73543841164269,0.9339098676756633,
2023-08-12 14:25:16.809000,-9.566265060240964,0.7590361445783133,1.144578313253012,0.9196811771919068,-9.606989576946658,1.5744941753525443,3.0,0.9343989343989343,1070.2066999287242,0.3403065089447003,0.08694132043587237,-0.6008973836023545,1397.8021978021977,-1.0,64.73543841164269,0.9339106696737276,
2023-08-12 14:25:16.817000,-9.566265060240964,0.746987951807229,1.1204819277108435,0.9049662783568363,-9.658491722869405,1.5499693439607602,3.0,0.9339549339549339,1070.7154742096507,0.17003671114736846,0.2534817318338088,-0.8581085018355578,1400.0,-1.0,64.73543841164269,0.9339115057610172,
2023-08-12 14:25:16.824000,-9.590361445783133,0.7590361445783133,1.1204819277108435,0.8853464132434089,-9.621704475781728,1.5941140404659717,3.0,0.9339549339549339,1070.7154742096507,0.03169978439484827,0.511392110016898,-0.8222131577413907,1402.197802197802,-1.0,64.73543841164269,0.9339123704686574,
2023-08-12 14:25:16.832000,-9.578313253012048,0.7349397590361446,1.144578313253012,0.9123237277743715,-9.540772532188841,1.6088289393010422,3.0,0.9339549339549339,1070.7154742096507,-0.03146669774488659,0.2797039799545473,-0.4998543208437735,1402.197802197802,-1.0,64.73543841164269,0.9339132583602023,
2023-08-12 14:25:16.840000,-9.566265060240964,0.7349397590361446,1.1204819277108435,0.9883507050889024,-9.6364193746168,1.5082771305947271,3.0,0.9339549339549339,1070.7154742096507,-0.18308956354524816,0.07971563428704662,-0.6986772332614649,1403.6630036630036,-1.0,64.73543841164269,0.9339141641818123,
2023-08-12 14:25:16.847000,-9.55421686746988,0.7349397590361446,1.108433734939759,0.8853464132434089,-9.54322501532802,1.5475168608215817,3.0,0.9339549339549339,1070.7154742096507,-0.18134141367053214,-0.04079016374337087,-0.3907697686615001,1405.128205128205,-1.0,64.73543841164269,0.9339150830118159,
2023-08-12 14:25:16.855000,-9.578313253012048,0.746987951807229,1.1204819277108435,0.8902513795217657,-9.656039239730227,1.5205395462906193,3.0,0.9339549339549339,1070.7154742096507,-0.056640055940795866,0.3124526542742266,-0.5126740865916902,1405.8608058608058,-1.0,64.73543841164269,0.9339160102505103,
2023-08-12 14:25:16.863000,-9.55421686746988,0.746987951807229,1.1204819277108435,0.9221336603310851,-9.616799509503371,1.5646842427958307,3.0,0.9339549339549339,1070.7154742096507,-0.05594079599090911,0.3107045043995106,-0.5101101334421071,1406.5934065934066,-1.0,64.73543841164269,0.9339169414816773,
2023-08-12 14:25:16.870000,-9.590361445783133,0.7349397590361446,1.1204819277108435,0.9123237277743715,-9.65113427345187,1.5695892090741874,3.0,0.9339549339549339,1070.7154742096507,-0.28553114620360126,0.29357263562729463,-0.6158149291999296,1408.7912087912086,-1.0,64.73543841164269,0.9339178723437483,
2023-08-12 14:25:16.878000,-9.578313253012048,0.7349397590361446,1.108433734939759,0.8853464132434089,-9.58982219497241,1.5573267933782955,3.0,0.9339549339549339,1070.7154742096507,-0.252782471883922,-0.05803857584056938,-0.47689528582250446,1411.7216117216117,-1.0,64.73543841164269,0.9339187986979332,
2023-08-12 14:25:16.886000,-9.590361445783133,0.7349397590361446,1.1204819277108435,0.8902513795217657,-9.580012262415696,1.5793991416309012,3.0,0.9339549339549339,1070.7154742096507,-0.5550958568847967,0.06374919876464077,-0.6597517627177906,1413.1868131868132,-1.0,64.73543841164269,0.9339197167638922,
2023-08-12 14:25:16.893000,-9.590361445783133,0.710843373493976,1.1566265060240966,0.9417535254445125,-9.58982219497241,1.6382587369711832,3.0,0.9339549339549339,1070.7154742096507,-0.45766563720062997,0.5210652059903266,-0.6092885030009907,1411.7216117216117,-1.0,64.73543841164269,0.9339206229777475,
2023-08-12 14:25:16.901000,-9.566265060240964,0.710843373493976,1.1566265060240966,0.9147762109135499,-9.611894543225015,1.5793991416309012,3.0,0.9339549339549339,1070.7154742096507,-0.3626828273410643,0.21164267816560864,-0.40766855078375397,1410.989010989011,-1.0,64.73543841164269,0.9339215138596669,
2023-08-12 14:25:16.909000,-9.578313253012048,0.710843373493976,1.1566265060240966,0.8877988963825874,-9.5113427345187,1.5769466584917229,3.0,0.9339549339549339,1070.7154742096507,-0.12808111415418746,0.11840801818075895,-0.8498339257619021,1408.058608058608,-1.0,64.73543841164269,0.9339223861783597,
2023-08-12 14:25:16.916000,-9.578313253012048,0.6987951807228916,1.180722891566265,0.8927038626609441,-9.616799509503371,1.6112814224402205,3.0,0.9335109335109334,1071.2247324613556,-0.5726938989569378,0.2559291416584115,-0.555678573509702,1403.6630036630036,-1.0,64.73543841164269,0.9339232370830688,
2023-08-12 14:25:16.924000,-9.566265060240964,0.6987951807228916,1.180722891566265,0.9049662783568363,-9.580012262415696,1.6505211526670753,3.0,0.9335109335109334,1071.2247324613556,-0.6299166715226377,0.11747567158091053,-0.5217644659402133,1398.5347985347985,-1.0,64.73543841164269,0.9339240639473365,
2023-08-12 14:25:16.932000,-9.566265060240964,0.6987951807228916,1.1686746987951808,0.8853464132434089,-9.526057633353771,1.6161863887185774,3.0,0.9339549339549339,1070.7154742096507,-0.6543907697686621,0.6191946856243801,-0.610570479575782,1393.4065934065934,-1.0,64.73543841164269,0.9339248643293734,
2023-08-12 14:25:16.939000,-9.55421686746988,0.674698795180723,1.1566265060240966,0.8877988963825874,-9.540772532188841,1.6578786020846106,3.0,0.9339549339549339,1070.7154742096507,-0.4647747800244749,0.6286346949478469,-0.4707184895985084,1391.9413919413919,-1.0,64.73543841164269,0.9339256361120792,
2023-08-12 14:25:16.947000,-9.578313253012048,0.6867469879518072,1.1566265060240966,0.8632740649908032,-9.57265481299816,1.6112814224402205,3.0,0.9339549339549339,1070.7154742096507,-0.5224637258901,0.5610395664588316,-0.34450206864401844,1391.2087912087911,-1.0,64.73543841164269,0.9339263773861002,
2023-08-12 14:25:16.955000,-9.55421686746988,0.674698795180723,1.1927710843373494,0.9147762109135499,-9.57265481299816,1.567136725935009,3.0,0.9339549339549339,1070.7154742096507,-0.32107686032282584,0.22422935726356327,-0.2195676242643205,1392.6739926739926,-1.0,64.73543841164269,0.9339270863317628,
2023-08-12 14:25:16.962000,-9.578313253012048,0.674698795180723,1.1325301204819278,0.8706315144083384,-9.61925199264255,1.6235438381361127,3.0,0.9339549339549339,1070.7154742096507,-0.6543907697686621,0.4497406911019175,-0.17423227084668724,1394.8717948717947,-1.0,64.73543841164269,0.9339277613662734,
2023-08-12 14:25:16.970000,-9.55421686746988,0.674698795180723,1.1566265060240966,0.8142244022072348,-9.580012262415696,1.601471489883507,3.0,0.9339549339549339,1070.7154742096507,0.05477536274109902,0.6146494959501188,-0.1918303129188276,1396.3369963369962,-1.0,64.73543841164269,0.9339284011407541,
2023-08-12 14:25:16.978000,-9.590361445783133,0.6626506024096386,1.1566265060240966,0.8264868179031268,-9.567749846719803,1.5401594114040464,3.0,0.9339549339549339,1070.7154742096507,-0.1287803741040725,0.5633704329584518,-0.6639473224171086,1395.6043956043954,-1.0,64.73543841164269,0.9339290045364516,
2023-08-12 14:25:16.985000,-9.602409638554217,0.674698795180723,1.1325301204819278,0.8877988963825874,-9.656039239730227,1.5695892090741874,3.0,0.9339549339549339,1070.7154742096507,0.1438144630266299,0.41920633995687934,-0.6014801002272595,1394.139194139194,-1.0,64.73543841164269,0.9339295706601564,
2023-08-12 14:25:16.993000,-9.590361445783133,0.6867469879518072,1.1325301204819278,0.8706315144083384,-9.614347026364193,1.5892090741876148,3.0,0.9339549339549339,1070.7154742096507,-0.3448516986189616,0.4000932346599857,-0.2466056756599266,1392.6739926739926,-1.0,64.73543841164269,0.933930098838877,
2023-08-12 14:25:17.001000,-9.578313253012048,0.7228915662650602,1.144578313253012,0.8485591661557327,-9.565297363580624,1.6235438381361127,3.0,0.9339549339549339,1070.7154742096507,-0.17225103432200956,0.41163102383310934,-0.7822387972728861,1392.6739926739926,-1.0,64.73543841164269,0.933930588613819,
2023-08-12 14:25:17.008000,-9.578313253012048,0.710843373493976,1.1325301204819278,0.8534641324340895,-9.565297363580624,1.4690374003678723,3.0,0.9339549339549339,1070.7154742096507,0.028553114620360476,0.5625546296835842,-0.6258376551483014,1391.9413919413919,-1.0,64.73543841164269,0.9339310397337133,
2023-08-12 14:25:17.016000,-9.542168674698795,0.7228915662650602,1.144578313253012,0.8779889638258737,-9.57265481299816,1.5597792765174738,3.0,0.9339549339549339,1070.7154742096507,0.17959326379581614,0.5904084843540579,-0.6695414020161996,1391.2087912087911,-1.0,64.73543841164269,0.933931452286298,
2023-08-12 14:25:17.024000,-9.578313253012048,0.7349397590361446,1.144578313253012,0.8657265481299815,-9.575107296137338,1.5573267933782955,3.0,0.9339549339549339,1070.7154742096507,0.19252957286871328,0.7067187226851583,-0.14719421945108088,1386.8131868131868,-1.0,64.73543841164269,0.9339318266701302,
2023-08-12 14:25:17.031000,-9.566265060240964,0.7228915662650602,1.1325301204819278,0.9147762109135499,-9.626609442060085,1.5843041079092581,3.0,0.9339549339549339,1070.7154742096507,-0.11362974185653599,0.5633704329584518,-0.1788940038459298,1386.080586080586,-1.0,64.73543841164269,0.933932163299538,
2023-08-12 14:25:17.039000,-9.602409638554217,0.7349397590361446,1.1325301204819278,0.9123237277743715,-9.61925199264255,1.5744941753525443,3.0,0.9339549339549339,1070.7154742096507,-0.17318338092185798,0.4821397354466525,-0.3324981061709691,1387.5457875457876,-1.0,64.73543841164269,0.9339324626173723,
2023-08-12 14:25:17.047000,-9.602409638554217,0.746987951807229,1.108433734939759,0.8902513795217657,-9.66584917228694,1.5401594114040464,3.0,0.9339549339549339,1070.7154742096507,-0.33669366587028743,0.8137054950177727,-0.041139793718314895,1391.9413919413919,919.189453125,65.27490039840637,0.9339327252347889,
2023-08-12 14:25:17.054000,-9.590361445783133,0.7228915662650602,1.108433734939759,0.9000613120784794,-9.6364193746168,1.513182096873084,3.0,0.9339549339549339,1070.7154742096507,0.031117067769944086,0.6104539362508017,-0.44169920167822374,1397.8021978021977,-1.0,65.27490039840637,0.933932951921423,
2023-08-12 14:25:17.062000,-9.602409638554217,0.710843373493976,1.0843373493975905,0.8927038626609441,-9.550582464745554,1.572041692213366,3.0,0.9339549339549339,1070.7154742096507,-0.2291241769127671,0.37655148301380986,-0.14929199930074008,1405.8608058608058,-1.0,65.27490039840637,0.9339331437340511,
2023-08-12 14:25:17.069000,-9.578313253012048,0.6987951807228916,1.108433734939759,0.9049662783568363,-9.592274678111588,1.5278969957081545,3.0,0.9330669330669329,1071.7344753747325,-0.3504457782180522,0.5261931122894937,0.017131868772216154,1413.9194139194137,-1.0,65.27490039840637,0.9339333018471797,
2023-08-12 14:25:17.077000,-9.590361445783133,0.6867469879518072,1.108433734939759,0.86817903126916,-9.616799509503371,1.5695892090741874,3.0,0.9335109335109334,1071.2247324613556,-0.19497698269331604,0.4622108268748913,-0.09206922673503894,1424.1758241758241,-1.0,65.27490039840637,0.9339334273939195,
2023-08-12 14:25:17.085000,-9.614457831325302,0.6987951807228916,1.0843373493975905,0.8436541998773758,-9.548129981606376,1.5303494788473329,3.0,0.9335109335109334,1071.2247324613556,-0.10127614940854301,0.32107686032282584,0.1372880368276907,1432.2344322344322,-1.0,65.27490039840637,0.9339335216693632,
2023-08-12 14:25:17.092000,-9.602409638554217,0.6867469879518072,1.0843373493975905,0.8804414469650521,-9.582464745554875,1.5573267933782955,3.0,0.9335109335109334,1071.2247324613556,0.023541751646174093,0.22539479051337338,0.10815220558242539,1438.095238095238,-1.0,65.27490039840637,0.9339335859811293,
2023-08-12 14:25:17.100000,-9.614457831325302,0.674698795180723,1.1204819277108435,0.8044144696505211,-9.575107296137338,1.491109748620478,3.0,0.9335109335109334,1071.2247324613556,-0.0071091428238449095,0.008857292698560929,0.5057980304178079,1440.2930402930401,-1.0,65.27490039840637,0.9339336213817048,
2023-08-12 14:25:17.108000,-9.614457831325302,0.674698795180723,1.108433734939759,0.8191293684855916,-9.621704475781728,1.5303494788473329,3.0,0.9339549339549339,1070.7154742096507,-0.08554280053609885,0.06817784511392125,0.3808635860381097,1440.2930402930401,-1.0,65.27490039840637,0.9339336289645644,
2023-08-12 14:25:17.115000,-9.590361445783133,0.6867469879518072,1.1325301204819278,0.8362967504598405,-9.624156958920906,1.5744941753525443,3.0,0.9339549339549339,1070.7154742096507,-0.2835499096789236,-0.009206922673503438,0.5454227609113687,1441.0256410256409,-1.0,65.27490039840637,0.9339336101285658,
2023-08-12 14:25:17.123000,-9.590361445783133,0.6987951807228916,1.108433734939759,0.8828939301042305,-9.624156958920906,1.59656652360515,3.0,0.9335109335109334,1071.2247324613556,-0.08309539071149782,-0.13344210710331636,0.34147194219451105,1439.5604395604394,-1.0,65.27490039840637,0.9339335664380958,
2023-08-12 14:25:17.131000,-9.578313253012048,0.710843373493976,1.0963855421686748,0.8779889638258737,-9.567749846719803,1.5695892090741874,3.0,0.9339549339549339,1070.7154742096507,-0.1885670998193579,-0.2898432492279009,0.4907639414952507,1435.8974358974358,-1.0,65.27490039840637,0.9339334993242304,
2023-08-12 14:25:17.138000,-9.566265060240964,0.674698795180723,1.108433734939759,0.9098712446351931,-9.614347026364193,1.525444512568976,3.0,0.9339549339549339,1070.7154742096507,-0.18880018646931956,-0.2872792960783173,0.4863352951459706,1434.4322344322343,-1.0,65.27490039840637,0.9339334102015586,
2023-08-12 14:25:17.146000,-9.590361445783133,0.6987951807228916,1.0963855421686748,0.86817903126916,-9.535867565910484,1.5916615573267934,3.0,0.9335109335109334,1071.2247324613556,-0.3692092535400033,-0.5308548452887358,0.6200104888992483,1432.2344322344322,-1.0,65.27490039840637,0.9339333006168047,
2023-08-12 14:25:17.154000,-9.55421686746988,0.674698795180723,1.1204819277108435,0.8755364806866952,-9.668301655426118,1.5769466584917229,3.0,0.9335109335109334,1071.2247324613556,-0.07540353126274699,-0.6029951634520125,0.40160829788473873,1429.3040293040292,-1.0,65.27490039840637,0.9339331719506266,
2023-08-12 14:25:17.161000,-9.55421686746988,0.6987951807228916,1.108433734939759,0.8927038626609441,-9.538320049049663,1.5793991416309012,3.0,0.9335109335109334,1071.2247324613556,0.01619952217236751,-0.6742031350154425,0.1375211234776528,1422.7106227106226,-1.0,65.27490039840637,0.9339330252472344,
2023-08-12 14:25:17.169000,-9.578313253012048,0.6987951807228916,1.1566265060240966,0.8583690987124463,-9.626609442060085,1.5303494788473329,3.0,0.9335109335109334,1071.2247324613556,-0.10465590583299422,-0.4220033797564246,0.256978031583241,1415.3846153846152,-1.0,65.27490039840637,0.9339328615012961,
2023-08-12 14:25:17.177000,-9.55421686746988,0.710843373493976,1.1566265060240966,0.8534641324340895,-9.592274678111588,1.6161863887185774,3.0,0.9335109335109334,1071.2247324613556,-0.18052561039566456,-0.6153487559000055,0.6059087465765397,1408.7912087912086,-1.0,65.27490039840637,0.9339326817749205,
2023-08-12 14:25:17.184000,-9.55421686746988,0.7228915662650602,1.1325301204819278,0.9343960760269773,-9.562844880441446,1.5646842427958307,3.0,0.9335109335109334,1071.2247324613556,-0.4228191830312922,-0.655672746343453,0.5552124002097782,1404.3956043956043,-1.0,65.27490039840637,0.9339324870383278,
2023-08-12 14:25:17.192000,-9.578313253012048,0.7228915662650602,1.1204819277108435,0.8853464132434089,-9.616799509503371,1.5892090741876148,3.0,0.9335109335109334,1071.2247324613556,-0.022609405046325665,-0.45009032107686,0.4907639414952507,1402.9304029304028,-1.0,65.27490039840637,0.9339322781602759,
2023-08-12 14:25:17.200000,-9.55421686746988,0.7228915662650602,1.1325301204819278,0.86817903126916,-9.582464745554875,1.5229920294297976,3.0,0.9335109335109334,1071.2247324613556,0.022376318396363993,-0.21898490763941522,0.6235067886486803,1403.6630036630036,-1.0,65.27490039840637,0.9339320558990043,
2023-08-12 14:25:17.207000,-9.542168674698795,0.7228915662650602,1.1325301204819278,0.9123237277743715,-9.535867565910484,1.5793991416309012,3.0,0.9335109335109334,1071.2247324613556,0.036244974069109565,-0.4915797447701176,0.23716566633646063,1404.3956043956043,-1.0,65.27490039840637,0.933931820893741,
2023-08-12 14:25:17.215000,-9.566265060240964,0.7349397590361446,1.144578313253012,0.9000613120784794,-9.597179644389945,1.6088289393010422,3.0,0.9335109335109334,1071.2247324613556,0.23495134316182106,-0.07575316123768949,0.06724549851407238,1406.5934065934066,-1.0,65.27490039840637,0.9339315736568339,
2023-08-12 14:25:17.223000,-9.602409638554217,0.7349397590361446,1.144578313253012,0.8730839975475169,-9.587369711833231,1.5646842427958307,3.0,0.9326229326229326,1072.24470364199,0.14078433657712294,-0.2266767670881643,0.3900705087116136,1405.128205128205,-1.0,65.27490039840637,0.9339313145665374,
2023-08-12 14:25:17.230000,-9.578313253012048,0.746987951807229,1.1325301204819278,0.8927038626609441,-9.624156958920906,1.4763948497854076,3.0,0.9330669330669329,1071.7344753747325,0.2623390245323697,-0.39286754851115824,0.31420080414894214,1403.6630036630036,-1.0,65.27490039840637,0.9339310438394226,
2023-08-12 14:25:17.238000,-9.578313253012048,0.7590361445783133,1.1325301204819278,0.9123237277743715,-9.641324340895157,1.5573267933782955,3.0,0.9330669330669329,1071.7344753747325,0.13798729677757768,-0.5265427422644362,0.26793310413146093,1400.7326007326005,-1.0,65.27490039840637,0.9339307614506518,
2023-08-12 14:25:17.246000,-9.590361445783133,0.746987951807229,1.1325301204819278,1.0055180870631515,-9.678111587982832,1.5328019619865112,3.0,0.9335109335109334,1071.2247324613556,0.23005652351261552,-0.2785385467047372,0.2052327952916494,1400.7326007326005,-1.0,65.27490039840637,0.9339304670106475,
2023-08-12 14:25:17.253000,-9.566265060240964,0.7349397590361446,1.1325301204819278,0.9417535254445125,-9.678111587982832,1.5744941753525443,3.0,0.9330669330669329,1071.7344753747325,0.31979488374803317,-0.5067303770176559,0.1743488141716685,1400.7326007326005,-1.0,65.27490039840637,0.9339301599399921,
2023-08-12 14:25:17.261000,-9.578313253012048,0.746987951807229,1.1325301204819278,0.8730839975475169,-9.61925199264255,1.613733905579399,3.0,0.9330669330669329,1071.7344753747325,0.13309247712837213,-0.7764116310238339,0.26606841093176403,1400.0,-1.0,65.27490039840637,0.9339298394851647,
2023-08-12 14:25:17.269000,-9.566265060240964,0.746987951807229,1.108433734939759,0.9245861434702636,-9.611894543225015,1.4935622317596566,3.0,0.9335109335109334,1071.2247324613556,0.04032399044344752,-0.5541635102849483,-0.007924946098712067,1400.0,-1.0,65.27490039840637,0.9339295045541743,
2023-08-12 14:25:17.276000,-9.566265060240964,0.7349397590361446,1.1204819277108435,0.8902513795217657,-9.55793991416309,1.5769466584917229,3.0,0.9335109335109334,1071.2247324613556,0.25254938523396037,-0.3053435114503817,0.006876056173882586,1399.2673992673992,-1.0,65.27490039840637,0.9339291540001173,
2023-08-12 14:25:17.284000,-9.566265060240964,0.746987951807229,1.108433734939759,0.9049662783568363,-9.624156958920906,1.5156345800122624,3.0,0.9335109335109334,1071.2247324613556,0.05384301614125059,-0.21059378824077765,-0.03764349396888286,1399.2673992673992,-1.0,65.27490039840637,0.9339287866393432,
2023-08-12 14:25:17.292000,-9.566265060240964,0.7349397590361446,1.1204819277108435,0.8804414469650521,-9.560392397302268,1.5180870631514407,3.0,0.9335109335109334,1071.2247324613556,0.13111124060369442,-0.2257444204883159,-0.021327428471534078,1400.7326007326005,-1.0,65.27490039840637,0.9339284011115079,
2023-08-12 14:25:17.299000,-9.55421686746988,0.746987951807229,1.144578313253012,0.9491109748620478,-9.597179644389945,1.542611894543225,3.0,0.9330669330669329,1071.7344753747325,-0.17458190082162975,0.048248936542160024,0.04207214031816311,1402.197802197802,-1.0,65.27490039840637,0.9339279958793949,
2023-08-12 14:25:17.307000,-9.578313253012048,0.746987951807229,1.1325301204819278,0.8804414469650521,-9.66584917228694,1.5843041079092581,3.0,0.9330669330669329,1071.7344753747325,-0.06608006526426272,-0.32026105704795826,0.3331973661208554,1405.128205128205,-1.0,65.27490039840637,0.9339275692192449,
2023-08-12 14:25:17.315000,-9.578313253012048,0.7228915662650602,1.1325301204819278,0.8951563458001226,-9.577559779276516,1.625996321275291,3.0,0.9330669330669329,1071.7344753747325,-0.09544898315948905,-0.13472408367810731,0.11689295495600505,1408.7912087912086,-1.0,65.27490039840637,0.9339271190416814,
2023-08-12 14:25:17.322000,-9.590361445783133,0.746987951807229,1.1566265060240966,0.973635806253832,-9.545677498467198,1.5622317596566522,3.0,0.9330669330669329,1071.7344753747325,0.10442281918303081,-0.34753219509352606,-0.0519783229415533,1410.2564102564102,-1.0,65.27490039840637,0.933926642904149,
2023-08-12 14:25:17.330000,-9.566265060240964,0.746987951807229,1.1325301204819278,0.8755364806866952,-9.621704475781728,1.5892090741876148,3.0,0.9330669330669329,1071.7344753747325,0.12085542800536173,-0.3751529631140381,0.22294738068877126,1413.1868131868132,-1.0,65.27490039840637,0.9339261383009422,
2023-08-12 14:25:17.338000,-9.542168674698795,0.7349397590361446,1.1566265060240966,0.927038626609442,-9.535867565910484,1.5573267933782955,3.0,0.9330669330669329,1071.7344753747325,-0.015150632247538248,-0.18821746984441537,0.023541751646174745,1413.9194139194137,-1.0,65.27490039840637,0.9339256025069408,
2023-08-12 14:25:17.345000,-9.55421686746988,0.746987951807229,1.1325301204819278,0.9098712446351931,-9.594727161250766,1.5916615573267934,3.0,0.9330669330669329,1071.7344753747325,0.2919410290775594,-0.12540061767962304,0.03706077734397781,1413.9194139194137,-1.0,65.27490039840637,0.9339250324537453,
2023-08-12 14:25:17.353000,-9.578313253012048,0.746987951807229,1.144578313253012,0.8902513795217657,-9.550582464745554,1.5941140404659717,3.0,0.9330669330669329,1071.7344753747325,-0.25826000815803346,-0.09136996678515283,0.3278363731717265,1412.4542124542124,-1.0,65.27490039840637,0.9339244248833974,
2023-08-12 14:25:17.361000,-9.566265060240964,0.746987951807229,1.1686746987951808,0.8412017167381973,-9.553034947884733,1.6382587369711832,3.0,0.9330669330669329,1071.7344753747325,-0.05547462269098577,-0.13262630382844878,-0.055707709340947445,1412.4542124542124,-1.0,65.27490039840637,0.9339237763536831,
2023-08-12 14:25:17.368000,-9.566265060240964,0.7349397590361446,1.1566265060240966,0.8951563458001226,-9.565297363580624,1.6112814224402205,3.0,0.9330669330669329,1071.7344753747325,-0.25359827515878963,-0.31350154419905585,-0.025989161470776866,1412.4542124542124,-1.0,65.27490039840637,0.9339230832442983,
2023-08-12 14:25:17.376000,-9.578313253012048,0.746987951807229,1.1686746987951808,0.8730839975475169,-9.548129981606376,1.5695892090741874,3.0,0.9321789321789321,1072.7554179566564,-0.12936309072897842,-0.11118233203193321,0.14264902977681937,1409.5238095238094,-1.0,65.27490039840637,0.9339223417638757,
2023-08-12 14:25:17.384000,-9.566265060240964,0.710843373493976,1.180722891566265,0.8828939301042305,-9.548129981606376,1.6358062538320048,3.0,0.9326229326229326,1072.24470364199,0.10080997610861794,0.010139269273351865,-0.26968125400617693,1405.8608058608058,-1.0,65.27490039840637,0.9339215479367522,
2023-08-12 14:25:17.391000,-9.530120481927712,0.7349397590361446,1.1325301204819278,0.8632740649908032,-9.626609442060085,1.5744941753525443,3.0,0.9330669330669329,1071.7344753747325,-0.0078084027737316646,-0.2346017131868768,0.23576714643668756,1405.128205128205,-1.0,65.27490039840637,0.9339206975376872,
2023-08-12 14:25:17.399000,-9.542168674698795,0.7228915662650602,1.1566265060240966,0.9074187614960146,-9.599632127529123,1.601471489883507,3.0,0.9330669330669329,1071.7344753747325,0.4344735155293984,0.1632771982984678,-0.03880892721869383,1408.058608058608,-1.0,65.27490039840637,0.9339197862710271,
2023-08-12 14:25:17.407000,-9.530120481927712,0.7349397590361446,1.1325301204819278,0.9319435928877988,-9.57265481299816,1.572041692213366,3.0,0.9330669330669329,1071.7344753747325,0.24777110890973736,0.07027562496357977,-0.40661966085892404,1409.5238095238094,-1.0,65.27490039840637,0.9339188098122257,
2023-08-12 14:25:17.414000,-9.55421686746988,0.7228915662650602,1.1325301204819278,0.8289393010423053,-9.58982219497241,1.59656652360515,3.0,0.9330669330669329,1071.7344753747325,0.24462443913524784,0.06934327836373134,-0.4020744711846627,1406.5934065934066,-1.0,65.27490039840637,0.9339177635415099,
2023-08-12 14:25:17.422000,-9.55421686746988,0.7228915662650602,1.1566265060240966,0.9147762109135499,-9.61925199264255,1.5597792765174738,3.0,0.9330669330669329,1071.7344753747325,0.19497698269331604,0.34298700541926475,0.10698677233261486,1402.9304029304028,-1.0,65.27490039840637,0.9339166425759711,
2023-08-12 14:25:17.429000,-9.578313253012048,0.7349397590361446,1.1566265060240966,0.8632740649908032,-9.555487431023911,1.6088289393010422,3.0,0.9330669330669329,1071.7344753747325,0.009789639298409356,0.09579861313443329,-0.030534351145038167,1399.2673992673992,-1.0,65.27490039840637,0.9339154419297957,
2023-08-12 14:25:17.437000,-9.55421686746988,0.7228915662650602,1.1927710843373494,0.9098712446351931,-9.609442060085836,1.567136725935009,3.0,0.9330669330669329,1071.7344753747325,0.1772623972961942,0.2623390245323697,-0.30441116485053327,1393.4065934065934,-1.0,65.27490039840637,0.9339141565258988,
2023-08-12 14:25:17.445000,-9.55421686746988,0.7349397590361446,1.1686746987951808,0.9025137952176578,-9.599632127529123,1.5867565910484365,3.0,0.9330669330669329,1071.7344753747325,0.006176796223996482,-0.32002797039799485,-0.3330808227958743,1386.8131868131868,-1.0,65.27490039840637,0.9339127812082308,
2023-08-12 14:25:17.452000,-9.55421686746988,0.7349397590361446,1.108433734939759,0.8534641324340895,-9.580012262415696,1.5843041079092581,3.0,0.9330669330669329,1071.7344753747325,0.20348464541693448,-0.11875764815570147,-0.024590641571004008,1381.6849816849815,-1.0,65.27490039840637,0.9339113107547286,
2023-08-12 14:25:17.460000,-9.578313253012048,0.7228915662650602,1.1204819277108435,0.944206008583691,-9.638871857755978,1.5475168608215817,3.0,0.9330669330669329,1071.7344753747325,-6.992599498867545E-4,0.38435988578754154,-0.10302429928325839,1375.091575091575,-1.0,65.27490039840637,0.9339097398908746,
2023-08-12 14:25:17.468000,-9.566265060240964,0.746987951807229,1.144578313253012,0.8902513795217657,-9.540772532188841,1.5867565910484365,3.0,0.9330669330669329,1071.7344753747325,0.24590641571004052,-0.1392692733523686,-0.18029252374570223,1372.8937728937728,-1.0,65.27490039840637,0.9339080634425853,
2023-08-12 14:25:17.475000,-9.578313253012048,0.746987951807229,1.144578313253012,0.8877988963825874,-9.545677498467198,1.5573267933782955,3.0,0.9330669330669329,1071.7344753747325,-0.04463609346774715,0.031117067769944086,-0.10174232270846702,1372.8937728937728,-1.0,65.27490039840637,0.9339062761917533,
2023-08-12 14:25:17.483000,-9.566265060240964,0.746987951807229,1.1325301204819278,0.9098712446351931,-9.540772532188841,1.601471489883507,3.0,0.9330669330669329,1071.7344753747325,0.10873492220733044,0.23238739001223746,-0.2559291416584115,1378.021978021978,-1.0,65.27490039840637,0.9339043727638024,
2023-08-12 14:25:17.491000,-9.602409638554217,0.7590361445783133,1.1325301204819278,0.9540159411404046,-9.614347026364193,1.567136725935009,3.0,0.9326229326229326,1072.24470364199,0.13740458015267176,0.27795583007983304,-0.3309830429462154,1383.8827838827838,-1.0,65.27490039840637,0.9339023479311487,
2023-08-12 14:25:17.498000,-9.578313253012048,0.7349397590361446,1.144578313253012,0.9172286940527283,-9.548129981606376,1.5622317596566522,3.0,0.9330669330669329,1071.7344753747325,-0.2898432492279009,-0.11805838820581471,-0.37422061651418903,1389.0109890109889,-1.0,65.27490039840637,0.9339001963205982,
2023-08-12 14:25:17.506000,-9.578313253012048,0.746987951807229,1.144578313253012,0.9123237277743715,-9.673206621704475,1.554874310239117,3.0,0.9330669330669329,1071.7344753747325,0.07948254763708494,0.2041839053668195,-0.2804032399044347,1393.4065934065934,-1.0,65.27490039840637,0.9338979124293235,
2023-08-12 14:25:17.514000,-9.566265060240964,0.7349397590361446,1.144578313253012,0.9491109748620478,-9.614347026364193,1.5892090741876148,3.0,0.9330669330669329,1071.7344753747325,-0.14929199930073964,0.46302663014975887,0.2096614416409301,1397.8021978021977,-1.0,65.27490039840637,0.9338954909493732,
2023-08-12 14:25:17.521000,-9.566265060240964,0.7228915662650602,1.1325301204819278,0.9147762109135499,-9.548129981606376,1.5941140404659717,3.0,0.9330669330669329,1071.7344753747325,-0.16351028494842945,0.06293339548977318,-0.326204766621992,1401.4652014652013,-1.0,65.27490039840637,0.9338929266452636,
2023-08-12 14:25:17.529000,-9.566265060240964,0.7349397590361446,1.144578313253012,0.9123237277743715,-9.592274678111588,1.5843041079092581,3.0,0.9321789321789321,1072.7554179566564,-0.18961598974418717,0.3224753802225976,-0.08239613076161041,1400.7326007326005,-1.0,65.27490039840637,0.9338902143705264,
2023-08-12 14:25:17.537000,-9.566265060240964,0.7228915662650602,1.144578313253012,0.8951563458001226,-9.616799509503371,1.5818516247700796,3.0,0.9326229326229326,1072.24470364199,-0.23017306683759636,0.2595419847328244,-0.2665345842316881,1398.5347985347985,-1.0,65.27490039840637,0.9338873490633165,
2023-08-12 14:25:17.544000,-9.566265060240964,0.746987951807229,1.144578313253012,0.8976088289393009,-9.575107296137338,1.5818516247700796,3.0,0.9326229326229326,1072.24470364199,-0.4110483072082052,-0.13938581667734945,-0.2017364955422178,1397.069597069597,-1.0,65.27490039840637,0.9338843256892384,
2023-08-12 14:25:17.552000,-9.566265060240964,0.7349397590361446,1.1325301204819278,0.9049662783568363,-9.648681790312692,1.5744941753525443,3.0,0.9330669330669329,1071.7344753747325,-0.2850649729036762,0.1545364489248877,-0.337859099120098,1396.3369963369962,-1.0,65.27490039840637,0.9338811391398284,
2023-08-12 14:25:17.560000,-9.566265060240964,0.7349397590361446,1.1686746987951808,0.8804414469650521,-9.594727161250766,1.5573267933782955,3.0,0.9330669330669329,1071.7344753747325,-0.08227958743663023,0.1994056290425965,-0.15080706252549375,1394.8717948717947,-1.0,65.27490039840637,0.9338777844284339,
2023-08-12 14:25:17.567000,-9.578313253012048,0.7349397590361446,1.144578313253012,0.8951563458001226,-9.582464745554875,1.613733905579399,3.0,0.9330669330669329,1071.7344753747325,-0.14078433657712294,0.17015325447234927,-0.3019637550259311,1393.4065934065934,-1.0,65.27490039840637,0.9338742568753121,
2023-08-12 14:25:17.575000,-9.578313253012048,0.746987951807229,1.1566265060240966,0.9638258736971183,-9.565297363580624,1.5744941753525443,3.0,0.9326229326229326,1072.24470364199,0.11875764815570147,0.10943418215721719,-0.22271429403880894,1389.7435897435896,-1.0,65.27490039840637,0.933870551984202,
2023-08-12 14:25:17.583000,-9.578313253012048,0.7349397590361446,1.1325301204819278,0.838749233599019,-9.577559779276516,1.5695892090741874,3.0,0.9326229326229326,1072.24470364199,-0.2743429870054184,0.19870636909270975,-0.3086067245498514,1386.8131868131868,-1.0,65.27490039840637,0.9338666653082216,
2023-08-12 14:25:17.590000,-9.566265060240964,0.746987951807229,1.1325301204819278,0.9172286940527283,-9.52851011649295,1.5450643776824033,3.0,0.9330669330669329,1071.7344753747325,-0.04428646349280291,-0.09218577006002042,-0.11992308140551265,1387.5457875457876,-1.0,65.27490039840637,0.933862592442991,
2023-08-12 14:25:17.598000,-9.578313253012048,0.746987951807229,1.1204819277108435,0.9196811771919068,-9.660944206008583,1.625996321275291,3.0,0.9330669330669329,1071.7344753747325,0.15348755900005842,0.260357788007692,-0.37538604976399975,1390.4761904761904,-1.0,65.27490039840637,0.9338583293277591,
2023-08-12 14:25:17.606000,-9.55421686746988,0.7349397590361446,1.1204819277108435,0.9221336603310851,-9.55793991416309,1.5744941753525443,3.0,0.9330669330669329,1071.7344753747325,0.028786201270322147,0.22422935726356327,-0.2605908746576541,1397.069597069597,-1.0,65.27490039840637,0.9338538722798935,
2023-08-12 14:25:17.613000,-9.566265060240964,0.7349397590361446,1.1325301204819278,0.8828939301042305,-9.58982219497241,1.5769466584917229,3.0,0.9330669330669329,1071.7344753747325,0.1962589592681087,0.22224812073888384,-0.40720237748382954,1401.4652014652013,-1.0,65.27490039840637,0.9338492178699327,
2023-08-12 14:25:17.621000,-9.566265060240964,0.7228915662650602,1.144578313253012,0.9834457388105456,-9.57265481299816,1.630901287553648,3.0,0.9326229326229326,1072.24470364199,0.2415943126857409,0.661499912592507,-0.04580152671755725,1401.4652014652013,-1.0,65.27490039840637,0.9338443629350308,
2023-08-12 14:25:17.629000,-9.578313253012048,0.7349397590361446,1.144578313253012,0.8976088289393009,-9.587369711833231,1.5475168608215817,3.0,0.9330669330669329,1071.7344753747325,0.012703222422935475,0.4857525785210654,-0.16048015849892186,1400.0,-1.0,65.27490039840637,0.9338393043039553,
2023-08-12 14:25:17.636000,-9.578313253012048,0.7228915662650602,1.1325301204819278,0.8755364806866952,-9.602084610668301,1.5941140404659717,3.0,0.9326229326229326,1072.24470364199,-0.04789930656721578,0.5084785268923719,-0.27341064040557084,1397.8021978021977,-1.0,65.27490039840637,0.9338340390962364,
2023-08-12 14:25:17.644000,-9.566265060240964,0.7349397590361446,1.144578313253012,0.8804414469650521,-9.52851011649295,1.554874310239117,3.0,0.9330669330669329,1071.7344753747325,0.13623914690286165,0.21036070159081596,-0.2308723267874831,1393.4065934065934,-1.0,65.27490039840637,0.9338285648715352,
2023-08-12 14:25:17.652000,-9.55421686746988,0.7349397590361446,1.144578313253012,0.9147762109135499,-9.570202329858981,1.5303494788473329,3.0,0.9326229326229326,1072.24470364199,0.013169395722860555,0.3696754268399284,-0.4660567565992658,1391.9413919413919,-1.0,65.27490039840637,0.9338228794806122,
2023-08-12 14:25:17.659000,-9.578313253012048,0.746987951807229,1.144578313253012,0.8951563458001226,-9.570202329858981,1.5597792765174738,3.0,0.9326229326229326,1072.24470364199,0.36175048074121585,0.30044869180117784,-0.3331973661208554,1390.4761904761904,-1.0,65.27490039840637,0.9338169810860003,
2023-08-12 14:25:17.667000,-9.55421686746988,0.7349397590361446,1.0963855421686748,0.9711833231146535,-9.58982219497241,1.542611894543225,3.0,0.9330669330669329,1071.7344753747325,0.663947322417108,0.4597634170502885,-0.3676941903152498,1390.4761904761904,-1.0,65.27490039840637,0.9338108680116171,
2023-08-12 14:25:17.675000,-9.578313253012048,0.7349397590361446,1.1204819277108435,0.8828939301042305,-9.6364193746168,1.5843041079092581,3.0,0.9326229326229326,1072.24470364199,0.30860672454985205,0.43330808227958656,-0.4174581900821629,1393.4065934065934,-1.0,65.27490039840637,0.933804539038717,
2023-08-12 14:25:17.682000,-9.566265060240964,0.746987951807229,1.144578313253012,0.9196811771919068,-9.584917228694053,1.5573267933782955,3.0,0.9321789321789321,1072.7554179566564,0.1210885146553234,0.3002156051512144,-0.22201503408892262,1394.139194139194,-1.0,65.27490039840637,0.933797993285523,
2023-08-12 14:25:17.690000,-9.566265060240964,0.7349397590361446,1.1204819277108435,0.8755364806866952,-9.580012262415696,1.5818516247700796,3.0,0.9321789321789321,1072.7554179566564,0.1177087582308722,0.2907755958277493,-0.21350737136530507,1397.069597069597,-1.0,65.27490039840637,0.9337912300439012,
2023-08-12 14:25:17.698000,-9.566265060240964,0.7349397590361446,1.144578313253012,0.8804414469650521,-9.60453709380748,1.5990190067443286,3.0,0.9326229326229326,1072.24470364199,0.2235300973136765,0.4651244099994174,-0.2826175630790743,1401.4652014652013,-1.0,65.27490039840637,0.9337842487425331,
2023-08-12 14:25:17.705000,-9.590361445783133,0.7590361445783133,1.144578313253012,0.9074187614960146,-9.611894543225015,1.5524218270999386,3.0,0.9326229326229326,1072.24470364199,0.0848435405862121,-0.18472117009498334,-0.5495017772857057,1404.3956043956043,-1.0,65.27490039840637,0.9337770491101439,
2023-08-12 14:25:17.713000,-9.566265060240964,0.7349397590361446,1.108433734939759,0.9049662783568363,-9.575107296137338,1.5622317596566522,3.0,0.9326229326229326,1072.24470364199,0.03845929724375067,0.361633937416235,-0.4630266301497584,1406.5934065934066,-1.0,65.27490039840637,0.9337696313481244,
2023-08-12 14:25:17.721000,-9.578313253012048,0.7349397590361446,1.1325301204819278,0.9172286940527283,-9.577559779276516,1.5328019619865112,3.0,0.9326229326229326,1072.24470364199,-0.174931530796574,0.20266884214206687,-0.6689586853912944,1410.2564102564102,-1.0,65.27490039840637,0.9337619958550202,
2023-08-12 14:25:17.728000,-9.55421686746988,0.746987951807229,1.144578313253012,0.8657265481299815,-9.567749846719803,1.5793991416309012,3.0,0.9326229326229326,1072.24470364199,0.11596060835615618,0.3192121671231272,-0.7989044927451783,1414.6520146520145,-1.0,65.27490039840637,0.9337541432479299,
2023-08-12 14:25:17.736000,-9.55421686746988,0.7349397590361446,1.1204819277108435,0.9319435928877988,-9.582464745554875,1.5622317596566522,3.0,0.9326229326229326,1072.24470364199,-0.0051279062991672186,0.5264261989394554,-0.7747800244740979,1417.5824175824175,-1.0,65.27490039840637,0.9337460745105585,
2023-08-12 14:25:17.744000,-9.578313253012048,0.710843373493976,1.1325301204819278,0.8902513795217657,-9.587369711833231,1.5597792765174738,3.0,0.9326229326229326,1072.24470364199,0.13530680030301323,0.503117533943243,-0.5842316881300622,1420.5128205128203,-1.0,65.27490039840637,0.9337377909912027,
2023-08-12 14:25:17.751000,-9.590361445783133,0.710843373493976,1.144578313253012,0.8755364806866952,-9.626609442060085,1.5818516247700796,3.0,0.9326229326229326,1072.24470364199,-0.45673329060078155,0.3292348930715,-0.4425150049530909,1422.7106227106226,-1.0,65.27490039840637,0.933729294538739,
2023-08-12 14:25:17.759000,-9.602409638554217,0.710843373493976,1.1204819277108435,0.8877988963825874,-9.621704475781728,1.5916615573267934,3.0,0.9326229326229326,1072.24470364199,-0.2697977973311571,0.5845813181050057,-0.18157450032049424,1421.245421245421,-1.0,65.27490039840637,0.9337205874787252,
2023-08-12 14:25:17.767000,-9.614457831325302,0.710843373493976,1.1325301204819278,0.851011649294911,-9.599632127529123,1.567136725935009,3.0,0.9326229326229326,1072.24470364199,-0.3248062467222195,0.6256045684983399,-0.13658877687780416,1417.5824175824175,-1.0,65.27490039840637,0.9337116724611568,
2023-08-12 14:25:17.774000,-9.614457831325302,0.6987951807228916,1.1566265060240966,0.8853464132434089,-9.656039239730227,1.5892090741876148,3.0,0.9326229326229326,1072.24470364199,-0.5326029951634519,0.48342171202144346,-0.5647689528582248,1408.7912087912086,-1.0,65.27490039840637,0.9337025523178454,
2023-08-12 14:25:17.782000,-9.590361445783133,0.674698795180723,1.108433734939759,0.8559166155732679,-9.626609442060085,1.5622317596566522,3.0,0.9326229326229326,1072.24470364199,-0.2814521298292633,0.14579569955130758,-0.2270263970631077,1402.197802197802,-1.0,65.27490039840637,0.9336932300780129,
2023-08-12 14:25:17.790000,-9.614457831325302,0.674698795180723,1.1204819277108435,0.8534641324340895,-9.683016554261188,1.5597792765174738,3.0,0.9321789321789321,1072.7554179566564,-0.5047491404929781,-0.06421537206456586,0.0012819765747918046,1397.069597069597,-1.0,65.27490039840637,0.9336837092493618,
2023-08-12 14:25:17.797000,-9.614457831325302,0.6867469879518072,1.108433734939759,0.8632740649908032,-9.629061925199263,1.5941140404659717,3.0,0.9326229326229326,1072.24470364199,-0.4350562321543026,-0.13623914690286165,0.21269156809043746,1391.9413919413919,-1.0,65.27490039840637,0.9336739936407533,
2023-08-12 14:25:17.805000,-9.626506024096386,0.6867469879518072,1.1204819277108435,0.8583690987124463,-9.611894543225015,1.5401594114040464,3.0,0.9326229326229326,1072.24470364199,-0.32037760037293905,-0.11945690810558822,0.16257793834858103,1390.4761904761904,-1.0,65.27490039840637,0.933664087333341,
2023-08-12 14:25:17.812000,-9.590361445783133,0.7228915662650602,1.0963855421686748,0.851011649294911,-9.616799509503371,1.5622317596566522,3.0,0.9321789321789321,1072.7554179566564,-0.3750364197890573,-0.13064506730376935,0.1131635685566109,1388.278388278388,-1.0,65.27490039840637,0.9336539948316921,
2023-08-12 14:25:17.820000,-9.602409638554217,0.710843373493976,1.0843373493975905,0.9245861434702636,-9.641324340895157,1.5033721643163702,3.0,0.9321789321789321,1072.7554179566564,-0.47549676592273094,-0.2677000174814986,0.24672221898490723,1385.3479853479853,-1.0,65.27490039840637,0.9336437207669576,
2023-08-12 14:25:17.828000,-9.578313253012048,0.7228915662650602,1.1204819277108435,0.8804414469650521,-9.592274678111588,1.5278969957081545,3.0,0.9326229326229326,1072.24470364199,-0.40848435405862155,-0.37188975001456775,0.08717440708583403,1379.4871794871794,-1.0,65.27490039840637,0.9336332698654539,
2023-08-12 14:25:17.835000,-9.566265060240964,0.710843373493976,1.144578313253012,0.9294911097486205,-9.587369711833231,1.537706928264868,3.0,0.9317349317349316,1073.2666190135812,-0.44985723442689834,-0.4580152671755725,0.3107045043995106,1372.8937728937728,-1.0,65.27490039840637,0.9336226472247622,
2023-08-12 14:25:17.843000,-9.542168674698795,0.746987951807229,1.1566265060240966,0.9785407725321887,-9.597179644389945,1.5990190067443286,3.0,0.9321789321789321,1072.7554179566564,0.04300448691801197,0.03496299749431863,0.6112697395256684,1367.7655677655678,-1.0,65.27490039840637,0.933611858301707,
2023-08-12 14:25:17.851000,-9.55421686746988,0.7590361445783133,1.1204819277108435,0.9466584917228693,-9.562844880441446,1.5499693439607602,3.0,0.9321789321789321,1072.7554179566564,-0.47666219917254277,0.06468154536448921,0.46524095332439824,1363.3699633699632,-1.0,65.27490039840637,0.9336009086877101,
2023-08-12 14:25:17.858000,-9.530120481927712,0.7590361445783133,1.0963855421686748,0.8976088289393009,-9.523605150214593,1.5843041079092581,3.0,0.9321789321789321,1072.7554179566564,-0.6717557251908397,-0.028902744595302985,-0.013285939047840959,1363.3699633699632,-1.0,65.27490039840637,0.933589803977931,
2023-08-12 14:25:17.866000,-9.55421686746988,0.7228915662650602,1.1325301204819278,0.9098712446351931,-9.562844880441446,1.5695892090741874,3.0,0.9321789321789321,1072.7554179566564,-0.8949361925295737,-0.05803857584056938,0.2284249169628812,1366.3003663003662,-1.0,65.27490039840637,0.9335785499267668,
2023-08-12 14:25:17.874000,-9.566265060240964,0.7228915662650602,1.1325301204819278,0.8412017167381973,-9.567749846719803,1.6039239730226853,3.0,0.9326229326229326,1072.24470364199,-0.5209486626653457,0.17260066429695206,0.10185886603344807,1372.8937728937728,-1.0,65.27490039840637,0.9335671524217096,
2023-08-12 14:25:17.881000,-9.566265060240964,0.6987951807228916,1.1204819277108435,0.8804414469650521,-9.629061925199263,1.5278969957081545,3.0,0.9326229326229326,1072.24470364199,-0.48738418507080056,0.1571004020744713,0.15861546529922477,1378.7545787545787,-1.0,65.27490039840637,0.9335556174881602,
2023-08-12 14:25:17.889000,-9.566265060240964,0.710843373493976,1.1204819277108435,0.9491109748620478,-9.631514408338441,1.5303494788473329,3.0,0.9326229326229326,1072.24470364199,-0.4690868830487728,0.41384534700775044,0.3686265369150982,1381.6849816849815,-1.0,65.27490039840637,0.933543951443049,
2023-08-12 14:25:17.897000,-9.614457831325302,0.710843373493976,1.144578313253012,0.9147762109135499,-9.565297363580624,1.5867565910484365,3.0,0.9326229326229326,1072.24470364199,-0.6669774488666167,0.1962589592681087,0.39240137521123486,1386.8131868131868,919.189453125,65.27490039840637,0.9335321607398263,
2023-08-12 14:25:17.904000,-9.602409638554217,0.710843373493976,1.144578313253012,0.838749233599019,-9.624156958920906,1.5695892090741874,3.0,0.9326229326229326,1072.24470364199,-0.3893712487617279,-0.4589476137754209,0.6147660392751004,1389.7435897435896,-1.0,65.27490039840637,0.9335202519520663,
2023-08-12 14:25:17.912000,-9.614457831325302,0.6867469879518072,1.144578313253012,0.9098712446351931,-9.66584917228694,1.5867565910484365,3.0,0.9321789321789321,1072.7554179566564,-0.494842957869588,-0.3175805605733938,0.34834799836839364,1389.0109890109889,-1.0,65.27490039840637,0.9335082317570242,
2023-08-12 14:25:17.920000,-9.590361445783133,0.6867469879518072,1.1204819277108435,0.9221336603310851,-9.577559779276516,1.5278969957081545,3.0,0.9321789321789321,1072.7554179566564,-0.3992774313851181,-0.43750364197890534,0.23320319328710418,1387.5457875457876,-1.0,65.27490039840637,0.9334961067699232,
2023-08-12 14:25:17.927000,-9.578313253012048,0.710843373493976,1.1204819277108435,0.9172286940527283,-9.594727161250766,1.5499693439607602,3.0,0.9321789321789321,1072.7554179566564,-0.3535924479925417,-0.4638424334246247,0.39589767496066647,1385.3479853479853,-1.0,65.27490039840637,0.9334838835057647,
2023-08-12 14:25:17.935000,-9.566265060240964,0.7228915662650602,1.108433734939759,0.8779889638258737,-9.580012262415696,1.5524218270999386,3.0,0.9321789321789321,1072.7554179566564,-0.41559349688246644,-0.49099702814521345,0.28273410640405555,1384.6153846153845,-1.0,65.27490039840637,0.9334715685002547,
2023-08-12 14:25:17.943000,-9.530120481927712,0.746987951807229,1.1325301204819278,0.9245861434702636,-9.533415082771306,1.5646842427958307,3.0,0.9321789321789321,1072.7554179566564,-0.27888817667968147,-0.3766680263387907,0.33762601247013585,1386.8131868131868,-1.0,65.27490039840637,0.9334591682920508,
2023-08-12 14:25:17.950000,-9.518072289156628,0.746987951807229,1.1204819277108435,0.9858982219497241,-9.567749846719803,1.5744941753525443,3.0,0.9321789321789321,1072.7554179566564,-0.23343627993706673,-0.5378474447875999,0.13355865042829634,1392.6739926739926,-1.0,65.27490039840637,0.9334466894051576,
2023-08-12 14:25:17.958000,-9.518072289156628,0.7590361445783133,1.1204819277108435,0.9638258736971183,-9.592274678111588,1.5278969957081545,3.0,0.9321789321789321,1072.7554179566564,0.00967309597342852,-0.27073014393100553,0.023541751646174527,1399.2673992673992,-1.0,65.27490039840637,0.9334341383315528,
2023-08-12 14:25:17.966000,-9.530120481927712,0.7710843373493976,1.1325301204819278,0.9343960760269773,-9.535867565910484,1.572041692213366,3.0,0.9321789321789321,1072.7554179566564,0.008158032748674174,-0.2677000174814986,0.022143231746401454,1406.5934065934066,-1.0,65.27490039840637,0.9334215215141172,
2023-08-12 14:25:17.973000,-9.542168674698795,0.783132530120482,1.1686746987951808,0.9858982219497241,-9.594727161250766,1.6161863887185774,3.0,0.9321789321789321,1072.7554179566564,-0.011188159198181129,-0.0949828098595657,-0.39111939863644307,1411.7216117216117,-1.0,65.27490039840637,0.9334088453299526,
2023-08-12 14:25:17.981000,-9.614457831325302,0.7951807228915663,1.144578313253012,0.9393010423053341,-9.611894543225015,1.5744941753525443,3.0,0.9321789321789321,1072.7554179566564,0.18868364314433872,0.10826874890740709,-0.02272594837130737,1413.9194139194137,-1.0,65.27490039840637,0.9333961160741611,
2023-08-12 14:25:17.989000,-9.602409638554217,0.783132530120482,1.1325301204819278,0.9638258736971183,-9.66584917228694,1.5744941753525443,3.0,0.9312909312909311,1073.7783075089394,0.4161762135073706,0.4012586679097958,-0.36303245731600725,1415.3846153846152,-1.0,65.27490039840637,0.9333833399441533,
2023-08-12 14:25:17.996000,-9.602409638554217,0.746987951807229,1.1204819277108435,0.9074187614960146,-9.673206621704475,1.5205395462906193,3.0,0.9317349317349316,1073.2666190135812,0.323407726822446,-0.026571878095682785,-0.3186294504982226,1416.117216117216,-1.0,65.27490039840637,0.9333705228647272,
2023-08-12 14:25:18.004000,-9.63855421686747,0.746987951807229,1.0963855421686748,0.8362967504598405,-9.695278969957082,1.5033721643163702,3.0,0.9321789321789321,1072.7554179566564,0.2581434648330509,0.022026688421421484,-0.18029252374570245,1417.5824175824175,-1.0,65.27490039840637,0.9333576705588145,
2023-08-12 14:25:18.012000,-9.626506024096386,0.7349397590361446,1.108433734939759,0.8877988963825874,-9.629061925199263,1.5524218270999386,3.0,0.9321789321789321,1072.7554179566564,0.4999708641687552,0.009323465998484274,0.0903210768603227,1420.5128205128203,-1.0,65.27490039840637,0.9333447886923552,
2023-08-12 14:25:18.019000,-9.626506024096386,0.7349397590361446,1.144578313253012,0.8534641324340895,-9.653586756591048,1.5352544451256898,3.0,0.9321789321789321,1072.7554179566564,0.6651127556669199,-0.26163976458248295,-0.1743488141716685,1424.1758241758241,-1.0,65.27490039840637,0.9333318827639642,
2023-08-12 14:25:18.027000,-9.614457831325302,0.7228915662650602,1.072289156626506,0.8706315144083384,-9.594727161250766,1.5352544451256898,3.0,0.9321789321789321,1072.7554179566564,0.677466348114911,-0.6524095332439827,-0.13204358720354287,1427.106227106227,-1.0,65.27490039840637,0.9333189581025132,
2023-08-12 14:25:18.035000,-9.578313253012048,0.7228915662650602,1.0963855421686748,0.8927038626609441,-9.616799509503371,1.5867565910484365,3.0,0.9321789321789321,1072.7554179566564,0.7508886428529804,-0.35219392809276817,0.3108210477244914,1430.7692307692307,-1.0,65.27490039840637,0.9333060198551025,
2023-08-12 14:25:18.042000,-9.55421686746988,0.6987951807228916,1.0963855421686748,0.8608215818516247,-9.521152667075413,1.5695892090741874,3.0,0.9321789321789321,1072.7554179566564,0.8213973544665235,-0.223180467338734,0.15465299224986895,1435.164835164835,-1.0,65.27490039840637,0.9332930729760304,
2023-08-12 14:25:18.050000,-9.55421686746988,0.7228915662650602,1.108433734939759,0.8828939301042305,-9.63396689147762,1.572041692213366,3.0,0.9321789321789321,1072.7554179566564,0.4633762601247014,-0.38575840568731506,0.5328360818134142,1438.095238095238,-1.0,65.27490039840637,0.9332801222168056,
2023-08-12 14:25:18.058000,-9.542168674698795,0.7228915662650602,1.1204819277108435,0.8804414469650521,-9.599632127529123,1.5744941753525443,3.0,0.9321789321789321,1072.7554179566564,0.36629567041547717,-0.407085834158848,0.25383136180875215,1437.3626373626373,-1.0,65.27490039840637,0.9332671721172549,
2023-08-12 14:25:18.065000,-9.542168674698795,0.7349397590361446,1.108433734939759,0.9025137952176578,-9.50889025137952,1.5622317596566522,3.0,0.9321789321789321,1072.7554179566564,0.37958160946331854,-0.4144280636326546,0.29450498222714283,1434.4322344322343,-1.0,65.27490039840637,0.9332542269977682,
2023-08-12 14:25:18.073000,-9.530120481927712,0.7228915662650602,1.0963855421686748,0.8755364806866952,-9.616799509503371,1.5009196811771919,3.0,0.9317349317349316,1073.2666190135812,0.3755025930889806,-0.2096614416409292,0.18437154012003976,1433.6996336996335,-1.0,65.27490039840637,0.9332412909527095,
2023-08-12 14:25:18.081000,-9.566265060240964,0.7349397590361446,1.072289156626506,0.9147762109135499,-9.577559779276516,1.5328019619865112,3.0,0.9317349317349316,1073.2666190135812,0.1414835965270097,-0.3258551366470488,-0.015267175572519083,1437.3626373626373,-1.0,65.27490039840637,0.9332283676957354,
2023-08-12 14:25:18.088000,-9.55421686746988,0.710843373493976,1.108433734939759,0.8632740649908032,-9.626609442060085,1.5524218270999386,3.0,0.9317349317349316,1073.2666190135812,0.5974010838529219,-0.24310937591049522,0.16747275799778527,1438.8278388278388,-1.0,65.27490039840637,0.9332154605337503,
2023-08-12 14:25:18.096000,-9.626506024096386,0.710843373493976,1.108433734939759,0.8828939301042305,-9.660944206008583,1.5278969957081545,3.0,0.9317349317349316,1073.2666190135812,0.39403298176097007,-0.5894761377542095,0.3200279703979957,1439.5604395604394,-1.0,65.27490039840637,0.9332025725010394,
2023-08-12 14:25:18.104000,-9.614457831325302,0.710843373493976,1.108433734939759,0.8657265481299815,-9.6364193746168,1.5695892090741874,3.0,0.9317349317349316,1073.2666190135812,0.2999825185012528,-0.7659227317755378,0.1047724491579744,1441.7582417582416,-1.0,65.27490039840637,0.9331897063557122,
2023-08-12 14:25:18.111000,-9.590361445783133,0.710843373493976,1.144578313253012,0.8853464132434089,-9.631514408338441,1.6161863887185774,3.0,0.9317349317349316,1073.2666190135812,0.06899364838878884,-0.9426024124468277,0.41326263038284494,1442.4908424908424,-1.0,65.27490039840637,0.9331768645772147,
2023-08-12 14:25:18.119000,-9.614457831325302,0.7228915662650602,1.1686746987951808,0.8706315144083384,-9.602084610668301,1.6112814224402205,3.0,0.9317349317349316,1073.2666190135812,0.23611677641163117,-1.0105471709107856,0.24520715576015376,1440.2930402930401,-1.0,65.27490039840637,0.9331640493649294,
2023-08-12 14:25:18.127000,-9.578313253012048,0.7349397590361446,1.1927710843373494,0.9343960760269773,-9.624156958920906,1.59656652360515,3.0,0.9317349317349316,1073.2666190135812,0.24777110890973736,-1.1090262805197832,0.15605151214964139,1438.095238095238,-1.0,65.27490039840637,0.9331512626378492,
2023-08-12 14:25:18.134000,-9.55421686746988,0.746987951807229,1.144578313253012,0.9196811771919068,-9.621704475781728,1.6039239730226853,3.0,0.9317349317349316,1073.2666190135812,0.2760911368801344,-1.1770875823087237,0.12714876755433818,1435.8974358974358,-1.0,65.27490039840637,0.9331385060353348,
2023-08-12 14:25:18.142000,-9.506024096385543,0.7349397590361446,1.1325301204819278,0.927038626609442,-9.435315757204169,1.5573267933782955,3.0,0.9308469308469308,1074.2904841402337,0.21175922149058948,-1.0319911427073012,0.37445370316415133,1432.2344322344322,-1.0,65.27490039840637,0.9331257809189443,
2023-08-12 14:25:18.150000,-9.506024096385543,0.746987951807229,1.144578313253012,0.9687308399754752,-9.567749846719803,1.5695892090741874,3.0,0.9312909312909311,1073.7783075089394,0.49903851756890677,-0.8879435930307096,0.20768020511625218,1429.3040293040292,-1.0,65.27490039840637,0.9331130882154864,
2023-08-12 14:25:18.157000,-9.518072289156628,0.7590361445783133,1.1566265060240966,0.9491109748620478,-9.499080318822807,1.5475168608215817,3.0,0.9312909312909311,1073.7783075089394,0.20255229881708603,-0.8078783287687205,-0.17050288444729308,1424.1758241758241,-1.0,65.27490039840637,0.9331004285061193,
2023-08-12 14:25:18.165000,-9.542168674698795,0.7710843373493976,1.144578313253012,0.9540159411404046,-9.61925199264255,1.5793991416309012,3.0,0.9312909312909311,1073.7783075089394,0.2921741157275211,-0.46943651302371703,0.4907639414952509,1420.5128205128203,-1.0,65.27490039840637,0.9330878020405713,
2023-08-12 14:25:18.173000,-9.542168674698795,0.7590361445783133,1.1686746987951808,0.9368485591661557,-9.580012262415696,1.5793991416309012,3.0,0.9317349317349316,1073.2666190135812,0.16805547462269074,-0.5463551075112166,0.3511450381679389,1417.5824175824175,-1.0,65.27490039840637,0.9330752086237846,
2023-08-12 14:25:18.180000,-9.542168674698795,0.7590361445783133,1.1686746987951808,0.9221336603310851,-9.594727161250766,1.5793991416309012,3.0,0.9312909312909311,1073.7783075089394,0.05920400909037948,-0.17807820057106177,0.19824019579278576,1416.8498168498168,-1.0,65.27490039840637,0.9330626479188195,
2023-08-12 14:25:18.188000,-9.566265060240964,0.746987951807229,1.1686746987951808,0.8853464132434089,-9.577559779276516,1.6235438381361127,3.0,0.9317349317349316,1073.2666190135812,0.026921508070625294,-0.37899889283841265,0.14078433657712208,1416.8498168498168,-1.0,65.27490039840637,0.9330501193245542,
2023-08-12 14:25:18.195000,-9.578313253012048,0.746987951807229,1.1686746987951808,0.9417535254445125,-9.54322501532802,1.613733905579399,3.0,0.9312909312909311,1073.7783075089394,0.22201503408892218,-0.21234193811549365,-0.11502826175630776,1416.8498168498168,-1.0,65.27490039840637,0.9330376219719236,
2023-08-12 14:25:18.203000,-9.566265060240964,0.7590361445783133,1.1686746987951808,0.8927038626609441,-9.60453709380748,1.6284488044144696,3.0,0.9317349317349316,1073.2666190135812,0.31175339432433985,-0.10652059903269108,-0.07924946098712198,1414.6520146520145,-1.0,65.27490039840637,0.9330251546033309,
2023-08-12 14:25:18.211000,-9.55421686746988,0.7349397590361446,1.1325301204819278,0.9098712446351931,-9.582464745554875,1.5401594114040464,3.0,0.9312909312909311,1073.7783075089394,0.2790047200046623,-0.1982401957927864,-0.057922032515587675,1410.2564102564102,-1.0,65.27490039840637,0.9330127157296936,
2023-08-12 14:25:18.218000,-9.542168674698795,0.7349397590361446,1.1325301204819278,0.8779889638258737,-9.570202329858981,1.542611894543225,3.0,0.9312909312909311,1073.7783075089394,0.4756133092477135,-0.33715983917021075,-0.1006934327836371,1406.5934065934066,-1.0,65.27490039840637,0.933000303777837,
2023-08-12 14:25:18.226000,-9.55421686746988,0.746987951807229,1.1204819277108435,0.9221336603310851,-9.614347026364193,1.6039239730226853,3.0,0.9317349317349316,1073.2666190135812,0.534817318338093,-0.3497465182681654,-0.20546588194161172,1402.197802197802,-1.0,65.27490039840637,0.9329879167915851,
2023-08-12 14:25:18.234000,-9.578313253012048,0.7590361445783133,1.1566265060240966,0.9932556713672593,-9.562844880441446,1.613733905579399,3.0,0.9312909312909311,1073.7783075089394,0.6997261231862942,-0.0427714002680503,-0.047433133267291996,1396.3369963369962,-1.0,65.27490039840637,0.9329755527299529,
2023-08-12 14:25:18.241000,-9.55421686746988,0.7349397590361446,1.144578313253012,0.86817903126916,-9.575107296137338,1.6186388718577558,3.0,0.9317349317349316,1073.2666190135812,0.696346366761843,-0.044752636792727986,-0.04382029019287913,1392.6739926739926,-1.0,65.27490039840637,0.9329632093504865,
2023-08-12 14:25:18.249000,-9.602409638554217,0.7710843373493976,1.1325301204819278,0.8804414469650521,-9.609442060085836,1.5793991416309012,3.0,0.9317349317349316,1073.2666190135812,0.6920342637375452,-0.09358428995979219,0.14264902977681937,1388.278388278388,-1.0,65.27490039840637,0.9329508842109447,
2023-08-12 14:25:18.257000,-9.578313253012048,0.7710843373493976,1.1325301204819278,0.9687308399754752,-9.653586756591048,1.5818516247700796,3.0,0.9317349317349316,1073.2666190135812,0.6120855428005368,-0.323407726822446,0.1745819008216306,1385.3479853479853,-1.0,65.27490039840637,0.932938574841971,
2023-08-12 14:25:18.264000,-9.566265060240964,0.746987951807229,1.1566265060240966,0.9491109748620478,-9.592274678111588,1.6456161863887184,3.0,0.9312909312909311,1073.7783075089394,0.5334187984383195,-0.47689528582250446,0.32818600314666985,1383.8827838827838,-1.0,65.27490039840637,0.9329262786225667,
2023-08-12 14:25:18.272000,-9.566265060240964,0.7590361445783133,1.144578313253012,0.9221336603310851,-9.60453709380748,1.572041692213366,3.0,0.9312909312909311,1073.7783075089394,0.45393625080123456,-0.4175747334071441,-0.09882873958394024,1384.6153846153845,-1.0,65.27490039840637,0.9329139926456563,
2023-08-12 14:25:18.280000,-9.566265060240964,0.746987951807229,1.144578313253012,0.9834457388105456,-9.57265481299816,1.6382587369711832,3.0,0.9312909312909311,1073.7783075089394,0.08426082396130792,-0.2807528698793783,0.009673095973428084,1383.150183150183,-1.0,65.27490039840637,0.9329017137116563,
2023-08-12 14:25:18.287000,-9.578313253012048,0.7590361445783133,1.144578313253012,0.9491109748620478,-9.577559779276516,1.5107296137339055,3.0,0.9317349317349316,1073.2666190135812,0.2075636617912707,-0.31105413437445306,-0.21840219101450975,1386.080586080586,-1.0,65.27490039840637,0.9328894384815176,
2023-08-12 14:25:18.295000,-9.566265060240964,0.746987951807229,1.1325301204819278,0.9491109748620478,-9.611894543225015,1.537706928264868,3.0,0.9308469308469308,1074.2904841402337,0.28261756307907515,-0.43202610570479566,-0.10920109550725508,1386.080586080586,-1.0,65.27490039840637,0.9328771635018619,
2023-08-12 14:25:18.303000,-9.590361445783133,0.746987951807229,1.1566265060240966,0.9000613120784794,-9.643776824034335,1.59656652360515,3.0,0.9312909312909311,1073.7783075089394,0.0981294796340535,-0.07889983101217903,-0.031233611094924486,1386.8131868131868,-1.0,65.27490039840637,0.9328648852409905,
2023-08-12 14:25:18.310000,-9.578313253012048,0.7590361445783133,1.1566265060240966,0.9196811771919068,-9.570202329858981,1.5818516247700796,3.0,0.9312909312909311,1073.7783075089394,0.26385408775712405,-0.2607074179826345,0.3214264902977683,1386.080586080586,-1.0,65.27490039840637,0.9328526001796447,
2023-08-12 14:25:18.318000,-9.590361445783133,0.7590361445783133,1.1686746987951808,0.9147762109135499,-9.567749846719803,1.5892090741876148,3.0,0.9312909312909311,1073.7783075089394,0.2917079424275978,-0.19963871569255817,-0.08973836023541765,1385.3479853479853,-1.0,65.27490039840637,0.932840304688245,
2023-08-12 14:25:18.326000,-9.578313253012048,0.746987951807229,1.1566265060240966,0.9368485591661557,-9.60453709380748,1.5990190067443286,3.0,0.9312909312909311,1073.7783075089394,0.15115669250043648,-0.27504224695530516,-0.10244158265835313,1387.5457875457876,-1.0,65.27490039840637,0.9328279949251329,
2023-08-12 14:25:18.333000,-9.55421686746988,0.7349397590361446,1.1566265060240966,0.9221336603310851,-9.516247700797056,1.6210913549969344,3.0,0.9312909312909311,1073.7783075089394,-0.10896800885729212,-0.44309772157799593,-0.22318046733873315,1391.2087912087911,-1.0,65.27490039840637,0.9328156670010412,
2023-08-12 14:25:18.341000,-9.542168674698795,0.7590361445783133,1.180722891566265,0.9393010423053341,-9.530962599632128,1.613733905579399,3.0,0.9312909312909311,1073.7783075089394,-0.07691859448750134,-0.4268981994056284,-0.3256220499970867,1397.069597069597,-1.0,65.27490039840637,0.9328033169942931,
2023-08-12 14:25:18.349000,-9.530120481927712,0.7228915662650602,1.180722891566265,0.9834457388105456,-9.516247700797056,1.625996321275291,3.0,0.9312909312909311,1073.7783075089394,-0.275158790280286,-0.18040906707068372,-0.29135831245265437,1402.9304029304028,-1.0,65.27490039840637,0.9327909408272326,
2023-08-12 14:25:18.356000,-9.530120481927712,0.7590361445783133,1.1686746987951808,0.9515634580012262,-9.570202329858981,1.554874310239117,3.0,0.9312909312909311,1073.7783075089394,-0.13367519375327805,-0.3169978439484879,-0.31827982052327924,1406.5934065934066,-1.0,65.27490039840637,0.9327785344404732,
2023-08-12 14:25:18.364000,-9.518072289156628,0.746987951807229,1.180722891566265,0.8804414469650521,-9.484365419987737,1.6039239730226853,3.0,0.9312909312909311,1073.7783075089394,-0.3333139094458362,-0.05535807936600493,-0.5106928500670121,1406.5934065934066,-1.0,65.27490039840637,0.9327660939355363,
2023-08-12 14:25:18.372000,-9.530120481927712,0.746987951807229,1.180722891566265,0.9098712446351931,-9.562844880441446,1.5622317596566522,3.0,0.9312909312909311,1073.7783075089394,-0.25511333838354394,-0.009789639298409356,-0.6434356972204417,1405.8608058608058,-1.0,65.27490039840637,0.9327536154406461,
2023-08-12 14:25:18.379000,-9.55421686746988,0.7349397590361446,1.2048192771084338,0.9540159411404046,-9.553034947884733,1.625996321275291,3.0,0.9312909312909311,1073.7783075089394,-0.17901054717091022,0.11036652875706562,-0.7290950410815219,1402.197802197802,-1.0,65.27490039840637,0.9327410951256475,
2023-08-12 14:25:18.387000,-9.530120481927712,0.746987951807229,1.2048192771084338,0.956468424279583,-9.550582464745554,1.672593500919681,3.0,0.9312909312909311,1073.7783075089394,-0.3468329351436393,0.5211817493153074,-0.568498339257619,1397.8021978021977,-1.0,65.27490039840637,0.932728529216721,
2023-08-12 14:25:18.395000,-9.506024096385543,0.7349397590361446,1.1686746987951808,0.9049662783568363,-9.577559779276516,1.6161863887185774,3.0,0.9312909312909311,1073.7783075089394,-0.19101450964396066,0.7007750131111252,-1.2671755725190839,1391.9413919413919,-1.0,65.27490039840637,0.932715914010854,
2023-08-12 14:25:18.402000,-9.506024096385543,0.746987951807229,1.1927710843373494,0.9662783568362967,-9.553034947884733,1.6063764561618639,3.0,0.9312909312909311,1073.7783075089394,-0.03717732066895799,0.7702348347998357,-1.0406153487559,1386.080586080586,-1.0,65.27490039840637,0.9327032458900397,
2023-08-12 14:25:18.410000,-9.566265060240964,0.746987951807229,1.1927710843373494,0.8583690987124463,-9.592274678111588,1.5843041079092581,3.0,0.9312909312909311,1073.7783075089394,-0.2628051978322948,0.7658061884505569,-1.214731076277606,1380.952380952381,-1.0,65.27490039840637,0.9326905213351664,
2023-08-12 14:25:18.418000,-9.55421686746988,0.7228915662650602,1.1566265060240966,0.9196811771919068,-9.594727161250766,1.5818516247700796,3.0,0.9312909312909311,1073.7783075089394,-0.1827399335703039,0.8217469844414661,-1.2528407435464133,1379.4871794871794,-1.0,65.27490039840637,0.9326777369395775,
2023-08-12 14:25:18.425000,-9.566265060240964,0.7228915662650602,1.1927710843373494,0.9343960760269773,-9.503985285101164,1.5990190067443286,3.0,0.9312909312909311,1073.7783075089394,-0.2559291416584115,1.0146261872851237,-1.2142649029776817,1382.4175824175823,-1.0,65.27490039840637,0.9326648894222538,
2023-08-12 14:25:18.433000,-9.566265060240964,0.7349397590361446,1.180722891566265,0.86817903126916,-9.54322501532802,1.59656652360515,3.0,0.9312909312909311,1073.7783075089394,0.006992599498864074,1.2538896334712426,-1.309480799487209,1384.6153846153845,-1.0,65.27490039840637,0.9326519756406141,
2023-08-12 14:25:18.441000,-9.578313253012048,0.7349397590361446,1.1927710843373494,0.9294911097486205,-9.611894543225015,1.64316370324954,3.0,0.9312909312909311,1073.7783075089394,-0.08461045393625043,1.2451488840976623,-1.267525202494027,1389.7435897435896,-1.0,65.27490039840637,0.9326389926028922,
2023-08-12 14:25:18.448000,-9.578313253012048,0.7228915662650602,1.1566265060240966,0.8902513795217657,-9.658491722869405,1.6407112201103617,3.0,0.9304029304029303,1074.8031496062993,-0.1131635685566109,0.9476137754210124,-1.3653050521531378,1394.8717948717947,-1.0,65.27490039840637,0.9326259374800688,
2023-08-12 14:25:18.456000,-9.590361445783133,0.7228915662650602,1.180722891566265,0.956468424279583,-9.592274678111588,1.625996321275291,3.0,0.9308469308469308,1074.2904841402337,-0.06642969523920522,1.0906124351727748,-1.2487617271720757,1397.8021978021977,-1.0,65.27490039840637,0.9326128074575071,
2023-08-12 14:25:18.464000,-9.602409638554217,0.7228915662650602,1.1566265060240966,0.8902513795217657,-9.658491722869405,1.6382587369711832,3.0,0.9312909312909311,1073.7783075089394,-0.1712021443971803,1.004953091311695,-0.9780315832410698,1397.069597069597,-1.0,65.27490039840637,0.9325995998310953,
2023-08-12 14:25:18.471000,-9.602409638554217,0.710843373493976,1.1566265060240966,0.86817903126916,-9.592274678111588,1.5941140404659717,3.0,0.9308469308469308,1074.2904841402337,-0.0018646931996968547,0.8321193403647813,-1.2594837130703336,1397.069597069597,-1.0,65.27490039840637,0.93258631217628,
2023-08-12 14:25:18.479000,-9.566265060240964,0.7349397590361446,1.144578313253012,0.8902513795217657,-9.638871857755978,1.5867565910484365,3.0,0.9308469308469308,1074.2904841402337,0.01538371889749992,1.4504982227142937,-1.0507546180292524,1398.5347985347985,-1.0,65.27490039840637,0.9325729421112783,
2023-08-12 14:25:18.487000,-9.566265060240964,0.710843373493976,1.1566265060240966,0.9147762109135499,-9.565297363580624,1.5892090741876148,3.0,0.9312909312909311,1073.7783075089394,-0.29030942252782427,1.1951517976807882,-1.2704387856185535,1401.4652014652013,-1.0,65.27490039840637,0.9325594872942375,
2023-08-12 14:25:18.494000,-9.566265060240964,0.710843373493976,1.144578313253012,0.8657265481299815,-9.560392397302268,1.6088289393010422,3.0,0.9312909312909311,1073.7783075089394,-0.05815511916555022,0.8973836023541747,-0.863586038109667,1404.3956043956043,-1.0,65.27490039840637,0.9325459457175551,
2023-08-12 14:25:18.502000,-9.578313253012048,0.7228915662650602,1.108433734939759,0.8779889638258737,-9.616799509503371,1.5818516247700796,3.0,0.9312909312909311,1073.7783075089394,-0.28553114620360126,0.8006526426198948,-0.9794301031408429,1408.058608058608,-1.0,65.27490039840637,0.9325323157353316,
2023-08-12 14:25:18.510000,-9.578313253012048,0.710843373493976,1.1204819277108435,0.8902513795217657,-9.648681790312692,1.5769466584917229,3.0,0.9312909312909311,1073.7783075089394,0.11153196200687572,0.9153312744012583,-0.7130120622341356,1410.2564102564102,-1.0,65.27490039840637,0.9325185959311827,
2023-08-12 14:25:18.517000,-9.578313253012048,0.710843373493976,1.1204819277108435,0.8657265481299815,-9.606989576946658,1.542611894543225,3.0,0.9312909312909311,1073.7783075089394,-0.1786609171959677,0.8177845113921107,-0.9516927917953495,1413.1868131868132,-1.0,65.27490039840637,0.9325047851243045,
2023-08-12 14:25:18.525000,-9.590361445783133,0.6987951807228916,1.1325301204819278,0.8264868179031268,-9.653586756591048,1.5524218270999386,3.0,0.9308469308469308,1074.2904841402337,-0.17831128722102518,0.8145212982926403,-0.940504632597168,1415.3846153846152,-1.0,65.27490039840637,0.9324908823750341,
2023-08-12 14:25:18.533000,-9.590361445783133,0.6987951807228916,1.144578313253012,0.8289393010423053,-9.61925199264255,1.5328019619865112,3.0,0.9308469308469308,1074.2904841402337,-0.26968125400617626,0.7318920808810676,-0.7349222073305754,1414.6520146520145,-1.0,65.27490039840637,0.932476886840629,
2023-08-12 14:25:18.540000,-9.602409638554217,0.6987951807228916,1.1325301204819278,0.8632740649908032,-9.614347026364193,1.5475168608215817,3.0,0.9312909312909311,1073.7783075089394,-0.009440009323466846,0.9266359769244219,-0.6511275566691916,1412.4542124542124,-1.0,65.27490039840637,0.9324627977579802,
2023-08-12 14:25:18.548000,-9.602409638554217,0.6867469879518072,1.1204819277108435,0.8657265481299815,-9.584917228694053,1.5524218270999386,3.0,0.9308469308469308,1074.2904841402337,-0.40801818075869645,0.5239787891148526,-0.7830546005477533,1408.7912087912086,-1.0,65.27490039840637,0.9324486147340764,
2023-08-12 14:25:18.556000,-9.590361445783133,0.6987951807228916,1.108433734939759,0.9172286940527283,-9.616799509503371,1.5352544451256898,3.0,0.9312909312909311,1073.7783075089394,-0.11794184488083388,0.6098712196258957,-0.669191772041256,1404.3956043956043,-1.0,65.27490039840637,0.9324343376203471,
2023-08-12 14:25:18.563000,-9.578313253012048,0.6867469879518072,1.1325301204819278,0.8828939301042305,-9.609442060085836,1.5082771305947271,3.0,0.9312909312909311,1073.7783075089394,-0.4551016840510464,0.3766680263387907,-0.3892547054367458,1402.197802197802,-1.0,65.27490039840637,0.9324199665041437,
2023-08-12 14:25:18.571000,-9.578313253012048,0.6987951807228916,1.1325301204819278,0.8313917841814837,-9.592274678111588,1.567136725935009,3.0,0.9312909312909311,1073.7783075089394,-0.22329701066371485,0.6493794067944757,-0.5069634636676188,1404.3956043956043,-1.0,65.27490039840637,0.9324055018700478,
2023-08-12 14:25:18.578000,-9.578313253012048,0.6987951807228916,1.108433734939759,0.7847946045370937,-9.580012262415696,1.5744941753525443,3.0,0.9312909312909311,1073.7783075089394,-0.5433249810617097,0.6754851115902334,-0.19742439251791838,1405.8608058608058,-1.0,65.27490039840637,0.9323909444628778,
2023-08-12 14:25:18.586000,-9.55421686746988,0.6867469879518072,1.1204819277108435,0.8779889638258737,-9.553034947884733,1.5475168608215817,3.0,0.9312909312909311,1073.7783075089394,-0.2482372822096607,0.7161587320086235,-0.5155876697162168,1407.3260073260071,-1.0,65.27490039840637,0.9323762952890389,
2023-08-12 14:25:18.594000,-9.55421686746988,0.674698795180723,1.1325301204819278,0.8166768853464133,-9.575107296137338,1.5107296137339055,3.0,0.9308469308469308,1074.2904841402337,-0.3706077734397768,0.4823728220966142,-0.16024707184895953,1408.7912087912086,-1.0,65.27490039840637,0.932361555617471,
2023-08-12 14:25:18.601000,-9.566265060240964,0.6626506024096386,1.1325301204819278,0.86817903126916,-9.567749846719803,1.496014714898835,3.0,0.9304029304029303,1074.8031496062993,-0.42922906590525034,0.43132684575490887,-0.38634112231221923,1408.058608058608,-1.0,65.27490039840637,0.9323467268309191,
2023-08-12 14:25:18.609000,-9.566265060240964,0.6867469879518072,1.1204819277108435,0.8583690987124463,-9.597179644389945,1.5622317596566522,3.0,0.9304029304029303,1074.8031496062993,-0.5011362974185654,0.30697511800011684,-0.3073247479750594,1404.3956043956043,-1.0,65.27490039840637,0.9323318105324503,
2023-08-12 14:25:18.617000,-9.578313253012048,0.674698795180723,1.108433734939759,0.8877988963825874,-9.673206621704475,1.542611894543225,3.0,0.9308469308469308,1074.2904841402337,0.022026688421421484,0.4123302837829961,-0.09067070683526564,1398.5347985347985,-1.0,65.27490039840637,0.9323168084809467,
2023-08-12 14:25:18.624000,-9.566265060240964,0.674698795180723,1.0963855421686748,0.8142244022072348,-9.668301655426118,1.5843041079092581,3.0,0.9308469308469308,1074.2904841402337,-0.2819183031291884,0.5779383485810841,0.06211759221490603,1394.8717948717947,-1.0,65.27490039840637,0.9323017225994423,
2023-08-12 14:25:18.632000,-9.602409638554217,0.674698795180723,1.1204819277108435,0.8166768853464133,-9.550582464745554,1.5818516247700796,3.0,0.9312909312909311,1073.7783075089394,-0.048831653167064205,0.4097663306334125,-0.3942660684109317,1391.9413919413919,-1.0,65.27490039840637,0.9322865551423843,
2023-08-12 14:25:18.640000,-9.590361445783133,0.674698795180723,1.1325301204819278,0.851011649294911,-9.582464745554875,1.5352544451256898,3.0,0.9312909312909311,1073.7783075089394,-0.1551191655497936,0.440067595128489,-0.3137346308490179,1386.8131868131868,-1.0,65.27490039840637,0.9322713087030701,
2023-08-12 14:25:18.647000,-9.578313253012048,0.674698795180723,1.108433734939759,0.838749233599019,-9.582464745554875,1.5941140404659717,3.0,0.9308469308469308,1074.2904841402337,-0.2152555212400215,0.22609405046326014,-0.24998543208437718,1383.8827838827838,-1.0,65.27490039840637,0.9322559860929993,
2023-08-12 14:25:18.655000,-9.590361445783133,0.674698795180723,1.1204819277108435,0.8338442673206621,-9.60453709380748,1.5573267933782955,3.0,0.9312909312909311,1073.7783075089394,-0.10558825243284264,0.13367519375327805,-0.3238739001223703,1383.8827838827838,-1.0,65.27490039840637,0.9322405900714896,
2023-08-12 14:25:18.663000,-9.578313253012048,0.674698795180723,1.1325301204819278,0.8657265481299815,-9.602084610668301,1.5843041079092581,3.0,0.9312909312909311,1073.7783075089394,0.26187285123244636,0.21117650486568357,-0.17003671114736932,1386.080586080586,-1.0,65.27490039840637,0.9322251237566869,
2023-08-12 14:25:18.670000,-9.566265060240964,0.6867469879518072,1.0843373493975905,0.8240343347639485,-9.609442060085836,1.525444512568976,3.0,0.9312909312909311,1073.7783075089394,-0.01200396247304872,0.3028961016257789,-0.29124176912767313,1392.6739926739926,-1.0,65.27490039840637,0.9322095906207382,
2023-08-12 14:25:18.678000,-9.578313253012048,0.6987951807228916,1.1325301204819278,0.86817903126916,-9.611894543225015,1.5107296137339055,3.0,0.9312909312909311,1073.7783075089394,0.03915855719363742,-0.0170153254472351,-0.21339082804032466,1397.8021978021977,-1.0,65.27490039840637,0.9321939942184273,
2023-08-12 14:25:18.686000,-9.578313253012048,0.6867469879518072,1.108433734939759,0.8632740649908032,-9.61925199264255,1.5033721643163702,3.0,0.9308469308469308,1074.2904841402337,-0.20278538546704772,-0.12085542800536173,-0.3655964104655904,1405.128205128205,-1.0,65.27490039840637,0.9321783384698811,
2023-08-12 14:25:18.693000,-9.578313253012048,0.710843373493976,1.072289156626506,0.8902513795217657,-9.609442060085836,1.59656652360515,3.0,0.9308469308469308,1074.2904841402337,0.19695821921799375,0.11106578870695237,-0.04195559699318271,1409.5238095238094,-1.0,65.27490039840637,0.9321626274854461,
2023-08-12 14:25:18.701000,-9.590361445783133,0.710843373493976,1.108433734939759,0.8313917841814837,-9.562844880441446,1.5695892090741874,3.0,0.9308469308469308,1074.2904841402337,0.15092360585047482,0.020628168521647974,0.14183322650195135,1413.1868131868132,-1.0,65.27490039840637,0.9321468653902711,
2023-08-12 14:25:18.709000,-9.578313253012048,0.6987951807228916,1.0843373493975905,0.8632740649908032,-9.587369711833231,1.5205395462906193,3.0,0.9308469308469308,1074.2904841402337,0.106054425732766,0.2376318396363855,-0.04277140026804986,1416.117216117216,-1.0,65.27490039840637,0.9321310564568495,
2023-08-12 14:25:18.716000,-9.602409638554217,0.6987951807228916,1.0963855421686748,0.8608215818516247,-9.616799509503371,1.5082771305947271,3.0,0.9308469308469308,1074.2904841402337,-0.13798729677757768,-0.2541809917836955,-0.09067070683526521,1416.8498168498168,-1.0,65.27490039840637,0.9321152050983722,
2023-08-12 14:25:18.724000,-9.602409638554217,0.6987951807228916,1.0963855421686748,0.851011649294911,-9.594727161250766,1.5156345800122624,3.0,0.9308469308469308,1074.2904841402337,-0.05990326904026623,0.07109142823844736,-0.2292407202377488,1416.8498168498168,-1.0,65.27490039840637,0.9320993158616643,
