Shimmer_F5D4_Timestamp_FormattedUnix_CAL,Shimmer_F5D4_Accel_LN_X_CAL,Shimmer_F5D4_Accel_LN_Y_CAL,Shimmer_F5D4_Accel_LN_Z_CAL,Shimmer_F5D4_Accel_WR_X_CAL,Shimmer_F5D4_Accel_WR_Y_CAL,Shimmer_F5D4_Accel_WR_Z_CAL,Shimmer_F5D4_GSR_Range_CAL,Shimmer_F5D4_GSR_Skin_Conductance_CAL,Shimmer_F5D4_GSR_Skin_Resistance_CAL,Shimmer_F5D4_Gyro_X_CAL,Shimmer_F5D4_Gyro_Y_CAL,Shimmer_F5D4_Gyro_Z_CAL,Shimmer_F5D4_PPG_A13_CAL,Shimmer_F5D4_PPG_IBI_CAL,Shimmer_F5D4_PPGtoHR_CAL,Shimmer_F5D4_GSR_Skin_Conductance_LPF_CAL,
yyyy/mm/dd hh:mm:ss.000,m/(s^2),m/(s^2),m/(s^2),m/(s^2),m/(s^2),m/(s^2),no_units,uS,kOhms,deg/s,deg/s,deg/s,mV,ms,BPM,uS,
2023-08-15 14:27:34.928000,-7.686746987951808,0.8313253012048193,-6.0843373493975905,0.9025137952176578,-7.443899448191293,-5.795217657878601,2.0,1.986080586080586,503.5042419771302,0.138453470077501,-1.4980478993065671,0.7631256919759924,1408.058608058608,-1.0,73.2054957739137,1.9888484248036324,
2023-08-15 14:27:34.936000,-7.674698795180723,0.819277108433735,-6.060240963855422,0.9221336603310851,-7.468424279583077,-5.748620478234212,2.0,1.986080586080586,503.5042419771302,0.49251209136996604,-0.985606899364838,0.8194161179418441,1383.150183150183,-1.0,73.2054957739137,1.9888265080859981,
2023-08-15 14:27:34.943000,-7.674698795180723,0.8313253012048193,-6.060240963855422,0.9711833231146535,-7.414469650521152,-5.7363580625383195,2.0,1.9875457875457876,503.13306302985626,0.4774780024474104,-0.8606724549851401,0.79913757939514,1372.8937728937728,-1.0,73.2054957739137,1.9888047357009915,
2023-08-15 14:27:34.951000,-7.710843373493976,0.8313253012048193,-6.0843373493975905,0.9025137952176578,-7.468424279583077,-5.778050275904353,2.0,1.986080586080586,503.5042419771302,0.44647747800244714,-0.597867257152847,0.8708117242584936,1364.8351648351647,-1.0,73.2054957739137,1.9887831019725482,
2023-08-15 14:27:34.958000,-7.674698795180723,0.819277108433735,-6.1084337349397595,0.9466584917228693,-7.475781729000612,-5.755977927651747,2.0,1.986080586080586,503.5042419771302,0.4499737777518792,-0.8257094574908215,0.8962181691043646,1356.7765567765566,-1.0,73.2054957739137,1.9887616011529812,
2023-08-15 14:27:34.966000,-7.686746987951808,0.7951807228915663,-6.120481927710844,0.9589209074187615,-7.5076640098099325,-5.780502759043531,2.0,1.986080586080586,503.5042419771302,0.32935143639648085,-0.39624730493561117,0.6766505448400435,1347.985347985348,-1.0,73.2054957739137,1.9887402269127876,
2023-08-15 14:27:34.974000,-7.674698795180723,0.8072289156626506,-6.1325301204819285,0.9343960760269773,-7.534641324340895,-5.841814837522992,2.0,1.986080586080586,503.5042419771302,0.5286405221140965,-0.7331740574558585,0.7046209428354989,1339.9267399267399,-1.0,73.2054957739137,1.9887189728133263,
2023-08-15 14:27:34.981000,-7.686746987951808,0.8313253012048193,-6.1084337349397595,0.9147762109135499,-7.456161863887186,-5.814837522992029,2.0,1.986080586080586,503.5042419771302,0.3476487384185069,-0.3791154361633935,0.608589243051104,1332.6007326007325,-1.0,73.2054957739137,1.9886978323214923,
2023-08-15 14:27:34.989000,-7.674698795180723,0.819277108433735,-6.1325301204819285,0.8534641324340895,-7.438994481912936,-5.790312691600245,2.0,1.986080586080586,503.5042419771302,0.48691801177087546,-0.4738651593729975,0.7447118466289835,1327.4725274725274,-1.0,73.2054957739137,1.988676798824218,
2023-08-15 14:27:34.997000,-7.662650602409639,0.8313253012048193,-6.1325301204819285,0.9368485591661557,-7.421827099938688,-5.775597792765175,2.0,1.986080586080586,503.5042419771302,0.3791154361633935,-0.018413845347006876,0.8787366703572048,1322.3443223443223,-1.0,73.2054957739137,1.988655865642812,
2023-08-15 14:27:35.004000,-7.698795180722892,0.8313253012048193,-6.120481927710844,0.9294911097486205,-7.473329245861434,-5.78295524218271,2.0,1.986080586080586,503.5042419771302,0.29182448575258035,-0.3607015908163866,0.8441233028378288,1315.7509157509157,-1.0,73.2054957739137,1.988635026047134,
2023-08-15 14:27:35.012000,-7.674698795180723,0.8313253012048193,-6.1325301204819285,0.9343960760269773,-7.441446965052115,-5.841814837522992,2.0,1.986080586080586,503.5042419771302,0.2815686731542459,-0.21175922149058948,0.8402773731134555,1311.3553113553112,-1.0,73.2054957739137,1.988614273269578,
2023-08-15 14:27:35.020000,-7.686746987951808,0.8313253012048193,-6.156626506024097,0.9393010423053341,-7.458614347026364,-5.819742489270386,2.0,1.9846153846153847,503.87596899224803,0.30033214847619527,-0.4758463958976752,0.7619602587261811,1306.227106227106,-1.0,73.2054957739137,1.9885936005188776,
2023-08-15 14:27:35.027000,-7.686746987951808,0.8433734939759037,-6.156626506024097,0.9074187614960146,-7.524831391784181,-5.832004904966278,2.0,1.986080586080586,503.5042419771302,0.07447118466289683,-0.5817842783054603,0.5292232387390007,1304.7619047619046,-1.0,73.2054957739137,1.988573000958924,
2023-08-15 14:27:35.035000,-7.674698795180723,0.8313253012048193,-6.144578313253012,0.9981606376456161,-7.510116492949111,-5.78295524218271,2.0,1.986080586080586,503.5042419771302,-0.03228250101975592,0.22819183031291865,0.43342462560456874,1303.2967032967033,-1.0,73.2054957739137,1.988552468075429,
2023-08-15 14:27:35.043000,-7.674698795180723,0.8313253012048193,-6.144578313253012,0.9393010423053341,-7.488044144696505,-5.817290006131207,2.0,1.986080586080586,503.5042419771302,0.05815511916555022,-0.1870520365946053,0.5366820115377889,1300.3663003663003,-1.0,73.2054957739137,1.9885319952674163,
2023-08-15 14:27:35.050000,-7.686746987951808,0.8313253012048193,-6.1325301204819285,0.9809932556713672,-7.456161863887186,-5.802575107296137,2.0,1.986080586080586,503.5042419771302,-0.33937416234485185,-0.44787599790222066,0.6965794534118068,1298.168498168498,-1.0,73.2054957739137,1.9885115754726943,
2023-08-15 14:27:35.058000,-7.710843373493976,0.855421686746988,-6.144578313253012,0.9123237277743715,-7.456161863887186,-5.84426732066217,2.0,1.986080586080586,503.5042419771302,-0.15616805547462287,-0.6485636035196081,0.39496532836081893,1296.7032967032967,-1.0,73.2054957739137,1.988491202129412,
2023-08-15 14:27:35.066000,-7.710843373493976,0.8313253012048193,-6.120481927710844,0.9809932556713672,-7.478234212139792,-5.812385039852851,2.0,1.986080586080586,503.5042419771302,-0.32550550667210454,-0.851232445661675,0.2956704154769527,1296.7032967032967,-1.0,73.2054957739137,1.9884708691196735,
2023-08-15 14:27:35.073000,-7.698795180722892,0.8313253012048193,-6.120481927710844,0.956468424279583,-7.490496627835683,-5.780502759043531,2.0,1.986080586080586,503.5042419771302,-0.23693257968649875,-0.8204650078666751,0.3333139094458358,1298.168498168498,-1.0,73.2054957739137,1.9884505702919448,
2023-08-15 14:27:35.081000,-7.686746987951808,0.8433734939759037,-6.1084337349397595,0.9074187614960146,-7.458614347026364,-5.785407725321888,2.0,1.986080586080586,503.5042419771302,-0.32084377367286415,-0.4875007283957814,-0.10547170910786051,1296.7032967032967,-1.0,73.2054957739137,1.9884302990175187,
2023-08-15 14:27:35.089000,-7.686746987951808,0.8674698795180723,-6.096385542168675,0.9172286940527283,-7.488044144696505,-5.775597792765175,2.0,1.9875457875457876,503.13306302985626,-0.40289027445952924,-0.6461161936950053,0.09661441640930088,1295.2380952380952,-1.0,73.2054957739137,1.9884100487292877,
2023-08-15 14:27:35.096000,-7.662650602409639,0.8795180722891567,-6.120481927710844,1.0006131207847946,-7.461066830165542,-5.743715511955855,2.0,1.986080586080586,503.5042419771302,-0.2271429403880894,-0.6825942544140783,-0.09987762950877038,1294.5054945054944,-1.0,73.2054957739137,1.9883898138485137,
2023-08-15 14:27:35.104000,-7.650602409638554,0.855421686746988,-6.120481927710844,0.9687308399754752,-7.451256897608829,-5.809932556713672,2.0,1.986080586080586,503.5042419771302,-0.23798146961132627,-0.6732707884155923,-0.11223122195676248,1295.2380952380952,-1.0,73.2054957739137,1.9883695884268167,
2023-08-15 14:27:35.112000,-7.674698795180723,0.8313253012048193,-6.0843373493975905,0.9196811771919068,-7.497854077253218,-5.773145309625996,2.0,1.986080586080586,503.5042419771302,-0.204533535341762,-0.3630324573160068,0.05384301614125102,1298.168498168498,-1.0,73.2054957739137,1.9883493657013482,
2023-08-15 14:27:35.119000,-7.662650602409639,0.8433734939759037,-6.072289156626506,0.9025137952176578,-7.515021459227468,-5.778050275904353,2.0,1.986080586080586,503.5042419771302,-0.4933278946448336,0.0802983509119508,0.23530097313676487,1303.2967032967033,-1.0,73.2054957739137,1.9883291390535467,
2023-08-15 14:27:35.127000,-7.674698795180723,0.8674698795180723,-6.0843373493975905,0.9908031882280809,-7.488044144696505,-5.812385039852851,2.0,1.986080586080586,503.5042419771302,-0.44647747800244714,0.0884563836606267,0.01818075869704607,1309.89010989011,-1.0,73.2054957739137,1.988308902475333,
2023-08-15 14:27:35.135000,-7.686746987951808,0.8433734939759037,-6.1084337349397595,0.9196811771919068,-7.465971796443899,-5.822194972409564,2.0,1.986080586080586,503.5042419771302,0.04335411689295448,-0.020161995221722892,0.21548860788998406,1315.018315018315,-1.0,73.2054957739137,1.9882886500525034,
2023-08-15 14:27:35.142000,-7.698795180722892,0.8313253012048193,-6.144578313253012,0.9662783568362967,-7.490496627835683,-5.807480073574494,2.0,1.986080586080586,503.5042419771302,-0.06409882873958503,-0.1409008799021038,0.2588427247829377,1320.8791208791208,-1.0,73.2054957739137,1.988268376010187,
2023-08-15 14:27:35.150000,-7.698795180722892,0.8313253012048193,-6.144578313253012,0.8804414469650521,-7.429184549356223,-5.841814837522992,2.0,1.986080586080586,503.5042419771302,-0.12679913757939482,-0.14194976982693305,0.07155760153837158,1325.2747252747251,-1.0,73.2054957739137,1.9882480751465812,
2023-08-15 14:27:35.158000,-7.698795180722892,0.819277108433735,-6.096385542168675,0.944206008583691,-7.478234212139792,-5.812385039852851,2.0,1.986080586080586,503.5042419771302,-0.006176796223996482,-0.23646640638657368,-0.08297884738651655,1331.135531135531,-1.0,73.2054957739137,1.9882277423531598,
2023-08-15 14:27:35.165000,-7.674698795180723,0.855421686746988,-6.096385542168675,0.956468424279583,-7.470876762722256,-5.75107296137339,2.0,1.986080586080586,503.5042419771302,-0.0079249460987125,-0.14835965270089121,0.03729386399393927,1336.9963369963368,-1.0,73.2054957739137,1.9882073726272058,
2023-08-15 14:27:35.173000,-7.698795180722892,0.8433734939759037,-6.0843373493975905,0.9711833231146535,-7.468424279583077,-5.7363580625383195,2.0,1.9831501831501832,504.2482452899889,-0.34252083211933965,0.0756366179127104,-0.24182739933570344,1336.9963369963368,-1.0,73.2054957739137,1.9881869606261464,
2023-08-15 14:27:35.181000,-7.686746987951808,0.8433734939759037,-6.096385542168675,0.9908031882280809,-7.515021459227468,-5.79767014101778,2.0,1.986080586080586,503.5042419771302,-0.26408717440708573,-0.022026688421421484,-0.10314084260823944,1334.065934065934,-1.0,73.2054957739137,1.9881665006771274,
2023-08-15 14:27:35.188000,-7.710843373493976,0.8313253012048193,-6.1325301204819285,0.9221336603310851,-7.539546290619252,-5.824647455548742,2.0,1.9846153846153847,503.87596899224803,-0.4132626303828445,0.01083852922323862,-0.1029077559582769,1328.937728937729,-1.0,73.2054957739137,1.9881459875256182,
2023-08-15 14:27:35.196000,-7.710843373493976,0.8072289156626506,-6.1325301204819285,0.9294911097486205,-7.54199877375843,-5.822194972409564,2.0,1.986080586080586,503.5042419771302,-0.1165433249810621,-0.21409008799020968,-0.102208496008391,1323.076923076923,-1.0,73.2054957739137,1.9881254159899848,
2023-08-15 14:27:35.204000,-7.698795180722892,0.819277108433735,-6.120481927710844,0.8877988963825874,-7.453709380748007,-5.841814837522992,2.0,1.986080586080586,503.5042419771302,-0.25068469203426347,-0.5252607656896453,0.020744711846629245,1317.9487179487178,-1.0,73.2054957739137,1.988104780968869,
2023-08-15 14:27:35.211000,-7.710843373493976,0.819277108433735,-6.144578313253012,0.9662783568362967,-7.512568976088289,-5.787860208461066,2.0,1.986080586080586,503.5042419771302,-0.014684458947613166,-0.026921508070625294,0.27853854670473766,1315.018315018315,-1.0,73.2054957739137,1.9880840779755018,
2023-08-15 14:27:35.219000,-7.710843373493976,0.8433734939759037,-6.120481927710844,0.9858982219497241,-7.465971796443899,-5.760882893930104,2.0,1.9846153846153847,503.87596899224803,0.31186993764932064,-0.3405395955946637,0.4124468271079778,1313.5531135531135,-1.0,73.2054957739137,1.9880633026889585,
2023-08-15 14:27:35.227000,-7.698795180722892,0.8795180722891567,-6.0843373493975905,1.0226854690374003,-7.576333537706928,-5.755977927651747,2.0,1.9846153846153847,503.87596899224803,0.616747275799779,-0.5584756133092479,0.6828273410640409,1312.8205128205127,-1.0,73.2054957739137,1.9880424504705696,
2023-08-15 14:27:35.234000,-7.759036144578314,0.819277108433735,-6.060240963855422,0.8779889638258737,-7.492949110974862,-5.79767014101778,2.0,1.986080586080586,503.5042419771302,0.40289027445953096,-0.7863178136472223,1.191655497931356,1314.2857142857142,-1.0,73.2054957739137,1.988021516300836,
2023-08-15 14:27:35.242000,-7.734939759036145,0.8072289156626506,-6.060240963855422,0.8853464132434089,-7.461066830165542,-5.7657878602084605,2.0,1.986080586080586,503.5042419771302,1.304819066487967,-2.171435231047142,1.2597167997202956,1316.4835164835165,-1.0,73.2054957739137,1.9880004957335433,
2023-08-15 14:27:35.250000,-7.650602409638554,0.8433734939759037,-6.0361445783132535,0.9245861434702636,-7.458614347026364,-5.721643163703249,2.0,1.986080586080586,503.5042419771302,1.6354524794592389,-1.1815162286580043,0.2904259658528055,1317.216117216117,-1.0,73.2054957739137,1.9879793849710177,
2023-08-15 14:27:35.257000,-7.650602409638554,0.8433734939759037,-6.0361445783132535,0.9687308399754752,-7.512568976088289,-5.760882893930104,2.0,1.9846153846153847,503.87596899224803,1.1850125284074362,0.2868131227783922,1.1478352077384766,1317.9487179487178,-1.0,73.2054957739137,1.9879581804144097,
2023-08-15 14:27:35.265000,-7.674698795180723,0.8433734939759037,-6.060240963855422,0.9883507050889024,-7.446351931330471,-5.709380748007357,2.0,1.986080586080586,503.5042419771302,1.3805722277256565,1.0512207913291756,1.8759979022201505,1319.4139194139193,-1.0,73.2054957739137,1.9879368781794022,
2023-08-15 14:27:35.273000,-7.662650602409639,0.8674698795180723,-6.0361445783132535,0.9343960760269773,-7.41692213366033,-5.768240343347639,2.0,1.986080586080586,503.5042419771302,1.3174057455859216,0.6174465357496657,1.0734805664005598,1326.7399267399267,-1.0,73.2054957739137,1.9879154745253071,
2023-08-15 14:27:35.280000,-7.638554216867471,0.8674698795180723,-6.060240963855422,0.9221336603310851,-7.468424279583077,-5.770692826486818,2.0,1.986080586080586,503.5042419771302,1.058096847503059,0.7015908163859911,0.5391294213623917,1340.6593406593406,-1.0,73.2054957739137,1.987893966388468,
2023-08-15 14:27:35.288000,-7.650602409638554,0.819277108433735,-6.1084337349397595,0.9466584917228693,-7.426732066217045,-5.768240343347639,2.0,1.986080586080586,503.5042419771302,1.2739350853679863,0.4338907989044925,0.9095041081522052,1362.6373626373625,-1.0,73.2054957739137,1.9878723509329765,
2023-08-15 14:27:35.296000,-7.638554216867471,0.8313253012048193,-6.120481927710844,0.944206008583691,-7.409564684242795,-5.839362354383813,2.0,1.9846153846153847,503.87596899224803,1.226501952100694,0.8691801177087585,0.9748849134665811,1398.5347985347985,-1.0,73.2054957739137,1.9878506255596289,
2023-08-15 14:27:35.303000,-7.650602409638554,0.8313253012048193,-6.168674698795181,0.9785407725321887,-7.438994481912936,-5.878602084610668,2.0,1.986080586080586,503.5042419771302,0.8314200804148946,0.9169628809509934,0.9020453353534177,1443.2234432234432,-1.0,73.2054957739137,1.9878287874225635,
2023-08-15 14:27:35.311000,-7.698795180722892,0.8433734939759037,-6.168674698795181,0.956468424279583,-7.43408951563458,-5.8295524218271,2.0,1.9846153846153847,503.87596899224803,0.6989103199114266,1.219858982576774,0.845288736087641,1499.6336996336995,-1.0,73.2054957739137,1.987806833859453,
2023-08-15 14:27:35.319000,-7.674698795180723,0.819277108433735,-6.168674698795181,0.9540159411404046,-7.458614347026364,-5.841814837522992,2.0,1.986080586080586,503.5042419771302,0.6291008682477719,0.8216304411164852,0.7451780199289081,1564.102564102564,-1.0,73.2054957739137,1.9877847624334088,
2023-08-15 14:27:35.326000,-7.674698795180723,0.8674698795180723,-6.168674698795181,0.9245861434702636,-7.490496627835683,-5.817290006131207,2.0,1.9846153846153847,503.87596899224803,0.4862187518209887,1.0384010255812592,0.2018530388671984,1633.6996336996335,-1.0,73.2054957739137,1.987762570905455,
2023-08-15 14:27:35.334000,-7.662650602409639,0.855421686746988,-6.204819277108434,0.9711833231146535,-7.419374616799509,-5.878602084610668,2.0,1.9846153846153847,503.87596899224803,-0.08507662723617551,1.1972495775304466,-0.1691043645475209,1706.227106227106,788.970947265625,76.04842764862879,1.9877402577344885,
2023-08-15 14:27:35.341000,-7.650602409638554,0.819277108433735,-6.216867469879518,0.9049662783568363,-7.43408951563458,-5.92274678111588,2.0,1.9846153846153847,503.87596899224803,-0.22364664063865736,0.9257036303245735,0.06025289901520874,1775.8241758241757,-1.0,76.04842764862879,1.9877178214900049,
2023-08-15 14:27:35.349000,-7.650602409638554,0.8313253012048193,-6.204819277108434,0.8902513795217657,-7.502759043531575,-5.89086450030656,2.0,1.986080586080586,503.5042419771302,-0.25068469203426347,0.13530680030301323,-0.30452770817551406,1839.5604395604394,-1.0,76.04842764862879,1.9876952603685953,
2023-08-15 14:27:35.357000,-7.698795180722892,0.8072289156626506,-6.168674698795181,0.8583690987124463,-7.463519313304721,-5.839362354383813,2.0,1.9846153846153847,503.87596899224803,0.10430627585804997,-0.34298700541926475,0.04824893654215916,1895.2380952380952,-1.0,76.04842764862879,1.9876725727621505,
2023-08-15 14:27:35.364000,-7.698795180722892,0.7951807228915663,-6.156626506024097,0.9294911097486205,-7.500306560392397,-5.849172286940527,2.0,1.9846153846153847,503.87596899224803,0.10512207913291756,-0.35685566109201033,0.38529223238738997,1942.124542124542,-1.0,76.04842764862879,1.9876497573331604,
2023-08-15 14:27:35.372000,-7.710843373493976,0.7951807228915663,-6.1807228915662655,0.9589209074187615,-7.5076640098099325,-5.827099938687922,2.0,1.986080586080586,503.5042419771302,-0.1086183788823496,-0.049763999766912634,0.3236408134724086,1975.091575091575,-1.0,76.04842764862879,1.9876268124931034,
2023-08-15 14:27:35.380000,-7.72289156626506,0.8072289156626506,-6.1325301204819285,0.8976088289393009,-7.586143470263641,-5.822194972409564,2.0,1.986080586080586,503.5042419771302,-0.10372355923314405,-0.05151214964162865,0.32527242002214335,1993.4065934065932,-1.0,76.04842764862879,1.9876037373562727,
2023-08-15 14:27:35.387000,-7.72289156626506,0.8072289156626506,-6.1084337349397595,0.8976088289393009,-7.551808706315144,-5.780502759043531,2.0,1.9846153846153847,503.87596899224803,0.06899364838878884,-0.4537031641512729,0.35848726764174593,1997.8021978021977,-1.0,76.04842764862879,1.9875805318150326,
2023-08-15 14:27:35.395000,-7.72289156626506,0.7951807228915663,-6.060240963855422,0.944206008583691,-7.5959534028203555,-5.773145309625996,2.0,1.986080586080586,503.5042419771302,-0.2019695821921801,-0.621525552124002,0.20604859856651678,1985.3479853479853,-1.0,76.04842764862879,1.9875571955976838,
2023-08-15 14:27:35.403000,-7.686746987951808,0.783132530120482,-6.096385542168675,0.8804414469650521,-7.44880441446965,-5.773145309625996,2.0,1.9846153846153847,503.87596899224803,-0.009906182623390191,-0.5563778334595894,0.4986888875939634,1960.4395604395604,-1.0,76.04842764862879,1.9875337286977348,
2023-08-15 14:27:35.410000,-7.698795180722892,0.7951807228915663,-6.0843373493975905,0.927038626609442,-7.485591661557327,-5.800122624156959,2.0,1.9846153846153847,503.87596899224803,-0.35545714119223853,-0.33401316939572295,0.13169395722859947,1925.2747252747251,-1.0,76.04842764862879,1.9875101314148922,
2023-08-15 14:27:35.418000,-7.662650602409639,0.8072289156626506,-6.1084337349397595,0.9393010423053341,-7.458614347026364,-5.787860208461066,2.0,1.986080586080586,503.5042419771302,-0.1962589592681087,-0.23565060311170608,0.3308664996212339,1882.051282051282,-1.0,76.04842764862879,1.9874864042917535,
2023-08-15 14:27:35.426000,-7.638554216867471,0.819277108433735,-6.0843373493975905,0.956468424279583,-7.463519313304721,-5.75107296137339,2.0,1.986080586080586,503.5042419771302,-0.06969290833867559,-0.4747975059728442,0.5887768778043231,1832.234432234432,-1.0,76.04842764862879,1.987462549000711,
2023-08-15 14:27:35.433000,-7.650602409638554,0.8313253012048193,-6.096385542168675,0.9221336603310851,-7.475781729000612,-5.7657878602084605,2.0,1.986080586080586,503.5042419771302,-0.35266010139269327,-0.22387972728861905,0.4943767845696642,1778.7545787545787,-1.0,76.04842764862879,1.9874385674731696,
2023-08-15 14:27:35.441000,-7.662650602409639,0.8313253012048193,-6.0843373493975905,0.9196811771919068,-7.478234212139792,-5.84426732066217,2.0,1.9846153846153847,503.87596899224803,-0.08682477711089152,-0.049997086416876044,0.7050871161354231,1721.6117216117216,-1.0,76.04842764862879,1.9874144619789158,
2023-08-15 14:27:35.449000,-7.662650602409639,0.855421686746988,-6.1084337349397595,0.9760882893930104,-7.458614347026364,-5.787860208461066,2.0,1.986080586080586,503.5042419771302,0.05384301614125059,-0.0896218169104368,1.0213857001340252,1663.7362637362637,-1.0,76.04842764862879,1.9873902350662513,
2023-08-15 14:27:35.456000,-7.710843373493976,0.8313253012048193,-6.1084337349397595,0.927038626609442,-7.461066830165542,-5.748620478234212,2.0,1.9846153846153847,503.87596899224803,0.28576423285356295,0.39088631198648227,0.8638191247596292,1605.8608058608058,-1.0,76.04842764862879,1.987365889501652,
2023-08-15 14:27:35.464000,-7.710843373493976,0.855421686746988,-6.120481927710844,0.9834457388105456,-7.451256897608829,-5.832004904966278,2.0,1.9846153846153847,503.87596899224803,0.42573276615581834,0.2883281860031466,0.8443563894877921,1550.18315018315,-1.0,76.04842764862879,1.9873414278550352,
2023-08-15 14:27:35.472000,-7.710843373493976,0.8674698795180723,-6.156626506024097,1.0226854690374003,-7.512568976088289,-5.819742489270386,2.0,1.9846153846153847,503.87596899224803,-3.496299749425094E-4,-0.23273701998717997,0.88806013635569,1498.168498168498,-1.0,76.04842764862879,1.9873168525049516,
2023-08-15 14:27:35.479000,-7.686746987951808,0.8674698795180723,-6.1084337349397595,1.044757817290006,-7.502759043531575,-5.812385039852851,2.0,1.9831501831501832,504.2482452899889,0.41675893013227655,-0.033914107569489364,1.0353708991317523,1449.8168498168498,-1.0,76.04842764862879,1.9872921660636564,
2023-08-15 14:27:35.487000,-7.698795180722892,0.8795180722891567,-6.120481927710844,0.944206008583691,-7.527283874923359,-5.809932556713672,2.0,1.9846153846153847,503.87596899224803,0.60264553347707,0.18507080006992585,1.164967076510693,1404.3956043956043,-1.0,76.04842764862879,1.9872673713781146,
2023-08-15 14:27:35.495000,-7.674698795180723,0.8795180722891567,-6.1325301204819285,1.0594727161250765,-7.500306560392397,-5.846719803801348,2.0,1.9831501831501832,504.2482452899889,0.678049064739817,-0.0057106229240714,1.0525027679039678,1366.3003663003662,-1.0,76.04842764862879,1.987242471848541,
2023-08-15 14:27:35.502000,-7.650602409638554,0.8674698795180723,-6.1084337349397595,0.9809932556713672,-7.483139178418148,-5.832004904966278,2.0,1.9846153846153847,503.87596899224803,0.9645125575432667,0.24847036885962412,0.8338674902394956,1334.065934065934,-1.0,76.04842764862879,1.9872174705478654,
2023-08-15 14:27:35.510000,-7.662650602409639,0.8915662650602411,-6.1084337349397595,1.0349478847332925,-7.458614347026364,-5.7657878602084605,2.0,1.9846153846153847,503.87596899224803,0.9894528290892143,0.6057922032515596,1.2711380455684407,1308.4249084249084,-1.0,76.04842764862879,1.9871923706758787,
2023-08-15 14:27:35.518000,-7.638554216867471,0.8915662650602411,-6.144578313253012,0.9809932556713672,-7.43408951563458,-5.809932556713672,2.0,1.9846153846153847,503.87596899224803,1.0293106462327368,0.27212866383077905,1.319853155410524,1287.9120879120878,-1.0,76.04842764862879,1.987167176081343,
2023-08-15 14:27:35.525000,-7.650602409638554,0.8674698795180723,-6.168674698795181,0.9613733905579399,-7.510116492949111,-5.846719803801348,2.0,1.9846153846153847,503.87596899224803,1.022667676708817,0.3241069867723328,1.5059728454052788,1273.260073260073,-1.0,76.04842764862879,1.9871418907998655,
2023-08-15 14:27:35.533000,-7.662650602409639,0.8433734939759037,-6.156626506024097,0.956468424279583,-7.473329245861434,-5.839362354383813,2.0,1.9846153846153847,503.87596899224803,1.0124118641104825,-0.06747858516403449,1.2757997785676818,1261.5384615384614,-1.0,76.04842764862879,1.9871165190484654,
2023-08-15 14:27:35.541000,-7.662650602409639,0.855421686746988,-6.168674698795181,0.9981606376456161,-7.414469650521152,-5.827099938687922,2.0,1.9846153846153847,503.87596899224803,1.307732649612493,0.0067595128489024,1.3087815395373223,1253.4798534798533,-1.0,76.04842764862879,1.9870910652189977,
2023-08-15 14:27:35.548000,-7.650602409638554,0.8433734939759037,-6.156626506024097,1.0055180870631515,-7.40220723482526,-5.814837522992029,2.0,1.9846153846153847,503.87596899224803,1.1866441349571697,0.049297826466989284,1.1117067769943487,1247.6190476190475,-1.0,76.04842764862879,1.9870655338704812,
2023-08-15 14:27:35.556000,-7.638554216867471,0.8313253012048193,-6.1084337349397595,1.0251379521765787,-7.385039852851011,-5.814837522992029,2.0,1.9846153846153847,503.87596899224803,0.8385292232387395,0.31769710389837463,1.447934269564711,1244.6886446886447,-1.0,76.04842764862879,1.9870399297203958,
2023-08-15 14:27:35.564000,-7.662650602409639,0.855421686746988,-6.1325301204819285,0.944206008583691,-7.426732066217045,-5.790312691600245,2.0,1.9831501831501832,504.2482452899889,1.2258026921508072,0.29403880892721795,1.43033622749257,1246.8864468864467,-1.0,76.04842764862879,1.9870142576350107,
2023-08-15 14:27:35.571000,-7.650602409638554,0.8674698795180723,-6.120481927710844,0.9098712446351931,-7.426732066217045,-5.802575107296137,2.0,1.9831501831501832,504.2482452899889,1.1523803974127378,0.3153662373987527,0.8329351436396489,1252.7472527472526,-1.0,76.04842764862879,1.9869885221261574,
2023-08-15 14:27:35.579000,-7.674698795180723,0.855421686746988,-6.120481927710844,0.9834457388105456,-7.461066830165542,-5.817290006131207,2.0,1.9846153846153847,503.87596899224803,1.2450323407726815,0.04626770001748233,1.2299982518501247,1262.2710622710622,-1.0,76.04842764862879,1.9869627272676562,
2023-08-15 14:27:35.587000,-7.686746987951808,0.8313253012048193,-6.144578313253012,1.0006131207847946,-7.470876762722256,-5.802575107296137,2.0,1.9846153846153847,503.87596899224803,0.9698735504923955,-0.11561097838121367,1.4276557310180056,1274.7252747252746,-1.0,76.04842764862879,1.9869368776281902,
2023-08-15 14:27:35.594000,-7.674698795180723,0.8072289156626506,-6.1325301204819285,0.9393010423053341,-7.500306560392397,-5.834457388105457,2.0,1.9846153846153847,503.87596899224803,1.366120855428005,0.19544315599324114,1.77716916263621,1288.6446886446886,-1.0,76.04842764862879,1.9869109783245664,
2023-08-15 14:27:35.602000,-7.698795180722892,0.8072289156626506,-6.1807228915662655,0.9368485591661557,-7.453709380748007,-5.834457388105457,2.0,1.9846153846153847,503.87596899224803,1.0293106462327368,-0.03076743779499984,1.7268224462443906,1304.0293040293038,-1.0,76.04842764862879,1.9868850345493623,
2023-08-15 14:27:35.610000,-7.686746987951808,0.819277108433735,-6.156626506024097,1.0055180870631515,-7.441446965052115,-5.78295524218271,2.0,1.9846153846153847,503.87596899224803,1.67286288677816,0.10850183555736877,1.646990268632364,1320.14652014652,-1.0,76.04842764862879,1.9868590515560636,
2023-08-15 14:27:35.617000,-7.698795180722892,0.819277108433735,-6.1325301204819285,0.8976088289393009,-7.492949110974862,-5.834457388105457,2.0,1.9846153846153847,503.87596899224803,1.6086475147135944,-0.3752695064390189,1.8244857525785216,1336.9963369963368,-1.0,76.04842764862879,1.9868330346439267,
2023-08-15 14:27:35.625000,-7.698795180722892,0.819277108433735,-6.156626506024097,0.9221336603310851,-7.478234212139792,-5.809932556713672,2.0,1.9846153846153847,503.87596899224803,1.455159955713536,-0.19835673911776724,1.3797564244507892,1353.113553113553,-1.0,76.04842764862879,1.9868069891426974,
2023-08-15 14:27:35.633000,-7.674698795180723,0.8313253012048193,-6.156626506024097,0.9589209074187615,-7.414469650521152,-5.805027590435316,2.0,1.9831501831501832,504.2482452899889,1.5908163859914934,-0.6483305168696464,0.7069518093351198,1366.3003663003662,-1.0,76.04842764862879,1.9867809203972895,
2023-08-15 14:27:35.640000,-7.638554216867471,0.8313253012048193,-6.144578313253012,0.9858982219497241,-7.392397302268546,-5.834457388105457,2.0,1.9831501831501832,504.2482452899889,1.1289551890915446,-0.3788823495134318,0.8938873026047429,1379.4871794871794,-1.0,76.04842764862879,1.9867548337177598,
2023-08-15 14:27:35.648000,-7.626506024096386,0.8433734939759037,-6.1084337349397595,0.9000613120784794,-7.407112201103617,-5.805027590435316,2.0,1.9831501831501832,504.2482452899889,1.4053959559466234,-0.4537031641512729,0.9281510401491748,1392.6739926739926,-1.0,76.04842764862879,1.9867287337669508,
2023-08-15 14:27:35.656000,-7.638554216867471,0.8433734939759037,-6.144578313253012,0.9711833231146535,-7.392397302268546,-5.861434702636419,2.0,1.9846153846153847,503.87596899224803,1.3907114969990102,-0.4495076044519558,0.9141658411514479,1408.7912087912086,-1.0,76.04842764862879,1.9867026245769586,
2023-08-15 14:27:35.663000,-7.650602409638554,0.855421686746988,-6.156626506024097,0.9883507050889024,-7.48068669527897,-5.790312691600245,2.0,1.9831501831501832,504.2482452899889,1.4217120214439716,0.15080706252549397,1.206922673503875,1424.9084249084249,-1.0,76.04842764862879,1.9866765105133577,
2023-08-15 14:27:35.671000,-7.650602409638554,0.8795180722891567,-6.19277108433735,1.032495401594114,-7.421827099938688,-5.805027590435316,2.0,1.9846153846153847,503.87596899224803,1.2844239846162806,0.19695821921799375,1.0569314142532487,1438.095238095238,-1.0,76.04842764862879,1.9866503958335695,
2023-08-15 14:27:35.679000,-7.686746987951808,0.8674698795180723,-6.1807228915662655,0.9638258736971183,-7.458614347026364,-5.863887185775598,2.0,1.9846153846153847,503.87596899224803,1.2742847153429289,0.30394499155060817,0.9995920983625659,1449.084249084249,-1.0,76.04842764862879,1.9866242846339983,
2023-08-15 14:27:35.686000,-7.72289156626506,0.8795180722891567,-6.156626506024097,0.9711833231146535,-7.529736358062538,-5.800122624156959,2.0,1.9831501831501832,504.2482452899889,1.628809509935319,-0.18681894994464188,1.2593671697453532,1454.9450549450548,-1.0,76.04842764862879,1.9865981813599365,
2023-08-15 14:27:35.694000,-7.759036144578314,0.8915662650602411,-6.1325301204819285,1.0006131207847946,-7.554261189454322,-5.858982219497241,2.0,1.9846153846153847,503.87596899224803,1.1131052968941195,-0.33715983917021075,1.3027212866383082,1457.8754578754579,-1.0,76.04842764862879,1.9865720898408208,
2023-08-15 14:27:35.702000,-7.771084337349398,0.9036144578313253,-6.0843373493975905,1.003065603923973,-7.515021459227468,-5.787860208461066,2.0,1.9831501831501832,504.2482452899889,1.1488840976633075,-0.46862070974884945,1.6210011071615869,1456.4102564102564,-1.0,76.04842764862879,1.9865460136976698,
2023-08-15 14:27:35.709000,-7.746987951807229,0.9036144578313253,-6.1325301204819285,0.9760882893930104,-7.551808706315144,-5.861434702636419,2.0,1.9831501831501832,504.2482452899889,0.8772216071324518,-0.6137171493502703,1.447351552939805,1449.8168498168498,-1.0,76.04842764862879,1.9865199563631237,
2023-08-15 14:27:35.717000,-7.759036144578314,0.8674698795180723,-6.120481927710844,1.0079705702023298,-7.505211526670753,-5.814837522992029,2.0,1.9831501831501832,504.2482452899889,0.669774488666162,-0.9401550026222251,1.1700949828098595,1442.4908424908424,-1.0,76.04842764862879,1.9864939205403858,
2023-08-15 14:27:35.724000,-7.759036144578314,0.8674698795180723,-6.120481927710844,1.0275904353157572,-7.490496627835683,-5.785407725321888,2.0,1.9831501831501832,504.2482452899889,0.9239554804498575,-1.0648563603519612,1.123594196142416,1432.9670329670328,-1.0,76.04842764862879,1.9864679086460215,
2023-08-15 14:27:35.732000,-7.710843373493976,0.855421686746988,-6.1084337349397595,1.0079705702023298,-7.488044144696505,-5.738810545677498,2.0,1.9831501831501832,504.2482452899889,1.5118000116543318,-1.7546763009148654,1.3400151506322466,1423.4432234432234,-1.0,76.04842764862879,1.9864419227958945,
2023-08-15 14:27:35.740000,-7.650602409638554,0.8915662650602411,-6.060240963855422,1.0374003678724708,-7.446351931330471,-5.714285714285714,2.0,1.9831501831501832,504.2482452899889,1.4094749723209594,-1.922265602237631,1.1885088281568679,1411.7216117216117,-1.0,76.04842764862879,1.9864159647922137,
2023-08-15 14:27:35.747000,-7.590361445783133,0.9036144578313253,-6.060240963855422,1.0251379521765787,-7.35561005518087,-5.773145309625996,2.0,1.9831501831501832,504.2482452899889,1.4894236932579679,-2.823611677641163,0.9162636210011063,1402.197802197802,-1.0,76.04842764862879,1.9863900361118005,
2023-08-15 14:27:35.755000,-7.566265060240965,0.8674698795180723,-6.048192771084338,0.973635806253832,-7.296750459840588,-5.768240343347639,2.0,1.9831501831501832,504.2482452899889,1.568789697570072,-2.6795641279645714,0.6922673503875062,1392.6739926739926,-1.0,76.04842764862879,1.9863641383535684,
2023-08-15 14:27:35.763000,-7.542168674698796,0.8674698795180723,-6.0843373493975905,1.0177805027590434,-7.313917841814837,-5.805027590435316,2.0,1.9831501831501832,504.2482452899889,1.7249577530446931,-2.248004195559699,0.7592797622516178,1380.952380952381,-1.0,76.04842764862879,1.9863382727044225,
2023-08-15 14:27:35.770000,-7.518072289156627,0.8795180722891567,-6.1325301204819285,1.0349478847332925,-7.326180257510729,-5.841814837522992,2.0,1.9831501831501832,504.2482452899889,1.7121379872967784,-1.1204475263679279,0.36722801701532537,1367.7655677655678,-1.0,76.04842764862879,1.986312439510701,
2023-08-15 14:27:35.778000,-7.55421686746988,0.8795180722891567,-6.144578313253012,0.9858982219497241,-7.323727774371551,-5.881054567749846,2.0,1.9831501831501832,504.2482452899889,1.485577763533595,0.2593088980828627,-0.17178486102208554,1356.7765567765566,-1.0,76.04842764862879,1.986286638764356,
2023-08-15 14:27:35.786000,-7.578313253012048,0.8795180722891567,-6.168674698795181,0.9834457388105456,-7.313917841814837,-5.866339668914776,2.0,1.9816849816849815,504.6210720887246,0.9234893071499324,1.5842899597925526,0.10220849600839058,1343.5897435897434,-1.0,76.04842764862879,1.9862608700981594,
2023-08-15 14:27:35.793000,-7.602409638554217,0.8674698795180723,-6.204819277108434,0.8436541998773758,-7.409564684242795,-5.858982219497241,2.0,1.9831501831501832,504.2482452899889,0.9316473398986066,2.472932812773149,-0.16199522172367511,1332.6007326007325,-1.0,76.04842764862879,1.9862351327478847,
2023-08-15 14:27:35.801000,-7.638554216867471,0.819277108433735,-6.228915662650603,0.8976088289393009,-7.429184549356223,-5.971796443899448,2.0,1.9816849816849815,504.6210720887246,-0.00827457607365501,2.501485927393508,-0.6825942544140787,1323.8095238095236,-1.0,76.04842764862879,1.9862094259043401,
2023-08-15 14:27:35.809000,-7.626506024096386,0.7951807228915663,-6.240963855421687,0.9294911097486205,-7.419374616799509,-5.908031882280809,2.0,1.9831501831501832,504.2482452899889,-0.14626187285123093,2.437037468678982,-1.3225336518850885,1317.9487179487178,-1.0,76.04842764862879,1.9861837477996434,
2023-08-15 14:27:35.816000,-7.650602409638554,0.783132530120482,-6.253012048192772,0.9196811771919068,-7.338442673206622,-5.954629061925199,2.0,1.9831501831501832,504.2482452899889,-0.5721111823320301,2.433424625604569,-2.048715109842084,1315.018315018315,-1.0,76.04842764862879,1.9861580962006309,
2023-08-15 14:27:35.824000,-7.602409638554217,0.7951807228915663,-6.265060240963856,0.9172286940527283,-7.350705088902513,-6.052728387492336,2.0,1.9831501831501832,504.2482452899889,-1.0126449507604458,2.0977798496591107,-2.9985432084377366,1312.8205128205127,-1.0,76.04842764862879,1.9861324689036362,
2023-08-15 14:27:35.832000,-7.590361445783133,0.8072289156626506,-6.337349397590362,0.8534641324340895,-7.343347639484978,-6.050275904353157,2.0,1.9831501831501832,504.2482452899889,-1.6950061185245608,1.6740283200279702,-3.5307965736262448,1312.8205128205127,-1.0,76.04842764862879,1.986106862859677,
2023-08-15 14:27:35.839000,-7.578313253012048,0.8072289156626506,-6.373493975903615,0.8902513795217657,-7.328632740649907,-6.096873083997547,2.0,1.9831501831501832,504.2482452899889,-2.4179243633820864,1.8488433074995634,-3.9214497989627652,1311.3553113553112,-1.0,76.04842764862879,1.9860812746727683,
2023-08-15 14:27:35.847000,-7.578313253012048,0.783132530120482,-6.349397590361446,0.9172286940527283,-7.345800122624157,-6.072348252605763,2.0,1.9831501831501832,504.2482452899889,-3.060777343977623,1.3035370899131744,-3.5762484703688595,1309.1575091575091,-1.0,76.04842764862879,1.9860557006077233,
2023-08-15 14:27:35.855000,-7.602409638554217,0.783132530120482,-6.36144578313253,0.8436541998773758,-7.375229920294298,-6.050275904353157,2.0,1.9831501831501832,504.2482452899889,-3.161587320086241,1.3845347007750135,-3.8574675135481615,1307.6923076923076,-1.0,76.04842764862879,1.9860301366001318,
2023-08-15 14:27:35.862000,-7.626506024096386,0.7710843373493976,-6.325301204819278,0.8583690987124463,-7.362967504598405,-6.0110361741263025,2.0,1.9831501831501832,504.2482452899889,-3.6450090321076845,0.9294330167239673,-4.41279645708292,1308.4249084249084,-1.0,76.04842764862879,1.986004578268524,
2023-08-15 14:27:35.870000,-7.626506024096386,0.7349397590361446,-6.289156626506024,0.7896995708154506,-7.407112201103617,-5.949724095646842,2.0,1.9831501831501832,504.2482452899889,-4.276091136880134,0.23192121671231236,-4.809859565293398,1311.3553113553112,-1.0,76.04842764862879,1.9859790209287402,
2023-08-15 14:27:35.878000,-7.662650602409639,0.746987951807229,-6.19277108433735,0.8657265481299815,-7.473329245861434,-5.912936848559166,2.0,1.9831501831501832,504.2482452899889,-4.3266709399219145,-0.81125808519317,-5.230347881825067,1315.018315018315,-1.0,76.04842764862879,1.9859534596104695,
2023-08-15 14:27:35.885000,-7.674698795180723,0.746987951807229,-6.1807228915662655,0.8828939301042305,-7.502759043531575,-5.84426732066217,2.0,1.9831501831501832,504.2482452899889,-4.952625138395197,-1.2387390012237043,-5.260882232970106,1319.4139194139193,-1.0,76.04842764862879,1.9859278895338226,
2023-08-15 14:27:35.893000,-7.674698795180723,0.7590361445783133,-6.168674698795181,0.8559166155732679,-7.500306560392397,-5.868792152053954,2.0,1.9831501831501832,504.2482452899889,-5.166365596410464,-1.7120214439717958,-5.596760095565525,1320.8791208791208,-1.0,76.04842764862879,1.9859023060628844,
2023-08-15 14:27:35.901000,-7.686746987951808,0.7590361445783133,-6.168674698795181,0.8877988963825874,-7.443899448191293,-5.84426732066217,2.0,1.9831501831501832,504.2482452899889,-5.334304527708174,-1.4524794592389714,-5.963172309305984,1318.6813186813185,-1.0,76.04842764862879,1.9858767042402101,
2023-08-15 14:27:35.908000,-7.710843373493976,0.7349397590361446,-6.120481927710844,0.8485591661557327,-7.458614347026364,-5.79767014101778,2.0,1.9831501831501832,504.2482452899889,-5.334304527708174,-1.6051512149641622,-5.612027271138045,1317.216117216117,-1.0,76.04842764862879,1.9858510783574541,
2023-08-15 14:27:35.916000,-7.698795180722892,0.746987951807229,-6.0843373493975905,0.8485591661557327,-7.512568976088289,-5.733905579399141,2.0,1.9831501831501832,504.2482452899889,-5.486976283433365,-1.956296253132101,-5.566225744420487,1316.4835164835165,-1.0,76.04842764862879,1.9858254225102518,
2023-08-15 14:27:35.924000,-7.710843373493976,0.7349397590361446,-6.060240963855422,0.8436541998773758,-7.502759043531575,-5.726548129981606,2.0,1.9831501831501832,504.2482452899889,-4.983159489540235,-1.5593496882466051,-5.062408950527358,1318.6813186813185,-1.0,76.04842764862879,1.9857997305924087,
2023-08-15 14:27:35.931000,-7.698795180722892,0.7228915662650602,-6.0,0.8436541998773758,-7.517473942366646,-5.702023298589822,2.0,1.9831501831501832,504.2482452899889,-4.983159489540235,-1.5593496882466051,-5.062408950527358,1321.6117216117216,-1.0,76.04842764862879,1.9857739963610244,
2023-08-15 14:27:35.939000,-7.698795180722892,0.783132530120482,-6.0120481927710845,0.9417535254445125,-7.461066830165542,-5.635806253832005,2.0,1.9816849816849815,504.6210720887246,-4.815220558242525,-1.9715634287046202,-5.413553988695297,1323.076923076923,-1.0,76.04842764862879,1.985748213433393,
2023-08-15 14:27:35.947000,-7.686746987951808,0.7710843373493976,-5.975903614457832,0.8828939301042305,-7.519926425505824,-5.6701410177805025,2.0,1.9816849816849815,504.6210720887246,-4.784686207097487,-1.4372122836664523,-5.18454635510751,1325.2747252747251,-1.0,76.04842764862879,1.9857223748619741,
2023-08-15 14:27:35.954000,-7.72289156626506,0.746987951807229,-6.0,0.8485591661557327,-7.578786020846106,-5.697118332311465,2.0,1.9816849816849815,504.6210720887246,-4.799953382670006,-1.208204650078666,-4.497523454344152,1326.7399267399267,-1.0,76.04842764862879,1.985696473519269,
2023-08-15 14:27:35.962000,-7.771084337349398,0.7228915662650602,-5.987951807228916,0.7921520539546291,-7.546903740036787,-5.6627835683629675,2.0,1.9816849816849815,504.6210720887246,-4.158732008624205,-0.826525260765689,-4.02424101159606,1327.4725274725274,-1.0,76.04842764862879,1.9856705020946976,
2023-08-15 14:27:35.970000,-7.771084337349398,0.746987951807229,-5.975903614457832,0.927038626609442,-7.527283874923359,-5.64316370324954,2.0,1.9816849816849815,504.6210720887246,-3.5633121612959604,-0.3990443447351547,-3.5509585688479683,1327.4725274725274,-1.0,76.04842764862879,1.985644453126157,
2023-08-15 14:27:35.977000,-7.771084337349398,0.746987951807229,-5.975903614457832,0.8608215818516247,-7.5567136725935,-5.635806253832005,2.0,1.9831501831501832,504.2482452899889,-3.0900297185478687,-0.2158382378649257,-3.0013402482372813,1327.4725274725274,-1.0,76.04842764862879,1.9856183190313919,
2023-08-15 14:27:35.985000,-7.771084337349398,0.7590361445783133,-5.975903614457832,0.8804414469650521,-7.6180257510729605,-5.606376456161864,2.0,1.9816849816849815,504.6210720887246,-2.1892663597692428,0.48645183847095214,-3.154012003962472,1329.6703296703297,-1.0,76.04842764862879,1.9855920926317143,
2023-08-15 14:27:35.993000,-7.734939759036145,0.8313253012048193,-5.963855421686747,0.9368485591661557,-7.546903740036787,-5.68976088289393,2.0,1.9816849816849815,504.6210720887246,-2.2350678864868,1.4482838995396543,-3.0624089505273577,1331.135531135531,-1.0,76.04842764862879,1.985565766762173,
2023-08-15 14:27:36,-7.746987951807229,0.8313253012048193,-5.975903614457832,0.9123237277743715,-7.505211526670753,-5.6333537706928265,2.0,1.9816849816849815,504.6210720887246,-2.021327428471533,1.158207563661792,-2.1463784161762125,1332.6007326007325,-1.0,76.04842764862879,1.985539333319331,
2023-08-15 14:27:36.008000,-7.686746987951808,0.783132530120482,-6.0120481927710845,0.9147762109135499,-7.40220723482526,-5.711833231146535,2.0,1.9816849816849815,504.6210720887246,-1.303770176563136,0.30324573160072316,-2.1921799428937696,1334.065934065934,-1.0,76.04842764862879,1.9855127838165667,
2023-08-15 14:27:36.016000,-7.602409638554217,0.819277108433735,-6.0120481927710845,0.9098712446351931,-7.497854077253218,-5.721643163703249,2.0,1.9816849816849815,504.6210720887246,-0.8610220849600826,0.028436571295379638,-2.757065439076976,1333.3333333333333,-1.0,76.04842764862879,1.9854861099019352,
2023-08-15 14:27:36.023000,-7.578313253012048,0.7590361445783133,-6.072289156626506,0.8412017167381973,-7.360515021459227,-5.675045984058859,2.0,1.9816849816849815,504.6210720887246,-0.754151855952449,0.30324573160072316,-2.375386049763999,1329.6703296703297,-1.0,76.04842764862879,1.9854593038411115,
2023-08-15 14:27:36.031000,-7.614457831325302,0.7590361445783133,-6.0843373493975905,0.8853464132434089,-7.397302268546904,-5.807480073574494,2.0,1.9816849816849815,504.6210720887246,0.23821455626129143,1.18874191480683,-1.2150807062525486,1325.2747252747251,-1.0,76.04842764862879,1.9854323584750229,
2023-08-15 14:27:36.039000,-7.674698795180723,0.783132530120482,-6.120481927710844,0.8632740649908032,-7.473329245861434,-5.812385039852851,2.0,1.9816849816849815,504.6210720887246,0.7572985257269402,0.9444671056465247,-1.1692791795349915,1318.6813186813185,-1.0,76.04842764862879,1.9854052662982116,
2023-08-15 14:27:36.046000,-7.746987951807229,0.7349397590361446,-6.1084337349397595,0.7995095033721643,-7.522378908645003,-5.778050275904353,2.0,1.9816849816849815,504.6210720887246,0.9099702814521311,0.639123594196143,-0.5738593322067472,1312.8205128205127,-1.0,76.04842764862879,1.9853780200118885,
2023-08-15 14:27:36.054000,-7.771084337349398,0.746987951807229,-6.144578313253012,0.8828939301042305,-7.5812385039852845,-5.822194972409564,2.0,1.9816849816849815,504.6210720887246,2.1008099761086196,0.3337800827457613,0.3116368509993596,1305.4945054945053,-1.0,76.04842764862879,1.9853506129719087,
2023-08-15 14:27:36.062000,-7.807228915662651,0.746987951807229,-6.120481927710844,0.8804414469650521,-7.637645616186388,-5.7657878602084605,2.0,1.9816849816849815,504.6210720887246,2.009206922673505,0.7765281743488147,-0.008973836023541114,1299.6336996336995,-1.0,76.04842764862879,1.9853230387224992,
2023-08-15 14:27:36.069000,-7.819277108433735,0.7228915662650602,-6.060240963855422,0.8485591661557327,-7.654812998160637,-5.79767014101778,2.0,1.9816849816849815,504.6210720887246,1.9328710448109097,0.3337800827457613,-0.054775362741098364,1294.5054945054944,-1.0,76.04842764862879,1.9852952905635874,
2023-08-15 14:27:36.077000,-7.819277108433735,0.7349397590361446,-6.072289156626506,0.82158185162477,-7.578786020846106,-5.714285714285714,2.0,1.9816849816849815,504.6210720887246,2.467222189849078,0.44065031175339486,-0.25324864518384643,1292.3076923076922,-1.0,76.04842764862879,1.9852673620999026,
2023-08-15 14:27:36.084000,-7.771084337349398,0.746987951807229,-6.096385542168675,0.851011649294911,-7.591048436541999,-5.746167995095034,2.0,1.9816849816849815,504.6210720887246,2.207680205116253,-0.18530388671988754,-0.43645475205407547,1295.970695970696,-1.0,76.04842764862879,1.9852392476847924,
2023-08-15 14:27:36.092000,-7.771084337349398,0.7349397590361446,-6.096385542168675,0.7676272225628449,-7.549356223175965,-5.760882893930104,2.0,1.9802197802197803,504.9944506104328,2.528290892139154,-0.9333954897733227,-0.08530971388613653,1299.6336996336995,-1.0,76.04842764862879,1.985210941491705,
2023-08-15 14:27:36.100000,-7.72289156626506,0.6987951807228916,-6.1084337349397595,0.8362967504598405,-7.488044144696505,-5.795217657878601,2.0,1.9816849816849815,504.6210720887246,2.558825243284192,-0.9028611386282844,-0.36011887419148003,1305.4945054945053,-1.0,76.04842764862879,1.9851824375673217,
2023-08-15 14:27:36.107000,-7.626506024096386,0.7590361445783133,-6.120481927710844,0.8853464132434089,-7.431637032495401,-5.873697118332311,2.0,1.9816849816849815,504.6210720887246,2.772565701299459,-0.6280519783229409,-0.543324981061709,1312.8205128205127,-1.0,76.04842764862879,1.98515373069246,
2023-08-15 14:27:36.115000,-7.578313253012048,0.7951807228915663,-6.1325301204819285,0.9049662783568363,-7.399754751686082,-5.84426732066217,2.0,1.9816849816849815,504.6210720887246,1.8260008158032761,0.013169395722860555,-0.6196608589243044,1323.8095238095236,-1.0,76.04842764862879,1.9851248164324586,
2023-08-15 14:27:36.123000,-7.638554216867471,0.7951807228915663,-6.156626506024097,0.973635806253832,-7.429184549356223,-5.878602084610668,2.0,1.9816849816849815,504.6210720887246,1.276382495192589,0.639123594196143,-0.26851582075636554,1334.065934065934,-1.0,76.04842764862879,1.9850956906958408,
2023-08-15 14:27:36.130000,-7.662650602409639,0.819277108433735,-6.204819277108434,0.9540159411404046,-7.517473942366646,-5.930104230533415,2.0,1.9816849816849815,504.6210720887246,0.31455043412388684,1.4635510751121734,-0.08530971388613653,1349.4505494505493,-1.0,76.04842764862879,1.9850663492915934,
2023-08-15 14:27:36.138000,-7.72289156626506,0.8072289156626506,-6.216867469879518,0.9098712446351931,-7.44880441446965,-5.927651747394236,2.0,1.9816849816849815,504.6210720887246,0.03974127381854334,1.4635510751121734,-0.17691276732125102,1369.9633699633698,-1.0,76.04842764862879,1.9850367884680564,
2023-08-15 14:27:36.146000,-7.795180722891566,0.7590361445783133,-6.216867469879518,0.8338442673206621,-7.598405885959534,-5.979153893316983,2.0,1.9816849816849815,504.6210720887246,-0.4030068177845101,0.9291999300740056,0.20476662199172604,1399.2673992673992,-1.0,76.04842764862879,1.9850070053464373,
2023-08-15 14:27:36.153000,-7.83132530120482,0.7349397590361446,-6.228915662650603,0.9074187614960146,-7.63519313304721,-5.959534028203556,2.0,1.9816849816849815,504.6210720887246,-0.7083503292348917,1.0666045102266772,-0.16164559174873194,1438.8278388278388,-1.0,76.04842764862879,1.9849769974398388,
2023-08-15 14:27:36.161000,-7.891566265060241,0.746987951807229,-6.228915662650603,0.8534641324340895,-7.6621704475781724,-5.961986511342734,2.0,1.9816849816849815,504.6210720887246,-1.1663655964104642,-0.18530388671988754,-0.25324864518384643,1490.8424908424906,804.290771484375,74.59988616960729,1.9849467626636093,
2023-08-15 14:27:36.169000,-7.879518072289157,0.7349397590361446,-6.216867469879518,0.9294911097486205,-7.598405885959534,-5.93746167995095,2.0,1.9816849816849815,504.6210720887246,-1.6396480391585557,-0.9486626653458416,-0.6349280344968236,1550.18315018315,-1.0,74.59988616960729,1.9849162993444118,
2023-08-15 14:27:36.176000,-7.819277108433735,0.7590361445783133,-6.204819277108434,0.9147762109135499,-7.63519313304721,-5.881054567749846,2.0,1.9816849816849815,504.6210720887246,-2.1281976574791663,-2.597517627177903,-1.3372181108327013,1614.6520146520145,-1.0,74.59988616960729,1.9848856062279976,
2023-08-15 14:27:36.184000,-7.759036144578314,0.7590361445783133,-6.168674698795181,0.82158185162477,-7.492949110974862,-5.876149601471489,2.0,1.9816849816849815,504.6210720887246,-2.173999184196724,-4.200571062292407,-1.7036303245731594,1682.051282051282,-1.0,74.59988616960729,1.9848546824857562,
2023-08-15 14:27:36.192000,-7.686746987951808,0.7349397590361446,-6.1807228915662655,0.851011649294911,-7.500306560392397,-5.883507050889025,2.0,1.9816849816849815,504.6210720887246,-2.1434648330516857,-4.368509993590116,-1.1845463551075106,1748.7179487179485,-1.0,74.59988616960729,1.9848235277200672,
2023-08-15 14:27:36.199000,-7.650602409638554,0.6987951807228916,-6.1325301204819285,0.8264868179031268,-7.468424279583077,-5.780502759043531,2.0,1.9816849816849815,504.6210720887246,-2.021327428471533,-4.551716100460346,-0.6196608589243044,1812.4542124542124,-1.0,74.59988616960729,1.984792141968495,
2023-08-15 14:27:36.207000,-7.674698795180723,0.7228915662650602,-6.072289156626506,0.86817903126916,-7.441446965052115,-5.694665849172287,2.0,1.9816849816849815,504.6210720887246,-2.021327428471533,-4.551716100460346,-0.6196608589243044,1871.7948717948716,-1.0,74.59988616960729,1.984760525706892,
2023-08-15 14:27:36.215000,-7.674698795180723,0.7349397590361446,-6.0120481927710845,0.8755364806866952,-7.458614347026364,-5.6848559166155725,2.0,1.9816849816849815,504.6210720887246,-1.5480449857234413,-4.368509993590116,-0.03950818716857928,1923.8095238095236,-1.0,74.59988616960729,1.9847286798514439,
2023-08-15 14:27:36.222000,-7.674698795180723,0.783132530120482,-5.951807228915663,0.8657265481299815,-7.429184549356223,-5.557326793378295,2.0,1.9816849816849815,504.6210720887246,-1.303770176563136,-4.13950236000233,0.12843074412913064,1964.102564102564,-1.0,74.59988616960729,1.984696605759736,
2023-08-15 14:27:36.230000,-7.650602409638554,0.7951807228915663,-5.963855421686747,0.956468424279583,-7.470876762722256,-5.608828939301042,2.0,1.9816849816849815,504.6210720887246,-1.2121671231280216,-3.696754268399277,0.00629333954897797,1991.9413919413919,-1.0,74.59988616960729,1.9846643052308806,
2023-08-15 14:27:36.238000,-7.686746987951808,0.8072289156626506,-5.91566265060241,0.9393010423053341,-7.436541998773758,-5.599019006744328,2.0,1.9816849816849815,504.6210720887246,-1.1968999475555024,-2.6585863294679792,0.12843074412913064,2005.8608058608056,-1.0,74.59988616960729,1.9846317805047586,
2023-08-15 14:27:36.245000,-7.674698795180723,0.8313253012048193,-5.975903614457832,0.9662783568362967,-7.453709380748007,-5.638258736971183,2.0,1.9802197802197803,504.9944506104328,-0.9068236116776398,-2.2158382378649257,0.2658353242818024,2000.7326007326005,-1.0,74.59988616960729,1.984599034260488,
2023-08-15 14:27:36.253000,-7.674698795180723,0.8433734939759037,-5.987951807228916,0.9613733905579399,-7.49540159411404,-5.7069282648681785,2.0,1.9802197802197803,504.9944506104328,-0.8915564361051207,-0.8875939630557653,0.28110249985432145,1981.6849816849815,-1.0,74.59988616960729,1.9845660695792997,
2023-08-15 14:27:36.261000,-7.710843373493976,0.8433734939759037,-6.048192771084338,0.9809932556713672,-7.510116492949111,-5.7069282648681785,2.0,1.9802197802197803,504.9944506104328,-0.754151855952449,0.30324573160072316,1.0597284540527947,1947.9853479853477,-1.0,74.59988616960729,1.9845328898021106,
2023-08-15 14:27:36.268000,-7.734939759036145,0.819277108433735,-6.072289156626506,0.9147762109135499,-7.546903740036787,-5.748620478234212,2.0,1.9802197802197803,504.9944506104328,-0.3114037643493956,1.0360701590816392,1.3345376143581382,1906.9597069597069,-1.0,74.59988616960729,1.9844994980319588,
2023-08-15 14:27:36.276000,-7.759036144578314,0.8313253012048193,-6.096385542168675,0.9294911097486205,-7.6180257510729605,-5.809932556713672,2.0,1.9816849816849815,504.6210720887246,-0.28086941320435743,0.837596876638891,1.5635452479459244,1857.8754578754576,-1.0,74.59988616960729,1.9844658971945413,
2023-08-15 14:27:36.284000,-7.746987951807229,0.819277108433735,-6.120481927710844,0.9687308399754752,-7.522378908645003,-5.809932556713672,2.0,1.9816849816849815,504.6210720887246,0.20768020511625326,0.8986655789289674,1.655148301381039,1803.6630036630036,-1.0,74.59988616960729,1.984432091468667,
2023-08-15 14:27:36.291000,-7.746987951807229,0.8072289156626506,-6.096385542168675,0.927038626609442,-7.568976088289393,-5.790312691600245,2.0,1.9816849816849815,504.6210720887246,0.4366878387040395,0.455917487325914,0.9070566983276039,1742.8571428571427,-1.0,74.59988616960729,1.9843980858195935,
2023-08-15 14:27:36.299000,-7.734939759036145,0.8313253012048193,-6.096385542168675,0.9785407725321887,-7.524831391784181,-5.819742489270386,2.0,1.9816849816849815,504.6210720887246,0.6656954722918258,0.455917487325914,0.6627818891672985,1679.8534798534797,-1.0,74.59988616960729,1.9843638851109953,
2023-08-15 14:27:36.307000,-7.698795180722892,0.8313253012048193,-6.120481927710844,0.9662783568362967,-7.478234212139792,-5.84426732066217,2.0,1.9816849816849815,504.6210720887246,0.14661150282617694,-0.04789930656721578,0.08262921741157339,1616.117216117216,-1.0,74.59988616960729,1.9843294945877954,
2023-08-15 14:27:36.314000,-7.650602409638554,0.8433734939759037,-6.144578313253012,0.9638258736971183,-7.397302268546904,-5.849172286940527,2.0,1.9816849816849815,504.6210720887246,0.31455043412388684,-0.24637258900996387,-0.36011887419148003,1553.8461538461538,-1.0,74.59988616960729,1.9842949198662803,
2023-08-15 14:27:36.322000,-7.590361445783133,0.855421686746988,-6.1807228915662655,0.9589209074187615,-7.365419987737584,-5.8295524218271,2.0,1.9816849816849815,504.6210720887246,0.16187867839869602,0.2574442048831659,-0.6959967367868999,1495.2380952380952,-1.0,74.59988616960729,1.9842601669242537,
2023-08-15 14:27:36.330000,-7.542168674698796,0.8433734939759037,-6.168674698795181,0.9711833231146535,-7.291845493562231,-5.846719803801348,2.0,1.9816849816849815,504.6210720887246,-0.21980071091428108,0.4711846628984331,-1.3982868131227777,1441.7582417582416,-1.0,74.59988616960729,1.9842252420913036,
2023-08-15 14:27:36.337000,-7.55421686746988,0.8433734939759037,-6.1325301204819285,0.9098712446351931,-7.338442673206622,-5.8295524218271,2.0,1.9802197802197803,504.9944506104328,-0.3114037643493956,0.6849251209137002,-1.0776761260998768,1394.139194139194,-1.0,74.59988616960729,1.9841901520392755,
2023-08-15 14:27:36.345000,-7.530120481927711,0.8072289156626506,-6.144578313253012,0.9785407725321887,-7.291845493562231,-5.836909871244635,2.0,1.9816849816849815,504.6210720887246,-0.7388846803799299,1.18874191480683,-1.0776761260998768,1351.6483516483515,-1.0,74.59988616960729,1.9841549032803487,
2023-08-15 14:27:36.353000,-7.578313253012048,0.8072289156626506,-6.19277108433735,0.9074187614960146,-7.375229920294298,-5.878602084610668,2.0,1.9802197802197803,504.9944506104328,-0.8304877338150444,2.089505273585456,-1.2456150573975868,1314.2857142857142,-1.0,74.59988616960729,1.9841195025786,
2023-08-15 14:27:36.360000,-7.638554216867471,0.783132530120482,-6.19277108433735,0.9000613120784794,-7.483139178418148,-5.957081545064377,2.0,1.9802197802197803,504.9944506104328,-1.0594953674028307,2.058970922440418,-1.1234776528174342,1282.051282051282,-1.0,74.59988616960729,1.9840839569732975,
2023-08-15 14:27:36.368000,-7.686746987951808,0.7590361445783133,-6.204819277108434,0.7946045370938074,-7.5076640098099325,-5.851624770079705,2.0,1.9802197802197803,504.9944506104328,-1.1663655964104642,1.7994289377075934,-1.474622690985373,1254.9450549450548,-1.0,74.59988616960729,1.9840482732401437,
2023-08-15 14:27:36.376000,-7.710843373493976,0.7349397590361446,-6.19277108433735,0.8559166155732679,-7.490496627835683,-5.883507050889025,2.0,1.9802197802197803,504.9944506104328,-1.5633121612959604,1.4482838995396543,-1.7341646757181974,1236.6300366300366,-1.0,74.59988616960729,1.9840124583353902,
2023-08-15 14:27:36.383000,-7.72289156626506,0.7228915662650602,-6.168674698795181,0.8608215818516247,-7.515021459227468,-5.834457388105457,2.0,1.9802197802197803,504.9944506104328,-1.7923197948837466,0.6696579453411812,-2.1463784161762125,1222.7106227106226,-1.0,74.59988616960729,1.9839765193820065,
2023-08-15 14:27:36.391000,-7.710843373493976,0.7228915662650602,-6.1807228915662655,0.838749233599019,-7.522378908645003,-5.827099938687922,2.0,1.9816849816849815,504.6210720887246,-2.1434648330516857,0.7154594720587384,-2.4822562787716325,1213.1868131868132,-1.0,74.59988616960729,1.983940463655853,
2023-08-15 14:27:36.399000,-7.734939759036145,0.7228915662650602,-6.120481927710844,0.8461066830165542,-7.54199877375843,-5.812385039852851,2.0,1.9787545787545786,505.36838208071083,-2.5098770467921434,-0.09370083328477302,-2.6959967367868996,1209.5238095238094,-1.0,74.59988616960729,1.9839042990645503,
2023-08-15 14:27:36.406000,-7.734939759036145,0.6867469879518072,-6.156626506024097,0.82158185162477,-7.524831391784181,-5.834457388105457,2.0,1.9802197802197803,504.9944506104328,-2.769419031524968,-0.3379756424450784,-3.092943301672396,1211.7216117216117,-1.0,74.59988616960729,1.9838680341363946,
2023-08-15 14:27:36.414000,-7.686746987951808,0.6987951807228916,-6.1325301204819285,0.7749846719803801,-7.478234212139792,-5.819742489270386,2.0,1.9802197802197803,504.9944506104328,-2.8304877338150445,-0.5975176271779028,-3.0471417749548384,1219.047619047619,-1.0,74.59988616960729,1.9838316773103999,
2023-08-15 14:27:36.422000,-7.662650602409639,0.6987951807228916,-6.120481927710844,0.8632740649908032,-7.43408951563458,-5.760882893930104,2.0,1.9802197802197803,504.9944506104328,-2.9220907872501587,-0.3379756424450784,-3.321950935260182,1232.2344322344322,-1.0,74.59988616960729,1.9837952369964238,
2023-08-15 14:27:36.429000,-7.638554216867471,0.674698795180723,-6.1325301204819285,0.7602697731453096,-7.456161863887186,-5.819742489270386,2.0,1.9802197802197803,504.9944506104328,-3.288503000990617,-0.26163976458248295,-2.940271545947205,1246.153846153846,-1.0,74.59988616960729,1.9837587211419192,
2023-08-15 14:27:36.437000,-7.626506024096386,0.6867469879518072,-6.120481927710844,0.8044144696505211,-7.404659717964439,-5.846719803801348,2.0,1.9802197802197803,504.9944506104328,-2.9220907872501587,0.2574442048831659,-2.6959967367868996,1264.4688644688645,-1.0,74.59988616960729,1.9837221377465117,
2023-08-15 14:27:36.445000,-7.638554216867471,0.6626506024096386,-6.1084337349397595,0.8240343347639485,-7.414469650521152,-5.795217657878601,2.0,1.9802197802197803,504.9944506104328,-3.120564069692907,0.5780548919060666,-2.986073072664762,1284.9816849816848,-1.0,74.59988616960729,1.9836854952722398,
2023-08-15 14:27:36.452000,-7.650602409638554,0.6867469879518072,-6.120481927710844,0.762722256284488,-7.424279583077866,-5.738810545677498,2.0,1.9802197802197803,504.9944506104328,-2.6625488025173345,0.5627877163335475,-2.955538721519724,1309.1575091575091,-1.0,74.59988616960729,1.9836488016825033,
2023-08-15 14:27:36.460000,-7.662650602409639,0.6867469879518072,-6.1325301204819285,0.8240343347639485,-7.429184549356223,-5.758430410790925,2.0,1.9802197802197803,504.9944506104328,-2.815220558242525,0.8833984033564483,-2.543324981061709,1333.3333333333333,-1.0,74.59988616960729,1.9836120649564664,
2023-08-15 14:27:36.467000,-7.650602409638554,0.6867469879518072,-6.156626506024097,0.8485591661557327,-7.419374616799509,-5.868792152053954,2.0,1.9802197802197803,504.9944506104328,-3.0289610162577922,1.1124060369442346,-2.6807295612143807,1358.2417582417581,-1.0,74.59988616960729,1.9835752934992905,
2023-08-15 14:27:36.475000,-7.686746987951808,0.6987951807228916,-6.1084337349397595,0.8068669527896996,-7.485591661557327,-5.822194972409564,2.0,1.9802197802197803,504.9944506104328,-2.937357962822678,1.18874191480683,-2.634928034496823,1383.150183150183,-1.0,74.59988616960729,1.9835384956391313,
2023-08-15 14:27:36.483000,-7.686746987951808,0.6626506024096386,-6.1084337349397595,0.7896995708154506,-7.458614347026364,-5.873697118332311,2.0,1.9802197802197803,504.9944506104328,-2.8610220849600827,0.8070625254938529,-2.925004370374686,1408.058608058608,-1.0,74.59988616960729,1.9835016791588733,
2023-08-15 14:27:36.490000,-7.698795180722892,0.674698795180723,-6.1084337349397595,0.7995095033721643,-7.465971796443899,-5.787860208461066,2.0,1.9802197802197803,504.9944506104328,-2.8610220849600827,0.8070625254938529,-2.925004370374686,1427.8388278388277,-1.0,74.59988616960729,1.9834648518108933,
2023-08-15 14:27:36.498000,-7.686746987951808,0.6867469879518072,-6.144578313253012,0.7946045370938074,-7.456161863887186,-5.827099938687922,2.0,1.9802197802197803,504.9944506104328,-2.983159489540235,1.0666045102266772,-3.2150807062525484,1443.956043956044,-1.0,74.59988616960729,1.9834280217278728,
2023-08-15 14:27:36.506000,-7.686746987951808,0.6987951807228916,-6.144578313253012,0.8289393010423053,-7.49540159411404,-5.787860208461066,2.0,1.9802197802197803,504.9944506104328,-3.3037701765631358,0.5475205407610285,-3.0318745993823195,1454.9450549450548,-1.0,74.59988616960729,1.9833911969206126,
2023-08-15 14:27:36.513000,-7.710843373493976,0.6867469879518072,-6.1807228915662655,0.7896995708154506,-7.524831391784181,-5.868792152053954,2.0,1.9802197802197803,504.9944506104328,-3.0594953674028305,0.3490472583182804,-2.7112639123594184,1463.003663003663,-1.0,74.59988616960729,1.9833543852686903,
2023-08-15 14:27:36.521000,-7.710843373493976,0.674698795180723,-6.168674698795181,0.7774371551195585,-7.461066830165542,-5.856529736358063,2.0,1.9802197802197803,504.9944506104328,-3.364838878853212,-0.09370083328477302,-2.6654623856418613,1468.131868131868,-1.0,74.59988616960729,1.9833175945113708,
2023-08-15 14:27:36.529000,-7.698795180722892,0.6867469879518072,-6.144578313253012,0.9196811771919068,-7.426732066217045,-5.84426732066217,2.0,1.9802197802197803,504.9944506104328,-3.6091136880135175,0.30324573160072316,-2.7265310879319378,1467.3992673992673,-1.0,74.59988616960729,1.9832808322387985,
2023-08-15 14:27:36.536000,-7.710843373493976,0.710843373493976,-6.144578313253012,0.8093194359288779,-7.458614347026364,-5.834457388105457,2.0,1.9802197802197803,504.9944506104328,-3.4106404055707693,-0.13950236000233027,-2.8181341413670524,1464.4688644688645,-1.0,74.59988616960729,1.983244105883551,
2023-08-15 14:27:36.544000,-7.698795180722892,0.7228915662650602,-6.1084337349397595,0.7774371551195585,-7.48068669527897,-5.849172286940527,2.0,1.9802197802197803,504.9944506104328,-3.3495717032806933,-0.13950236000233027,-2.4822562787716325,1460.8058608058607,-1.0,74.59988616960729,1.9832074227125807,
2023-08-15 14:27:36.552000,-7.710843373493976,0.7228915662650602,-6.144578313253012,0.851011649294911,-7.5370938074800735,-5.814837522992029,2.0,1.9802197802197803,504.9944506104328,-3.715983917021151,-0.5669832760328646,-2.8639356680846095,1456.4102564102564,-1.0,74.59988616960729,1.9831707898196254,
2023-08-15 14:27:36.559000,-7.734939759036145,0.7710843373493976,-6.144578313253012,0.9049662783568363,-7.517473942366646,-5.849172286940527,2.0,1.9802197802197803,504.9944506104328,-3.670182390303594,-0.8875939630557653,-3.0166074238098,1451.2820512820513,-1.0,74.59988616960729,1.983134214575991,
2023-08-15 14:27:36.567000,-7.710843373493976,0.7590361445783133,-6.1325301204819285,0.8534641324340895,-7.5370938074800735,-5.849172286940527,2.0,1.9802197802197803,504.9944506104328,-3.853388497173823,-0.81125808519317,-2.940271545947205,1443.956043956044,-1.0,74.59988616960729,1.9830977040988909,
2023-08-15 14:27:36.575000,-7.710843373493976,0.783132530120482,-6.120481927710844,0.8976088289393009,-7.515021459227468,-5.871244635193133,2.0,1.9802197802197803,504.9944506104328,-3.7923197948837464,-0.6585863294679791,-3.1234776528174337,1435.8974358974358,-1.0,74.59988616960729,1.9830612648244004,
2023-08-15 14:27:36.582000,-7.698795180722892,0.7710843373493976,-6.1325301204819285,0.9000613120784794,-7.470876762722256,-5.809932556713672,2.0,1.9802197802197803,504.9944506104328,-4.097663306334129,-0.6891206806130172,-3.18454635510751,1426.3736263736262,-1.0,74.59988616960729,1.9830249029942009,
2023-08-15 14:27:36.590000,-7.698795180722892,0.7951807228915663,-6.1325301204819285,0.9172286940527283,-7.522378908645003,-5.807480073574494,2.0,1.9802197802197803,504.9944506104328,-3.7923197948837464,-0.6127848027504219,-2.955538721519724,1418.3150183150183,-1.0,74.59988616960729,1.9829886246503559,
2023-08-15 14:27:36.598000,-7.686746987951808,0.7951807228915663,-6.120481927710844,0.9294911097486205,-7.500306560392397,-5.785407725321888,2.0,1.9802197802197803,504.9944506104328,-3.8228541460287846,-0.3227084668725593,-3.321950935260182,1411.7216117216117,-1.0,74.59988616960729,1.9829524356308281,
2023-08-15 14:27:36.605000,-7.698795180722892,0.8072289156626506,-6.1084337349397595,0.9074187614960146,-7.48068669527897,-5.805027590435316,2.0,1.9802197802197803,504.9944506104328,-4.158732008624205,-0.4295786958801929,-3.0776761260998766,1404.3956043956043,-1.0,74.59988616960729,1.982916341565795,
2023-08-15 14:27:36.613000,-7.710843373493976,0.7951807228915663,-6.096385542168675,0.8779889638258737,-7.456161863887186,-5.841814837522992,2.0,1.9802197802197803,504.9944506104328,-4.128197657479166,-0.4295786958801929,-3.1998135306800295,1396.3369963369962,-1.0,74.59988616960729,1.9828803478747974,
2023-08-15 14:27:36.621000,-7.674698795180723,0.7590361445783133,-6.1325301204819285,0.8927038626609441,-7.578786020846106,-5.839362354383813,2.0,1.9802197802197803,504.9944506104328,-3.9755259017539757,-0.6127848027504219,-3.2456150573975866,1385.3479853479853,-1.0,74.59988616960729,1.9828444597647483,
2023-08-15 14:27:36.628000,-7.686746987951808,0.783132530120482,-6.1084337349397595,0.8828939301042305,-7.451256897608829,-5.785407725321888,2.0,1.9802197802197803,504.9944506104328,-4.173999184196724,-0.6585863294679791,-3.154012003962472,1369.9633699633698,-1.0,74.59988616960729,1.9828086817709925,
2023-08-15 14:27:36.636000,-7.698795180722892,0.7951807228915663,-6.072289156626506,0.838749233599019,-7.446351931330471,-5.780502759043531,2.0,1.9802197802197803,504.9944506104328,-4.189266359769243,-1.1471359477885898,-3.2608822329701055,1353.8461538461538,-1.0,74.59988616960729,1.9827730182822776,
2023-08-15 14:27:36.644000,-7.674698795180723,0.783132530120482,-6.096385542168675,0.8853464132434089,-7.48068669527897,-5.778050275904353,2.0,1.9802197802197803,504.9944506104328,-3.9755259017539757,-0.3227084668725593,-3.2608822329701055,1338.4615384615383,-1.0,74.59988616960729,1.982737473962696,
2023-08-15 14:27:36.651000,-7.674698795180723,0.783132530120482,-6.072289156626506,0.9049662783568363,-7.451256897608829,-5.741263028816676,2.0,1.9787545787545786,505.36838208071083,-4.021327428471533,-0.15476953557484935,-3.3982868131227773,1326.007326007326,-1.0,74.59988616960729,1.9827020532614468,
2023-08-15 14:27:36.659000,-7.698795180722892,0.7590361445783133,-6.060240963855422,0.8608215818516247,-7.468424279583077,-5.785407725321888,2.0,1.9787545787545786,505.36838208071083,-3.9602587261814564,0.013169395722860555,-3.5662257444204872,1317.216117216117,-1.0,74.59988616960729,1.982666759923593,
2023-08-15 14:27:36.667000,-7.710843373493976,0.7710843373493976,-6.0843373493975905,0.8436541998773758,-7.485591661557327,-5.75107296137339,2.0,1.9802197802197803,504.9944506104328,-3.5175106345784033,-0.5211817493153074,-3.3830196375502584,1309.89010989011,-1.0,74.59988616960729,1.9826315969222785,
2023-08-15 14:27:36.674000,-7.698795180722892,0.7590361445783133,-6.0843373493975905,0.851011649294911,-7.539546290619252,-5.768240343347639,2.0,1.9802197802197803,504.9944506104328,-3.7770526193112275,-0.5975176271779028,-3.5509585688479683,1304.7619047619046,-1.0,74.59988616960729,1.9825965674090869,
2023-08-15 14:27:36.682000,-7.686746987951808,0.746987951807229,-6.0843373493975905,0.9343960760269773,-7.485591661557327,-5.709380748007357,2.0,1.9802197802197803,504.9944506104328,-3.7617854437387086,-0.18530388671988754,-3.5967600955655255,1299.6336996336995,-1.0,74.59988616960729,1.982561674786413,
2023-08-15 14:27:36.690000,-7.674698795180723,0.746987951807229,-6.060240963855422,0.8779889638258737,-7.502759043531575,-5.741263028816676,2.0,1.9802197802197803,504.9944506104328,-3.364838878853212,-0.18530388671988754,-3.734164675718197,1296.7032967032967,-1.0,74.59988616960729,1.982526922255705,
2023-08-15 14:27:36.697000,-7.710843373493976,0.746987951807229,-6.060240963855422,0.8485591661557327,-7.532188841201716,-5.709380748007357,2.0,1.9802197802197803,504.9944506104328,-3.7617854437387086,-0.09370083328477302,-3.3982868131227773,1298.168498168498,-1.0,74.59988616960729,1.9824923128245728,
2023-08-15 14:27:36.705000,-7.686746987951808,0.7590361445783133,-6.0843373493975905,0.8485591661557327,-7.505211526670753,-5.814837522992029,2.0,1.9787545787545786,505.36838208071083,-3.319037352135655,0.13530680030301323,-3.5814929199930066,1301.098901098901,-1.0,74.59988616960729,1.9824578493148703,
2023-08-15 14:27:36.713000,-7.698795180722892,0.746987951807229,-6.096385542168675,0.8583690987124463,-7.534641324340895,-5.753525444512569,2.0,1.9787545787545786,505.36838208071083,-3.715983917021151,-0.15476953557484935,-3.6425616222830826,1304.0293040293038,-1.0,74.59988616960729,1.9824235347948171,
2023-08-15 14:27:36.720000,-7.674698795180723,0.7349397590361446,-6.1084337349397595,0.8706315144083384,-7.43408951563458,-5.807480073574494,2.0,1.9787545787545786,505.36838208071083,-4.051861779616571,0.5627877163335475,-3.2914165841151437,1306.9597069597069,-1.0,74.59988616960729,1.9823893714665215,
2023-08-15 14:27:36.728000,-7.746987951807229,0.7349397590361446,-6.072289156626506,0.8927038626609441,-7.492949110974862,-5.817290006131207,2.0,1.9802197802197803,504.9944506104328,-3.5633121612959604,0.5322533651885094,-3.4288211642678155,1309.89010989011,-1.0,74.59988616960729,1.9823553607447721,
2023-08-15 14:27:36.736000,-7.734939759036145,0.7228915662650602,-6.096385542168675,0.7896995708154506,-7.539546290619252,-5.800122624156959,2.0,1.9802197802197803,504.9944506104328,-3.9755259017539757,0.3490472583182804,-3.2914165841151437,1312.8205128205127,-1.0,74.59988616960729,1.9823215042141673,
2023-08-15 14:27:36.743000,-7.734939759036145,0.7349397590361446,-6.120481927710844,0.8902513795217657,-7.564071122011036,-5.763335377069282,2.0,1.9787545787545786,505.36838208071083,-3.7312510925936704,0.2421770293106468,-3.154012003962472,1314.2857142857142,-1.0,74.59988616960729,1.9822878032846436,
2023-08-15 14:27:36.751000,-7.759036144578314,0.7590361445783133,-6.1084337349397595,0.8191293684855916,-7.54199877375843,-5.792765174739423,2.0,1.9787545787545786,505.36838208071083,-3.8228541460287846,0.05897092244041781,-2.940271545947205,1317.216117216117,-1.0,74.59988616960729,1.98225425874323,
2023-08-15 14:27:36.759000,-7.783132530120482,0.7349397590361446,-6.0843373493975905,0.838749233599019,-7.539546290619252,-5.807480073574494,2.0,1.9787545787545786,505.36838208071083,-3.838121321601304,0.13530680030301323,-3.1234776528174337,1320.14652014652,-1.0,74.59988616960729,1.9822208711501907,
2023-08-15 14:27:36.766000,-7.783132530120482,0.7590361445783133,-6.072289156626506,0.9172286940527283,-7.583690987124463,-5.785407725321888,2.0,1.9787545787545786,505.36838208071083,-3.838121321601304,0.13530680030301323,-3.1234776528174337,1321.6117216117216,-1.0,74.59988616960729,1.9821876412353798,
2023-08-15 14:27:36.774000,-7.83132530120482,0.746987951807229,-6.096385542168675,0.8583690987124463,-7.564071122011036,-5.760882893930104,2.0,1.9787545787545786,505.36838208071083,-3.8991900238913804,-0.13950236000233027,-3.321950935260182,1323.076923076923,-1.0,74.59988616960729,1.9821545689579076,
2023-08-15 14:27:36.782000,-7.807228915662651,0.746987951807229,-6.0843373493975905,0.8730839975475169,-7.630288166768853,-5.768240343347639,2.0,1.9787545787545786,505.36838208071083,-3.853388497173823,-0.5059145737427883,-3.2608822329701055,1323.076923076923,-1.0,74.59988616960729,1.982121653583147,
2023-08-15 14:27:36.789000,-7.807228915662651,0.7590361445783133,-6.0843373493975905,0.9098712446351931,-7.5444512568976085,-5.719190680564071,2.0,1.9787545787545786,505.36838208071083,-4.40300681778451,-0.5975176271779028,-3.474622690985373,1323.8095238095236,-1.0,74.59988616960729,1.9820888941804091,
2023-08-15 14:27:36.797000,-7.783132530120482,0.746987951807229,-6.0843373493975905,0.8902513795217657,-7.58859595340282,-5.780502759043531,2.0,1.9787545787545786,505.36838208071083,-4.173999184196724,-0.8723267874832463,-3.367752461977739,1324.5421245421244,-1.0,74.59988616960729,1.982056290086022,
2023-08-15 14:27:36.805000,-7.783132530120482,0.7590361445783133,-6.060240963855422,0.8583690987124463,-7.539546290619252,-5.790312691600245,2.0,1.9787545787545786,505.36838208071083,-4.128197657479166,-0.8723267874832463,-3.2303478818250673,1324.5421245421244,-1.0,74.59988616960729,1.9820238403836363,
2023-08-15 14:27:36.812000,-7.771084337349398,0.7710843373493976,-6.024096385542169,0.9000613120784794,-7.586143470263641,-5.790312691600245,2.0,1.9787545787545786,505.36838208071083,-4.021327428471533,-1.2845405279412616,-2.8792028436571284,1323.8095238095236,-1.0,74.59988616960729,1.9819915434887616,
2023-08-15 14:27:36.820000,-7.795180722891566,0.7590361445783133,-6.0361445783132535,0.9221336603310851,-7.659717964438994,-5.6627835683629675,2.0,1.9787545787545786,505.36838208071083,-4.143464833051685,-1.1776702989336278,-2.573859332206747,1323.076923076923,-1.0,74.59988616960729,1.981959397646705,
2023-08-15 14:27:36.828000,-7.807228915662651,0.7710843373493976,-6.0120481927710845,0.9098712446351931,-7.600858369098712,-5.726548129981606,2.0,1.9787545787545786,505.36838208071083,-3.7617854437387086,-1.0860672454985134,-2.466989103199113,1321.6117216117216,-1.0,74.59988616960729,1.9819274009381167,
2023-08-15 14:27:36.835000,-7.807228915662651,0.7590361445783133,-6.0120481927710845,0.8853464132434089,-7.671980380134886,-5.68976088289393,2.0,1.9787545787545786,505.36838208071083,-3.715983917021151,-1.2540061767962234,-1.8868364314433883,1319.4139194139193,-1.0,74.59988616960729,1.9818955517426928,
2023-08-15 14:27:36.843000,-7.819277108433735,0.746987951807229,-5.987951807228916,0.8657265481299815,-7.6817903126916,-5.709380748007357,2.0,1.9787545787545786,505.36838208071083,-3.654915214731075,-0.8875939630557653,-1.8563020802983503,1315.018315018315,-1.0,74.59988616960729,1.9818638482202235,
2023-08-15 14:27:36.850000,-7.855421686746988,0.7590361445783133,-6.0,0.9491109748620478,-7.63519313304721,-5.702023298589822,2.0,1.9787545787545786,505.36838208071083,-3.3037701765631358,-0.826525260765689,-1.4593555154128541,1309.89010989011,-1.0,74.59988616960729,1.9818322883538395,
2023-08-15 14:27:36.858000,-7.819277108433735,0.7349397590361446,-6.0,0.7774371551195585,-7.576333537706928,-5.726548129981606,2.0,1.9772893772893774,505.74286772878844,-3.5175106345784033,-0.4448458714527119,-1.3372181108327013,1304.0293040293038,-1.0,74.59988616960729,1.98180086992378,
2023-08-15 14:27:36.866000,-7.83132530120482,0.7228915662650602,-6.024096385542169,0.8313917841814837,-7.5812385039852845,-5.682403433476394,2.0,1.9787545787545786,505.36838208071083,-3.670182390303594,-1.1166015966435516,-1.092943301672396,1301.098901098901,-1.0,74.59988616960729,1.9817695900580812,
2023-08-15 14:27:36.873000,-7.807228915662651,0.710843373493976,-6.048192771084338,0.8412017167381973,-7.5738810545677495,-5.6922133660331085,2.0,1.9787545787545786,505.36838208071083,-2.8915564361051205,-0.9333954897733227,-0.7570654390769762,1299.6336996336995,-1.0,74.59988616960729,1.9817384460848455,
2023-08-15 14:27:36.881000,-7.795180722891566,0.7228915662650602,-6.048192771084338,0.8264868179031268,-7.600858369098712,-5.711833231146535,2.0,1.9787545787545786,505.36838208071083,-3.334304527708174,-0.7501893829030936,-0.5127906299166709,1298.9010989010987,-1.0,74.59988616960729,1.9817074355751683,
2023-08-15 14:27:36.889000,-7.771084337349398,0.7349397590361446,-6.0361445783132535,0.7847946045370937,-7.568976088289393,-5.731453096259963,2.0,1.9787545787545786,505.36838208071083,-2.9984266651127545,-0.276906940155002,-0.6807295612143808,1301.8315018315018,-1.0,74.59988616960729,1.9816765554377007,
2023-08-15 14:27:36.896000,-7.734939759036145,0.7590361445783133,-6.048192771084338,0.9319435928877988,-7.49540159411404,-5.78295524218271,2.0,1.9787545787545786,505.36838208071083,-3.532777810150922,-0.01736495542217761,-0.5127906299166709,1306.9597069597069,-1.0,74.59988616960729,1.9816458024539578,
2023-08-15 14:27:36.904000,-7.710843373493976,0.746987951807229,-6.072289156626506,0.8583690987124463,-7.463519313304721,-5.770692826486818,2.0,1.9787545787545786,505.36838208071083,-3.6091136880135175,-0.46011304702523104,-0.711263912359419,1312.087912087912,-1.0,74.59988616960729,1.9816151737095296,
2023-08-15 14:27:36.912000,-7.686746987951808,0.710843373493976,-6.1084337349397595,0.8264868179031268,-7.470876762722256,-5.768240343347639,2.0,1.9787545787545786,505.36838208071083,-3.319037352135655,-0.15476953557484935,-0.8639356680846098,1315.018315018315,-1.0,74.59988616960729,1.9815846656542297,
2023-08-15 14:27:36.919000,-7.614457831325302,0.7228915662650602,-6.1084337349397595,0.86817903126916,-7.387492335990189,-5.817290006131207,2.0,1.9787545787545786,505.36838208071083,-3.486976283433365,-0.23110541343744478,-0.894470019229648,1320.14652014652,-1.0,74.59988616960729,1.981554274180038,
2023-08-15 14:27:36.927000,-7.626506024096386,0.746987951807229,-6.096385542168675,0.8461066830165542,-7.380134886572654,-5.778050275904353,2.0,1.9787545787545786,505.36838208071083,-3.5938465124409986,-0.23110541343744478,-0.8792028436571289,1326.7399267399267,-1.0,74.59988616960729,1.9815239955780701,
2023-08-15 14:27:36.935000,-7.602409638554217,0.746987951807229,-6.096385542168675,0.8461066830165542,-7.389944819129368,-5.753525444512569,2.0,1.9787545787545786,505.36838208071083,-3.548044985723441,-0.15476953557484935,-1.0318745993823197,1335.5311355311355,-1.0,74.59988616960729,1.9814938260206043,
2023-08-15 14:27:36.942000,-7.590361445783133,0.7590361445783133,-6.1084337349397595,0.8927038626609441,-7.397302268546904,-5.805027590435316,2.0,1.9787545787545786,505.36838208071083,-3.456441932288327,0.5322533651885094,-1.108210477244915,1349.4505494505493,-1.0,74.59988616960729,1.9814637616057604,
2023-08-15 14:27:36.950000,-7.590361445783133,0.783132530120482,-6.120481927710844,0.9049662783568363,-7.41692213366033,-5.827099938687922,2.0,1.9787545787545786,505.36838208071083,-3.624380863586037,0.3337800827457613,-1.5814929199930068,1367.7655677655678,-1.0,74.59988616960729,1.9814337987909876,
2023-08-15 14:27:36.958000,-7.638554216867471,0.8072289156626506,-6.120481927710844,0.8877988963825874,-7.441446965052115,-5.790312691600245,2.0,1.9787545787545786,505.36838208071083,-3.654915214731075,0.37958160946331854,-1.7494318512907165,1394.8717948717947,-1.0,74.59988616960729,1.981403933455733,
2023-08-15 14:27:36.965000,-7.638554216867471,0.7951807228915663,-6.144578313253012,0.8976088289393009,-7.421827099938688,-5.795217657878601,2.0,1.9787545787545786,505.36838208071083,-3.6091136880135175,0.8223297010663719,-1.9937066604510216,1428.5714285714284,-1.0,74.59988616960729,1.9813741609821036,
2023-08-15 14:27:36.973000,-7.626506024096386,0.7951807228915663,-6.120481927710844,0.8853464132434089,-7.399754751686082,-5.805027590435316,2.0,1.9787545787545786,505.36838208071083,-3.5175106345784033,0.9750014567915628,-2.390653225336518,1473.9926739926739,-1.0,74.59988616960729,1.9813444767568977,
2023-08-15 14:27:36.981000,-7.638554216867471,0.8072289156626506,-6.1325301204819285,0.8951563458001226,-7.421827099938688,-5.817290006131207,2.0,1.9787545787545786,505.36838208071083,-4.265602237631838,1.2345434415243872,-2.8944700192296478,1527.4725274725274,-1.0,74.59988616960729,1.9813148766397297,
2023-08-15 14:27:36.988000,-7.626506024096386,0.8072289156626506,-6.144578313253012,0.8730839975475169,-7.404659717964439,-5.817290006131207,2.0,1.9787545787545786,505.36838208071083,-4.2350678864868,1.158207563661792,-2.970805897092243,1586.8131868131868,-1.0,74.59988616960729,1.9812853564490942,
2023-08-15 14:27:36.996000,-7.638554216867471,0.7951807228915663,-6.1325301204819285,0.86817903126916,-7.370324954015941,-5.832004904966278,2.0,1.9787545787545786,505.36838208071083,-4.387739642211991,1.219276265951868,-3.703630324573159,1650.5494505494505,-1.0,74.59988616960729,1.9812559120112276,
2023-08-15 14:27:37.004000,-7.650602409638554,0.783132530120482,-6.1084337349397595,0.944206008583691,-7.343347639484978,-5.876149601471489,2.0,1.9787545787545786,505.36838208071083,-4.647281626944816,1.7078258842724787,-3.9479051337334643,1715.018315018315,-1.0,74.59988616960729,1.9812265395979174,
2023-08-15 14:27:37.011000,-7.626506024096386,0.783132530120482,-6.168674698795181,0.9662783568362967,-7.41692213366033,-5.883507050889025,2.0,1.9772893772893774,505.74286772878844,-4.937357962822678,1.4635510751121734,-4.573859332206747,1774.3589743589741,-1.0,74.59988616960729,1.9811972354514522,
2023-08-15 14:27:37.019000,-7.614457831325302,0.8072289156626506,-6.168674698795181,0.8902513795217657,-7.412017167381974,-5.898221949724095,2.0,1.9787545787545786,505.36838208071083,-5.39537322999825,1.8604976399976696,-4.7570654390769755,1828.5714285714284,827.2705078125,72.52766710934041,1.9811679957676918,
2023-08-15 14:27:37.027000,-7.614457831325302,0.7951807228915663,-6.1807228915662655,0.9294911097486205,-7.365419987737584,-5.903126916002452,2.0,1.9787545787545786,505.36838208071083,-5.929724375036418,1.8604976399976696,-5.291416584115144,1873.9926739926739,-1.0,72.52766710934041,1.981138816609535,
2023-08-15 14:27:37.034000,-7.638554216867471,0.8072289156626506,-6.168674698795181,0.9123237277743715,-7.389944819129368,-5.846719803801348,2.0,1.9787545787545786,505.36838208071083,-5.6701823903035935,1.6925587086999598,-5.383019637550258,1908.4249084249084,-1.0,72.52766710934041,1.9811096944864874,
2023-08-15 14:27:37.042000,-7.626506024096386,0.7710843373493976,-6.216867469879518,0.8853464132434089,-7.436541998773758,-5.893316983445739,2.0,1.9787545787545786,505.36838208071083,-5.6701823903035935,1.6925587086999598,-5.383019637550258,1931.135531135531,-1.0,72.52766710934041,1.9810806258815827,
2023-08-15 14:27:37.050000,-7.626506024096386,0.783132530120482,-6.240963855421687,0.9098712446351931,-7.328632740649907,-5.920294297976701,2.0,1.9787545787545786,505.36838208071083,-6.189266359769243,1.539886952974769,-6.283782996328884,1942.8571428571427,-1.0,72.52766710934041,1.9810516068477024,
2023-08-15 14:27:37.057000,-7.626506024096386,0.783132530120482,-6.240963855421687,0.8779889638258737,-7.375229920294298,-5.917841814837523,2.0,1.9802197802197803,504.9944506104328,-6.280869413204357,1.2498106170969063,-6.466989103199113,1944.3223443223442,-1.0,72.52766710934041,1.9810226335172052,
2023-08-15 14:27:37.065000,-7.614457831325302,0.783132530120482,-6.216867469879518,0.8976088289393009,-7.380134886572654,-5.881054567749846,2.0,1.9787545787545786,505.36838208071083,-6.799953382670006,0.6238564186236238,-6.8639356680846095,1931.135531135531,-1.0,72.52766710934041,1.9809937026117121,
2023-08-15 14:27:37.073000,-7.578313253012048,0.783132530120482,-6.19277108433735,0.8608215818516247,-7.377682403433476,-5.871244635193133,2.0,1.9787545787545786,505.36838208071083,-6.5556785735097005,0.2574442048831659,-6.925004370374686,1905.4945054945053,-1.0,72.52766710934041,1.9809648110388722,
2023-08-15 14:27:37.080000,-7.590361445783133,0.819277108433735,-6.156626506024097,0.9025137952176578,-7.350705088902513,-5.817290006131207,2.0,1.9787545787545786,505.36838208071083,-6.5556785735097005,0.028436571295379638,-6.879202843657128,1866.6666666666665,-1.0,72.52766710934041,1.9809359553852381,
2023-08-15 14:27:37.088000,-7.638554216867471,0.855421686746988,-6.1084337349397595,0.9638258736971183,-7.372777437155119,-5.809932556713672,2.0,1.9787545787545786,505.36838208071083,-6.799953382670006,-0.5059145737427883,-7.077676126099877,1819.047619047619,-1.0,72.52766710934041,1.9809071323922005,
2023-08-15 14:27:37.096000,-7.650602409638554,0.8795180722891567,-6.0843373493975905,1.0079705702023298,-7.463519313304721,-5.785407725321888,2.0,1.9802197802197803,504.9944506104328,-6.5556785735097005,-0.9028611386282844,-7.4288211642678155,1767.032967032967,-1.0,72.52766710934041,1.9808783389740934,
2023-08-15 14:27:37.103000,-7.662650602409639,0.9397590361445783,-6.072289156626506,1.1281422440220723,-7.443899448191293,-5.733905579399141,2.0,1.9787545787545786,505.36838208071083,-6.799953382670006,-1.4830138103840096,-7.489889866557892,1712.087912087912,-1.0,72.52766710934041,1.9808495731868285,
2023-08-15 14:27:37.111000,-7.698795180722892,0.9879518072289157,-6.1084337349397595,1.0889025137952175,-7.463519313304721,-5.770692826486818,2.0,1.9787545787545786,505.36838208071083,-6.632014451372296,-2.1395023600023304,-7.67309597342812,1654.9450549450548,-1.0,72.52766710934041,1.9808208337582172,
2023-08-15 14:27:37.119000,-7.72289156626506,1.0,-6.096385542168675,1.1404046597179645,-7.515021459227468,-5.787860208461066,2.0,1.9787545787545786,505.36838208071083,-6.708350329234891,-2.078433657712254,-7.337218110832701,1595.6043956043954,-1.0,72.52766710934041,1.9807921186351758,
2023-08-15 14:27:37.126000,-7.771084337349398,1.0,-6.072289156626506,1.184549356223176,-7.6106683016554255,-5.809932556713672,2.0,1.9787545787545786,505.36838208071083,-6.9984266651127545,-2.5517161004603452,-6.619660858924304,1536.263736263736,-1.0,72.52766710934041,1.980763425530914,
2023-08-15 14:27:37.134000,-7.795180722891566,1.0240963855421688,-6.0843373493975905,1.1330472103004292,-7.583690987124463,-5.785407725321888,2.0,1.9787545787545786,505.36838208071083,-6.418273993357029,-2.5211817493153075,-6.19217994289377,1477.6556776556777,-1.0,72.52766710934041,1.980734752434492,
2023-08-15 14:27:37.142000,-7.843373493975904,1.0481927710843375,-6.0843373493975905,1.155119558553035,-7.615573267933782,-5.780502759043531,2.0,1.9787545787545786,505.36838208071083,-6.3266709399219145,-2.887593963055765,-5.657828797855601,1427.8388278388277,-1.0,72.52766710934041,1.9807060976274249,
2023-08-15 14:27:37.149000,-7.891566265060241,1.108433734939759,-6.048192771084338,1.2286940527283874,-7.713672593500919,-5.743715511955855,2.0,1.9787545787545786,505.36838208071083,-5.944991550608937,-3.8036244974069104,-5.077676126099877,1383.8827838827838,-1.0,72.52766710934041,1.9806774596999526,
2023-08-15 14:27:37.157000,-7.951807228915663,1.1204819277108435,-6.024096385542169,1.2924586143470262,-7.762722256284488,-5.665236051502146,2.0,1.9787545787545786,505.36838208071083,-5.944991550608937,-4.750189382903094,-4.68072956121438,1345.054945054945,-1.0,72.52766710934041,1.9806488375669116,
2023-08-15 14:27:37.165000,-7.987951807228916,1.1566265060240966,-5.963855421686747,1.2409564684242795,-7.831391784181483,-5.660331085223789,2.0,1.9772893772893774,505.74286772878844,-5.517510634578403,-5.284540527941261,-3.6730959734281208,1307.6923076923076,-1.0,72.52766710934041,1.9806202304831653,
2023-08-15 14:27:37.172000,-8.024096385542169,1.1566265060240966,-6.0,1.2728387492335989,-7.909871244635193,-5.628448804414469,2.0,1.9772893772893774,505.74286772878844,-5.39537322999825,-5.864693199696987,-3.35248528640522,1271.7948717948716,-1.0,72.52766710934041,1.9805916380237156,
2023-08-15 14:27:37.180000,-8.048192771084338,1.1927710843373494,-5.9397590361445785,1.2703862660944205,-7.885346413243409,-5.6848559166155725,2.0,1.9787545787545786,505.36838208071083,-4.845754909387563,-6.215838237864926,-2.9097371948021666,1241.0256410256409,-1.0,72.52766710934041,1.9805630599585997,
2023-08-15 14:27:37.188000,-8.024096385542169,1.1927710843373494,-5.903614457831326,1.2654812998160636,-7.841201716738197,-5.56468424279583,2.0,1.9787545787545786,505.36838208071083,-4.464075520074586,-6.887593963055765,-2.634928034496823,1215.3846153846152,-1.0,72.52766710934041,1.9805344967231826,
2023-08-15 14:27:37.195000,-8.036144578313253,1.180722891566265,-5.855421686746988,1.260576333537707,-7.846106683016554,-5.567136725935009,2.0,1.9787545787545786,505.36838208071083,-4.128197657479166,-7.284540527941261,-2.2685158207563654,1193.4065934065934,-1.0,72.52766710934041,1.980505949042921,
2023-08-15 14:27:37.203000,-7.987951807228916,1.1686746987951808,-5.83132530120482,1.2924586143470262,-7.799509503372164,-5.522992029429798,2.0,1.9772893772893774,505.74286772878844,-3.654915214731075,-7.528815337101567,-1.5814929199930068,1175.8241758241757,-1.0,72.52766710934041,1.9804774180146254,
2023-08-15 14:27:37.211000,-7.9397590361445785,1.108433734939759,-5.83132530120482,1.2213366033108521,-7.782342121397915,-5.461679950950337,2.0,1.9772893772893774,505.74286772878844,-2.1129304819066475,-7.818891672979429,-1.2914165841151442,1166.3003663003662,-1.0,72.52766710934041,1.9804489045896274,
2023-08-15 14:27:37.218000,-7.891566265060241,1.0481927710843375,-5.83132530120482,1.179644389944819,-7.76026977314531,-5.429797670141017,2.0,1.9772893772893774,505.74286772878844,-1.1663655964104642,-8.078433657712253,-0.17691276732125102,1163.3699633699632,-1.0,72.52766710934041,1.9804204090879474,
2023-08-15 14:27:37.226000,-7.807228915662651,1.0602409638554218,-5.771084337349398,1.1158798283261802,-7.5665236051502145,-5.368485591661557,2.0,1.9772893772893774,505.74286772878844,0.7572985257269402,-8.322708466872559,0.4185070800069932,1167.7655677655678,-1.0,72.52766710934041,1.9803919326071222,
2023-08-15 14:27:37.233000,-7.734939759036145,1.072289156626506,-5.72289156626506,1.2483139178418148,-7.483139178418148,-5.380748007357449,2.0,1.9787545787545786,505.36838208071083,1.42905425091778,-9.421945108093933,1.487209370083329,1178.021978021978,-1.0,72.52766710934041,1.980363476496006,
2023-08-15 14:27:37.241000,-7.686746987951808,1.072289156626506,-5.72289156626506,1.2066217044757817,-7.515021459227468,-5.385652973635806,2.0,1.9787545787545786,505.36838208071083,2.131344327253658,-10.10896800885729,2.4490414311520317,1190.4761904761904,-1.0,72.52766710934041,1.9803350428816326,
2023-08-15 14:27:37.249000,-7.686746987951808,1.0602409638554218,-5.783132530120482,1.1919068056407112,-7.497854077253218,-5.3586756591048434,2.0,1.9787545787545786,505.36838208071083,3.077909212749841,-10.368509993590116,3.8841559349688253,1206.5934065934066,-1.0,72.52766710934041,1.9803066351621292,
2023-08-15 14:27:37.256000,-7.746987951807229,0.9759036144578314,-5.734939759036145,1.0839975475168608,-7.564071122011036,-5.385652973635806,2.0,1.9787545787545786,505.36838208071083,3.8565351669483143,-8.505914573742787,5.2582017364955425,1225.6410256410256,-1.0,72.52766710934041,1.9802782570598876,
2023-08-15 14:27:37.264000,-7.759036144578314,0.9036144578313253,-5.686746987951808,1.0055180870631515,-7.524831391784181,-5.370938074800735,2.0,1.9787545787545786,505.36838208071083,5.6733290600780855,-6.887593963055765,7.212400209777986,1246.8864468864467,-1.0,72.52766710934041,1.980249912623798,
2023-08-15 14:27:37.272000,-7.771084337349398,0.855421686746988,-5.674698795180723,0.9221336603310851,-7.62047823421214,-5.326793378295524,2.0,1.9787545787545786,505.36838208071083,6.711496999009383,-5.666219917254239,8.80018646931997,1265.9340659340658,-1.0,72.52766710934041,1.9802216062300189,
2023-08-15 14:27:37.279000,-7.807228915662651,0.8072289156626506,-5.662650602409639,0.944206008583691,-7.671980380134886,-5.341508277130594,2.0,1.9787545787545786,505.36838208071083,7.154245090612436,-4.948662665345841,10.586446011304702,1286.4468864468863,-1.0,72.52766710934041,1.980193342581297,
2023-08-15 14:27:37.287000,-7.891566265060241,0.746987951807229,-5.686746987951808,0.9074187614960146,-7.706315144083384,-5.31698344573881,2.0,1.9787545787545786,505.36838208071083,7.810733640230756,-3.4982809859565287,11.762018530388671,1309.1575091575091,-1.0,72.52766710934041,1.9801651267048521,
2023-08-15 14:27:37.295000,-7.9397590361445785,0.710843373493976,-5.72289156626506,0.8313917841814837,-7.82158185162477,-5.4028203556100545,2.0,1.9787545787545786,505.36838208071083,8.42142066313152,-2.5211817493153075,12.922323873900122,1332.6007326007325,-1.0,72.52766710934041,1.980136963948862,
2023-08-15 14:27:37.302000,-8.012048192771084,0.674698795180723,-5.795180722891566,0.7210300429184548,-7.797057020232986,-5.500919681177192,2.0,1.9787545787545786,505.36838208071083,8.879435930307093,-1.0708000699259943,13.945224637258901,1356.7765567765566,-1.0,72.52766710934041,1.9801088599775691,
2023-08-15 14:27:37.310000,-8.084337349397591,0.6506024096385542,-5.843373493975904,0.838749233599019,-7.885346413243409,-5.527896995708154,2.0,1.9787545787545786,505.36838208071083,9.673329060078085,1.204009090379349,14.739117767029892,1383.150183150183,-1.0,72.52766710934041,1.9800808207650642,
2023-08-15 14:27:37.318000,-8.072289156626507,0.6867469879518072,-5.891566265060241,0.7946045370938074,-7.88289393010423,-5.6039239730226855,2.0,1.9772893772893774,505.74286772878844,9.673329060078085,1.204009090379349,14.739117767029892,1405.128205128205,-1.0,72.52766710934041,1.980052852587771,
2023-08-15 14:27:37.325000,-8.060240963855422,0.674698795180723,-5.9397590361445785,0.8044144696505211,-7.902513795217658,-5.621091354996934,2.0,1.9772893772893774,505.74286772878844,10.574092418856711,1.3108793193869825,14.464308606724549,1426.3736263736262,-1.0,72.52766710934041,1.9800249619809036,
2023-08-15 14:27:37.333000,-8.036144578313253,0.674698795180723,-5.891566265060241,0.7578172900061312,-7.787247087676271,-5.58185162477008,2.0,1.9772893772893774,505.74286772878844,10.543558067711674,1.6162228308373643,14.845987996037527,1442.4908424908424,-1.0,72.52766710934041,1.9799971551312185,
2023-08-15 14:27:37.341000,-8.0,0.710843373493976,-5.91566265060241,0.8191293684855916,-7.647455548743102,-5.628448804414469,2.0,1.9787545787545786,505.36838208071083,10.467222189849076,1.5093526018297307,14.189499446419205,1454.212454212454,-1.0,72.52766710934041,1.979969438355005,
2023-08-15 14:27:37.348000,-7.879518072289157,0.7228915662650602,-5.975903614457832,0.8289393010423053,-7.637645616186388,-5.665236051502146,2.0,1.9772893772893774,505.74286772878844,9.963405395955947,2.089505273585456,13.77728570596119,1463.003663003663,-1.0,72.52766710934041,1.9799418185393534,
2023-08-15 14:27:37.356000,-7.734939759036145,0.7349397590361446,-6.0120481927710845,0.8927038626609441,-7.48068669527897,-5.675045984058859,2.0,1.9787545787545786,505.36838208071083,10.406153487559001,1.555154128547288,12.922323873900122,1468.131868131868,-1.0,72.52766710934041,1.9799143022800212,
2023-08-15 14:27:37.364000,-7.614457831325302,0.746987951807229,-6.048192771084338,0.838749233599019,-7.3359901900674425,-5.800122624156959,2.0,1.9787545787545786,505.36838208071083,10.222947380688773,1.371948021677059,11.975758988403939,1465.9340659340658,-1.0,72.52766710934041,1.9798868963196454,
2023-08-15 14:27:37.371000,-7.518072289156627,0.7710843373493976,-6.0843373493975905,0.9049662783568363,-7.235438381361128,-5.812385039852851,2.0,1.9772893772893774,505.74286772878844,10.345084785268925,2.318512907173242,11.45667501893829,1459.3406593406592,-1.0,72.52766710934041,1.9798596080544364,
2023-08-15 14:27:37.379000,-7.46987951807229,0.819277108433735,-6.168674698795181,0.9343960760269773,-7.223175965665235,-5.873697118332311,2.0,1.9787545787545786,505.36838208071083,10.436687838704039,3.0666045102266772,11.639881125808518,1449.084249084249,-1.0,72.52766710934041,1.9798324445646236,
2023-08-15 14:27:37.387000,-7.457831325301205,0.8915662650602411,-6.1807228915662655,1.0594727161250765,-7.279583077866339,-5.849172286940527,2.0,1.9772893772893774,505.74286772878844,10.23821455626129,3.219276265951868,11.548278072373405,1435.8974358974358,-1.0,72.52766710934041,1.9798054130154354,
2023-08-15 14:27:37.394000,-7.46987951807229,0.9397590361445783,-6.228915662650603,1.0962599632127528,-7.2477007970570195,-5.942366646229307,2.0,1.9787545787545786,505.36838208071083,10.222947380688773,3.3261464949595014,11.792552881533709,1421.245421245421,-1.0,72.52766710934041,1.9797785206690823,
2023-08-15 14:27:37.402000,-7.506024096385542,0.9759036144578314,-6.228915662650603,1.0300429184549356,-7.223175965665235,-6.013488657265481,2.0,1.9787545787545786,505.36838208071083,10.131344327253657,3.6925587086999596,11.823087232678748,1406.5934065934066,-1.0,72.52766710934041,1.9797517748266729,
2023-08-15 14:27:37.410000,-7.506024096385542,1.0240963855421688,-6.265060240963856,1.1011649294911097,-7.245248313917841,-5.9448191293684856,2.0,1.9772893772893774,505.74286772878844,10.146611502826177,3.18874191480683,11.151331507487908,1394.8717948717947,-1.0,72.52766710934041,1.979725183331931,
2023-08-15 14:27:37.417000,-7.55421686746988,1.0602409638554218,-6.265060240963856,1.2213366033108521,-7.311465358675659,-5.930104230533415,2.0,1.9772893772893774,505.74286772878844,9.184779441757474,2.9444671056465244,10.12843074412913,1384.6153846153845,-1.0,72.52766710934041,1.9796987535993007,
2023-08-15 14:27:37.425000,-7.602409638554217,1.0963855421686748,-6.240963855421687,1.2532188841201717,-7.441446965052115,-5.900674432863274,2.0,1.9787545787545786,505.36838208071083,8.23821455626129,2.135306800303013,9.685682652526076,1375.8241758241757,-1.0,72.52766710934041,1.9796724925205857,
2023-08-15 14:27:37.433000,-7.72289156626506,1.0963855421686748,-6.240963855421687,1.196811771919068,-7.44880441446965,-5.917841814837523,2.0,1.9787545787545786,505.36838208071083,7.490122953207856,0.8070625254938529,8.571178835732184,1369.9633699633698,-1.0,72.52766710934041,1.979646407389062,
2023-08-15 14:27:37.440000,-7.698795180722892,1.0602409638554218,-6.1807228915662655,1.150214592274678,-7.470876762722256,-5.959534028203556,2.0,1.9772893772893774,505.74286772878844,6.90997028145213,-0.18530388671988754,7.059728454052795,1363.3699633699632,-1.0,72.52766710934041,1.9796205059450542,
2023-08-15 14:27:37.448000,-7.650602409638554,1.0602409638554218,-6.19277108433735,1.1183323114653587,-7.451256897608829,-5.84426732066217,2.0,1.9772893772893774,505.74286772878844,5.902336693665871,-1.376143581376376,5.548278072373406,1357.5091575091574,-1.0,72.52766710934041,1.9795947954043047,
2023-08-15 14:27:37.456000,-7.614457831325302,0.9879518072289157,-6.156626506024097,1.1624770079705702,-7.348252605763335,-5.856529736358063,2.0,1.9772893772893774,505.74286772878844,4.92523745702465,-1.3150748790862996,4.326904026571879,1350.9157509157508,-1.0,72.52766710934041,1.9795692823654083,
2023-08-15 14:27:37.463000,-7.638554216867471,0.9156626506024097,-6.1084337349397595,1.049662783568363,-7.397302268546904,-5.807480073574494,2.0,1.9787545787545786,505.36838208071083,4.177145853971215,-1.0555328943534752,3.3040032632131,1347.2527472527472,-1.0,72.52766710934041,1.9795439732425673,
2023-08-15 14:27:37.471000,-7.638554216867471,0.855421686746988,-6.0843373493975905,0.9932556713672593,-7.412017167381974,-5.731453096259963,2.0,1.9758241758241757,506.1179087875417,3.276382495192589,-0.7043878561855363,2.708583415884856,1343.5897435897434,-1.0,72.52766710934041,1.979518874733469,
2023-08-15 14:27:37.479000,-7.710843373493976,0.7710843373493976,-6.048192771084338,0.8755364806866952,-7.49540159411404,-5.763335377069282,2.0,1.9772893772893774,505.74286772878844,2.6198939455742685,-0.8417924363382081,1.853621583823787,1340.6593406593406,-1.0,72.52766710934041,1.979493993339676,
2023-08-15 14:27:37.486000,-7.72289156626506,0.710843373493976,-6.024096385542169,0.7529123237277743,-7.527283874923359,-5.714285714285714,2.0,1.9772893772893774,505.74286772878844,1.9328710448109097,-1.574616863819124,1.0597284540527947,1339.9267399267399,-1.0,72.52766710934041,1.9794693351715922,
2023-08-15 14:27:37.494000,-7.746987951807229,0.6385542168674699,-5.975903614457832,0.7063151440833844,-7.527283874923359,-5.719190680564071,2.0,1.9772893772893774,505.74286772878844,1.276382495192589,-2.5517161004603452,0.2353009731367642,1338.4615384615383,-1.0,72.52766710934041,1.9794449064200197,
2023-08-15 14:27:37.502000,-7.746987951807229,0.5662650602409639,-5.963855421686747,0.6646229307173512,-7.488044144696505,-5.616186388718577,2.0,1.9772893772893774,505.74286772878844,0.16187867839869602,-2.9944641920633988,-0.6501952100693427,1337.7289377289376,-1.0,72.52766710934041,1.9794207128796684,
2023-08-15 14:27:37.509000,-7.710843373493976,0.5060240963855422,-5.963855421686747,0.5665236051502146,-7.546903740036787,-5.6333537706928265,2.0,1.9772893772893774,505.74286772878844,-0.2656022376318383,-3.070800069925994,-1.596760095565526,1338.4615384615383,-1.0,72.52766710934041,1.979396759930832,
2023-08-15 14:27:37.517000,-7.686746987951808,0.45783132530120485,-5.927710843373494,0.5052115266707541,-7.470876762722256,-5.6480686695278965,2.0,1.9787545787545786,505.36838208071083,-1.2427014742730598,-2.81125808519317,-2.543324981061709,1340.6593406593406,-1.0,72.52766710934041,1.9793730520635977,
2023-08-15 14:27:37.525000,-7.674698795180723,0.4096385542168675,-5.927710843373494,0.5321888412017167,-7.419374616799509,-5.6407112201103615,2.0,1.9787545787545786,505.36838208071083,-2.433541168929548,-1.3914107569488952,-3.2914165841151437,1345.7875457875457,-1.0,72.52766710934041,1.9793495938782626,
2023-08-15 14:27:37.532000,-7.686746987951808,0.3855421686746988,-5.963855421686747,0.45616186388718577,-7.436541998773758,-5.645616186388718,2.0,1.9787545787545786,505.36838208071083,-3.9755259017539757,0.8528640522114102,-3.1692791795349913,1353.113553113553,-1.0,72.52766710934041,1.9793263905619238,
2023-08-15 14:27:37.540000,-7.734939759036145,0.3493975903614458,-6.0,0.4659717964438994,-7.578786020846106,-5.738810545677498,2.0,1.9787545787545786,505.36838208071083,-4.845754909387563,2.7612609987762955,-3.5662257444204872,1358.2417582417581,-1.0,72.52766710934041,1.9793034469282293,
2023-08-15 14:27:37.548000,-7.819277108433735,0.3373493975903615,-5.975903614457832,0.4659717964438994,-7.600858369098712,-5.6922133660331085,2.0,1.9787545787545786,505.36838208071083,-5.868655672746342,4.318512907173242,-4.421187576481556,1361.1721611721612,-1.0,72.52766710934041,1.9792807674091777,
2023-08-15 14:27:37.555000,-7.879518072289157,0.3493975903614458,-5.987951807228916,0.4193746167995095,-7.6253832004904964,-5.733905579399141,2.0,1.9787545787545786,505.36838208071083,-6.632014451372296,4.898665578928967,-5.245615057397586,1365.5677655677655,-1.0,72.52766710934041,1.979258356048542,
2023-08-15 14:27:37.563000,-7.879518072289157,0.4096385542168675,-5.987951807228916,0.5444512568976088,-7.642550582464745,-5.704475781729,2.0,1.9787545787545786,505.36838208071083,-7.2121671231280216,4.9902686323640815,-5.9784394848785025,1370.6959706959706,-1.0,72.52766710934041,1.9792362164969817,
2023-08-15 14:27:37.571000,-7.843373493975904,0.43373493975903615,-6.0,0.4782342121397915,-7.622930717351318,-5.726548129981606,2.0,1.9787545787545786,505.36838208071083,-7.929724375036418,4.287978556028204,-6.772332614649494,1375.8241758241757,-1.0,72.52766710934041,1.9792143520089034,
2023-08-15 14:27:37.578000,-7.795180722891566,0.45783132530120485,-6.0,0.568976088289393,-7.5444512568976085,-5.716738197424893,2.0,1.9787545787545786,505.36838208071083,-8.357205291066952,3.8146961132801125,-7.474622690985373,1378.7545787545787,-1.0,72.52766710934041,1.9791927654411525,
2023-08-15 14:27:37.586000,-7.783132530120482,0.45783132530120485,-6.048192771084338,0.539546290619252,-7.5370938074800735,-5.68976088289393,2.0,1.9787545787545786,505.36838208071083,-8.616747275799776,3.0666045102266772,-7.825767729153313,1379.4871794871794,-1.0,72.52766710934041,1.9791714592535614,
2023-08-15 14:27:37.593000,-7.734939759036145,0.4819277108433735,-6.024096385542169,0.6131207847946045,-7.510116492949111,-5.704475781729,2.0,1.9787545787545786,505.36838208071083,-8.616747275799776,3.0666045102266772,-7.825767729153313,1378.021978021978,-1.0,72.52766710934041,1.9791504355114038,
2023-08-15 14:27:37.601000,-7.650602409638554,0.5301204819277109,-6.072289156626506,0.640098099325567,-7.404659717964439,-5.743715511955855,2.0,1.9787545787545786,505.36838208071083,-8.799953382670006,2.3795816094633184,-7.734164675718197,1376.5567765567764,-1.0,72.52766710934041,1.979129695889776,
2023-08-15 14:27:37.609000,-7.626506024096386,0.5542168674698795,-6.060240963855422,0.7185775597792765,-7.387492335990189,-5.768240343347639,2.0,1.9787545787545786,505.36838208071083,-9.120564069692907,1.8910319911427078,-8.19217994289377,1378.021978021978,-1.0,72.52766710934041,1.9791092416799132,
2023-08-15 14:27:37.616000,-7.602409638554217,0.5662650602409639,-6.072289156626506,0.7112201103617413,-7.362967504598405,-5.753525444512569,2.0,1.9787545787545786,505.36838208071083,-9.05949536740283,1.6314900064098834,-8.176912767321252,1379.4871794871794,-1.0,72.52766710934041,1.9790890737974487,
2023-08-15 14:27:37.624000,-7.590361445783133,0.5542168674698795,-6.0843373493975905,0.6229307173513182,-7.362967504598405,-5.719190680564071,2.0,1.9772893772893774,505.74286772878844,-9.71598391702115,2.089505273585456,-7.917370782588427,1378.7545787545787,-1.0,72.52766710934041,1.9790691927925985,
2023-08-15 14:27:37.632000,-7.614457831325302,0.5301204819277109,-6.1084337349397595,0.6229307173513182,-7.372777437155119,-5.809932556713672,2.0,1.9787545787545786,505.36838208071083,-9.960258726181456,2.608589243051105,-7.8563020802983505,1376.5567765567764,-1.0,72.52766710934041,1.9790495988274441,
2023-08-15 14:27:37.639000,-7.602409638554217,0.46987951807228917,-6.1084337349397595,0.5787860208461066,-7.2992029429797665,-5.832004904966278,2.0,1.9787545787545786,505.36838208071083,-10.40300681778451,3.219276265951868,-8.268515820756367,1372.161172161172,-1.0,72.52766710934041,1.9790302915852305,
2023-08-15 14:27:37.647000,-7.566265060240965,0.44578313253012053,-6.1084337349397595,0.5052115266707541,-7.348252605763335,-5.768240343347639,2.0,1.9787545787545786,505.36838208071083,-10.815220558242524,4.562787716333547,-9.001340248237282,1367.032967032967,-1.0,72.52766710934041,1.9790112703894938,
2023-08-15 14:27:37.655000,-7.578313253012048,0.4096385542168675,-6.096385542168675,0.5567136725935009,-7.282035561005518,-5.78295524218271,2.0,1.9787545787545786,505.36838208071083,-11.120564069692907,5.8757648155701885,-9.795233378008275,1361.904761904762,-1.0,72.52766710934041,1.9789925342550947,
2023-08-15 14:27:37.662000,-7.590361445783133,0.3855421686746988,-6.1325301204819285,0.4414469650521152,-7.35561005518087,-5.805027590435316,2.0,1.9787545787545786,505.36838208071083,-11.670182390303594,7.3108793193869825,-10.405920400909038,1356.7765567765566,-1.0,72.52766710934041,1.9789740819061572,
2023-08-15 14:27:37.670000,-7.638554216867471,0.3614457831325301,-6.156626506024097,0.42918454935622313,-7.358062538320048,-5.856529736358063,2.0,1.9787545787545786,505.36838208071083,-12.143464833051684,8.700192296486218,-11.383019637550259,1350.9157509157508,-1.0,72.52766710934041,1.9789559117956355,
2023-08-15 14:27:37.678000,-7.686746987951808,0.3132530120481928,-6.168674698795181,0.3948497854077253,-7.490496627835683,-5.839362354383813,2.0,1.9787545787545786,505.36838208071083,-12.723617504807411,9.280344968241945,-12.405920400909038,1342.8571428571427,-1.0,72.52766710934041,1.9789380221264186,
2023-08-15 14:27:37.685000,-7.783132530120482,0.27710843373493976,-6.156626506024097,0.4071122011036174,-7.561618638871857,-5.912936848559166,2.0,1.9787545787545786,505.36838208071083,-13.028961016257792,9.494085426257211,-12.940271545947205,1336.263736263736,-1.0,72.52766710934041,1.9789204108738812,
2023-08-15 14:27:37.693000,-7.795180722891566,0.26506024096385544,-6.156626506024097,0.31882280809319435,-7.613120784794604,-5.832004904966278,2.0,1.9787545787545786,505.36838208071083,-13.548044985723442,9.494085426257211,-14.314317347473922,1328.937728937729,-1.0,72.52766710934041,1.9789030758097745,
2023-08-15 14:27:37.701000,-7.83132530120482,0.21686746987951808,-6.1807228915662655,0.34334763948497854,-7.6253832004904964,-5.895769466584917,2.0,1.9787545787545786,505.36838208071083,-13.914457199463898,8.83759687663889,-15.383019637550259,1324.5421245421244,-1.0,72.52766710934041,1.9788860145273248,
2023-08-15 14:27:37.708000,-7.867469879518072,0.20481927710843376,-6.1807228915662655,0.3041079092581238,-7.701410177805027,-5.849172286940527,2.0,1.9787545787545786,505.36838208071083,-14.525144222364663,7.952100693432784,-16.024241011596057,1321.6117216117216,-1.0,72.52766710934041,1.9788692244674302,
2023-08-15 14:27:37.716000,-7.879518072289157,0.18072289156626506,-6.156626506024097,0.2844880441446965,-7.6695278969957075,-5.849172286940527,2.0,1.9772893772893774,505.74286772878844,-15.105296894120388,6.9902686323640815,-16.451721927626593,1320.8791208791208,-1.0,72.52766710934041,1.9788527029458056,
2023-08-15 14:27:37.724000,-7.903614457831326,0.16867469879518074,-6.1325301204819285,0.2673206621704476,-7.716125076640098,-5.851624770079705,2.0,1.9772893772893774,505.74286772878844,-15.944991550608936,5.631490006409884,-16.34485169861896,1320.8791208791208,-1.0,72.52766710934041,1.9788364466882638,
2023-08-15 14:27:37.731000,-7.927710843373494,0.16867469879518074,-6.120481927710844,0.2599632127529123,-7.738197424892704,-5.817290006131207,2.0,1.9787545787545786,505.36838208071083,-16.097663306334127,4.5322533651885095,-16.66546238564186,1320.8791208791208,-1.0,72.52766710934041,1.9788204517871288,
2023-08-15 14:27:37.739000,-7.91566265060241,0.14457831325301207,-6.1325301204819285,0.2820355610055181,-7.752912323727774,-5.876149601471489,2.0,1.9787545787545786,505.36838208071083,-16.784686207097486,2.6238564186236237,-16.940271545947205,1320.14652014652,-1.0,72.52766710934041,1.9788047146753067,
2023-08-15 14:27:37.747000,-7.927710843373494,0.1566265060240964,-6.144578313253012,0.2722256284488044,-7.708767627222563,-5.888412017167382,2.0,1.9787545787545786,505.36838208071083,-17.57857933686848,1.3261464949595017,-17.0166074238098,1320.8791208791208,-1.0,72.52766710934041,1.9787892322217209,
2023-08-15 14:27:37.754000,-7.891566265060241,0.13253012048192772,-6.120481927710844,0.21827099938687922,-7.6989576946658485,-5.878602084610668,2.0,1.9772893772893774,505.74286772878844,-17.746518268166188,-0.04789930656721578,-16.894470019229647,1322.3443223443223,-1.0,72.52766710934041,1.9787740013018311,
2023-08-15 14:27:37.762000,-7.879518072289157,0.14457831325301207,-6.096385542168675,0.2550582464745555,-7.6817903126916,-5.846719803801348,2.0,1.9787545787545786,505.36838208071083,-18.448808344502066,-1.1013344210710325,-17.047141774954838,1328.2051282051282,-1.0,72.52766710934041,1.9787590183334045,
2023-08-15 14:27:37.770000,-7.903614457831326,0.13253012048192772,-6.1084337349397595,0.22317596566523604,-7.667075413856529,-5.790312691600245,2.0,1.9787545787545786,505.36838208071083,-19.288503000990616,-2.276906940155002,-16.81813414136705,1339.194139194139,-1.0,72.52766710934041,1.9787442797253252,
2023-08-15 14:27:37.777000,-7.927710843373494,0.13253012048192772,-6.096385542168675,0.25260576333537704,-7.708767627222563,-5.780502759043531,2.0,1.9772893772893774,505.74286772878844,-19.593846512440997,-3.070800069925994,-16.573859332206744,1353.113553113553,-1.0,72.52766710934041,1.978729782430137,
2023-08-15 14:27:37.785000,-7.963855421686747,0.16867469879518074,-6.024096385542169,0.22562844880441446,-7.738197424892704,-5.7363580625383195,2.0,1.9772893772893774,505.74286772878844,-20.189266359769242,-2.887593963055765,-16.802866965794532,1367.7655677655678,-1.0,72.52766710934041,1.9787155234783804,
2023-08-15 14:27:37.793000,-7.963855421686747,0.20481927710843376,-6.024096385542169,0.25015328019619865,-7.806866952789699,-5.733905579399141,2.0,1.9772893772893774,505.74286772878844,-20.616747275799778,-3.8341588485519487,-16.6959967367869,1384.6153846153845,-1.0,72.52766710934041,1.9787014998655683,
2023-08-15 14:27:37.800000,-8.012048192771084,0.22891566265060243,-6.0,0.33353770692826484,-7.814224402207234,-5.743715511955855,2.0,1.9787545787545786,505.36838208071083,-21.273235825418098,-3.574616863819124,-17.520424217702928,1405.128205128205,-1.0,72.52766710934041,1.978687708541808,
2023-08-15 14:27:37.808000,-8.012048192771084,0.2530120481927711,-5.975903614457832,0.3359901900674433,-7.814224402207234,-5.719190680564071,2.0,1.9772893772893774,505.74286772878844,-21.654915214731073,-3.9715634287046204,-18.024241011596057,1432.9670329670328,-1.0,72.52766710934041,1.978674146926739,
2023-08-15 14:27:37.816000,-8.0,0.30120481927710846,-5.975903614457832,0.4438994481912937,-7.826486817903127,-5.6848559166155725,2.0,1.9787545787545786,505.36838208071083,-22.2350678864868,-5.2387390012237045,-18.772332614649493,1471.062271062271,-1.0,72.52766710934041,1.9786608120511755,
2023-08-15 14:27:37.823000,-7.987951807228916,0.3493975903614458,-5.951807228915663,0.4904966278356836,-7.811771919068056,-5.6112814224402205,2.0,1.9772893772893774,505.74286772878844,-23.166365596410465,-5.757822970689353,-19.15401200396247,1516.4835164835163,-1.0,72.52766710934041,1.978647700610163,
2023-08-15 14:27:37.831000,-8.024096385542169,0.3493975903614458,-5.91566265060241,0.48559166155732675,-7.806866952789699,-5.630901287553648,2.0,1.9787545787545786,505.36838208071083,-23.456441932288325,-5.97156342870462,-19.566225744420485,1572.8937728937728,857.91015625,69.93739328400683,1.9786348095045296,
2023-08-15 14:27:37.839000,-8.024096385542169,0.3734939759036145,-5.903614457831326,0.49540159411404044,-7.76026977314531,-5.608828939301042,2.0,1.9787545787545786,505.36838208071083,-24.021327428471533,-5.666219917254239,-20.222714294038806,1636.6300366300366,-1.0,69.93739328400683,1.9786221358186549,
2023-08-15 14:27:37.846000,-8.0,0.43373493975903615,-5.891566265060241,0.5003065603923973,-7.779889638258736,-5.576946658491723,2.0,1.9787545787545786,505.36838208071083,-24.616747275799778,-6.368509993590116,-21.031874599382316,1700.3663003663003,-1.0,69.93739328400683,1.978609677358796,
2023-08-15 14:27:37.854000,-7.951807228915663,0.45783132530120485,-5.855421686746988,0.5591661557326794,-7.716125076640098,-5.542611894543224,2.0,1.9787545787545786,505.36838208071083,-25.22743429870054,-6.597517627177902,-21.85630208029835,1765.5677655677655,-1.0,69.93739328400683,1.9785974322070297,
2023-08-15 14:27:37.862000,-7.891566265060241,0.4819277108433735,-5.807228915662651,0.5959534028203556,-7.642550582464745,-5.518087063151441,2.0,1.9787545787545786,505.36838208071083,-25.54804498572344,-6.857059611910727,-22.207447118466288,1827.106227106227,-1.0,69.93739328400683,1.9785853987316364,
2023-08-15 14:27:37.869000,-7.867469879518072,0.5180722891566265,-5.843373493975904,0.5493562231759657,-7.684242795830778,-5.56468424279583,2.0,1.9772893772893774,505.74286772878844,-25.54804498572344,-6.857059611910727,-22.207447118466288,1880.5860805860805,-1.0,69.93739328400683,1.9785735755960057,
2023-08-15 14:27:37.877000,-7.867469879518072,0.5180722891566265,-5.843373493975904,0.703862660944206,-7.654812998160637,-5.540159411404046,2.0,1.9787545787545786,505.36838208071083,-26.158732008624202,-6.429578695880193,-21.703630324573158,1923.8095238095236,-1.0,69.93739328400683,1.978561961731221,
2023-08-15 14:27:37.885000,-7.9397590361445785,0.5783132530120483,-5.807228915662651,0.6940527283874923,-7.794604537093807,-5.530349478847333,2.0,1.9787545787545786,505.36838208071083,-26.845754909387562,-5.330342054658819,-21.550958568847967,1958.974358974359,-1.0,69.93739328400683,1.978550556237248,
2023-08-15 14:27:37.892000,-8.0,0.6144578313253012,-5.783132530120482,0.7749846719803801,-7.848559166155733,-5.439607602697731,2.0,1.9787545787545786,505.36838208071083,-26.92209078725016,-4.734922207330574,-21.3372181108327,1979.4871794871794,-1.0,69.93739328400683,1.9785393589484233,
2023-08-15 14:27:37.900000,-8.084337349397591,0.6867469879518072,-5.734939759036145,0.8534641324340895,-7.777437155119558,-5.400367872470876,2.0,1.9787545787545786,505.36838208071083,-27.273235825418098,-4.124235184429811,-21.566225744420485,1987.5457875457873,-1.0,69.93739328400683,1.9785283704023922,
2023-08-15 14:27:37.908000,-8.060240963855422,0.7590361445783133,-5.63855421686747,0.8583690987124463,-7.8779889638258735,-5.248313917841815,2.0,1.9787545787545786,505.36838208071083,-27.715983917021152,-3.757822970689353,-21.642561622283083,1983.8827838827838,-1.0,69.93739328400683,1.9785175913515403,
2023-08-15 14:27:37.915000,-8.048192771084338,0.7951807228915663,-5.650602409638554,0.9049662783568363,-7.855916615573268,-5.211526670754139,2.0,1.9787545787545786,505.36838208071083,-28.128197657479166,-3.376143581376376,-22.16164559174873,1968.4981684981683,-1.0,69.93739328400683,1.9785070227648685,
2023-08-15 14:27:37.923000,-7.963855421686747,0.855421686746988,-5.63855421686747,1.015328019619865,-7.740649908031882,-5.378295524218271,2.0,1.9787545787545786,505.36838208071083,-28.35720529106695,-3.2540061767962234,-23.215080706252547,1942.124542124542,-1.0,69.93739328400683,1.9784966658276697,
2023-08-15 14:27:37.931000,-7.903614457831326,0.8915662650602411,-5.626506024096386,1.044757817290006,-7.6695278969957075,-5.287553648068669,2.0,1.9772893772893774,505.74286772878844,-28.50987704679214,-3.3456092302313376,-23.108210477244914,1905.4945054945053,-1.0,69.93739328400683,1.9784865214811547,
2023-08-15 14:27:37.938000,-7.819277108433735,0.9518072289156627,-5.698795180722892,1.074187614960147,-7.6400980993255665,-5.407725321888412,2.0,1.9787545787545786,505.36838208071083,-28.448808344502066,-2.9028611386282845,-22.925004370374683,1861.5384615384614,-1.0,69.93739328400683,1.9784765909081539,
2023-08-15 14:27:37.946000,-7.855421686746988,1.0,-5.72289156626506,1.125689760882894,-7.637645616186388,-5.368485591661557,2.0,1.9772893772893774,505.74286772878844,-28.76941903152497,-1.8494260241244675,-21.81050055358079,1811.7216117216117,-1.0,69.93739328400683,1.9784668758429023,
2023-08-15 14:27:37.954000,-7.91566265060241,1.0120481927710845,-5.72289156626506,1.1330472103004292,-7.772532188841201,-5.3733905579399135,2.0,1.9787545787545786,505.36838208071083,-28.54041139793718,-0.5975176271779028,-20.741798263504457,1754.5787545787546,-1.0,69.93739328400683,1.9784573776810388,
