Shimmer_F5D4_Timestamp_FormattedUnix_CAL,Shimmer_F5D4_Accel_LN_X_CAL,Shimmer_F5D4_Accel_LN_Y_CAL,Shimmer_F5D4_Accel_LN_Z_CAL,Shimmer_F5D4_Accel_WR_X_CAL,Shimmer_F5D4_Accel_WR_Y_CAL,Shimmer_F5D4_Accel_WR_Z_CAL,Shimmer_F5D4_GSR_Range_CAL,Shimmer_F5D4_GSR_Skin_Conductance_CAL,Shimmer_F5D4_GSR_Skin_Resistance_CAL,Shimmer_F5D4_Gyro_X_CAL,Shimmer_F5D4_Gyro_Y_CAL,Shimmer_F5D4_Gyro_Z_CAL,Shimmer_F5D4_PPG_A13_CAL,Shimmer_F5D4_PPG_IBI_CAL,Shimmer_F5D4_PPGtoHR_CAL,Shimmer_F5D4_GSR_Skin_Conductance_LPF_CAL,
yyyy/mm/dd hh:mm:ss.000,m/(s^2),m/(s^2),m/(s^2),m/(s^2),m/(s^2),m/(s^2),no_units,uS,kOhms,deg/s,deg/s,deg/s,mV,ms,BPM,uS,
2023-08-16 12:11:27.583000,-4.578313253012048,-0.9036144578313253,-8.795180722891567,-0.8706315144083384,-4.206621704475782,-8.49294911097486,3.0,0.20179820179820185,4955.4455445544545,0.06165141891498225,0.20022143231746412,-0.16712312802284232,1645.4212454212452,-1.0,61.6770712425887,0.20204476356459836,
2023-08-16 12:11:27.590000,-4.602409638554217,-0.9036144578313253,-8.807228915662652,-0.8951563458001226,-4.275291232372777,-8.49294911097486,3.0,0.20179820179820185,4955.4455445544545,0.06165141891498225,0.19998834566750243,-0.16385991492337282,1605.128205128205,-1.0,61.6770712425887,0.2020412069512922,
2023-08-16 12:11:27.598000,-4.590361445783133,-0.8915662650602411,-8.819277108433736,-0.8559166155732679,-4.231146535867565,-8.49785407725322,3.0,0.20179820179820185,4955.4455445544545,0.15278829905017166,0.13658877687780416,0.14253248645183852,1566.3003663003662,-1.0,61.6770712425887,0.20203760809611682,
2023-08-16 12:11:27.606000,-4.578313253012048,-0.9156626506024097,-8.807228915662652,-0.8461066830165542,-4.216431637032495,-8.556713672593501,3.0,0.20179820179820185,4955.4455445544545,0.10384010255812663,-0.04789930656721578,0.14125050987704674,1525.2747252747251,-1.0,61.6770712425887,0.20203396923304426,
2023-08-16 12:11:27.613000,-4.614457831325302,-0.8915662650602411,-8.831325301204819,-0.8485591661557327,-4.213979153893317,-8.505211526670754,3.0,0.20179820179820185,4955.4455445544545,-0.12703222422935648,-0.15395373229998177,0.07645242118757668,1490.8424908424906,-1.0,61.6770712425887,0.20203029269565745,
2023-08-16 12:11:27.621000,-4.602409638554217,-0.8915662650602411,-8.807228915662652,-0.8534641324340895,-4.179644389944819,-8.519926425505824,3.0,0.20179820179820185,4955.4455445544545,0.424217702931064,-0.047083503292348186,0.10558825243284178,1460.07326007326,-1.0,61.6770712425887,0.2020265809125788,
2023-08-16 12:11:27.629000,-4.602409638554217,-0.8915662650602411,-8.807228915662652,-0.8461066830165542,-4.187001839362354,-8.537093807480073,3.0,0.20179820179820185,4955.4455445544545,-0.050579803041780225,0.06223413553988644,-0.0928850300099063,1433.6996336996335,-1.0,61.6770712425887,0.2020228364025688,
2023-08-16 12:11:27.636000,-4.602409638554217,-0.8915662650602411,-8.807228915662652,-0.8093194359288779,-4.206621704475782,-8.551808706315144,3.0,0.20179820179820185,4955.4455445544545,0.07388846803799265,0.0011654332498101003,-0.04848202319212169,1411.7216117216117,-1.0,61.6770712425887,0.20201906190805557,
2023-08-16 12:11:27.644000,-4.614457831325302,-0.9036144578313253,-8.771084337349398,-0.8828939301042305,-4.211526670754139,-8.51256897608829,3.0,0.20179820179820185,4955.4455445544545,-0.1389196433774261,0.15348755900005842,0.11910727813064528,1391.9413919413919,-1.0,61.6770712425887,0.20201526023048372,
2023-08-16 12:11:27.652000,-4.590361445783133,-0.9277108433734941,-8.819277108433736,-0.8191293684855916,-4.177191906805641,-8.539546290619251,3.0,0.20179820179820185,4955.4455445544545,0.08938873026047514,-0.24345900588543773,-0.03414719421945104,1377.2893772893772,-1.0,61.6770712425887,0.20201143409689262,
2023-08-16 12:11:27.659000,-4.578313253012048,-0.9156626506024097,-8.771084337349398,-0.8755364806866952,-4.243408951563458,-8.515021459227468,3.0,0.20135420135420137,4966.372657111356,0.13577297360293658,-0.13542334362799405,-0.06468154536448921,1364.102564102564,-1.0,61.6770712425887,0.2020075864416862,
2023-08-16 12:11:27.667000,-4.590361445783133,-0.9277108433734941,-8.783132530120483,-0.8755364806866952,-4.204169221336603,-8.515021459227468,3.0,0.20179820179820185,4955.4455445544545,-0.049064739817027615,-0.4716508361983564,-0.06771167181399702,1358.2417582417581,-1.0,61.6770712425887,0.20200372023043725,
2023-08-16 12:11:27.675000,-4.602409638554217,-0.9277108433734941,-8.795180722891567,-0.8976088289393009,-4.152667075413857,-8.461066830165542,3.0,0.20135420135420137,4966.372657111356,0.18029252374570287,-0.2552298817085248,-0.16024707184895995,1359.7069597069597,-1.0,61.6770712425887,0.20199983843256336,
2023-08-16 12:11:27.682000,-4.590361445783133,-0.9277108433734941,-8.795180722891567,-0.8240343347639485,-4.258123850398528,-8.49294911097486,3.0,0.20179820179820185,4955.4455445544545,0.2858807761785438,0.052211409591515406,-0.25033506205932055,1368.4981684981683,-1.0,61.6770712425887,0.20199594388637462,
2023-08-16 12:11:27.690000,-4.590361445783133,-0.9397590361445783,-8.795180722891567,-0.8534641324340895,-4.174739423666462,-8.529736358062538,3.0,0.20179820179820185,4955.4455445544545,-0.022609405046325665,-0.6653458423168815,0.2096614416409301,1380.952380952381,-1.0,61.6770712425887,0.20199203930171541,
2023-08-16 12:11:27.698000,-4.578313253012048,-0.9277108433734941,-8.795180722891567,-0.9417535254445125,-4.201716738197424,-8.52728387492336,3.0,0.20179820179820185,4955.4455445544545,-0.023192121671231584,0.14824310937591037,0.0090903793485226,1399.2673992673992,-1.0,61.6770712425887,0.2019881275601502,
2023-08-16 12:11:27.705000,-4.590361445783133,-0.9036144578313253,-8.771084337349398,-0.8559166155732679,-4.187001839362354,-8.490496627835682,3.0,0.20179820179820185,4955.4455445544545,0.14276557310180063,0.0712079715634282,0.06980945166365599,1417.5824175824175,-1.0,61.6770712425887,0.20198421170662673,
2023-08-16 12:11:27.713000,-4.590361445783133,-0.9156626506024097,-8.795180722891567,-0.8338442673206621,-4.169834457388105,-8.532188841201716,3.0,0.20179820179820185,4955.4455445544545,0.07936600431210238,0.03904201386865485,0.0710914282384478,1435.8974358974358,-1.0,61.6770712425887,0.2019802947819475,
2023-08-16 12:11:27.720000,-4.578313253012048,-0.9036144578313253,-8.771084337349398,-0.8755364806866952,-4.250766400980993,-8.51011649294911,3.0,0.20179820179820185,4955.4455445544545,0.016316065497348348,0.024357554921041684,0.22376318396363862,1453.4798534798533,-1.0,61.6770712425887,0.2019763796867326,
2023-08-16 12:11:27.728000,-4.590361445783133,-0.8915662650602411,-8.759036144578314,-0.8657265481299815,-4.189454322501533,-8.54199877375843,3.0,0.20179820179820185,4955.4455445544545,-0.10512207913291756,0.3460171318687717,-0.08635860381096688,1468.131868131868,-1.0,61.6770712425887,0.2019724693221063,
2023-08-16 12:11:27.736000,-4.590361445783133,-0.8915662650602411,-8.795180722891567,-0.8436541998773758,-4.179644389944819,-8.524831391784181,3.0,0.20135420135420137,4966.372657111356,-0.14870928267583544,0.17539770409649733,0.34135539886952954,1479.8534798534797,-1.0,61.6770712425887,0.20196856658114062,
2023-08-16 12:11:27.743000,-4.602409638554217,-0.8795180722891567,-8.819277108433736,-0.8632740649908032,-4.243408951563458,-8.52728387492336,3.0,0.20179820179820185,4955.4455445544545,0.09661441640930088,-0.05372647281626975,-0.15104014917545608,1486.4468864468863,-1.0,61.6770712425887,0.20196467419109856,
2023-08-16 12:11:27.751000,-4.602409638554217,-0.9036144578313253,-8.819277108433736,-0.8362967504598405,-4.206621704475782,-8.515021459227468,3.0,0.20135420135420137,4966.372657111356,0.033681020919527696,-0.2200337975642445,0.09346774663481136,1487.9120879120878,-1.0,61.6770712425887,0.20196079483251875,
2023-08-16 12:11:27.759000,-4.590361445783133,-0.8915662650602411,-8.807228915662652,-0.86817903126916,-4.187001839362354,-8.505211526670754,3.0,0.20179820179820185,4955.4455445544545,0.1712021443971803,-0.1438144630266299,-0.12073888468038002,1487.179487179487,-1.0,61.6770712425887,0.20195693114069502,
2023-08-16 12:11:27.766000,-4.590361445783133,-0.8915662650602411,-8.807228915662652,-0.8583690987124463,-4.118332311465358,-8.52728387492336,3.0,0.20179820179820185,4955.4455445544545,0.047433133267292434,-0.26525260765689584,-0.04405337684284123,1487.179487179487,-1.0,61.6770712425887,0.2019530856862034,
2023-08-16 12:11:27.774000,-4.602409638554217,-0.9036144578313253,-8.831325301204819,-0.86817903126916,-4.236051502145923,-8.51011649294911,3.0,0.20179820179820185,4955.4455445544545,0.16887127789755835,-0.049880543091895206,-0.15115669250043692,1486.4468864468863,-1.0,61.6770712425887,0.2019492611259474,
2023-08-16 12:11:27.782000,-4.602409638554217,-0.9036144578313253,-8.807228915662652,-0.8853464132434089,-4.226241569589209,-8.505211526670754,3.0,0.20179820179820185,4955.4455445544545,0.25872618145795684,0.07365538138803097,0.18437154012003953,1482.051282051282,-1.0,61.6770712425887,0.2019454600566202,
2023-08-16 12:11:27.789000,-4.614457831325302,-0.8795180722891567,-8.831325301204819,-0.8657265481299815,-4.260576333537706,-8.549356223175964,3.0,0.20179820179820185,4955.4455445544545,0.22725948371307023,0.13367519375327805,0.06211759221490603,1475.4578754578754,-1.0,61.6770712425887,0.20194168500724666,
2023-08-16 12:11:27.797000,-4.590361445783133,-0.9156626506024097,-8.795180722891567,-0.8976088289393009,-4.226241569589209,-8.475781729000612,3.0,0.20179820179820185,4955.4455445544545,0.1358895169279174,-0.29403880892721795,0.046966959967367786,1465.201465201465,-1.0,61.6770712425887,0.20193793843209207,
2023-08-16 12:11:27.805000,-4.614457831325302,-0.9277108433734941,-8.783132530120483,-0.7725321888412017,-4.179644389944819,-8.52728387492336,3.0,0.20135420135420137,4966.372657111356,0.12190431793019099,-0.1086183788823496,0.01724841209719721,1452.7472527472526,-1.0,61.6770712425887,0.20193422270396902,
2023-08-16 12:11:27.812000,-4.590361445783133,-0.9036144578313253,-8.783132530120483,-0.8436541998773758,-4.191906805640711,-8.46351931330472,3.0,0.20135420135420137,4966.372657111356,-0.27702348347998285,0.0621175922149056,-0.08938873026047427,1439.5604395604394,-1.0,61.6770712425887,0.20193053995868,
2023-08-16 12:11:27.820000,-4.590361445783133,-0.9156626506024097,-8.795180722891567,-0.8264868179031268,-4.177191906805641,-8.517473942366646,3.0,0.20179820179820185,4955.4455445544545,0.016316065497348348,0.13915273002738776,-0.1497581726006643,1423.4432234432234,-1.0,61.6770712425887,0.2019268922060871,
2023-08-16 12:11:27.828000,-4.578313253012048,-0.9036144578313253,-8.807228915662652,-0.8436541998773758,-4.174739423666462,-8.532188841201716,3.0,0.20135420135420137,4966.372657111356,0.33785909912009754,-0.07447118466289857,-0.08670823378590982,1406.5934065934066,-1.0,61.6770712425887,0.20192328145201488,
2023-08-16 12:11:27.835000,-4.578313253012048,-0.9036144578313253,-8.783132530120483,-0.8632740649908032,-4.160024524831392,-8.49294911097486,3.0,0.20135420135420137,4966.372657111356,-0.10756948895752033,0.184954256744945,-0.2366994930365362,1389.7435897435896,-1.0,61.6770712425887,0.20191970943653084,
2023-08-16 12:11:27.843000,-4.578313253012048,-0.9156626506024097,-8.771084337349398,-0.8461066830165542,-4.22378908645003,-8.436541998773757,3.0,0.20135420135420137,4966.372657111356,0.2152555212400215,0.24322591923547607,0.02412446827107958,1372.161172161172,-1.0,61.6770712425887,0.20191617761776476,
2023-08-16 12:11:27.851000,-4.578313253012048,-0.9156626506024097,-8.759036144578314,-0.8608215818516247,-4.213979153893317,-8.49294911097486,3.0,0.20179820179820185,4955.4455445544545,0.13705495017772923,0.027620768020512047,0.009906182623390191,1355.3113553113553,-1.0,61.6770712425887,0.20191268730468476,
2023-08-16 12:11:27.858000,-4.590361445783133,-0.8915662650602411,-8.831325301204819,-0.8730839975475169,-4.22378908645003,-8.49294911097486,3.0,0.20179820179820185,4955.4455445544545,-0.06153487559000141,-0.14311520307674316,-0.3418215721694538,1338.4615384615383,-1.0,61.6770712425887,0.20190923980081538,
2023-08-16 12:11:27.866000,-4.578313253012048,-0.9277108433734941,-8.807228915662652,-0.8632740649908032,-4.211526670754139,-8.522378908645003,3.0,0.20179820179820185,4955.4455445544545,-0.06281685216479235,-0.14311520307674316,-0.3392576190198706,1322.3443223443223,-1.0,61.6770712425887,0.20190583642096283,
2023-08-16 12:11:27.874000,-4.602409638554217,-0.9156626506024097,-8.783132530120483,-0.9343960760269773,-4.260576333537706,-8.51011649294911,3.0,0.20179820179820185,4955.4455445544545,0.040440533768428356,-0.052327952916496244,0.27341064040557084,1307.6923076923076,-1.0,61.6770712425887,0.2019024783494513,
2023-08-16 12:11:27.881000,-4.602409638554217,-0.9036144578313253,-8.807228915662652,-0.8608215818516247,-4.280196198651134,-8.507664009809933,3.0,0.20179820179820185,4955.4455445544545,0.26944816735621463,-0.037293863993940565,-0.29345609230231334,1291.5750915750914,-1.0,61.6770712425887,0.20189916663776616,
2023-08-16 12:11:27.889000,-4.602409638554217,-0.9036144578313253,-8.807228915662652,-0.9393010423053341,-4.231146535867565,-8.566523605150214,3.0,0.20135420135420137,4966.372657111356,0.19043179301905475,-0.03904201386865485,0.02948546122020847,1278.3882783882782,-1.0,61.6770712425887,0.2018959022028666,
2023-08-16 12:11:27.897000,-4.614457831325302,-0.9036144578313253,-8.783132530120483,-0.838749233599019,-4.253218884120171,-8.546903740036786,3.0,0.20179820179820185,4955.4455445544545,0.1279645708292049,0.11584406503117535,-0.014567915622632762,1268.131868131868,-1.0,61.6770712425887,0.20189268567688526,
2023-08-16 12:11:27.904000,-4.590361445783133,-0.8915662650602411,-8.807228915662652,-0.9417535254445125,-4.199264255058246,-8.517473942366646,3.0,0.20179820179820185,4955.4455445544545,0.21851873433949015,0.1307616106287519,0.09230231338500082,1258.6080586080586,-1.0,61.6770712425887,0.20188951753422435,
2023-08-16 12:11:27.912000,-4.590361445783133,-0.8915662650602411,-8.783132530120483,-0.8559166155732679,-4.199264255058246,-8.51256897608829,3.0,0.20179820179820185,4955.4455445544545,-0.09148651011013366,-0.19008216304411224,0.030883981119981543,1251.2820512820513,-1.0,61.6770712425887,0.2018863982508567,
2023-08-16 12:11:27.920000,-4.578313253012048,-0.8915662650602411,-8.819277108433736,-0.86817903126916,-4.211526670754139,-8.505211526670754,3.0,0.20135420135420137,4966.372657111356,-0.13880310005244526,-0.24916962880950913,0.044403006817784606,1244.6886446886447,-1.0,61.6770712425887,0.20188332830519115,
2023-08-16 12:11:27.927000,-4.590361445783133,-0.9156626506024097,-8.807228915662652,-0.9000613120784794,-4.179644389944819,-8.51011649294911,3.0,0.20135420135420137,4966.372657111356,0.24357554921041857,-0.03321484761960261,0.08973836023541765,1235.8974358974358,-1.0,61.6770712425887,0.2018803080099483,
2023-08-16 12:11:27.935000,-4.578313253012048,-0.8915662650602411,-8.783132530120483,-0.86817903126916,-4.211526670754139,-8.51011649294911,3.0,0.20179820179820185,4955.4455445544545,0.24031233611094996,-0.0787832876871982,0.1497581726006643,1227.8388278388277,-1.0,61.6770712425887,0.2018773372057719,
2023-08-16 12:11:27.943000,-4.590361445783133,-0.9036144578313253,-8.795180722891567,-0.86817903126916,-4.167381974248927,-8.461066830165542,3.0,0.20135420135420137,4966.372657111356,0.22189849076394133,-0.26047433133267284,0.058388205815511886,1221.9780219780218,-1.0,61.6770712425887,0.2018744155719632,
2023-08-16 12:11:27.950000,-4.590361445783133,-0.9036144578313253,-8.795180722891567,-0.8534641324340895,-4.22378908645003,-8.49294911097486,3.0,0.20135420135420137,4966.372657111356,0.2044169920167829,-0.18052561039566456,-0.2476545655847561,1216.117216117216,-1.0,61.6770712425887,0.20187154264963772,
2023-08-16 12:11:27.958000,-4.578313253012048,-0.9036144578313253,-8.795180722891567,-0.86817903126916,-4.211526670754139,-8.561618638871858,3.0,0.20135420135420137,4966.372657111356,0.2313385000874082,-0.3615173940912542,0.10418973253306914,1211.7216117216117,-1.0,61.6770712425887,0.20186871782327748,
2023-08-16 12:11:27.966000,-4.578313253012048,-0.9277108433734941,-8.807228915662652,-0.9098712446351931,-4.182096873083998,-8.534641324340894,3.0,0.20135420135420137,4966.372657111356,-0.1721344909970287,0.01083852922323862,0.011887419148068318,1207.3260073260074,-1.0,61.6770712425887,0.20186594044147607,
2023-08-16 12:11:27.973000,-4.602409638554217,-0.9156626506024097,-8.795180722891567,-0.8828939301042305,-4.194359288779889,-8.55916615573268,3.0,0.20179820179820185,4955.4455445544545,-0.1272653108793199,0.028553114620360476,-0.08111415418681882,1205.128205128205,-1.0,61.6770712425887,0.20186320967175694,
2023-08-16 12:11:27.981000,-4.590361445783133,-0.9277108433734941,-8.819277108433736,-0.8657265481299815,-4.22378908645003,-8.502759043531576,3.0,0.20179820179820185,4955.4455445544545,0.055241536041024095,0.001398519899773509,-0.1715517743721228,1205.128205128205,-1.0,61.6770712425887,0.2018605245154541,
2023-08-16 12:11:27.989000,-4.578313253012048,-0.9156626506024097,-8.819277108433736,-0.8608215818516247,-4.152667075413857,-8.500306560392398,3.0,0.20179820179820185,4955.4455445544545,0.17329992424683882,-0.13157741390361952,0.013402482372822228,1205.8608058608058,-1.0,61.6770712425887,0.20185788385451445,
2023-08-16 12:11:27.996000,-4.626506024096386,-0.9036144578313253,-8.807228915662652,-0.9589209074187615,-4.189454322501533,-8.52728387492336,3.0,0.20179820179820185,4955.4455445544545,-0.04451955014276631,0.0737719247130118,0.24369209253539986,1205.8608058608058,-1.0,61.6770712425887,0.20185528646717515,
2023-08-16 12:11:28.004000,-4.578313253012048,-0.9156626506024097,-8.795180722891567,-0.8804414469650521,-4.216431637032495,-8.480686695278969,3.0,0.20179820179820185,4955.4455445544545,0.25965852805780526,0.09230231338500125,-0.002447409824602339,1205.128205128205,-1.0,61.6770712425887,0.20185273103366577,
2023-08-16 12:11:28.012000,-4.590361445783133,-0.9156626506024097,-8.771084337349398,-0.8877988963825874,-4.184549356223176,-8.47823421213979,3.0,0.20179820179820185,4955.4455445544545,0.1632771982984678,0.12644950760445228,-0.07843365771225438,1207.3260073260074,-1.0,61.6770712425887,0.20185021614246204,
2023-08-16 12:11:28.019000,-4.590361445783133,-0.9156626506024097,-8.795180722891567,-0.8779889638258737,-4.213979153893317,-8.564071122011036,3.0,0.20135420135420137,4966.372657111356,0.01083852922323862,-0.026105704795757703,-0.337859099120098,1207.3260073260074,-1.0,61.6770712425887,0.2018477402970659,
2023-08-16 12:11:28.027000,-4.602409638554217,-0.9277108433734941,-8.783132530120483,-0.8608215818516247,-4.182096873083998,-8.49540159411404,3.0,0.20179820179820185,4955.4455445544545,0.223180467338734,-0.09987762950876951,0.018180758697045635,1205.8608058608058,-1.0,61.6770712425887,0.20184530177399473,
2023-08-16 12:11:28.035000,-4.590361445783133,-0.9156626506024097,-8.783132530120483,-0.86817903126916,-4.20907418761496,-8.524831391784181,3.0,0.20135420135420137,4966.372657111356,0.02284249169628734,0.23751529631140295,0.049530913116951396,1202.197802197802,-1.0,61.6770712425887,0.2018428987579545,
2023-08-16 12:11:28.042000,-4.578313253012048,-0.9156626506024097,-8.807228915662652,-0.9172286940527283,-4.191906805640711,-8.500306560392398,3.0,0.20135420135420137,4966.372657111356,-0.18984907639414883,0.20628168521647974,0.03309830429462134,1198.5347985347985,-1.0,61.6770712425887,0.20184052935967964,
2023-08-16 12:11:28.050000,-4.614457831325302,-0.9156626506024097,-8.783132530120483,-0.927038626609442,-4.248313917841815,-8.549356223175964,3.0,0.20179820179820185,4955.4455445544545,-0.11083270205698896,-0.03845929724375067,-0.19695821921799417,1196.3369963369962,-1.0,61.6770712425887,0.20183819146372503,
2023-08-16 12:11:28.058000,-4.578313253012048,-0.9156626506024097,-8.807228915662652,-0.9098712446351931,-4.172286940527283,-8.505211526670754,3.0,0.20179820179820185,4955.4455445544545,0.01596643552240584,-0.2807528698793783,-0.05640696929083376,1197.069597069597,-1.0,61.6770712425887,0.20183588316236475,
2023-08-16 12:11:28.065000,-4.578313253012048,-0.9036144578313253,-8.795180722891567,-0.8779889638258737,-4.238503985285101,-8.522378908645003,3.0,0.20179820179820185,4955.4455445544545,-0.3469494784686201,0.055824252665928276,0.006060252899015212,1200.0,-1.0,61.6770712425887,0.20183360262559907,
2023-08-16 12:11:28.073000,-4.578313253012048,-0.9156626506024097,-8.795180722891567,-0.8853464132434089,-4.196811771919068,-8.522378908645003,3.0,0.20135420135420137,4966.372657111356,0.14497989627644,-0.12924654740399757,-0.08635860381096688,1205.8608058608058,-1.0,61.6770712425887,0.20183134784386172,
2023-08-16 12:11:28.080000,-4.590361445783133,-0.9036144578313253,-8.819277108433736,-0.8902513795217657,-4.174739423666462,-8.465971796443899,3.0,0.20135420135420137,4966.372657111356,0.11631023833110044,0.05384301614125059,-0.11502826175630776,1212.4542124542124,-1.0,61.6770712425887,0.201829116637168,
2023-08-16 12:11:28.088000,-4.602409638554217,-0.9036144578313253,-8.783132530120483,-0.8755364806866952,-4.201716738197424,-8.549356223175964,3.0,0.20135420135420137,4966.372657111356,0.02540644484587095,-0.15989744187401658,0.10209195268341018,1218.3150183150183,-1.0,61.6770712425887,0.20182690664262273,
2023-08-16 12:11:28.096000,-4.578313253012048,-0.8915662650602411,-8.771084337349398,-0.8362967504598405,-4.258123850398528,-8.502759043531576,3.0,0.20135420135420137,4966.372657111356,0.008740749373580091,-0.05465881941611818,0.17959326379581614,1223.4432234432234,-1.0,61.6770712425887,0.20182471546106268,
2023-08-16 12:11:28.103000,-4.614457831325302,-0.9036144578313253,-8.819277108433736,-0.8706315144083384,-4.216431637032495,-8.522378908645003,3.0,0.20135420135420137,4966.372657111356,-0.15954781189907408,0.1281976574791683,0.10407318920808831,1226.3736263736264,-1.0,61.6770712425887,0.20182254066491814,
2023-08-16 12:11:28.111000,-4.566265060240964,-0.9156626506024097,-8.783132530120483,-0.9049662783568363,-4.201716738197424,-8.544451256897608,3.0,0.20135420135420137,4966.372657111356,0.07155760153837244,0.050113629741856874,-0.17190140434706616,1228.5714285714284,-1.0,61.6770712425887,0.20182037994476143,
2023-08-16 12:11:28.119000,-4.578313253012048,-0.9036144578313253,-8.807228915662652,-0.8264868179031268,-4.2335990190067445,-8.515021459227468,3.0,0.20135420135420137,4966.372657111356,0.3472991084435644,-0.10535516578287923,-0.04813239321717832,1226.3736263736264,-1.0,61.6770712425887,0.20181823095787887,
2023-08-16 12:11:28.126000,-4.590361445783133,-0.9156626506024097,-8.795180722891567,-0.8779889638258737,-4.211526670754139,-8.532188841201716,3.0,0.20135420135420137,4966.372657111356,-0.054891906066079854,-0.1820406736204189,0.0748208146378415,1224.1758241758241,-1.0,61.6770712425887,0.20181609134697984,
2023-08-16 12:11:28.134000,-4.590361445783133,-0.9156626506024097,-8.807228915662652,-0.8461066830165542,-4.226241569589209,-8.507664009809933,3.0,0.20135420135420137,4966.372657111356,-0.11491171843132691,0.06176796223996309,-0.061534875590000544,1221.9780219780218,-1.0,61.6770712425887,0.20181395873757615,
2023-08-16 12:11:28.142000,-4.602409638554217,-0.9277108433734941,-8.783132530120483,-0.8289393010423053,-4.167381974248927,-8.532188841201716,3.0,0.20135420135420137,4966.372657111356,-0.11234776528174331,0.06048598566517042,-0.061884505564943924,1223.4432234432234,-1.0,61.6770712425887,0.20181183061739752,
2023-08-16 12:11:28.149000,-4.590361445783133,-0.9036144578313253,-8.783132530120483,-0.8927038626609441,-4.218884120171674,-8.485591661557326,3.0,0.20135420135420137,4966.372657111356,-0.30895635452479453,-0.002214323174639364,0.05978672571528453,1230.03663003663,-1.0,61.6770712425887,0.20180970449230184,
2023-08-16 12:11:28.157000,-4.590361445783133,-0.9036144578313253,-8.783132530120483,-0.8264868179031268,-4.196811771919068,-8.488044144696504,3.0,0.20135420135420137,4966.372657111356,0.16665695472291897,0.07144105821339161,0.02645533477070108,1238.095238095238,-1.0,61.6770712425887,0.20180757789265566,
2023-08-16 12:11:28.165000,-4.566265060240964,-0.9036144578313253,-8.819277108433736,-0.8436541998773758,-4.226241569589209,-8.539546290619251,3.0,0.20135420135420137,4966.372657111356,-0.049064739817027615,-0.038226210593788994,0.11840801818075852,1246.153846153846,-1.0,61.6770712425887,0.20180544851820842,
2023-08-16 12:11:28.172000,-4.602409638554217,-0.9156626506024097,-8.819277108433736,-0.8755364806866952,-4.228694052728387,-8.546903740036786,3.0,0.20179820179820185,4955.4455445544545,-0.15395373229998177,-0.16222830837363852,-0.23273701998718038,1252.7472527472526,-1.0,61.6770712425887,0.20180331408481506,
2023-08-16 12:11:28.180000,-4.602409638554217,-0.9036144578313253,-8.807228915662652,-0.8166768853464133,-4.196811771919068,-8.515021459227468,3.0,0.20135420135420137,4966.372657111356,0.4429811782530151,0.2490530854845283,0.014334828972670657,1254.9450549450548,-1.0,61.6770712425887,0.2018011723516788,
2023-08-16 12:11:28.188000,-4.602409638554217,-0.9036144578313253,-8.795180722891567,-0.8657265481299815,-4.174739423666462,-8.529736358062538,3.0,0.20135420135420137,4966.372657111356,-0.048248936542160024,-0.34951343161820375,-0.12097197133034213,1254.212454212454,-1.0,61.6770712425887,0.20179902114828954,
2023-08-16 12:11:28.195000,-4.590361445783133,-0.9036144578313253,-8.795180722891567,-0.8338442673206621,-4.157572041692213,-8.475781729000612,3.0,0.20135420135420137,4966.372657111356,0.13752112347765258,-0.09008799021036015,-0.06060252899015212,1250.5494505494505,-1.0,61.6770712425887,0.20179685822023516,
2023-08-16 12:11:28.203000,-4.602409638554217,-0.9036144578313253,-8.795180722891567,-0.8289393010423053,-4.265481299816064,-8.51256897608829,3.0,0.20135420135420137,4966.372657111356,-0.1843715401200391,-0.0749373579628219,0.0903210768603227,1243.956043956044,-1.0,61.6770712425887,0.2017946813725625,
2023-08-16 12:11:28.211000,-4.614457831325302,-0.9036144578313253,-8.807228915662652,-0.8755364806866952,-4.196811771919068,-8.47823421213979,3.0,0.20135420135420137,4966.372657111356,0.04696695996736735,-0.22900763358778625,-0.07843365771225438,1235.164835164835,-1.0,61.6770712425887,0.20179248847405498,
2023-08-16 12:11:28.218000,-4.566265060240964,-0.9156626506024097,-8.771084337349398,-0.8976088289393009,-4.201716738197424,-8.485591661557326,3.0,0.20135420135420137,4966.372657111356,0.3527766447176741,-0.13658877687780416,-0.2179360177145855,1229.3040293040292,-1.0,61.6770712425887,0.20179027746116918,
2023-08-16 12:11:28.226000,-4.602409638554217,-0.9156626506024097,-8.795180722891567,-0.8804414469650521,-4.213979153893317,-8.49785407725322,3.0,0.20135420135420137,4966.372657111356,0.05967018239030283,-0.15185595245032324,0.21117650486568398,1223.4432234432234,-1.0,61.6770712425887,0.2017880463416271,
2023-08-16 12:11:28.234000,-4.578313253012048,-0.9156626506024097,-8.771084337349398,-0.8362967504598405,-4.167381974248927,-8.52728387492336,3.0,0.20135420135420137,4966.372657111356,-0.04859856651710253,0.01794767204708353,0.07307266476312549,1216.8498168498168,-1.0,61.6770712425887,0.20178579319766343,
2023-08-16 12:11:28.241000,-4.578313253012048,-0.9156626506024097,-8.795180722891567,-0.8706315144083384,-4.167381974248927,-8.51011649294911,3.0,0.20135420135420137,4966.372657111356,-0.06538080531437596,0.04789930656721578,0.0868247771108911,1208.058608058608,-1.0,61.6770712425887,0.20178351618892773,
2023-08-16 12:11:28.249000,-4.590361445783133,-0.9156626506024097,-8.807228915662652,-0.8706315144083384,-4.2335990190067445,-8.519926425505824,3.0,0.20135420135420137,4966.372657111356,0.2849484295786954,-0.08880601363556921,0.07237340481323917,1197.8021978021977,949.8291015625,63.169258450070686,0.20178121355504516,
2023-08-16 12:11:28.257000,-4.590361445783133,-0.9156626506024097,-8.819277108433736,-0.8877988963825874,-4.204169221336603,-8.505211526670754,3.0,0.20135420135420137,4966.372657111356,0.03764349396888308,-0.026688421420663622,0.2405454227609112,1186.8131868131868,-1.0,63.169258450070686,0.20177888375658806,
2023-08-16 12:11:28.264000,-4.626506024096386,-0.9277108433734941,-8.819277108433736,-0.8412017167381973,-4.137952176578786,-8.52728387492336,3.0,0.20135420135420137,4966.372657111356,-0.1770293106462325,-0.2856476895285821,0.13250976050346708,1178.021978021978,-1.0,63.169258450070686,0.20177652545658625,
2023-08-16 12:11:28.272000,-4.590361445783133,-0.9277108433734941,-8.807228915662652,-0.8436541998773758,-4.187001839362354,-8.485591661557326,3.0,0.20135420135420137,4966.372657111356,0.11665986830604294,-0.2822679331041309,-0.007924946098712067,1169.9633699633698,-1.0,63.169258450070686,0.20177413737410121,
2023-08-16 12:11:28.280000,-4.578313253012048,-0.9036144578313253,-8.795180722891567,-0.8657265481299815,-4.2335990190067445,-8.554261189454323,3.0,0.20135420135420137,4966.372657111356,0.025639531495834356,-0.0816968708117243,-0.11689295495600505,1166.3003663003662,-1.0,63.169258450070686,0.20177171828657928,
2023-08-16 12:11:28.287000,-4.578313253012048,-0.9036144578313253,-8.807228915662652,-0.8583690987124463,-4.196811771919068,-8.534641324340894,3.0,0.20135420135420137,4966.372657111356,0.12015616805547498,-0.020278538546705464,0.14253248645183852,1166.3003663003662,-1.0,63.169258450070686,0.20176926703170517,
2023-08-16 12:11:28.295000,-4.590361445783133,-0.9156626506024097,-8.795180722891567,-0.9074187614960146,-4.16247700797057,-8.571428571428571,3.0,0.20135420135420137,4966.372657111356,-0.12493444437969795,-0.08146378416176263,0.20208612551716096,1166.3003663003662,-1.0,63.169258450070686,0.2017667823700185,
2023-08-16 12:11:28.303000,-4.614457831325302,-0.9277108433734941,-8.819277108433736,-0.8706315144083384,-4.177191906805641,-8.593500919681176,3.0,0.20135420135420137,4966.372657111356,-0.13903618670240694,-0.15640114212458453,0.018180758697045635,1164.102564102564,-1.0,63.169258450070686,0.20176426300619005,
2023-08-16 12:11:28.310000,-4.590361445783133,-0.9277108433734941,-8.771084337349398,-0.8362967504598405,-4.216431637032495,-8.49785407725322,3.0,0.20135420135420137,4966.372657111356,0.19672513256803206,-0.47444787599790167,-0.3032457316007227,1161.1721611721612,-1.0,63.169258450070686,0.20176170773746435,
2023-08-16 12:11:28.318000,-4.614457831325302,-0.9036144578313253,-8.783132530120483,-0.8264868179031268,-4.211526670754139,-8.502759043531576,3.0,0.20135420135420137,4966.372657111356,-0.14311520307674316,-0.3017306683759688,0.14532952625138382,1162.6373626373625,-1.0,63.169258450070686,0.20175911559133305,
2023-08-16 12:11:28.326000,-4.602409638554217,-0.9156626506024097,-8.795180722891567,-0.86817903126916,-4.260576333537706,-8.529736358062538,3.0,0.20135420135420137,4966.372657111356,0.160829788473865,-0.03869238389371234,-0.08123069751180009,1166.3003663003662,-1.0,63.169258450070686,0.20175648566512924,
2023-08-16 12:11:28.333000,-4.602409638554217,-0.9397590361445783,-8.783132530120483,-0.8608215818516247,-4.248313917841815,-8.500306560392398,3.0,0.20179820179820185,4955.4455445544545,0.018064215372064367,-0.03927510051861826,0.16479226152322127,1169.9633699633698,-1.0,63.169258450070686,0.20175381699696904,
2023-08-16 12:11:28.341000,-4.590361445783133,-0.9036144578313253,-8.795180722891567,-0.8583690987124463,-4.191906805640711,-8.539546290619251,3.0,0.20135420135420137,4966.372657111356,-0.030534351145038167,-0.2825010197540943,-0.09311811665986841,1172.161172161172,-1.0,63.169258450070686,0.20175110886255074,
2023-08-16 12:11:28.349000,-4.602409638554217,-0.9036144578313253,-8.783132530120483,-0.8436541998773758,-4.211526670754139,-8.51256897608829,3.0,0.20135420135420137,4966.372657111356,0.10314084260823987,-0.09871219625895941,0.10418973253306914,1174.3589743589744,-1.0,63.169258450070686,0.2017483606458338,
2023-08-16 12:11:28.356000,-4.590361445783133,-0.9036144578313253,-8.783132530120483,-0.8019619865113427,-4.204169221336603,-8.461066830165542,3.0,0.20135420135420137,4966.372657111356,0.054891906066079854,-0.3883223588368969,0.562554629683585,1173.6263736263736,-1.0,63.169258450070686,0.2017455716781111,
2023-08-16 12:11:28.364000,-4.578313253012048,-0.9036144578313253,-8.771084337349398,-0.8632740649908032,-4.182096873083998,-8.465971796443899,3.0,0.20135420135420137,4966.372657111356,0.06864401841384458,0.010721985898257782,0.11456208845638355,1173.6263736263736,-1.0,63.169258450070686,0.2017427413748946,
2023-08-16 12:11:28.372000,-4.602409638554217,-0.9156626506024097,-8.783132530120483,-0.9147762109135499,-4.160024524831392,-8.51256897608829,3.0,0.20135420135420137,4966.372657111356,0.22073305751413125,-0.0941670065846981,0.38785618553697354,1172.161172161172,-1.0,63.169258450070686,0.2017398692340141,
2023-08-16 12:11:28.379000,-4.578313253012048,-0.9036144578313253,-8.783132530120483,-0.86817903126916,-4.206621704475782,-8.539546290619251,3.0,0.20135420135420137,4966.372657111356,0.32538896334712375,-0.33541168929549475,0.4299283258551367,1171.4285714285713,-1.0,63.169258450070686,0.20173695483370047,
2023-08-16 12:11:28.387000,-4.578313253012048,-0.8795180722891567,-8.795180722891567,-0.8902513795217657,-4.2335990190067445,-8.52728387492336,3.0,0.20135420135420137,4966.372657111356,0.5983334304527703,-0.37818308956354507,0.12097197133034213,1170.6959706959706,-1.0,63.169258450070686,0.2017339979694288,
2023-08-16 12:11:28.395000,-4.590361445783133,-0.8674698795180723,-8.783132530120483,-0.8755364806866952,-4.201716738197424,-8.532188841201716,3.0,0.20135420135420137,4966.372657111356,0.4273643727055535,-0.2819183031291884,0.16654041139793727,1172.8937728937728,-1.0,63.169258450070686,0.2017309984929146,
2023-08-16 12:11:28.402000,-4.590361445783133,-0.8674698795180723,-8.795180722891567,-0.8338442673206621,-4.204169221336603,-8.483139178418147,3.0,0.20135420135420137,4966.372657111356,0.6529922498688886,-0.2160713245148891,-0.04603461336751936,1174.3589743589744,-1.0,63.169258450070686,0.20172795618267786,
2023-08-16 12:11:28.410000,-4.626506024096386,-0.8674698795180723,-8.807228915662652,-0.8877988963825874,-4.204169221336603,-8.502759043531576,3.0,0.20135420135420137,4966.372657111356,0.7843365771225447,-0.30511042480042,0.1545364489248877,1176.5567765567764,-1.0,63.169258450070686,0.2017248708913889,
2023-08-16 12:11:28.418000,-4.63855421686747,-0.8915662650602411,-8.783132530120483,-0.8166768853464133,-4.218884120171674,-8.578786020846106,3.0,0.20135420135420137,4966.372657111356,0.5793368684808575,-0.3315657595711202,-0.1506905192005127,1175.0915750915751,-1.0,63.169258450070686,0.20172174268275855,
2023-08-16 12:11:28.425000,-4.590361445783133,-0.8674698795180723,-8.795180722891567,-0.9172286940527283,-4.245861434702636,-8.537093807480073,3.0,0.20135420135420137,4966.372657111356,0.5730435289318803,-0.3262047666219913,-0.14882582600081584,1171.4285714285713,-1.0,63.169258450070686,0.20171857180940714,
2023-08-16 12:11:28.433000,-4.590361445783133,-0.8795180722891567,-8.807228915662652,-0.8093194359288779,-4.248313917841815,-8.52728387492336,3.0,0.20135420135420137,4966.372657111356,0.6890041372880364,-0.3369267525202491,-0.056640055940795866,1168.4981684981685,-1.0,63.169258450070686,0.20171535856324044,
2023-08-16 12:11:28.441000,-4.578313253012048,-0.9036144578313253,-8.795180722891567,-0.9294911097486205,-4.228694052728387,-8.551808706315144,3.0,0.20135420135420137,4966.372657111356,0.055008449391060685,-0.49962123419381094,0.06631315191422396,1167.032967032967,-1.0,63.169258450070686,0.20171210327505879,
2023-08-16 12:11:28.448000,-4.578313253012048,-0.9277108433734941,-8.831325301204819,-0.8632740649908032,-4.187001839362354,-8.566523605150214,3.0,0.20135420135420137,4966.372657111356,0.43424042887943676,-0.6616164559174879,-0.1931122894936192,1166.3003663003662,-1.0,63.169258450070686,0.20170880631411622,
2023-08-16 12:11:28.456000,-4.590361445783133,-0.9397590361445783,-8.795180722891567,-0.9491109748620478,-4.253218884120171,-8.554261189454323,3.0,0.20135420135420137,4966.372657111356,0.45964687372530766,-0.761727172076219,0.15884855194918732,1170.6959706959706,-1.0,63.169258450070686,0.20170546794888916,
2023-08-16 12:11:28.463000,-4.650602409638554,-0.9397590361445783,-8.783132530120483,-0.9172286940527283,-4.199264255058246,-8.529736358062538,3.0,0.20135420135420137,4966.372657111356,0.7140609521589649,-0.31280228424916906,-0.04253831361808732,1176.5567765567764,-1.0,63.169258450070686,0.2017020885056968,
2023-08-16 12:11:28.471000,-4.650602409638554,-0.9518072289156627,-8.759036144578314,-0.9466584917228693,-4.238503985285101,-8.55916615573268,3.0,0.20135420135420137,4966.372657111356,0.15814929199930056,-0.30942252782471963,0.12388555445486868,1183.150183150183,-1.0,63.169258450070686,0.20169866849578785,
2023-08-16 12:11:28.479000,-4.626506024096386,-0.9397590361445783,-8.795180722891567,-0.9147762109135499,-4.265481299816064,-8.51256897608829,3.0,0.20135420135420137,4966.372657111356,0.5229298991900234,-0.5049822271429398,-0.24357554921041902,1188.278388278388,-1.0,63.169258450070686,0.20169520832696122,
2023-08-16 12:11:28.486000,-4.650602409638554,-0.9397590361445783,-8.783132530120483,-0.8951563458001226,-4.236051502145923,-8.49294911097486,3.0,0.20135420135420137,4966.372657111356,0.3055765981003433,-0.5899423110541345,-0.37760037293864,1192.6739926739926,-1.0,63.169258450070686,0.20169170832361308,
2023-08-16 12:11:28.494000,-4.614457831325302,-0.9277108433734941,-8.783132530120483,-0.9123237277743715,-4.2703862660944205,-8.49540159411404,3.0,0.20135420135420137,4966.372657111356,0.4095332439834508,-0.049647456441931796,-0.1928792028436571,1194.8717948717947,-1.0,63.169258450070686,0.20168816887440746,
2023-08-16 12:11:28.502000,-4.626506024096386,-0.9518072289156627,-8.783132530120483,-0.9147762109135499,-4.157572041692213,-8.488044144696504,3.0,0.20135420135420137,4966.372657111356,0.11444554513140184,-0.07855020103723478,0.0825126740865919,1194.8717948717947,-1.0,63.169258450070686,0.201684590430868,
2023-08-16 12:11:28.509000,-4.626506024096386,-0.963855421686747,-8.795180722891567,-0.9172286940527283,-4.182096873083998,-8.434089515634579,3.0,0.20135420135420137,4966.372657111356,0.1574500320494138,-0.13798729677757768,-0.01083852922323862,1193.4065934065934,-1.0,63.169258450070686,0.20168097350619094,
2023-08-16 12:11:28.517000,-4.626506024096386,-0.963855421686747,-8.783132530120483,-0.8828939301042305,-4.253218884120171,-8.522378908645003,3.0,0.20135420135420137,4966.372657111356,-0.13484062700308813,0.01678223879727343,0.06561389196433763,1191.2087912087911,-1.0,63.169258450070686,0.2016773188130308,
2023-08-16 12:11:28.525000,-4.63855421686747,-0.963855421686747,-8.734939759036145,-0.956468424279583,-4.204169221336603,-8.49785407725322,3.0,0.20135420135420137,4966.372657111356,-0.014334828972670657,-0.12155468795524675,-0.30382844822562777,1190.4761904761904,-1.0,63.169258450070686,0.20167362724238194,
2023-08-16 12:11:28.532000,-4.590361445783133,-0.9759036144578314,-8.771084337349398,-0.9711833231146535,-4.160024524831392,-8.490496627835682,3.0,0.20179820179820185,4955.4455445544545,-0.09125342346017198,-0.12085542800536173,-0.2553464250335061,1194.1391941391942,-1.0,63.169258450070686,0.20166989957631787,
2023-08-16 12:11:28.540000,-4.614457831325302,-0.9759036144578314,-8.74698795180723,-0.9589209074187615,-4.265481299816064,-8.51011649294911,3.0,0.20135420135420137,4966.372657111356,-0.30639240137521095,0.16863819124759666,0.03810966726880729,1200.7326007326008,-1.0,63.169258450070686,0.20166613679721548,
2023-08-16 12:11:28.548000,-4.614457831325302,-0.963855421686747,-8.734939759036145,-0.8902513795217657,-4.238503985285101,-8.443899448191294,3.0,0.20179820179820185,4955.4455445544545,-0.2615232212575021,-0.04591807004253809,-0.3293514363964804,1215.3846153846152,-1.0,63.169258450070686,0.2016623400887608,
2023-08-16 12:11:28.555000,-4.626506024096386,-0.9518072289156627,-8.759036144578314,-0.9147762109135499,-4.221336603310852,-8.507664009809933,3.0,0.20135420135420137,4966.372657111356,-0.2610570479575788,0.10885146553231127,0.19136413961890317,1244.6886446886447,-1.0,63.169258450070686,0.20165851067802057,
2023-08-16 12:11:28.563000,-4.63855421686747,-0.9518072289156627,-8.72289156626506,-0.8828939301042305,-4.265481299816064,-8.519926425505824,3.0,0.20135420135420137,4966.372657111356,-0.39554804498572266,0.12318629450498193,-0.008857292698560493,1293.040293040293,-1.0,63.169258450070686,0.20165464984795864,
2023-08-16 12:11:28.571000,-4.63855421686747,-0.9759036144578314,-8.771084337349398,-0.8755364806866952,-4.30226854690374,-8.424279583077865,3.0,0.20135420135420137,4966.372657111356,-0.11561097838121367,0.472466639473224,-0.14789347940096742,1361.904761904762,-1.0,63.169258450070686,0.20165075864090434,
2023-08-16 12:11:28.578000,-4.63855421686747,-0.9518072289156627,-8.74698795180723,-0.9147762109135499,-4.25567136725935,-8.456161863887186,3.0,0.20135420135420137,4966.372657111356,-0.405337684284132,0.4999708641687552,-0.13285939047841044,1451.2820512820513,-1.0,63.169258450070686,0.20164683815772796,
2023-08-16 12:11:28.586000,-4.602409638554217,-0.9518072289156627,-8.795180722891567,-0.9025137952176578,-4.206621704475782,-8.438994481912937,3.0,0.20135420135420137,4966.372657111356,-0.35638948779208696,0.3436862653691515,-0.05454227609113691,1557.5091575091574,-1.0,63.169258450070686,0.20164288968668456,
2023-08-16 12:11:28.594000,-4.614457831325302,-0.9397590361445783,-8.759036144578314,-0.86817903126916,-4.204169221336603,-8.485591661557326,3.0,0.20135420135420137,4966.372657111356,0.02738768137054864,0.7405162869296669,0.18891672979430083,1677.6556776556774,-1.0,63.169258450070686,0.2016389145554636,
2023-08-16 12:11:28.601000,-4.602409638554217,-0.9156626506024097,-8.759036144578314,-0.9343960760269773,-4.187001839362354,-8.49785407725322,3.0,0.20135420135420137,4966.372657111356,-0.2635044577821798,0.7526367927276963,0.23203776003729365,1808.7912087912086,-1.0,63.169258450070686,0.2016349141324335,
2023-08-16 12:11:28.609000,-4.602409638554217,-0.9277108433734941,-8.74698795180723,-0.8902513795217657,-4.2409564684242795,-8.46351931330472,3.0,0.20135420135420137,4966.372657111356,-0.10873492220733044,0.9626478643435699,0.0023308664996210685,1944.3223443223442,-1.0,63.169258450070686,0.2016308898277672,
2023-08-16 12:11:28.617000,-4.602409638554217,-0.9397590361445783,-8.795180722891567,-0.9319435928877988,-4.238503985285101,-8.490496627835682,3.0,0.20135420135420137,4966.372657111356,-0.3982285414602871,0.5894761377542095,-0.17982635044577824,2079.8534798534797,-1.0,63.169258450070686,0.20162684309443216,
2023-08-16 12:11:28.624000,-4.602409638554217,-0.9277108433734941,-8.795180722891567,-0.8608215818516247,-4.228694052728387,-8.517473942366646,3.0,0.20179820179820185,4955.4455445544545,-0.32084377367286243,0.7526367927276963,0.09696404638424339,2205.8608058608056,-1.0,63.169258450070686,0.2016227754290261,
2023-08-16 12:11:28.632000,-4.590361445783133,-0.9036144578313253,-8.783132530120483,-0.9000613120784794,-4.169834457388105,-8.502759043531576,3.0,0.20179820179820185,4955.4455445544545,-0.5757240254064447,1.1443389079890445,0.14288211642678147,2317.948717948718,-1.0,63.169258450070686,0.2016186885217367,
2023-08-16 12:11:28.640000,-4.602409638554217,-0.9156626506024097,-8.807228915662652,-0.8927038626609441,-4.184549356223176,-8.566523605150214,3.0,0.20135420135420137,4966.372657111356,-0.7253656546821285,0.8162694481673564,0.24800419555969946,2413.186813186813,-1.0,63.169258450070686,0.201614584278698,
2023-08-16 12:11:28.647000,-4.602409638554217,-0.9156626506024097,-8.807228915662652,-0.8093194359288779,-4.189454322501533,-8.524831391784181,3.0,0.20179820179820185,4955.4455445544545,-0.44542858807761787,0.9176621409008802,-0.04428646349280334,2487.912087912088,-1.0,63.169258450070686,0.2016104645359133,
2023-08-16 12:11:28.655000,-4.590361445783133,-0.9156626506024097,-8.819277108433736,-0.9049662783568363,-4.133047210300429,-8.539546290619251,3.0,0.20135420135420137,4966.372657111356,-0.4745644193228825,0.8514655323116367,0.20127032224229335,2539.194139194139,-1.0,63.169258450070686,0.20160633118860954,
2023-08-16 12:11:28.663000,-4.578313253012048,-0.8915662650602411,-8.819277108433736,-0.8583690987124463,-4.228694052728387,-8.571428571428571,3.0,0.20135420135420137,4966.372657111356,-0.18110832702057048,0.5994988637025822,0.13845347007750144,2565.5677655677655,-1.0,63.169258450070686,0.20160218620276651,
2023-08-16 12:11:28.670000,-4.602409638554217,-0.8915662650602411,-8.807228915662652,-0.8877988963825874,-4.238503985285101,-8.515021459227468,3.0,0.20179820179820185,4955.4455445544545,-0.6986772332614649,0.6708233785909913,-0.1073364023075578,2569.230769230769,-1.0,63.169258450070686,0.20159803145611738,
2023-08-16 12:11:28.678000,-4.590361445783133,-0.9036144578313253,-8.855421686746988,-0.8706315144083384,-4.191906805640711,-8.480686695278969,3.0,0.20179820179820185,4955.4455445544545,-0.5571936367344552,0.6931996969873553,-0.3359944059204011,2553.113553113553,-1.0,63.169258450070686,0.20159386902604134,
2023-08-16 12:11:28.686000,-4.566265060240964,-0.8795180722891567,-8.819277108433736,-0.8706315144083384,-4.169834457388105,-8.517473942366646,3.0,0.20179820179820185,4955.4455445544545,-0.12493444437969795,0.716974535283491,-0.31932871044810895,2516.4835164835163,-1.0,63.169258450070686,0.2015897012109951,
2023-08-16 12:11:28.693000,-4.578313253012048,-0.8915662650602411,-8.807228915662652,-0.8583690987124463,-4.20907418761496,-8.515021459227468,3.0,0.20179820179820185,4955.4455445544545,-0.48901579162053577,0.28483188625371453,-0.013402482372822228,2460.07326007326,-1.0,63.169258450070686,0.20158553039269655,
2023-08-16 12:11:28.701000,-4.590361445783133,-0.8674698795180723,-8.795180722891567,-0.8828939301042305,-4.182096873083998,-8.49785407725322,3.0,0.20179820179820185,4955.4455445544545,-0.4862187518209887,0.27795583007983304,-0.01165433249810621,2390.4761904761904,-1.0,63.169258450070686,0.20158135903692287,
2023-08-16 12:11:28.709000,-4.578313253012048,-0.8674698795180723,-8.807228915662652,-0.8240343347639485,-4.174739423666462,-8.519926425505824,3.0,0.20179820179820185,4955.4455445544545,0.1272653108793199,0.42992832585513713,-0.08775712371073952,2314.285714285714,-1.0,63.169258450070686,0.20157718969415403,
2023-08-16 12:11:28.716000,-4.566265060240964,-0.8795180722891567,-8.783132530120483,-0.9025137952176578,-4.108522378908645,-8.505211526670754,3.0,0.20179820179820185,4955.4455445544545,-0.30079832177612037,0.549618320610687,0.03566225744420495,2232.234432234432,-1.0,63.169258450070686,0.20157302500004337,
2023-08-16 12:11:28.724000,-4.566265060240964,-0.9036144578313253,-8.807228915662652,-0.8706315144083384,-4.169834457388105,-8.517473942366646,3.0,0.20135420135420137,4966.372657111356,-0.11537789173125026,0.14905891265077795,-0.05559116601596661,2150.1831501831502,-1.0,63.169258450070686,0.2015688675369466,
2023-08-16 12:11:28.732000,-4.578313253012048,-0.9036144578313253,-8.771084337349398,-0.86817903126916,-4.16247700797057,-8.532188841201716,3.0,0.20135420135420137,4966.372657111356,-0.2829671930540177,-0.06538080531437596,0.05349338616630721,2065.201465201465,-1.0,63.169258450070686,0.20156471984382437,
2023-08-16 12:11:28.739000,-4.602409638554217,-0.9036144578313253,-8.783132530120483,-0.851011649294911,-4.22378908645003,-8.49294911097486,3.0,0.20135420135420137,4966.372657111356,0.08414428063632708,0.07540353126274699,-0.3596527008915565,1981.6849816849815,-1.0,63.169258450070686,0.2015605845218181,
2023-08-16 12:11:28.747000,-4.578313253012048,-0.9036144578313253,-8.831325301204819,-0.8412017167381973,-4.152667075413857,-8.546903740036786,3.0,0.20135420135420137,4966.372657111356,-0.07097488491346653,-0.13728803682769092,-0.018297302022026472,1901.098901098901,-1.0,63.169258450070686,0.20155646422180556,
2023-08-16 12:11:28.755000,-4.578313253012048,-0.9036144578313253,-8.807228915662652,-0.8461066830165542,-4.179644389944819,-8.532188841201716,3.0,0.20179820179820185,4955.4455445544545,0.021210885146553893,-0.044752636792727986,-0.14125050987704674,1828.5714285714284,-1.0,63.169258450070686,0.2015523616420515,
2023-08-16 12:11:28.762000,-4.566265060240964,-0.9156626506024097,-8.795180722891567,-0.838749233599019,-4.201716738197424,-8.54199877375843,3.0,0.20135420135420137,4966.372657111356,-0.07097488491346653,-0.41221374045801523,-0.10873492220733044,1763.3699633699632,-1.0,63.169258450070686,0.20154827967469038,
2023-08-16 12:11:28.770000,-4.530120481927711,-0.9036144578313253,-8.807228915662652,-0.8779889638258737,-4.253218884120171,-8.480686695278969,3.0,0.20179820179820185,4955.4455445544545,0.20499970864168707,-0.3335469960957979,-0.16968708117242592,1704.0293040293038,-1.0,63.169258450070686,0.20154422127503083,
2023-08-16 12:11:28.778000,-4.55421686746988,-0.9036144578313253,-8.783132530120483,-0.8706315144083384,-4.177191906805641,-8.551808706315144,3.0,0.20135420135420137,4966.372657111356,0.1420663131519139,-0.3632655439659685,-0.22959035021269172,1646.8864468864467,-1.0,63.169258450070686,0.20154018944815988,
2023-08-16 12:11:28.785000,-4.590361445783133,-0.9036144578313253,-8.807228915662652,-0.838749233599019,-4.187001839362354,-8.515021459227468,3.0,0.20179820179820185,4955.4455445544545,0.09579861313443329,-0.3147835207738485,-0.07610279121263332,1594.139194139194,-1.0,63.169258450070686,0.20153618725623626,
2023-08-16 12:11:28.793000,-4.590361445783133,-0.9036144578313253,-8.795180722891567,-0.8608215818516247,-4.189454322501533,-8.505211526670754,3.0,0.20135420135420137,4966.372657111356,0.2490530854845283,-0.464192063399569,-0.2265602237631839,1547.2527472527472,-1.0,63.169258450070686,0.20153221780432662,
2023-08-16 12:11:28.801000,-4.602409638554217,-0.8795180722891567,-8.807228915662652,-0.8362967504598405,-4.221336603310852,-8.519926425505824,3.0,0.20135420135420137,4966.372657111356,0.019229648621874467,0.02925237457024723,-0.36151739409125333,1505.4945054945053,-1.0,63.169258450070686,0.20152828424692715,
2023-08-16 12:11:28.808000,-4.614457831325302,-0.8795180722891567,-8.783132530120483,-0.8632740649908032,-4.216431637032495,-8.564071122011036,3.0,0.20135420135420137,4966.372657111356,0.3095390711497005,-0.33925761901987106,-0.2207330575141308,1467.3992673992673,-1.0,63.169258450070686,0.201524389484987,
2023-08-16 12:11:28.816000,-4.566265060240964,-0.8915662650602411,-8.807228915662652,-0.8362967504598405,-4.22378908645003,-8.500306560392398,3.0,0.20135420135420137,4966.372657111356,0.10896800885729212,-0.4898315948954016,-0.20336810209195277,1431.5018315018315,-1.0,63.169258450070686,0.20152053645821297,
2023-08-16 12:11:28.824000,-4.590361445783133,-0.8915662650602411,-8.807228915662652,-0.8412017167381973,-4.196811771919068,-8.51011649294911,3.0,0.20135420135420137,4966.372657111356,0.3496299749431846,-0.5616222830837357,-0.5075461802925239,1398.5347985347985,-1.0,63.169258450070686,0.20151672826664171,
2023-08-16 12:11:28.831000,-4.578313253012048,-0.8795180722891567,-8.783132530120483,-0.82158185162477,-4.211526670754139,-8.485591661557326,3.0,0.20135420135420137,4966.372657111356,0.05629042596585336,-0.37270555328943533,-0.22970689353767257,1369.9633699633698,-1.0,63.169258450070686,0.2015129680150474,
2023-08-16 12:11:28.839000,-4.578313253012048,-0.8915662650602411,-8.795180722891567,-0.838749233599019,-4.182096873083998,-8.534641324340894,3.0,0.20135420135420137,4966.372657111356,0.39356680846104497,-0.47689528582250446,-0.07563661791270909,1346.5201465201465,-1.0,63.169258450070686,0.2015092588062056,
2023-08-16 12:11:28.846000,-4.602409638554217,-0.9036144578313253,-8.795180722891567,-0.8853464132434089,-4.236051502145923,-8.55916615573268,3.0,0.20135420135420137,4966.372657111356,0.48062467222189814,-0.44088339840335655,-0.25977507138278655,1328.937728937729,-1.0,63.169258450070686,0.2015056037337372,
2023-08-16 12:11:28.854000,-4.590361445783133,-0.9156626506024097,-8.759036144578314,-0.8902513795217657,-4.182096873083998,-8.49540159411404,3.0,0.20135420135420137,4966.372657111356,0.24881999883456662,-0.8473865159373004,-0.08938873026047427,1318.6813186813185,-1.0,63.169258450070686,0.20150200587455241,
2023-08-16 12:11:28.862000,-4.566265060240964,-0.9277108433734941,-8.771084337349398,-0.8828939301042305,-4.213979153893317,-8.49785407725322,3.0,0.20135420135420137,4966.372657111356,0.33879144571994596,-0.5653516694831312,-0.0578054891906064,1316.4835164835165,-1.0,63.169258450070686,0.201498468280921,
2023-08-16 12:11:28.869000,-4.590361445783133,-0.9397590361445783,-8.74698795180723,-0.851011649294911,-4.160024524831392,-8.490496627835682,3.0,0.20135420135420137,4966.372657111356,0.3196783404230523,-0.9126507779266938,-0.09020453353534186,1321.6117216117216,-1.0,63.169258450070686,0.201494993972195,
2023-08-16 12:11:28.877000,-4.602409638554217,-0.9397590361445783,-8.771084337349398,-0.9196811771919068,-4.20907418761496,-8.490496627835682,3.0,0.20135420135420137,4966.372657111356,0.5144222364664067,-0.5549793135598159,-0.04603461336751936,1331.135531135531,-1.0,63.169258450070686,0.2014915859262163,
2023-08-16 12:11:28.885000,-4.602409638554217,-0.9397590361445783,-8.783132530120483,-0.8657265481299815,-4.2335990190067445,-8.475781729000612,3.0,0.20091020091020093,4977.348066298342,0.31152030767437816,-0.7183730551832646,-0.3639648039158557,1342.8571428571427,-1.0,63.169258450070686,0.20148824707044274,
2023-08-16 12:11:28.892000,-4.614457831325302,-0.9397590361445783,-8.771084337349398,-0.9049662783568363,-4.2924586143470265,-8.522378908645003,3.0,0.20135420135420137,4966.372657111356,0.5088281568673161,-0.5292232387390007,0.0032632130994699297,1356.0439560439559,-1.0,63.169258450070686,0.2014849801235347,
2023-08-16 12:11:28.900000,-4.602409638554217,-0.9397590361445783,-8.74698795180723,-0.9957081545064377,-4.236051502145923,-8.519926425505824,3.0,0.20179820179820185,4955.4455445544545,0.3834275391876931,-0.3414719421945104,-0.2252782471883921,1368.4981684981683,-1.0,63.169258450070686,0.20148178771344996,
2023-08-16 12:11:28.908000,-4.602409638554217,-0.9518072289156627,-8.783132530120483,-0.9589209074187615,-4.204169221336603,-8.446351931330472,3.0,0.20135420135420137,4966.372657111356,0.25849309480799515,-0.3218926635976917,-0.13181050055358076,1381.6849816849815,-1.0,63.169258450070686,0.2014786726761877,
2023-08-16 12:11:28.915000,-4.614457831325302,-0.9518072289156627,-8.771084337349398,-0.9417535254445125,-4.280196198651134,-8.52728387492336,3.0,0.20135420135420137,4966.372657111356,0.36419789056581864,-0.25651185828331746,-0.1450964396014217,1394.8717948717947,-1.0,63.169258450070686,0.2014756377798321,
2023-08-16 12:11:28.923000,-4.614457831325302,-0.9397590361445783,-8.783132530120483,-0.9515634580012262,-4.238503985285101,-8.524831391784181,3.0,0.20135420135420137,4966.372657111356,0.4514888409766335,-0.4841209719713302,-0.23506788648680146,1409.5238095238094,-1.0,63.169258450070686,0.20147268555576078,
2023-08-16 12:11:28.931000,-4.63855421686747,-0.9397590361445783,-8.771084337349398,-0.86817903126916,-4.260576333537706,-8.507664009809933,3.0,0.20135420135420137,4966.372657111356,0.30872326787483284,-0.542509177786842,0.07272303478818254,1424.9084249084249,-1.0,63.169258450070686,0.20146981842771328,
2023-08-16 12:11:28.938000,-4.650602409638554,-0.963855421686747,-8.783132530120483,-0.9147762109135499,-4.191906805640711,-8.519926425505824,3.0,0.20135420135420137,4966.372657111356,0.24625604568498302,-0.5529980770351381,0.08845638366062585,1439.5604395604394,-1.0,63.169258450070686,0.20146703870214036,
2023-08-16 12:11:28.946000,-4.626506024096386,-0.9518072289156627,-8.783132530120483,-0.9123237277743715,-4.287553648068669,-8.51256897608829,3.0,0.20135420135420137,4966.372657111356,0.1689878212225392,-0.0904376201853044,0.08927218693549344,1452.014652014652,-1.0,63.169258450070686,0.20146434855863424,
2023-08-16 12:11:28.954000,-4.63855421686747,-0.9518072289156627,-8.771084337349398,-0.9147762109135499,-4.267933782955242,-8.544451256897608,3.0,0.20135420135420137,4966.372657111356,0.2753918769302494,-0.24345900588543773,0.1504574325505506,1465.9340659340658,-1.0,63.169258450070686,0.2014617500404916,
2023-08-16 12:11:28.961000,-4.63855421686747,-0.963855421686747,-8.759036144578314,-0.9711833231146535,-4.218884120171674,-8.551808706315144,3.0,0.20135420135420137,4966.372657111356,0.09078725016024691,-0.3336635394207805,0.17831128722102432,1481.3186813186812,-1.0,63.169258450070686,0.2014592450454627,
2023-08-16 12:11:28.969000,-4.614457831325302,-0.9759036144578314,-8.771084337349398,-0.9809932556713672,-4.248313917841815,-8.517473942366646,3.0,0.20179820179820185,4955.4455445544545,0.014684458947613166,-0.027620768020512047,0.14754384942602405,1496.7032967032967,-1.0,63.169258450070686,0.2014568351779875,
2023-08-16 12:11:28.977000,-4.614457831325302,-0.963855421686747,-8.783132530120483,-0.9196811771919068,-4.238503985285101,-8.507664009809933,3.0,0.20135420135420137,4966.372657111356,0.012470135772973802,-0.026455334770700212,0.14684458947613774,1509.1575091575091,-1.0,63.169258450070686,0.20145452204889655,
2023-08-16 12:11:28.984000,-4.626506024096386,-0.963855421686747,-8.759036144578314,-0.8853464132434089,-4.2409564684242795,-8.458614347026364,3.0,0.20135420135420137,4966.372657111356,-0.15733348872443298,-0.40685274750888634,-0.053027212866383,1516.4835164835163,-1.0,63.169258450070686,0.20145230726722577,
2023-08-16 12:11:28.992000,-4.63855421686747,-0.963855421686747,-8.759036144578314,-0.9172286940527283,-4.20907418761496,-8.500306560392398,3.0,0.20135420135420137,4966.372657111356,-0.1412505098770463,-0.12808111415418746,-0.05360992949128848,1520.14652014652,-1.0,63.169258450070686,0.2014501921241975,
2023-08-16 12:11:29,-4.614457831325302,-0.9518072289156627,-8.74698795180723,-0.8902513795217657,-4.2409564684242795,-8.515021459227468,3.0,0.20135420135420137,4966.372657111356,-0.002214323174639364,0.19334537614358085,0.008274576073655443,1518.6813186813185,-1.0,63.169258450070686,0.20144817772481122,
2023-08-16 12:11:29.007000,-4.590361445783133,-0.963855421686747,-8.734939759036145,-0.8608215818516247,-4.282648681790312,-8.438994481912937,3.0,0.20135420135420137,4966.372657111356,-0.1559349688246612,0.010022725948371029,0.02563953149583349,1510.6227106227104,-1.0,63.169258450070686,0.20144626498116802,
2023-08-16 12:11:29.015000,-4.614457831325302,-0.9397590361445783,-8.759036144578314,-0.9147762109135499,-4.243408951563458,-8.534641324340894,3.0,0.20135420135420137,4966.372657111356,-0.0924188567099821,0.4083678107336407,0.056290425965852924,1497.4358974358972,-1.0,63.169258450070686,0.20144445460632265,
2023-08-16 12:11:29.023000,-4.626506024096386,-0.9518072289156627,-8.783132530120483,-0.8951563458001226,-4.267933782955242,-8.517473942366646,3.0,0.20135420135420137,4966.372657111356,-0.1827399335703039,0.43750364197890534,0.2387972728861956,1481.3186813186812,-1.0,63.169258450070686,0.20144274710870205,
2023-08-16 12:11:29.030000,-4.614457831325302,-0.9156626506024097,-8.783132530120483,-0.9711833231146535,-4.2335990190067445,-8.519926425505824,3.0,0.20135420135420137,4966.372657111356,-0.16665695472291897,0.2209661441640929,0.005710622924071835,1464.4688644688645,-1.0,63.169258450070686,0.20144114278713168,
2023-08-16 12:11:29.038000,-4.602409638554217,-0.9397590361445783,-8.783132530120483,-0.8730839975475169,-4.20907418761496,-8.54199877375843,3.0,0.20091020091020093,4977.348066298342,-0.13379173707825887,0.5398286813122777,0.14346483305168697,1446.8864468864467,-1.0,63.169258450070686,0.20143964172650683,
2023-08-16 12:11:29.046000,-4.614457831325302,-0.9277108433734941,-8.819277108433736,-0.9319435928877988,-4.213979153893317,-8.475781729000612,3.0,0.20135420135420137,4966.372657111356,-0.011071615873200292,0.4923955480449852,0.12773148417924365,1435.8974358974358,-1.0,63.169258450070686,0.20143824364484766,
2023-08-16 12:11:29.053000,-4.614457831325302,-0.9277108433734941,-8.807228915662652,-0.86817903126916,-4.275291232372777,-8.524831391784181,3.0,0.20135420135420137,4966.372657111356,-0.05885437911543697,0.35347590466756085,0.0814637841617622,1425.6410256410256,-1.0,63.169258450070686,0.20143694801777773,
2023-08-16 12:11:29.061000,-4.602409638554217,-0.9277108433734941,-8.771084337349398,-0.8534641324340895,-4.231146535867565,-8.534641324340894,3.0,0.20135420135420137,4966.372657111356,-0.0904376201853044,0.366412213740458,0.14066779325214168,1416.117216117216,-1.0,63.169258450070686,0.20143575423526103,
2023-08-16 12:11:29.069000,-4.614457831325302,-0.9277108433734941,-8.819277108433736,-0.9025137952176578,-4.216431637032495,-8.51011649294911,3.0,0.20135420135420137,4966.372657111356,-0.21245848144047624,0.17889400384592938,-0.08962181691043637,1405.128205128205,-1.0,63.169258450070686,0.2014346614612325,
2023-08-16 12:11:29.076000,-4.602409638554217,-0.9397590361445783,-8.807228915662652,-0.8877988963825874,-4.191906805640711,-8.566523605150214,3.0,0.20135420135420137,4966.372657111356,-0.22947380688771132,0.4228191830312922,0.0029135831245265527,1393.4065934065934,-1.0,63.169258450070686,0.20143366863277268,
2023-08-16 12:11:29.084000,-4.614457831325302,-0.9397590361445783,-8.819277108433736,-0.9343960760269773,-4.267933782955242,-8.519926425505824,3.0,0.20135420135420137,4966.372657111356,0.2917079424275978,0.1443971796515358,-0.012819765747916744,1384.6153846153845,-1.0,63.169258450070686,0.20143277446009863,
2023-08-16 12:11:29.092000,-4.602409638554217,-0.9277108433734941,-8.771084337349398,-0.8853464132434089,-4.194359288779889,-8.532188841201716,3.0,0.20135420135420137,4966.372657111356,-0.3363440358953449,0.34275391876930306,0.1545364489248877,1375.8241758241757,-1.0,63.169258450070686,0.20143197742738872,
2023-08-16 12:11:29.099000,-4.578313253012048,-0.9397590361445783,-8.783132530120483,-0.9098712446351931,-4.20907418761496,-8.522378908645003,3.0,0.20135420135420137,4966.372657111356,-0.12062234135539832,0.21735330108968004,0.27644076685507823,1369.230769230769,-1.0,63.169258450070686,0.2014312757944517,
2023-08-16 12:11:29.107000,-4.578313253012048,-0.9518072289156627,-8.759036144578314,-0.851011649294911,-4.194359288779889,-8.49294911097486,3.0,0.20135420135420137,4966.372657111356,-0.4562671173008565,0.276906940155002,0.15372064565002053,1364.102564102564,-1.0,63.169258450070686,0.20143066759925132,
2023-08-16 12:11:29.115000,-4.590361445783133,-0.9397590361445783,-8.795180722891567,-0.8755364806866952,-4.187001839362354,-8.488044144696504,3.0,0.20135420135420137,4966.372657111356,-0.3784161762135067,0.3679272769652123,0.19928908571761567,1358.974358974359,-1.0,63.169258450070686,0.20143015066129055,
2023-08-16 12:11:29.122000,-4.566265060240964,-0.9277108433734941,-8.795180722891567,-0.9319435928877988,-4.142857142857142,-8.51011649294911,3.0,0.20135420135420137,4966.372657111356,-0.20779674844123236,0.1828564768952865,0.44088339840335655,1350.18315018315,-1.0,63.169258450070686,0.20142972258585246,
2023-08-16 12:11:29.130000,-4.578313253012048,-0.9277108433734941,-8.74698795180723,-0.8632740649908032,-4.184549356223176,-8.468424279583077,3.0,0.20135420135420137,4966.372657111356,-0.26536915098187663,0.5018355573684521,0.05559116601596661,1339.194139194139,-1.0,63.169258450070686,0.20142938076909997,
2023-08-16 12:11:29.138000,-4.602409638554217,-0.9156626506024097,-8.771084337349398,-0.8853464132434089,-4.191906805640711,-8.549356223175964,3.0,0.20135420135420137,4966.372657111356,-0.0048948196492038095,0.35976924421653816,-0.05104597634170487,1328.2051282051282,-1.0,63.169258450070686,0.20142912240401956,
2023-08-16 12:11:29.145000,-4.578313253012048,-0.9156626506024097,-8.819277108433736,-0.8779889638258737,-4.25567136725935,-8.532188841201716,3.0,0.20135420135420137,4966.372657111356,0.05465881941611818,0.2206165141891504,0.1474273061010432,1319.4139194139193,-1.0,63.169258450070686,0.20142894448720078,
2023-08-16 12:11:29.153000,-4.590361445783133,-0.9036144578313253,-8.819277108433736,-0.8755364806866952,-4.194359288779889,-8.49785407725322,3.0,0.20135420135420137,4966.372657111356,-0.03892547054367401,0.15884855194918732,0.19171376959384656,1315.018315018315,-1.0,63.169258450070686,0.20142884382643278,
2023-08-16 12:11:29.161000,-4.602409638554217,-0.8795180722891567,-8.783132530120483,-0.8191293684855916,-4.20907418761496,-8.546903740036786,3.0,0.20135420135420137,4966.372657111356,-0.11805838820581471,0.3108210477244914,-0.038226210593788126,1311.3553113553112,-1.0,63.169258450070686,0.20142881704909554,
2023-08-16 12:11:29.168000,-4.590361445783133,-0.9036144578313253,-8.807228915662652,-0.8534641324340895,-4.221336603310852,-8.49785407725322,3.0,0.20135420135420137,4966.372657111356,0.15814929199930056,0.06526426198939513,-0.2666511275566693,1311.3553113553112,-1.0,63.169258450070686,0.20142886061132298,
2023-08-16 12:11:29.176000,-4.602409638554217,-0.9036144578313253,-8.819277108433736,-0.8976088289393009,-4.2335990190067445,-8.576333537706928,3.0,0.20135420135420137,4966.372657111356,-0.21059378824077765,-0.1792436338208736,-0.21781947438960425,1309.89010989011,-1.0,63.169258450070686,0.20142897080790562,
2023-08-16 12:11:29.184000,-4.590361445783133,-0.9036144578313253,-8.795180722891567,-0.9025137952176578,-4.272838749233599,-8.49785407725322,3.0,0.20135420135420137,4966.372657111356,-0.07353883806305013,-0.3312161295961777,-0.09568206980945158,1309.89010989011,-1.0,63.169258450070686,0.2014291437829002,
2023-08-16 12:11:29.191000,-4.590361445783133,-0.9156626506024097,-8.807228915662652,-0.8706315144083384,-4.164929491109748,-8.451256897608829,3.0,0.20091020091020093,4977.348066298342,0.05174523629159206,-0.28040323990443405,-0.38482605908746575,1311.3553113553112,-1.0,63.169258450070686,0.20142937554090914,
2023-08-16 12:11:29.199000,-4.590361445783133,-0.9277108433734941,-8.795180722891567,-0.973635806253832,-4.228694052728387,-8.517473942366646,3.0,0.20135420135420137,4966.372657111356,-0.01083852922323862,-0.3108210477244914,-0.12318629450498236,1310.6227106227104,-1.0,63.169258450070686,0.2014296619484433,
2023-08-16 12:11:29.207000,-4.602409638554217,-0.9277108433734941,-8.795180722891567,-0.9343960760269773,-4.174739423666462,-8.54199877375843,3.0,0.20135420135420137,4966.372657111356,-0.1020919526834106,-0.06421537206456586,-0.18367228017015322,1306.9597069597069,-1.0,63.169258450070686,0.2014299987147017,
2023-08-16 12:11:29.214000,-4.590361445783133,-0.9518072289156627,-8.759036144578314,-0.8951563458001226,-4.140404659717964,-8.49294911097486,3.0,0.20135420135420137,4966.372657111356,-0.3019637550259305,-0.23157158673736986,0.0170153254472351,1306.9597069597069,-1.0,63.169258450070686,0.20143038157467105,
2023-08-16 12:11:29.222000,-4.614457831325302,-0.9397590361445783,-8.771084337349398,-0.927038626609442,-4.201716738197424,-8.483139178418147,3.0,0.20135420135420137,4966.372657111356,0.09684750305926255,0.043936833517860395,0.15383718897500137,1306.9597069597069,-1.0,63.169258450070686,0.20143080615366876,
2023-08-16 12:11:29.229000,-4.578313253012048,-0.9397590361445783,-8.771084337349398,-0.8828939301042305,-4.20907418761496,-8.470876762722256,3.0,0.20135420135420137,4966.372657111356,-0.17679622399627085,-0.2773731134549271,-0.16945399452246382,1309.1575091575091,-1.0,63.169258450070686,0.2014312678532969,
2023-08-16 12:11:29.237000,-4.602409638554217,-0.9397590361445783,-8.795180722891567,-0.8632740649908032,-4.211526670754139,-8.49540159411404,3.0,0.20179820179820185,4955.4455445544545,-0.17574733407144158,0.02960200454518974,-0.04428646349280334,1312.087912087912,-1.0,63.169258450070686,0.20143176201449214,
2023-08-16 12:11:29.245000,-4.614457831325302,-0.9518072289156627,-8.783132530120483,-0.9196811771919068,-4.290006131207848,-8.488044144696504,3.0,0.20135420135420137,4966.372657111356,-0.09917836955888276,0.13705495017772923,-0.02797039799545499,1314.2857142857142,-1.0,63.169258450070686,0.20143228408090907,
2023-08-16 12:11:29.252000,-4.614457831325302,-0.9277108433734941,-8.759036144578314,-0.9319435928877988,-4.204169221336603,-8.488044144696504,3.0,0.20135420135420137,4966.372657111356,-0.09964454285880783,0.13705495017772923,-0.026921508070625294,1312.8205128205127,-1.0,63.169258450070686,0.2014328294858704,
2023-08-16 12:11:29.260000,-4.614457831325302,-0.9397590361445783,-8.783132530120483,-0.8779889638258737,-4.191906805640711,-8.534641324340894,3.0,0.20135420135420137,4966.372657111356,0.2384476429112531,0.27341064040557,0.0045451896742613,1309.1575091575091,-1.0,63.169258450070686,0.20143339350801887,
2023-08-16 12:11:29.268000,-4.614457831325302,-0.9277108433734941,-8.807228915662652,-0.851011649294911,-4.226241569589209,-8.546903740036786,3.0,0.20135420135420137,4966.372657111356,-0.14544606957636508,0.24124468271079838,0.18973253306916843,1303.2967032967033,-1.0,63.169258450070686,0.20143397142500613,
2023-08-16 12:11:29.275000,-4.602409638554217,-0.9277108433734941,-8.807228915662652,-0.8779889638258737,-4.189454322501533,-8.475781729000612,3.0,0.20135420135420137,4966.372657111356,0.2963696754268399,-0.20488316531670625,0.021560515121496402,1297.4358974358975,-1.0,63.169258450070686,0.20143455866727727,
2023-08-16 12:11:29.283000,-4.614457831325302,-0.9277108433734941,-8.759036144578314,-0.9000613120784794,-4.213979153893317,-8.534641324340894,3.0,0.20135420135420137,4966.372657111356,-0.10267466930831479,-0.2659518676067826,0.18949944641920632,1294.5054945054944,-1.0,63.169258450070686,0.20143515067401055,
2023-08-16 12:11:29.291000,-4.602409638554217,-0.9397590361445783,-8.783132530120483,-0.8289393010423053,-4.221336603310852,-8.522378908645003,3.0,0.20135420135420137,4966.372657111356,-0.07190723151331495,0.07190723151331495,0.26373754443214276,1291.5750915750914,-1.0,63.169258450070686,0.20143574291929287,
2023-08-16 12:11:29.298000,-4.614457831325302,-0.9277108433734941,-8.819277108433736,-0.8853464132434089,-4.194359288779889,-8.532188841201716,3.0,0.20135420135420137,4966.372657111356,-0.22387972728861905,-0.17248412097197122,0.1409008799021038,1287.179487179487,-1.0,63.169258450070686,0.20143633091703264,
2023-08-16 12:11:29.306000,-4.602409638554217,-0.9277108433734941,-8.783132530120483,-0.8779889638258737,-4.258123850398528,-8.488044144696504,3.0,0.20135420135420137,4966.372657111356,-0.08647514713594728,0.04253831361808689,0.23320319328710462,1282.7838827838827,-1.0,63.169258450070686,0.2014369101079386,
2023-08-16 12:11:29.314000,-4.626506024096386,-0.9277108433734941,-8.783132530120483,-0.8436541998773758,-4.245861434702636,-8.490496627835682,3.0,0.20135420135420137,4966.372657111356,-0.3319153895460645,0.22481207388846747,0.04859856651710253,1282.7838827838827,-1.0,63.169258450070686,0.20143747602298973,
2023-08-16 12:11:29.321000,-4.590361445783133,-0.963855421686747,-8.734939759036145,-0.8927038626609441,-4.238503985285101,-8.51011649294911,3.0,0.20135420135420137,4966.372657111356,0.236233319736612,0.05209486626653457,-0.3813297593380337,1284.9816849816848,-1.0,63.169258450070686,0.20143802429733385,
2023-08-16 12:11:29.329000,-4.63855421686747,-0.963855421686747,-8.759036144578314,-0.9515634580012262,-4.297363580625383,-8.485591661557326,3.0,0.20135420135420137,4966.372657111356,-0.3780665462385642,-0.1333255637783338,0.05034671639181855,1285.7142857142856,-1.0,63.169258450070686,0.2014385506838509,
2023-08-16 12:11:29.337000,-4.602409638554217,-0.9397590361445783,-8.759036144578314,-0.8877988963825874,-4.221336603310852,-8.480686695278969,3.0,0.20135420135420137,4966.372657111356,-0.17621350737136493,-0.10162577938348553,0.15640114212458497,1288.6446886446886,-1.0,63.169258450070686,0.2014390510663237,
2023-08-16 12:11:29.344000,-4.602409638554217,-0.9518072289156627,-8.74698795180723,-0.9025137952176578,-4.265481299816064,-8.51256897608829,3.0,0.20091020091020093,4977.348066298342,-0.29753510867665,0.14358137637666823,-0.026571878095681917,1290.8424908424909,-1.0,63.169258450070686,0.20143952161091272,
2023-08-16 12:11:29.352000,-4.614457831325302,-0.963855421686747,-8.759036144578314,-0.9000613120784794,-4.3145309625996315,-8.517473942366646,3.0,0.20135420135420137,4966.372657111356,-0.28086941320435915,-0.07295612143814421,0.2936891789522755,1293.040293040293,-1.0,63.169258450070686,0.20143995860870684,
2023-08-16 12:11:29.360000,-4.602409638554217,-0.9518072289156627,-8.771084337349398,-0.9025137952176578,-4.260576333537706,-8.480686695278969,3.0,0.20135420135420137,4966.372657111356,-0.431210302429928,0.09521589650952737,0.18553697336985006,1291.5750915750914,-1.0,63.169258450070686,0.20144035832807325,
2023-08-16 12:11:29.367000,-4.614457831325302,-0.963855421686747,-8.819277108433736,-0.8632740649908032,-4.2630288166768855,-8.49785407725322,3.0,0.20135420135420137,4966.372657111356,-0.031117067769944086,0.1835557368451715,0.2954373288269915,1289.3772893772893,-1.0,63.169258450070686,0.20144071734490096,
2023-08-16 12:11:29.375000,-4.626506024096386,-0.963855421686747,-8.795180722891567,-0.8779889638258737,-4.272838749233599,-8.49540159411404,3.0,0.20135420135420137,4966.372657111356,-0.1835557368451715,-0.07691859448750134,0.17213449099702827,1282.7838827838827,-1.0,63.169258450070686,0.20144103254261347,
2023-08-16 12:11:29.383000,-4.626506024096386,-0.9277108433734941,-8.807228915662652,-0.8951563458001226,-4.272838749233599,-8.443899448191294,3.0,0.20135420135420137,4966.372657111356,-0.24206048598566596,-3.496299749425094E-4,0.2045335353417633,1276.923076923077,-1.0,63.169258450070686,0.20144130097334423,
2023-08-16 12:11:29.390000,-4.614457831325302,-0.9518072289156627,-8.771084337349398,-0.9245861434702636,-4.25567136725935,-8.485591661557326,3.0,0.20135420135420137,4966.372657111356,-0.1466115028261752,0.34858108501835533,0.496591107744304,1273.9926739926739,-1.0,63.169258450070686,0.20144151972874638,
2023-08-16 12:11:29.398000,-4.626506024096386,-0.9518072289156627,-8.771084337349398,-0.9221336603310851,-4.25567136725935,-8.52728387492336,3.0,0.20135420135420137,4966.372657111356,-0.23297010663714163,0.037993123943825584,0.2802866965794532,1272.5274725274724,-1.0,63.169258450070686,0.20144168596898918,
2023-08-16 12:11:29.406000,-4.63855421686747,-0.9277108433734941,-8.759036144578314,-0.9393010423053341,-4.250766400980993,-8.46351931330472,3.0,0.20135420135420137,4966.372657111356,-0.48785035837072394,0.31058796107452974,0.12703222422935734,1273.260073260073,-1.0,63.169258450070686,0.20144179707840107,
2023-08-16 12:11:29.413000,-4.626506024096386,-0.9036144578313253,-8.759036144578314,-0.9196811771919068,-4.2924586143470265,-8.473329245861434,3.0,0.20135420135420137,4966.372657111356,-0.464192063399569,0.3372763824951933,0.370258143464833,1279.8534798534797,-1.0,63.169258450070686,0.20144185067102885,
2023-08-16 12:11:29.421000,-4.614457831325302,-0.9156626506024097,-8.759036144578314,-0.9049662783568363,-4.245861434702636,-8.456161863887186,3.0,0.20135420135420137,4966.372657111356,-0.33273119282093033,0.3630324573160068,0.26198939455742676,1288.6446886446886,-1.0,63.169258450070686,0.2014418445953934,
2023-08-16 12:11:29.429000,-4.602409638554217,-0.9397590361445783,-8.74698795180723,-0.8485591661557327,-4.191906805640711,-8.524831391784181,3.0,0.20135420135420137,4966.372657111356,-0.17318338092185798,0.23565060311170608,0.22854146028786204,1294.5054945054944,-1.0,63.169258450070686,0.20144177707717675,
2023-08-16 12:11:29.436000,-4.614457831325302,-0.9277108433734941,-8.759036144578314,-0.9343960760269773,-4.218884120171674,-8.54199877375843,3.0,0.20135420135420137,4966.372657111356,-0.4575490938756474,0.12446827107977461,0.07318920808810676,1299.6336996336995,-1.0,63.169258450070686,0.2014416465632093,
2023-08-16 12:11:29.444000,-4.614457831325302,-0.9277108433734941,-8.759036144578314,-0.9221336603310851,-4.187001839362354,-8.564071122011036,3.0,0.20135420135420137,4966.372657111356,-0.3723559233144928,0.5025348173183388,0.14870928267583458,1303.2967032967033,-1.0,63.169258450070686,0.2014414515961412,
2023-08-16 12:11:29.452000,-4.602409638554217,-0.9518072289156627,-8.783132530120483,-0.8828939301042305,-4.20907418761496,-8.441446965052116,3.0,0.20135420135420137,4966.372657111356,-0.231455043412389,0.3420546588194163,0.27038051395606305,1305.4945054945053,1263.885498046875,47.47265483520464,0.2014411909649957,
2023-08-16 12:11:29.459000,-4.626506024096386,-0.9156626506024097,-8.807228915662652,-0.86817903126916,-4.25567136725935,-8.490496627835682,3.0,0.20135420135420137,4966.372657111356,-0.05815511916555022,0.19672513256803206,0.007458772798787853,1303.2967032967033,-1.0,47.47265483520464,0.20144086384434784,
2023-08-16 12:11:29.467000,-4.590361445783133,-0.9156626506024097,-8.771084337349398,-0.9025137952176578,-4.253218884120171,-8.49785407725322,3.0,0.20135420135420137,4966.372657111356,-0.02330866499621242,0.26536915098187663,0.11561097838121324,1298.9010989010987,-1.0,47.47265483520464,0.20144046977355506,
2023-08-16 12:11:29.475000,-4.602409638554217,-0.9156626506024097,-8.771084337349398,-0.9172286940527283,-4.248313917841815,-8.529736358062538,3.0,0.20135420135420137,4966.372657111356,-0.12411864110483035,0.3826117359128255,-0.16024707184895995,1295.970695970696,-1.0,47.47265483520464,0.20144000836881434,
2023-08-16 12:11:29.482000,-4.602409638554217,-0.9156626506024097,-8.795180722891567,-0.9074187614960146,-4.182096873083998,-8.568976088289393,3.0,0.20135420135420137,4966.372657111356,-0.07563661791270866,0.5447235009614831,0.19322883281860045,1288.6446886446886,-1.0,47.47265483520464,0.20143947948139718,
2023-08-16 12:11:29.490000,-4.590361445783133,-0.9156626506024097,-8.831325301204819,-0.9098712446351931,-4.213979153893317,-8.507664009809933,3.0,0.20135420135420137,4966.372657111356,-0.055241536041024095,0.07808402773731143,-0.06945982168871305,1279.8534798534797,-1.0,47.47265483520464,0.20143888332339266,
2023-08-16 12:11:29.498000,-4.614457831325302,-0.9036144578313253,-8.807228915662652,-0.8608215818516247,-4.184549356223176,-8.500306560392398,3.0,0.20091020091020093,4977.348066298342,0.02447409824602252,0.37760037293863913,-0.025872618145795594,1271.062271062271,-1.0,47.47265483520464,0.20143822031578576,
2023-08-16 12:11:29.505000,-4.590361445783133,-0.9277108433734941,-8.795180722891567,-0.8632740649908032,-4.182096873083998,-8.593500919681176,3.0,0.20135420135420137,4966.372657111356,-0.24672221898490812,0.23611677641163117,-0.17970980712079695,1255.6776556776556,-1.0,47.47265483520464,0.20143749093560767,
2023-08-16 12:11:29.513000,-4.590361445783133,-0.9277108433734941,-8.807228915662652,-0.8755364806866952,-4.201716738197424,-8.593500919681176,3.0,0.20135420135420137,4966.372657111356,0.0010488899248292638,0.35499096789231344,-0.07074179826350442,1242.4908424908424,-1.0,47.47265483520464,0.20143669570014971,
2023-08-16 12:11:29.521000,-4.590361445783133,-0.9397590361445783,-8.771084337349398,-0.8706315144083384,-4.2630288166768855,-8.522378908645003,3.0,0.20135420135420137,4966.372657111356,-0.5007866674436228,0.106054425732766,0.23518442981178272,1231.5018315018315,-1.0,47.47265483520464,0.20143583534096304,
2023-08-16 12:11:29.528000,-4.590361445783133,-0.9277108433734941,-8.795180722891567,-0.9000613120784794,-4.206621704475782,-8.507664009809933,3.0,0.20135420135420137,4966.372657111356,-0.4971738243692099,0.10442281918303081,0.23401899656197175,1221.9780219780218,-1.0,47.47265483520464,0.20143491080677456,
2023-08-16 12:11:29.536000,-4.626506024096386,-0.9277108433734941,-8.807228915662652,-0.8976088289393009,-4.22378908645003,-8.505211526670754,3.0,0.20135420135420137,4966.372657111356,-0.27888817667968147,0.10174232270846637,-0.13635569022784205,1216.117216117216,-1.0,47.47265483520464,0.20143392325528287,
2023-08-16 12:11:29.544000,-4.590361445783133,-0.9277108433734941,-8.783132530120483,-0.9245861434702636,-4.228694052728387,-8.529736358062538,3.0,0.20135420135420137,4966.372657111356,-0.6887710506380748,0.09906182623390192,-0.1829730202202669,1218.3150183150183,-1.0,47.47265483520464,0.2014328740444273,
2023-08-16 12:11:29.551000,-4.578313253012048,-0.9156626506024097,-8.771084337349398,-0.8804414469650521,-4.2409564684242795,-8.456161863887186,3.0,0.20135420135420137,4966.372657111356,-0.3490472583182804,-0.3899539653866321,-0.21175922149058904,1223.4432234432234,-1.0,47.47265483520464,0.20143176472318133,
2023-08-16 12:11:29.559000,-4.602409638554217,-0.9156626506024097,-8.771084337349398,-0.9172286940527283,-4.285101164929491,-8.507664009809933,3.0,0.20135420135420137,4966.372657111356,-0.40848435405862155,-0.18984907639414883,-0.029368917895227633,1232.2344322344322,-1.0,47.47265483520464,0.20143059716066777,
2023-08-16 12:11:29.567000,-4.614457831325302,-0.8795180722891567,-8.771084337349398,-0.9245861434702636,-4.228694052728387,-8.490496627835682,3.0,0.20135420135420137,4966.372657111356,0.02109434182157132,-0.4023075578346251,-0.19555969931822154,1251.2820512820513,-1.0,47.47265483520464,0.20142937337702438,
2023-08-16 12:11:29.574000,-4.602409638554217,-0.9156626506024097,-8.74698795180723,-0.8779889638258737,-4.177191906805641,-8.488044144696504,3.0,0.20135420135420137,4966.372657111356,-0.43913524852864055,0.012936309072897147,-0.1177087582308722,1285.7142857142856,-1.0,47.47265483520464,0.20142809554421076,
2023-08-16 12:11:29.582000,-4.614457831325302,-0.9156626506024097,-8.759036144578314,-0.8755364806866952,-4.245861434702636,-8.51011649294911,3.0,0.20135420135420137,4966.372657111356,0.05279412621642132,-0.12190431793019099,-0.0872909504108153,1339.9267399267399,-1.0,47.47265483520464,0.20142676610412713,
2023-08-16 12:11:29.590000,-4.602409638554217,-0.9277108433734941,-8.759036144578314,-0.8191293684855916,-4.245861434702636,-8.456161863887186,3.0,0.20135420135420137,4966.372657111356,0.17236757764699037,0.2483538255346433,0.172017947672047,1410.989010989011,-1.0,47.47265483520464,0.2014253874708589,
2023-08-16 12:11:29.597000,-4.590361445783133,-0.9397590361445783,-8.72289156626506,-0.8779889638258737,-4.304721030042918,-8.52728387492336,3.0,0.20135420135420137,4966.372657111356,0.07761785443738635,0.3703746867898134,-0.10442281918303124,1498.9010989010987,-1.0,47.47265483520464,0.20142396204098295,
2023-08-16 12:11:29.605000,-4.590361445783133,-0.9156626506024097,-8.783132530120483,-0.9049662783568363,-4.213979153893317,-8.522378908645003,3.0,0.20135420135420137,4966.372657111356,0.23075578346250228,0.21968416758930198,0.38645766563720046,1602.9304029304028,-1.0,47.47265483520464,0.20142249233117873,
2023-08-16 12:11:29.612000,-4.590361445783133,-0.9036144578313253,-8.795180722891567,-0.8976088289393009,-4.20907418761496,-8.566523605150214,3.0,0.20135420135420137,4966.372657111356,0.014101742322708983,0.19241302954373243,0.018996561971913226,1717.216117216117,-1.0,47.47265483520464,0.2014209811052402,
2023-08-16 12:11:29.620000,-4.614457831325302,-0.9036144578313253,-8.807228915662652,-0.8902513795217657,-4.228694052728387,-8.532188841201716,3.0,0.20135420135420137,4966.372657111356,-0.18448808344501993,0.28914398927801416,0.11059961540702773,1835.8974358974358,-1.0,47.47265483520464,0.20141943134195606,
2023-08-16 12:11:29.628000,-4.578313253012048,-0.9277108433734941,-8.783132530120483,-0.9025137952176578,-4.206621704475782,-8.551808706315144,3.0,0.20135420135420137,4966.372657111356,0.028436571295379638,0.09230231338500125,0.06270030883981108,1953.8461538461538,-1.0,47.47265483520464,0.20141784607542954,
2023-08-16 12:11:29.635000,-4.602409638554217,-0.9156626506024097,-8.795180722891567,-0.8166768853464133,-4.187001839362354,-8.522378908645003,3.0,0.20135420135420137,4966.372657111356,-0.3245731600722561,0.5547462269098542,-0.19649204591806996,2064.4688644688645,-1.0,47.47265483520464,0.20141622838459752,
2023-08-16 12:11:29.643000,-4.626506024096386,-0.9156626506024097,-8.795180722891567,-0.9221336603310851,-4.243408951563458,-8.519926425505824,3.0,0.20135420135420137,4966.372657111356,-0.32573859332206795,0.07015908163859894,0.23366936658702883,2161.172161172161,-1.0,47.47265483520464,0.201414581382704,
2023-08-16 12:11:29.651000,-4.590361445783133,-0.9397590361445783,-8.783132530120483,-0.86817903126916,-4.172286940527283,-8.51011649294911,3.0,0.20091020091020093,4977.348066298342,-0.2211992308140546,0.3502126915680905,0.1575665753743955,2239.5604395604396,-1.0,47.47265483520464,0.20141290820677923,
2023-08-16 12:11:29.658000,-4.614457831325302,-0.9036144578313253,-8.795180722891567,-0.8608215818516247,-4.22378908645003,-8.500306560392398,3.0,0.20135420135420137,4966.372657111356,-0.28331682302896016,0.20150340889225504,-0.08810675368568247,2299.6336996336995,-1.0,47.47265483520464,0.20141121185787558,
2023-08-16 12:11:29.666000,-4.602409638554217,-0.9036144578313253,-8.795180722891567,-0.9098712446351931,-4.245861434702636,-8.571428571428571,3.0,0.20179820179820185,4955.4455445544545,-0.10092651943359877,-0.0075753161237682555,0.32643785327195385,2338.461538461538,-1.0,47.47265483520464,0.20140949531811725,
2023-08-16 12:11:29.674000,-4.602409638554217,-0.9156626506024097,-8.807228915662652,-0.8755364806866952,-4.231146535867565,-8.465971796443899,3.0,0.20135420135420137,4966.372657111356,-0.4673387331740568,0.05792203251558681,-0.056523512615815036,2356.776556776557,-1.0,47.47265483520464,0.20140776184870934,
2023-08-16 12:11:29.681000,-4.602409638554217,-0.9036144578313253,-8.759036144578314,-0.9123237277743715,-4.245861434702636,-8.47823421213979,3.0,0.20179820179820185,4955.4455445544545,-0.2700308839811205,0.42887943593030786,-0.22469553056348707,2354.5787545787543,-1.0,47.47265483520464,0.20140601471355649,
2023-08-16 12:11:29.689000,-4.626506024096386,-0.9156626506024097,-8.783132530120483,-0.8877988963825874,-4.265481299816064,-8.49785407725322,3.0,0.20135420135420137,4966.372657111356,-0.24112813938581582,0.2629217411572756,0.06468154536448921,2334.065934065934,-1.0,47.47265483520464,0.2014042571596501,
2023-08-16 12:11:29.697000,-4.626506024096386,-0.9397590361445783,-8.771084337349398,-0.9147762109135499,-4.245861434702636,-8.524831391784181,3.0,0.20179820179820185,4955.4455445544545,-0.28553114620360126,0.09847910960899774,-0.12132160130528508,2294.5054945054944,-1.0,47.47265483520464,0.2014024924189042,
2023-08-16 12:11:29.704000,-4.614457831325302,-0.9277108433734941,-8.74698795180723,-0.8779889638258737,-4.285101164929491,-8.529736358062538,3.0,0.20179820179820185,4955.4455445544545,-0.011770875823087047,0.4358720354291702,-0.028786201270322147,2239.5604395604396,-1.0,47.47265483520464,0.20140072368934014,
2023-08-16 12:11:29.712000,-4.626506024096386,-0.9036144578313253,-8.759036144578314,-0.9196811771919068,-4.211526670754139,-8.515021459227468,3.0,0.20179820179820185,4955.4455445544545,-0.30499388147543915,0.5722277256570126,0.3073247479750598,2175.091575091575,-1.0,47.47265483520464,0.20139895414833558,
2023-08-16 12:11:29.720000,-4.614457831325302,-0.9156626506024097,-8.807228915662652,-0.8902513795217657,-4.213979153893317,-8.485591661557326,3.0,0.20179820179820185,4955.4455445544545,-0.0417225103432193,0.28121904317930163,-0.13833692675252018,2106.227106227106,-1.0,47.47265483520464,0.20139718696645237,
2023-08-16 12:11:29.727000,-4.626506024096386,-0.9156626506024097,-8.783132530120483,-0.9000613120784794,-4.238503985285101,-8.517473942366646,3.0,0.20135420135420137,4966.372657111356,-0.31804673387331717,0.35976924421653816,0.27527533360526774,2029.3040293040292,-1.0,47.47265483520464,0.20139542542910047,
2023-08-16 12:11:29.735000,-4.578313253012048,-0.9397590361445783,-8.771084337349398,-0.9196811771919068,-4.172286940527283,-8.57388105456775,3.0,0.20135420135420137,4966.372657111356,0.08088106753685671,0.19043179301905475,0.3338966260707417,1946.5201465201465,-1.0,47.47265483520464,0.20139367263281927,
2023-08-16 12:11:29.743000,-4.590361445783133,-0.9277108433734941,-8.783132530120483,-0.8951563458001226,-4.226241569589209,-8.49540159411404,3.0,0.20135420135420137,4966.372657111356,-0.07412155468795606,0.15814929199930056,0.05698968591573925,1863.7362637362637,-1.0,47.47265483520464,0.20139193145890583,
2023-08-16 12:11:29.750000,-4.602409638554217,-0.9277108433734941,-8.795180722891567,-0.9221336603310851,-4.189454322501533,-8.51256897608829,3.0,0.20135420135420137,4966.372657111356,-0.3167647572985262,-0.0102558125983327,0.09964454285880783,1785.3479853479853,-1.0,47.47265483520464,0.20139020470662322,
2023-08-16 12:11:29.758000,-4.590361445783133,-0.9518072289156627,-8.783132530120483,-0.9393010423053341,-4.22378908645003,-8.49785407725322,3.0,0.20135420135420137,4966.372657111356,0.1741157275217064,0.49274517801992945,0.2819183031291884,1712.8205128205127,-1.0,47.47265483520464,0.20138849508811618,
2023-08-16 12:11:29.766000,-4.578313253012048,-0.9397590361445783,-8.783132530120483,-0.8755364806866952,-4.16247700797057,-8.519926425505824,3.0,0.20135420135420137,4966.372657111356,0.14288211642678147,0.21397354466522883,0.04964745644193223,1646.8864468864467,-1.0,47.47265483520464,0.20138680522379243,
2023-08-16 12:11:29.773000,-4.590361445783133,-0.9156626506024097,-8.819277108433736,-0.8828939301042305,-4.236051502145923,-8.556713672593501,3.0,0.20135420135420137,4966.372657111356,0.12644950760445228,0.056640055940795866,0.048365479867140425,1584.6153846153845,-1.0,47.47265483520464,0.2013851376381693,
2023-08-16 12:11:29.781000,-4.578313253012048,-0.9397590361445783,-8.795180722891567,-0.9589209074187615,-4.157572041692213,-8.544451256897608,3.0,0.20135420135420137,4966.372657111356,0.03589534409416706,0.42013868655672776,-0.029718547870170576,1528.2051282051282,-1.0,47.47265483520464,0.20138349475618714,
2023-08-16 12:11:29.789000,-4.590361445783133,-0.9156626506024097,-8.795180722891567,-0.8828939301042305,-4.265481299816064,-8.546903740036786,3.0,0.20135420135420137,4966.372657111356,0.34252083211933965,0.15465299224986853,-0.016082978847386676,1476.1904761904761,-1.0,47.47265483520464,0.20138187889998702,
2023-08-16 12:11:29.796000,-4.602409638554217,-0.9277108433734941,-8.795180722891567,-0.9000613120784794,-4.189454322501533,-8.49294911097486,3.0,0.20135420135420137,4966.372657111356,0.02051162519666714,-0.15430336227492603,0.059670182390303694,1430.03663003663,-1.0,47.47265483520464,0.20138029228614673,
2023-08-16 12:11:29.804000,-4.602409638554217,-0.9277108433734941,-8.759036144578314,-0.8853464132434089,-4.238503985285101,-8.519926425505824,3.0,0.20091020091020093,4977.348066298342,0.022725948371306502,-0.15675077209952878,0.05733931589068219,1383.8827838827838,-1.0,47.47265483520464,0.20137873702336775,
2023-08-16 12:11:29.812000,-4.626506024096386,-0.9156626506024097,-8.771084337349398,-0.9074187614960146,-4.199264255058246,-8.51256897608829,3.0,0.20135420135420137,4966.372657111356,-0.11421245848144017,0.39414952508595086,0.29823436862653674,1342.8571428571427,-1.0,47.47265483520464,0.20137721496130995,
2023-08-16 12:11:29.819000,-4.590361445783133,-0.9156626506024097,-8.795180722891567,-0.8534641324340895,-4.22378908645003,-8.546903740036786,3.0,0.20135420135420137,4966.372657111356,-0.2478876522347182,0.15943126857409323,0.324573160072257,1306.227106227106,-1.0,47.47265483520464,0.20137572781656693,
2023-08-16 12:11:29.827000,-4.578313253012048,-0.9156626506024097,-8.783132530120483,-0.838749233599019,-4.213979153893317,-8.461066830165542,3.0,0.20135420135420137,4966.372657111356,-0.44309772157799593,0.23063924013752143,-0.01561680554746246,1276.923076923077,-1.0,47.47265483520464,0.2013742773305757,
2023-08-16 12:11:29.835000,-4.602409638554217,-0.9156626506024097,-8.795180722891567,-0.927038626609442,-4.290006131207848,-8.58859595340282,3.0,0.20135420135420137,4966.372657111356,-0.32958452304644253,0.2396130761610632,-0.0654973486393568,1251.2820512820513,-1.0,47.47265483520464,0.20137286513005373,
2023-08-16 12:11:29.842000,-4.590361445783133,-0.9156626506024097,-8.771084337349398,-0.8657265481299815,-4.204169221336603,-8.490496627835682,3.0,0.20135420135420137,4966.372657111356,-0.11223122195676248,0.18880018646931956,-0.06712895518909155,1229.3040293040292,-1.0,47.47265483520464,0.20137149272657445,
2023-08-16 12:11:29.850000,-4.590361445783133,-0.9156626506024097,-8.771084337349398,-0.8730839975475169,-4.228694052728387,-8.566523605150214,3.0,0.20135420135420137,4966.372657111356,-0.2756249635802111,0.01538371889749992,-0.08286230406153484,1213.9194139194137,-1.0,47.47265483520464,0.20137016151651585,
2023-08-16 12:11:29.858000,-4.566265060240964,-0.9397590361445783,-8.795180722891567,-0.8362967504598405,-4.221336603310852,-8.470876762722256,3.0,0.20135420135420137,4966.372657111356,0.05151214964162865,0.04195559699318271,-0.08461045393625086,1202.9304029304028,-1.0,47.47265483520464,0.20136887278136145,
2023-08-16 12:11:29.865000,-4.55421686746988,-0.9397590361445783,-8.795180722891567,-0.851011649294911,-4.211526670754139,-8.539546290619251,3.0,0.20135420135420137,4966.372657111356,-0.17516461744653566,0.3246897033972387,-0.1614125050987705,1201.4652014652013,-1.0,47.47265483520464,0.20136762768833644,
2023-08-16 12:11:29.873000,-4.590361445783133,-0.9277108433734941,-8.783132530120483,-0.9368485591661557,-4.201716738197424,-8.544451256897608,3.0,0.20135420135420137,4966.372657111356,-0.06351611211467911,0.011887419148067882,-0.11526134840626986,1208.058608058608,-1.0,47.47265483520464,0.20136642715260655,
2023-08-16 12:11:29.881000,-4.602409638554217,-0.9397590361445783,-8.783132530120483,-0.8902513795217657,-4.236051502145923,-8.51011649294911,3.0,0.20135420135420137,4966.372657111356,-0.2428762892605318,-0.1333255637783338,-0.11549443505623197,1221.9780219780218,-1.0,47.47265483520464,0.2013652719976454,
2023-08-16 12:11:29.888000,-4.602409638554217,-0.9518072289156627,-8.795180722891567,-0.9098712446351931,-4.213979153893317,-8.475781729000612,3.0,0.20135420135420137,4966.372657111356,0.09976108618378868,0.04580152671755725,0.022026688421420616,1241.7582417582416,-1.0,47.47265483520464,0.20136416308435512,
2023-08-16 12:11:29.896000,-4.602409638554217,-0.9277108433734941,-8.771084337349398,-0.8828939301042305,-4.2630288166768855,-8.52728387492336,3.0,0.20135420135420137,4966.372657111356,0.056640055940795866,0.19171376959384567,-0.011887419148068318,1267.3992673992673,-1.0,47.47265483520464,0.20136310116372133,
2023-08-16 12:11:29.904000,-4.578313253012048,-0.9036144578313253,-8.783132530120483,-0.838749233599019,-4.2335990190067445,-8.532188841201716,3.0,0.20135420135420137,4966.372657111356,-0.28995979255288173,0.39892780141017387,-0.2717790338558361,1296.7032967032967,-1.0,47.47265483520464,0.20136208687898288,
2023-08-16 12:11:29.911000,-4.566265060240964,-0.9036144578313253,-8.771084337349398,-0.8289393010423053,-4.248313917841815,-8.515021459227468,3.0,0.20135420135420137,4966.372657111356,-0.2836664530039044,-0.187984383194452,0.06398228541460288,1328.2051282051282,-1.0,47.47265483520464,0.20136112076799578,
2023-08-16 12:11:29.919000,-4.590361445783133,-0.9156626506024097,-8.795180722891567,-0.9196811771919068,-4.174739423666462,-8.549356223175964,3.0,0.20135420135420137,4966.372657111356,-0.2172367577646992,-0.1443971796515358,0.12306975118000109,1361.1721611721612,-1.0,47.47265483520464,0.20136020326576662,
2023-08-16 12:11:29.927000,-4.590361445783133,-0.9036144578313253,-8.783132530120483,-0.8951563458001226,-4.226241569589209,-8.517473942366646,3.0,0.20135420135420137,4966.372657111356,0.0632830254647157,0.28098595652934,-0.001631606549734748,1391.9413919413919,-1.0,47.47265483520464,0.20135933470712827,
2023-08-16 12:11:29.934000,-4.602409638554217,-0.9156626506024097,-8.795180722891567,-0.8927038626609441,-4.2335990190067445,-8.456161863887186,3.0,0.20135420135420137,4966.372657111356,-0.49729036769419077,-0.04673387331740568,-0.141367053202028,1419.7802197802198,-1.0,47.47265483520464,0.20135851532953233,
2023-08-16 12:11:29.942000,-4.590361445783133,-0.9397590361445783,-8.795180722891567,-0.927038626609442,-4.226241569589209,-8.546903740036786,3.0,0.20135420135420137,4966.372657111356,-0.24544024241011544,0.055008449391060685,0.36349863061593146,1446.153846153846,-1.0,47.47265483520464,0.2013577452759357,
2023-08-16 12:11:29.950000,-4.602409638554217,-0.9156626506024097,-8.819277108433736,-0.8927038626609441,-4.167381974248927,-8.532188841201716,3.0,0.20135420135420137,4966.372657111356,-0.37760037293863913,-0.13425791037818222,-0.036128430744129164,1467.3992673992673,-1.0,47.47265483520464,0.2013570245977542,
2023-08-16 12:11:29.957000,-4.614457831325302,-0.9156626506024097,-8.795180722891567,-0.8608215818516247,-4.184549356223176,-8.532188841201716,3.0,0.20135420135420137,4966.372657111356,-0.08181341413670515,0.017248412097196776,0.08635860381096688,1478.3882783882782,-1.0,47.47265483520464,0.20135635325786244,
2023-08-16 12:11:29.965000,-4.590361445783133,-0.9156626506024097,-8.819277108433736,-0.8608215818516247,-4.211526670754139,-8.461066830165542,3.0,0.20135420135420137,4966.372657111356,-0.1843715401200391,-0.01678223879727343,0.025173358195909275,1480.5860805860805,-1.0,47.47265483520464,0.20135573113361704,
2023-08-16 12:11:29.972000,-4.590361445783133,-0.8915662650602411,-8.795180722891567,-0.8853464132434089,-4.216431637032495,-8.505211526670754,3.0,0.20135420135420137,4966.372657111356,-0.13484062700308813,0.04032399044344752,-0.050579803041780655,1476.923076923077,-1.0,47.47265483520464,0.20135515801988305,
2023-08-16 12:11:29.980000,-4.590361445783133,-0.9156626506024097,-8.759036144578314,-0.8706315144083384,-4.260576333537706,-8.51011649294911,3.0,0.20135420135420137,4966.372657111356,-0.10150923605850469,-0.22131577413903541,0.19462735271837311,1469.5970695970695,-1.0,47.47265483520464,0.20135463363204273,
2023-08-16 12:11:29.988000,-4.590361445783133,-0.9156626506024097,-8.795180722891567,-0.8976088289393009,-4.236051502145923,-8.544451256897608,3.0,0.20135420135420137,4966.372657111356,0.2063982285414606,-0.022959035021269912,0.02575607482081476,1459.3406593406592,-1.0,47.47265483520464,0.2013541576089716,
2023-08-16 12:11:29.995000,-4.590361445783133,-0.9036144578313253,-8.795180722891567,-0.8412017167381973,-4.169834457388105,-8.483139178418147,3.0,0.20135420135420137,4966.372657111356,0.06794475846395957,0.0640988287395833,0.009323465998485141,1444.6886446886447,-1.0,47.47265483520464,0.2013537295159614,
2023-08-16 12:11:30.003000,-4.614457831325302,-0.8915662650602411,-8.771084337349398,-0.9540159411404046,-4.265481299816064,-8.549356223175964,3.0,0.20135420135420137,4966.372657111356,-0.22201503408892218,-0.13752112347765258,-0.1443971796515354,1427.8388278388277,-1.0,47.47265483520464,0.20135334884758097,
2023-08-16 12:11:30.011000,-4.590361445783133,-0.9156626506024097,-8.783132530120483,-0.9074187614960146,-4.16247700797057,-8.475781729000612,3.0,0.20135420135420137,4966.372657111356,-0.05069634636676106,-0.0451022667676705,0.008857292698560493,1409.5238095238094,-1.0,47.47265483520464,0.20135301503045488,
2023-08-16 12:11:30.018000,-4.590361445783133,-0.9156626506024097,-8.783132530120483,-0.7847946045370937,-4.250766400980993,-8.49294911097486,3.0,0.20135420135420137,4966.372657111356,0.011304702523163701,-0.2906590525027685,-0.052677582891440054,1392.6739926739926,-1.0,47.47265483520464,0.20135272742595725,
2023-08-16 12:11:30.026000,-4.590361445783133,-0.9036144578313253,-8.783132530120483,-0.8902513795217657,-4.191906805640711,-8.524831391784181,3.0,0.20135420135420137,4966.372657111356,-0.12516753102965963,-0.19544315599324114,-0.06771167181399702,1376.5567765567764,-1.0,47.47265483520464,0.20135248533280306,
2023-08-16 12:11:30.034000,-4.578313253012048,-0.9036144578313253,-8.795180722891567,-0.9147762109135499,-4.216431637032495,-8.47823421213979,3.0,0.20135420135420137,4966.372657111356,-0.23075578346250228,0.12831420080414915,0.02563953149583349,1358.974358974359,-1.0,47.47265483520464,0.20135228798953697,
2023-08-16 12:11:30.041000,-4.602409638554217,-0.9156626506024097,-8.783132530120483,-0.8828939301042305,-4.267933782955242,-8.507664009809933,3.0,0.20135420135420137,4966.372657111356,-0.060602528990151255,-0.16269448167356187,0.07074179826350442,1339.194139194139,-1.0,47.47265483520464,0.20135213457690856,
2023-08-16 12:11:30.049000,-4.590361445783133,-0.9036144578313253,-8.807228915662652,-0.9074187614960146,-4.228694052728387,-8.52728387492336,3.0,0.20135420135420137,4966.372657111356,0.001631606549735182,-0.23530097313676357,0.29974943185129066,1317.9487179487178,-1.0,47.47265483520464,0.20135202422013443,
2023-08-16 12:11:30.057000,-4.602409638554217,-0.9277108433734941,-8.783132530120483,-0.8828939301042305,-4.204169221336603,-8.517473942366646,3.0,0.20135420135420137,4966.372657111356,0.09486626653458487,0.04347066021793532,0.25208321193403654,1299.6336996336995,-1.0,47.47265483520464,0.20135195599104347,
2023-08-16 12:11:30.064000,-4.590361445783133,-0.9156626506024097,-8.807228915662652,-0.8927038626609441,-4.231146535867565,-8.534641324340894,3.0,0.20135420135420137,4966.372657111356,0.01911310529689363,-0.16945399452246426,-0.07039216828856147,1283.5164835164835,-1.0,47.47265483520464,0.201351928910105,
2023-08-16 12:11:30.072000,-4.626506024096386,-0.9156626506024097,-8.783132530120483,-0.8559166155732679,-4.206621704475782,-8.51256897608829,3.0,0.20135420135420137,4966.372657111356,-0.13262630382844878,-0.044752636792727986,0.0375269506439018,1269.5970695970695,-1.0,47.47265483520464,0.2013519418095953,
2023-08-16 12:11:30.080000,-4.578313253012048,-0.9156626506024097,-8.771084337349398,-0.8632740649908032,-4.206621704475782,-8.473329245861434,3.0,0.20135420135420137,4966.372657111356,-0.13146087057863695,-0.04451955014276631,0.036011887419147896,1256.4102564102564,-1.0,47.47265483520464,0.2013519934945302,
2023-08-16 12:11:30.087000,-4.578313253012048,-0.9156626506024097,-8.807228915662652,-0.8608215818516247,-4.22378908645003,-8.515021459227468,3.0,0.20135420135420137,4966.372657111356,0.1596643552240549,0.30872326787483284,-0.16327719829846735,1245.4212454212454,-1.0,47.47265483520464,0.20135208273322897,
2023-08-16 12:11:30.095000,-4.602409638554217,-0.9277108433734941,-8.783132530120483,-0.8632740649908032,-4.2409564684242795,-8.517473942366646,3.0,0.20135420135420137,4966.372657111356,0.28459879960375284,0.03123361109492492,-0.1626944816735623,1235.8974358974358,-1.0,47.47265483520464,0.20135220826894865,
2023-08-16 12:11:30.103000,-4.614457831325302,-0.9156626506024097,-8.807228915662652,-0.86817903126916,-4.174739423666462,-8.539546290619251,3.0,0.20091020091020093,4977.348066298342,-0.054192646116193094,0.001631606549735182,0.05291066954140216,1230.03663003663,-1.0,47.47265483520464,0.20135236894920705,
2023-08-16 12:11:30.110000,-4.590361445783133,-0.9156626506024097,-8.783132530120483,-0.8902513795217657,-4.206621704475782,-8.532188841201716,3.0,0.20091020091020093,4977.348066298342,-0.08344502068644033,0.20033797564244493,0.06934327836373178,1221.9780219780218,-1.0,47.47265483520464,0.2013525634290194,
2023-08-16 12:11:30.118000,-4.614457831325302,-0.9277108433734941,-8.783132530120483,-0.8730839975475169,-4.216431637032495,-8.524831391784181,3.0,0.20135420135420137,4966.372657111356,0.06817784511392125,-0.044752636792727986,-0.12901346075403547,1213.9194139194137,-1.0,47.47265483520464,0.20135279015077442,
2023-08-16 12:11:30.126000,-4.590361445783133,-0.9156626506024097,-8.759036144578314,-0.9147762109135499,-4.164929491109748,-8.539546290619251,3.0,0.20135420135420137,4966.372657111356,-0.08612551716100478,0.14020161995221703,0.02563953149583349,1207.3260073260074,-1.0,47.47265483520464,0.2013530476322758,
2023-08-16 12:11:30.133000,-4.578313253012048,-0.9036144578313253,-8.783132530120483,-0.8485591661557327,-4.25567136725935,-8.546903740036786,3.0,0.20135420135420137,4966.372657111356,0.08262921741157274,0.1086183788823496,-0.002214323174640232,1199.2673992673992,-1.0,47.47265483520464,0.2013533344883748,
2023-08-16 12:11:30.141000,-4.578313253012048,-0.9156626506024097,-8.795180722891567,-0.8951563458001226,-4.22378908645003,-8.49294911097486,3.0,0.20135420135420137,4966.372657111356,0.1580327486743197,0.0033797564244512,-0.06328302546471656,1189.7435897435896,-1.0,47.47265483520464,0.20135364929344352,
2023-08-16 12:11:30.149000,-4.578313253012048,-0.9156626506024097,-8.771084337349398,-0.9000613120784794,-4.189454322501533,-8.51256897608829,3.0,0.20135420135420137,4966.372657111356,0.18903327311928123,0.32538896334712375,-0.12470135772973584,1181.6849816849815,-1.0,47.47265483520464,0.2013539905825795,
2023-08-16 12:11:30.156000,-4.578313253012048,-0.9156626506024097,-8.783132530120483,-0.8534641324340895,-4.236051502145923,-8.475781729000612,3.0,0.20135420135420137,4966.372657111356,-0.05454227609113734,0.03321484761960261,0.10593788240778515,1173.6263736263736,-1.0,47.47265483520464,0.2013543568528117,
2023-08-16 12:11:30.164000,-4.602409638554217,-0.9036144578313253,-8.783132530120483,-0.851011649294911,-4.2409564684242795,-8.517473942366646,3.0,0.20135420135420137,4966.372657111356,-0.08321193403647865,0.44507895810267534,-0.2144397179651535,1168.4981684981685,-1.0,47.47265483520464,0.20135474642557194,
2023-08-16 12:11:30.172000,-4.602409638554217,-0.9036144578313253,-8.783132530120483,-0.9074187614960146,-4.22378908645003,-8.49294911097486,3.0,0.20135420135420137,4966.372657111356,0.07097488491346653,0.21374045801526717,0.12237049123011477,1164.8351648351647,-1.0,47.47265483520464,0.2013551574683284,
2023-08-16 12:11:30.179000,-4.566265060240964,-0.9156626506024097,-8.771084337349398,-0.8240343347639485,-4.199264255058246,-8.49785407725322,3.0,0.20135420135420137,4966.372657111356,0.1650253481731838,0.24182739933570255,0.2105937882407785,1161.904761904762,-1.0,47.47265483520464,0.20135558828263123,
2023-08-16 12:11:30.187000,-4.590361445783133,-0.9156626506024097,-8.795180722891567,-0.8755364806866952,-4.213979153893317,-8.551808706315144,3.0,0.20135420135420137,4966.372657111356,-0.06503117533943172,0.05407610279121226,-0.08321193403647822,1158.974358974359,-1.0,47.47265483520464,0.20135603714524872,
2023-08-16 12:11:30.195000,-4.602409638554217,-0.9156626506024097,-8.783132530120483,-0.9196811771919068,-4.20907418761496,-8.490496627835682,3.0,0.20135420135420137,4966.372657111356,-0.12435172775479203,0.21770293106462255,-0.17539770409649777,1158.974358974359,-1.0,47.47265483520464,0.20135650231984922,
2023-08-16 12:11:30.202000,-4.602409638554217,-0.9277108433734941,-8.795180722891567,-0.8657265481299815,-4.238503985285101,-8.468424279583077,3.0,0.20135420135420137,4966.372657111356,0.01619952217236751,-0.01654915214731002,0.06677932521414817,1159.7069597069597,-1.0,47.47265483520464,0.2013569821865563,
2023-08-16 12:11:30.210000,-4.590361445783133,-0.9156626506024097,-8.795180722891567,-0.8853464132434089,-4.228694052728387,-8.517473942366646,3.0,0.20135420135420137,4966.372657111356,0.15523570887477445,0.025522988170851784,0.17166831769710406,1164.102564102564,-1.0,47.47265483520464,0.2013574749561516,
2023-08-16 12:11:30.218000,-4.590361445783133,-0.9277108433734941,-8.783132530120483,-0.8779889638258737,-4.179644389944819,-8.46351931330472,3.0,0.20135420135420137,4966.372657111356,-0.04335411689295448,0.16071324514888416,-0.09113688013519029,1169.230769230769,-1.0,47.47265483520464,0.201357978692818,
2023-08-16 12:11:30.225000,-4.602409638554217,-0.9156626506024097,-8.795180722891567,-0.8804414469650521,-4.221336603310852,-8.483139178418147,3.0,0.20135420135420137,4966.372657111356,0.18553697336985095,-0.07283957811316338,-0.19777402249286177,1174.3589743589744,-1.0,47.47265483520464,0.20135849146462012,
2023-08-16 12:11:30.233000,-4.578313253012048,-0.9277108433734941,-8.783132530120483,-0.9319435928877988,-4.179644389944819,-8.522378908645003,3.0,0.20135420135420137,4966.372657111356,0.24777110890973736,-0.18040906707068372,-0.13460754035312647,1179.4871794871794,-1.0,47.47265483520464,0.20135901134502157,
2023-08-16 12:11:30.241000,-4.566265060240964,-0.9277108433734941,-8.783132530120483,-0.9589209074187615,-4.218884120171674,-8.51256897608829,3.0,0.20135420135420137,4966.372657111356,-0.05897092244041781,0.12260357788007775,0.032515587669716295,1182.4175824175823,-1.0,47.47265483520464,0.20135953641473497,
2023-08-16 12:11:30.248000,-4.590361445783133,-0.9036144578313253,-8.807228915662652,-0.9049662783568363,-4.137952176578786,-8.480686695278969,3.0,0.20135420135420137,4966.372657111356,-0.027504224695531213,0.33401316939572295,-0.04498572344268966,1188.278388278388,-1.0,47.47265483520464,0.20136006476390977,
2023-08-16 12:11:30.256000,-4.602409638554217,-0.9156626506024097,-8.807228915662652,-0.8485591661557327,-4.2630288166768855,-8.524831391784181,3.0,0.20135420135420137,4966.372657111356,0.03484645416933779,0.13239321717848537,-0.06071907231513295,1194.1391941391942,-1.0,47.47265483520464,0.20136059449465635,
2023-08-16 12:11:30.264000,-4.578313253012048,-0.9277108433734941,-8.771084337349398,-0.8853464132434089,-4.187001839362354,-8.52728387492336,3.0,0.20135420135420137,4966.372657111356,0.24940271545947254,0.22236466406386643,-0.015267175572519083,1200.0,-1.0,47.47265483520464,0.20136112386265073,
2023-08-16 12:11:30.271000,-4.578313253012048,-0.9036144578313253,-8.783132530120483,-0.82158185162477,-4.187001839362354,-8.529736358062538,3.0,0.20135420135420137,4966.372657111356,-0.09999417283375035,0.09894528290892109,0.16747275799778572,1204.3956043956043,-1.0,47.47265483520464,0.2013616512599346,
2023-08-16 12:11:30.279000,-4.590361445783133,-0.8915662650602411,-8.771084337349398,-0.9319435928877988,-4.204169221336603,-8.519926425505824,3.0,0.20135420135420137,4966.372657111356,0.08472699726123126,0.0983625662840169,-0.107802575607482,1211.7216117216117,-1.0,47.47265483520464,0.2013621750704161,
2023-08-16 12:11:30.287000,-4.602409638554217,-0.9156626506024097,-8.783132530120483,-0.82158185162477,-4.196811771919068,-8.51011649294911,3.0,0.20135420135420137,4966.372657111356,0.11875764815570147,0.018064215372064367,0.3810966726880716,1219.7802197802198,-1.0,47.47265483520464,0.20136269367476436,
2023-08-16 12:11:30.294000,-4.590361445783133,-0.9036144578313253,-8.795180722891567,-0.8755364806866952,-4.145309625996321,-8.549356223175964,3.0,0.20135420135420137,4966.372657111356,0.13425791037818222,-0.10791911893246285,-0.07901637433715986,1229.3040293040292,-1.0,47.47265483520464,0.20136320531664156,
2023-08-16 12:11:30.302000,-4.602409638554217,-0.9156626506024097,-8.795180722891567,-0.9393010423053341,-4.250766400980993,-8.51011649294911,3.0,0.20135420135420137,4966.372657111356,0.18040906707068372,-0.36781073364023154,0.12143814463026635,1236.6300366300366,-1.0,47.47265483520464,0.20136370826687827,
2023-08-16 12:11:30.310000,-4.602409638554217,-0.9036144578313253,-8.771084337349398,-0.838749233599019,-4.157572041692213,-8.515021459227468,3.0,0.20135420135420137,4966.372657111356,0.04183905366820187,-0.30697511800011684,0.029368917895227633,1243.2234432234432,-1.0,47.47265483520464,0.20136420081743467,
2023-08-16 12:11:30.317000,-4.55421686746988,-0.9156626506024097,-8.759036144578314,-0.82158185162477,-4.204169221336603,-8.522378908645003,3.0,0.20135420135420137,4966.372657111356,-0.0030301264495069553,0.014567915622632328,0.13717149350270966,1249.084249084249,-1.0,47.47265483520464,0.2013646812965583,
2023-08-16 12:11:30.325000,-4.566265060240964,-0.9156626506024097,-8.795180722891567,-0.8706315144083384,-4.194359288779889,-8.519926425505824,3.0,0.20135420135420137,4966.372657111356,0.1185245615057398,-0.21455626129013475,-0.07785094108734933,1252.7472527472526,-1.0,47.47265483520464,0.20136514806298186,
2023-08-16 12:11:30.333000,-4.590361445783133,-0.9156626506024097,-8.759036144578314,-0.9049662783568363,-4.22378908645003,-8.534641324340894,3.0,0.20135420135420137,4966.372657111356,0.21292465474039957,-0.18367228017015408,-0.08076452421187588,1253.4798534798533,-1.0,47.47265483520464,0.2013655995212772,
2023-08-16 12:11:30.340000,-4.578313253012048,-0.9277108433734941,-8.807228915662652,-0.8412017167381973,-4.177191906805641,-8.549356223175964,3.0,0.20135420135420137,4966.372657111356,0.07295612143814421,0.13565643027795574,-0.24835382553464241,1252.014652014652,-1.0,47.47265483520464,0.20136603425495272,
2023-08-16 12:11:30.348000,-4.566265060240964,-0.9036144578313253,-8.807228915662652,-0.8461066830165542,-4.199264255058246,-8.556713672593501,3.0,0.20135420135420137,4966.372657111356,0.16455917487325872,0.14742730610104277,-0.16957053784744466,1247.6190476190475,-1.0,47.47265483520464,0.20136645088278185,
2023-08-16 12:11:30.355000,-4.602409638554217,-0.9156626506024097,-8.807228915662652,-0.8657265481299815,-4.164929491109748,-8.502759043531576,3.0,0.20135420135420137,4966.372657111356,0.16292756832352354,0.14567915622632677,-0.16910436454752045,1243.956043956044,-1.0,47.47265483520464,0.20136684806434077,
2023-08-16 12:11:30.363000,-4.590361445783133,-0.9036144578313253,-8.807228915662652,-0.8485591661557327,-4.155119558553035,-8.554261189454323,3.0,0.20135420135420137,4966.372657111356,0.03927510051861826,0.06596352193928014,-0.2425266592855893,1238.095238095238,-1.0,47.47265483520464,0.20136722450543448,
2023-08-16 12:11:30.371000,-4.626506024096386,-0.9036144578313253,-8.795180722891567,-0.8559166155732679,-4.196811771919068,-8.539546290619251,3.0,0.20135420135420137,4966.372657111356,0.19019870636909308,0.0033797564244512,-0.1177087582308722,1233.6996336996335,-1.0,47.47265483520464,0.20136757896338497,
2023-08-16 12:11:30.378000,-4.614457831325302,-0.8915662650602411,-8.783132530120483,-0.8289393010423053,-4.238503985285101,-8.539546290619251,3.0,0.20135420135420137,4966.372657111356,0.2666511275566693,-0.21071033156576022,-0.03880892721869361,1232.2344322344322,-1.0,47.47265483520464,0.20136791025215534,
2023-08-16 12:11:30.386000,-4.614457831325302,-0.9036144578313253,-8.783132530120483,-0.8412017167381973,-4.167381974248927,-8.49540159411404,3.0,0.20135420135420137,4966.372657111356,0.41769127673212497,-0.21140959151564523,-0.3431035487442456,1232.2344322344322,-1.0,47.47265483520464,0.2013682172472844,
2023-08-16 12:11:30.394000,-4.590361445783133,-0.9156626506024097,-8.807228915662652,-0.8362967504598405,-4.140404659717964,-8.49785407725322,3.0,0.20135420135420137,4966.372657111356,-0.07412155468795606,-0.07412155468795606,0.08799021036070162,1232.967032967033,-1.0,47.47265483520464,0.20136849889060673,
2023-08-16 12:11:30.401000,-4.566265060240964,-0.9156626506024097,-8.819277108433736,-0.8877988963825874,-4.172286940527283,-8.500306560392398,3.0,0.20135420135420137,4966.372657111356,-0.07295612143814421,0.17166831769710364,-0.0926519433599442,1234.4322344322343,-1.0,47.47265483520464,0.2013687541947346,
2023-08-16 12:11:30.409000,-4.55421686746988,-0.9036144578313253,-8.771084337349398,-0.8657265481299815,-4.204169221336603,-8.546903740036786,3.0,0.20091020091020093,4977.348066298342,-0.07248994813822088,-0.044752636792727986,0.016549152147310887,1238.095238095238,-1.0,47.47265483520464,0.20136898224727956,
2023-08-16 12:11:30.417000,-4.590361445783133,-0.9277108433734941,-8.74698795180723,-0.8902513795217657,-4.221336603310852,-8.49785407725322,3.0,0.20091020091020093,4977.348066298342,-0.04347066021793532,-0.08950527358545597,-0.07470427131286067,1238.095238095238,-1.0,47.47265483520464,0.2013691820654973,
2023-08-16 12:11:30.424000,-4.566265060240964,-0.9277108433734941,-8.795180722891567,-0.8779889638258737,-4.174739423666462,-8.490496627835682,3.0,0.20135420135420137,4966.372657111356,0.09230231338500125,0.06479808868947004,-0.025989161470776866,1238.8278388278388,-1.0,47.47265483520464,0.20136935271679793,
2023-08-16 12:11:30.432000,-4.602409638554217,-0.9156626506024097,-8.795180722891567,-0.8804414469650521,-4.184549356223176,-8.515021459227468,3.0,0.20135420135420137,4966.372657111356,0.44169920167822413,-0.07190723151331495,-0.28378299632888526,1238.095238095238,-1.0,47.47265483520464,0.2013694934492879,
2023-08-16 12:11:30.440000,-4.590361445783133,-0.9036144578313253,-8.807228915662652,-0.927038626609442,-4.228694052728387,-8.551808706315144,3.0,0.20135420135420137,4966.372657111356,0.43843598857875377,-0.25429753510867636,-0.37188975001456775,1235.164835164835,-1.0,47.47265483520464,0.20136960344838814,
2023-08-16 12:11:30.447000,-4.578313253012048,-0.9036144578313253,-8.819277108433736,-0.8828939301042305,-4.177191906805641,-8.556713672593501,3.0,0.20135420135420137,4966.372657111356,0.5398286813122777,-0.31396771749898095,-0.15511916554979316,1229.3040293040292,-1.0,47.47265483520464,0.20136968200857283,
2023-08-16 12:11:30.455000,-4.566265060240964,-0.8915662650602411,-8.855421686746988,-0.8338442673206621,-4.196811771919068,-8.55916615573268,3.0,0.20135420135420137,4966.372657111356,0.4119806538080536,-0.2481207388846799,-0.15313792902511505,1221.9780219780218,-1.0,47.47265483520464,0.2013697286627009,
2023-08-16 12:11:30.463000,-4.578313253012048,-0.8915662650602411,-8.831325301204819,-0.8534641324340895,-4.204169221336603,-8.537093807480073,3.0,0.20135420135420137,4966.372657111356,0.40825126740865986,-0.01596643552240584,-0.058621292465474,1209.5238095238094,1202.606201171875,49.891643616616335,0.20136974303428523,
2023-08-16 12:11:30.470000,-4.602409638554217,-0.9036144578313253,-8.807228915662652,-0.8779889638258737,-4.172286940527283,-8.549356223175964,3.0,0.20135420135420137,4966.372657111356,0.17679622399627085,-0.25989161470776695,0.01794767204708353,1198.5347985347985,-1.0,49.891643616616335,0.20136972483869878,
2023-08-16 12:11:30.478000,-4.614457831325302,-0.9156626506024097,-8.807228915662652,-0.8559166155732679,-4.140404659717964,-8.615573267933783,3.0,0.20135420135420137,4966.372657111356,-0.19008216304411224,-0.25709457490822163,0.27795583007983216,1189.0109890109889,-1.0,49.891643616616335,0.20136967388402047,
2023-08-16 12:11:30.486000,-4.602409638554217,-0.9156626506024097,-8.807228915662652,-0.8976088289393009,-4.20907418761496,-8.51256897608829,3.0,0.20135420135420137,4966.372657111356,-0.05116251966668614,-0.5129071732416524,0.10640405570770937,1180.952380952381,-1.0,49.891643616616335,0.20136959007151842,
2023-08-16 12:11:30.493000,-4.590361445783133,-0.9277108433734941,-8.807228915662652,-0.8461066830165542,-4.20907418761496,-8.485591661557326,3.0,0.20135420135420137,4966.372657111356,-0.05034671639181855,-0.23110541343744478,-0.10698677233261486,1177.2893772893772,-1.0,49.891643616616335,0.201369473395768,
2023-08-16 12:11:30.501000,-4.566265060240964,-0.9277108433734941,-8.759036144578314,-0.8436541998773758,-4.248313917841815,-8.49785407725322,3.0,0.20135420135420137,4966.372657111356,0.07272303478818254,-0.5350504049880547,-0.1527882990501721,1178.7545787545787,-1.0,49.891643616616335,0.2013693239444093,
2023-08-16 12:11:30.509000,-4.55421686746988,-0.9397590361445783,-8.783132530120483,-0.8534641324340895,-4.20907418761496,-8.49294911097486,3.0,0.20135420135420137,4966.372657111356,-0.14043470660217872,-0.6511275566691916,-0.15208903910028534,1189.7435897435896,-1.0,49.891643616616335,0.20136914175879464,
2023-08-16 12:11:30.516000,-4.602409638554217,-0.9156626506024097,-8.759036144578314,-0.8289393010423053,-4.260576333537706,-8.49785407725322,3.0,0.20135420135420137,4966.372657111356,-0.06398228541460245,-0.477244915797447,-0.5342346017131866,1216.117216117216,-1.0,49.891643616616335,0.2013689269921601,
2023-08-16 12:11:30.524000,-4.590361445783133,-0.9277108433734941,-8.771084337349398,-0.8877988963825874,-4.238503985285101,-8.554261189454323,3.0,0.20135420135420137,4966.372657111356,-0.032049414369792514,-0.42584930948079913,-0.011887419148068318,1260.8058608058607,-1.0,49.891643616616335,0.20136868003593306,
2023-08-16 12:11:30.532000,-4.602409638554217,-0.9036144578313253,-8.759036144578314,-0.8608215818516247,-4.16247700797057,-8.47823421213979,3.0,0.20135420135420137,4966.372657111356,0.05687314259075754,-0.0102558125983327,0.14241594312685726,1323.8095238095236,-1.0,49.891643616616335,0.20136840136899048,
2023-08-16 12:11:30.539000,-4.626506024096386,-0.9156626506024097,-8.783132530120483,-0.9074187614960146,-4.2335990190067445,-8.49540159411404,3.0,0.20135420135420137,4966.372657111356,0.31303537089913247,0.0510459763417053,-0.1471942194510811,1403.6630036630036,-1.0,49.891643616616335,0.20136809155588026,
