Shimmer_F5D4_Timestamp_FormattedUnix_CAL,Shimmer_F5D4_Accel_LN_X_CAL,Shimmer_F5D4_Accel_LN_Y_CAL,Shimmer_F5D4_Accel_LN_Z_CAL,Shimmer_F5D4_Accel_WR_X_CAL,Shimmer_F5D4_Accel_WR_Y_CAL,Shimmer_F5D4_Accel_WR_Z_CAL,Shimmer_F5D4_GSR_Range_CAL,Shimmer_F5D4_GSR_Skin_Conductance_CAL,Shimmer_F5D4_GSR_Skin_Resistance_CAL,Shimmer_F5D4_Gyro_X_CAL,Shimmer_F5D4_Gyro_Y_CAL,Shimmer_F5D4_Gyro_Z_CAL,Shimmer_F5D4_PPG_A13_CAL,Shimmer_F5D4_PPG_IBI_CAL,Shimmer_F5D4_PPGtoHR_CAL,Shimmer_F5D4_GSR_Skin_Conductance_LPF_CAL,
yyyy/mm/dd hh:mm:ss.000,m/(s^2),m/(s^2),m/(s^2),m/(s^2),m/(s^2),m/(s^2),no_units,uS,kOhms,deg/s,deg/s,deg/s,mV,ms,BPM,uS,
2023-08-10 18:18:30.842000,-8.626506024096386,-0.6385542168674699,-4.55421686746988,-0.6180257510729613,-8.464132434089516,-4.242795830778663,2.0,1.6739926739926738,597.3741794310723,0.01934619194685704,-0.03717732066895799,0.04591807004253852,1220.5128205128203,-1.0,58.45513468514004,1.675938307826092,
2023-08-10 18:18:30.850000,-8.614457831325302,-0.6385542168674699,-4.542168674698796,-0.5469037400367872,-8.459227467811159,-4.259963212752912,2.0,1.6739926739926738,597.3741794310723,-0.2257444204883159,0.525493852339607,0.09113688013519029,1215.3846153846152,-1.0,58.45513468514004,1.6759192366490507,
2023-08-10 18:18:30.858000,-8.650602409638555,-0.6385542168674699,-4.578313253012048,-0.539546290619252,-8.469037400367872,-4.242795830778663,2.0,1.6739926739926738,597.3741794310723,-0.10057688945865627,0.30942252782471963,0.19509352601829733,1213.1868131868132,-1.0,58.45513468514004,1.6759004434261886,
2023-08-10 18:18:30.865000,-8.63855421686747,-0.6144578313253012,-4.590361445783133,-0.539546290619252,-8.552421827099938,-4.282035561005518,2.0,1.6739926739926738,597.3741794310723,0.0680613017889404,0.2918244857525786,-0.12668259425441397,1208.7912087912086,-1.0,58.45513468514004,1.6758819294025167,
2023-08-10 18:18:30.873000,-8.650602409638555,-0.6265060240963856,-4.566265060240964,-0.49540159411404044,-8.537706928264868,-4.252605763335377,2.0,1.6754578754578755,596.8517708788806,-0.17761202727113842,0.10418973253306914,0.04370374686789829,1202.9304029304028,-1.0,58.45513468514004,1.6758636952704575,
2023-08-10 18:18:30.880000,-8.63855421686747,-0.6385542168674699,-4.55421686746988,-0.5003065603923973,-8.542611894543224,-4.245248313917841,2.0,1.6739926739926738,597.3741794310723,0.09882873958394024,0.06852747508886375,0.1187576481557019,1195.6043956043954,-1.0,58.45513468514004,1.6758457416513879,
2023-08-10 18:18:30.888000,-8.63855421686747,-0.6144578313253012,-4.566265060240964,-0.48559166155732675,-8.540159411404046,-4.264868179031269,2.0,1.6739926739926738,597.3741794310723,0.019812365246780383,0.34053959559466196,0.13250976050346708,1191.2087912087911,-1.0,58.45513468514004,1.675828068665621,
2023-08-10 18:18:30.896000,-8.650602409638555,-0.6144578313253012,-4.566265060240964,-0.5861434702636419,-8.54996934396076,-4.274678111587982,2.0,1.6739926739926738,597.3741794310723,0.02051162519666714,0.3209603169978433,-0.2804032399044345,1188.278388278388,-1.0,58.45513468514004,1.6758106754000461,
2023-08-10 18:18:30.903000,-8.650602409638555,-0.6024096385542169,-4.542168674698796,-0.5370938074800735,-8.530349478847333,-4.24770079705702,2.0,1.6739926739926738,597.3741794310723,0.01992890857176122,0.3167647572985262,-0.2776062001048888,1189.7435897435896,-1.0,58.45513468514004,1.6757935603605345,
2023-08-10 18:18:30.911000,-8.63855421686747,-0.5903614457831325,-4.530120481927711,-0.5346413243408952,-8.554874310239116,-4.250153280196199,2.0,1.6739926739926738,597.3741794310723,-0.1177087582308722,-0.32760328652176485,-0.1530213857001342,1194.8717948717947,-1.0,58.45513468514004,1.6757767214682942,
2023-08-10 18:18:30.919000,-8.650602409638555,-0.6144578313253012,-4.542168674698796,-0.5272838749233598,-8.488657265481299,-4.2182709993868786,2.0,1.6739926739926738,597.3741794310723,0.15849892197424306,-0.4488083445020691,0.24648913233494557,1202.197802197802,-1.0,58.45513468514004,1.6757601560581319,
2023-08-10 18:18:30.926000,-8.63855421686747,-0.6385542168674699,-4.578313253012048,-0.5272838749233598,-8.461679950950337,-4.2697731453096255,2.0,1.6739926739926738,597.3741794310723,0.15721694539945213,-0.2949711555270664,0.09381737660975473,1211.7216117216117,-1.0,58.45513468514004,1.6757438608786872,
2023-08-10 18:18:30.934000,-8.626506024096386,-0.6506024096385542,-4.590361445783133,-0.551808706315144,-8.45677498467198,-4.1961986511342735,2.0,1.6739926739926738,597.3741794310723,-0.3024299283258555,-0.034380280869412715,0.22900763358778625,1221.245421245421,-1.0,58.45513468514004,1.6757278320946778,
2023-08-10 18:18:30.942000,-8.63855421686747,-0.6265060240963856,-4.566265060240964,-0.5616186388718577,-8.537706928264868,-4.20110361741263,2.0,1.6725274725274724,597.8975032851512,0.33715983917021075,0.14847619602587203,0.026688421420663185,1230.7692307692307,-1.0,58.45513468514004,1.6757120652912187,
2023-08-10 18:18:30.949000,-8.626506024096386,-0.6265060240963856,-4.590361445783133,-0.568976088289393,-8.52053954629062,-4.1446965052115265,2.0,1.6725274725274724,597.8975032851512,0.061884505564943924,-0.09743021968416674,0.05547462269098533,1243.956043956044,-1.0,58.45513468514004,1.6756965554454462,
2023-08-10 18:18:30.957000,-8.63855421686747,-0.6144578313253012,-4.578313253012048,-0.5665236051502146,-8.515634580012263,-4.176578786020846,2.0,1.6739926739926738,597.3741794310723,0.06258376551483068,0.31664821397354537,-0.03741040731892097,1257.142857142857,-1.0,58.45513468514004,1.6756812967956238,
2023-08-10 18:18:30.965000,-8.614457831325302,-0.6024096385542169,-4.530120481927711,-0.522378908645003,-8.545064377682403,-4.213366033108522,2.0,1.6739926739926738,597.3741794310723,0.09486626653458487,-0.005360992949128891,0.05454227609113691,1268.8644688644688,-1.0,58.45513468514004,1.6756662833084297,
2023-08-10 18:18:30.972000,-8.650602409638555,-0.6024096385542169,-4.578313253012048,-0.49294911097486205,-8.527896995708154,-4.289393010423053,2.0,1.6739926739926738,597.3741794310723,0.21572169453994486,-0.4324922790047207,-0.008274576073655443,1279.8534798534797,-1.0,58.45513468514004,1.6756515083035877,
2023-08-10 18:18:30.980000,-8.650602409638555,-0.6265060240963856,-4.55421686746988,-0.5665236051502146,-8.493562231759656,-4.255058246474555,2.0,1.6739926739926738,597.3741794310723,-0.013868655672745575,-0.09323465998484969,-0.006992599498863639,1287.9120879120878,-1.0,58.45513468514004,1.6756369645378957,
2023-08-10 18:18:30.988000,-8.650602409638555,-0.6265060240963856,-4.590361445783133,-0.5174739423666462,-8.498467198038012,-4.296750459840588,2.0,1.6739926739926738,597.3741794310723,0.016082978847386676,0.10407318920808831,-0.29298991900238913,1292.3076923076922,-1.0,58.45513468514004,1.6756226441868318,
2023-08-10 18:18:30.995000,-8.63855421686747,-0.6385542168674699,-4.578313253012048,-0.5567136725935009,-8.522992029429798,-4.267320662170447,2.0,1.6739926739926738,597.3741794310723,-0.12120505798030425,0.22422935726356327,-0.0026804964745644456,1294.5054945054944,-1.0,58.45513468514004,1.6756085384396744,
2023-08-10 18:18:31.003000,-8.650602409638555,-0.6144578313253012,-4.55421686746988,-0.5714285714285714,-8.53525444512569,-4.255058246474555,2.0,1.6739926739926738,597.3741794310723,-0.2093118116659867,0.2516170386341119,0.13402482372822097,1293.040293040293,-1.0,58.45513468514004,1.6755946380099875,
2023-08-10 18:18:31.011000,-8.63855421686747,-0.6144578313253012,-4.602409638554217,-0.5493562231759657,-8.545064377682403,-4.274678111587982,2.0,1.6739926739926738,597.3741794310723,0.14451372297651666,-0.04300448691801197,0.20779674844123322,1289.3772893772893,-1.0,58.45513468514004,1.6755809331556208,
2023-08-10 18:18:31.018000,-8.63855421686747,-0.5903614457831325,-4.578313253012048,-0.5272838749233598,-8.476394849785407,-4.252605763335377,2.0,1.6739926739926738,597.3741794310723,0.035545714119224546,0.005244449624148055,0.039624730493560766,1284.2490842490843,-1.0,58.45513468514004,1.6755674137008827,
2023-08-10 18:18:31.026000,-8.63855421686747,-0.6265060240963856,-4.602409638554217,-0.6376456161863887,-8.545064377682403,-4.274678111587982,2.0,1.6739926739926738,597.3741794310723,-0.010605442573276946,0.08181341413670515,0.02400792494609874,1278.3882783882782,-1.0,58.45513468514004,1.6755540695187399,
2023-08-10 18:18:31.034000,-8.626506024096386,-0.6265060240963856,-4.55421686746988,-0.5665236051502146,-8.540159411404046,-4.230533415082771,2.0,1.6739926739926738,597.3741794310723,-0.11467863178136525,0.09300157333488801,-0.12982926402890263,1273.260073260073,-1.0,58.45513468514004,1.675540890032106,
2023-08-10 18:18:31.041000,-8.63855421686747,-0.6265060240963856,-4.578313253012048,-0.5542611894543225,-8.491109748620477,-4.1961986511342735,2.0,1.6739926739926738,597.3741794310723,0.10057688945865627,0.15092360585047482,0.37375444321426504,1271.7948717948716,-1.0,58.45513468514004,1.675527864279057,
2023-08-10 18:18:31.049000,-8.650602409638555,-0.6144578313253012,-4.578313253012048,-0.5787860208461066,-8.525444512568976,-4.2182709993868786,2.0,1.6739926739926738,597.3741794310723,0.18903327311928123,-0.06911019171376967,-0.010139269273352298,1273.260073260073,-1.0,58.45513468514004,1.675514980910169,
2023-08-10 18:18:31.057000,-8.650602409638555,-0.6144578313253012,-4.578313253012048,-0.5493562231759657,-8.525444512568976,-4.237890864500306,2.0,1.6739926739926738,597.3741794310723,0.3238739001223711,0.15733348872443298,0.14346483305168697,1275.4578754578754,-1.0,58.45513468514004,1.6755022277990772,
2023-08-10 18:18:31.064000,-8.674698795180724,-0.6144578313253012,-4.566265060240964,-0.5493562231759657,-8.547516860821581,-4.198651134273452,2.0,1.6739926739926738,597.3741794310723,0.2447409824602304,-0.35009614824310964,0.172017947672047,1279.120879120879,-1.0,58.45513468514004,1.6754895930258704,
2023-08-10 18:18:31.072000,-8.650602409638555,-0.6024096385542169,-4.542168674698796,-0.5542611894543225,-8.473942366646229,-4.193746167995095,2.0,1.6739926739926738,597.3741794310723,0.3939164384359892,0.10966726880717886,-0.013169395722860121,1282.051282051282,-1.0,58.45513468514004,1.6754770648444006,
2023-08-10 18:18:31.080000,-8.650602409638555,-0.6144578313253012,-4.578313253012048,-0.5052115266707541,-8.54996934396076,-4.198651134273452,2.0,1.6739926739926738,597.3741794310723,-0.08402773731134625,0.07738476778742467,-0.013752112347765171,1282.051282051282,-1.0,58.45513468514004,1.675464630772216,
2023-08-10 18:18:31.087000,-8.650602409638555,-0.5903614457831325,-4.578313253012048,-0.5297363580625383,-8.540159411404046,-4.208461066830165,2.0,1.6739926739926738,597.3741794310723,0.05430918944117393,-0.22481207388846747,-0.13565643027795574,1282.051282051282,-1.0,58.45513468514004,1.6754522781570136,
2023-08-10 18:18:31.095000,-8.63855421686747,-0.6144578313253012,-4.566265060240964,-0.5444512568976088,-8.491109748620477,-4.272225628448804,2.0,1.6739926739926738,597.3741794310723,-0.17633005069634577,-0.1495250859507013,0.11129887535691405,1280.5860805860805,-1.0,58.45513468514004,1.675439994181945,
2023-08-10 18:18:31.103000,-8.63855421686747,-0.6265060240963856,-4.578313253012048,-0.539546290619252,-8.52053954629062,-4.208461066830165,2.0,1.6754578754578755,596.8517708788806,0.20569896859157383,-0.04230522696812521,-0.10279121263329649,1282.051282051282,-1.0,58.45513468514004,1.6754277659413803,
2023-08-10 18:18:31.110000,-8.66265060240964,-0.6385542168674699,-4.578313253012048,-0.5370938074800735,-8.513182096873084,-4.24770079705702,2.0,1.6754578754578755,596.8517708788806,0.09894528290892109,0.17201794767204787,0.15640114212458497,1283.5164835164835,-1.0,58.45513468514004,1.675415581398497,
2023-08-10 18:18:31.118000,-8.614457831325302,-0.6265060240963856,-4.590361445783133,-0.598405885959534,-8.586756591048436,-4.255058246474555,2.0,1.6754578754578755,596.8517708788806,0.06596352193928014,-0.30394499155060817,-0.13484062700308858,1284.2490842490843,-1.0,58.45513468514004,1.6754034290095736,
2023-08-10 18:18:31.126000,-8.626506024096386,-0.6144578313253012,-4.590361445783133,-0.5763335377069282,-8.491109748620477,-4.291845493562231,2.0,1.6754578754578755,596.8517708788806,-0.07074179826350485,0.27772274342986963,-0.45463551075112174,1282.7838827838827,-1.0,58.45513468514004,1.6753912968587856,
2023-08-10 18:18:31.133000,-8.63855421686747,-0.6385542168674699,-4.590361445783133,-0.5812385039852851,-8.478847332924586,-4.259963212752912,2.0,1.6739926739926738,597.3741794310723,0.20581551191655467,-0.030534351145038167,-0.011071615873200727,1279.8534798534797,-1.0,58.45513468514004,1.675379172776669,
2023-08-10 18:18:31.141000,-8.626506024096386,-0.6265060240963856,-4.566265060240964,-0.5469037400367872,-8.478847332924586,-4.2182709993868786,2.0,1.6739926739926738,597.3741794310723,0.08239613076161106,0.05897092244041781,-0.0271545947205874,1275.4578754578754,-1.0,58.45513468514004,1.6753670448453717,
2023-08-10 18:18:31.149000,-8.63855421686747,-0.6265060240963856,-4.566265060240964,-0.5910484365419988,-8.510729613733906,-4.27958307786634,2.0,1.6725274725274724,597.8975032851512,-0.02447409824602252,-0.15616805547462287,0.15640114212458497,1273.9926739926739,-1.0,58.45513468514004,1.6753549008496893,
2023-08-10 18:18:31.156000,-8.63855421686747,-0.6265060240963856,-4.566265060240964,-0.5542611894543225,-8.488657265481299,-4.2182709993868786,2.0,1.6725274725274724,597.8975032851512,0.006642969523919828,0.08857292698560755,-0.0916030534351145,1274.7252747252746,-1.0,58.45513468514004,1.6753427283225404,
2023-08-10 18:18:31.164000,-8.650602409638555,-0.6144578313253012,-4.566265060240964,-0.5861434702636419,-8.498467198038012,-4.2992029429797665,2.0,1.6739926739926738,597.3741794310723,-0.13146087057863695,-0.43493968882932177,-0.42666511275566676,1273.260073260073,1126.007080078125,53.28563297829092,1.6753305149410094,
2023-08-10 18:18:31.172000,-8.614457831325302,-0.6144578313253012,-4.578313253012048,-0.5125689760882893,-8.522992029429798,-4.27958307786634,2.0,1.6739926739926738,597.3741794310723,0.23285356331216078,-0.14101742322708463,0.1715517743721228,1272.5274725274724,-1.0,53.28563297829092,1.6753182485676468,
2023-08-10 18:18:31.179000,-8.66265060240964,-0.6144578313253012,-4.590361445783133,-0.5346413243408952,-8.54996934396076,-4.242795830778663,2.0,1.6739926739926738,597.3741794310723,0.23110541343744478,-0.13822038342753934,0.17085251442223648,1273.9926739926739,-1.0,53.28563297829092,1.675305917887391,
2023-08-10 18:18:31.187000,-8.63855421686747,-0.6265060240963856,-4.590361445783133,-0.5272838749233598,-8.552421827099938,-4.183936235438381,2.0,1.6739926739926738,597.3741794310723,0.06281685216479235,-0.1823903035953614,-0.044403006817784606,1274.7252747252746,-1.0,53.28563297829092,1.6752935119562788,
2023-08-10 18:18:31.195000,-8.650602409638555,-0.6265060240963856,-4.590361445783133,-0.5370938074800735,-8.532801961986511,-4.29429797670141,2.0,1.6739926739926738,597.3741794310723,0.016316065497348348,-0.2577938348581084,0.10791911893246328,1273.260073260073,-1.0,53.28563297829092,1.675281020276502,
2023-08-10 18:18:31.202000,-8.63855421686747,-0.6265060240963856,-4.566265060240964,-0.6106683016554261,-8.527896995708154,-4.252605763335377,2.0,1.6739926739926738,597.3741794310723,0.3368102091952683,0.2288910902628054,-0.03321484761960261,1269.5970695970695,-1.0,53.28563297829092,1.6752684332585945,
2023-08-10 18:18:31.210000,-8.650602409638555,-0.6265060240963856,-4.55421686746988,-0.5567136725935009,-8.498467198038012,-4.2697731453096255,2.0,1.6739926739926738,597.3741794310723,0.40964978730843166,-0.20430044869180033,-0.07948254763708408,1267.3992673992673,-1.0,53.28563297829092,1.6752557417687757,
2023-08-10 18:18:31.218000,-8.63855421686747,-0.6385542168674699,-4.578313253012048,-0.5444512568976088,-8.552421827099938,-4.228080931943593,2.0,1.6725274725274724,597.8975032851512,-0.3879727288619544,0.08577588718606226,-0.16957053784744466,1265.2014652014652,-1.0,53.28563297829092,1.6752429367092387,
2023-08-10 18:18:31.225000,-8.650602409638555,-0.6265060240963856,-4.590361445783133,-0.5444512568976088,-8.496014714898834,-4.301655426118945,2.0,1.6725274725274724,597.8975032851512,0.10360701590816322,-0.02051162519666714,0.09183614008507661,1263.003663003663,-1.0,53.28563297829092,1.6752300090867567,
2023-08-10 18:18:31.233000,-8.626506024096386,-0.6144578313253012,-4.566265060240964,-0.5052115266707541,-8.527896995708154,-4.267320662170447,2.0,1.6725274725274724,597.8975032851512,-0.1414835965270097,-0.047433133267292434,-0.017364955422178044,1262.2710622710622,-1.0,53.28563297829092,1.675216950395634,
2023-08-10 18:18:31.241000,-8.626506024096386,-0.6265060240963856,-4.590361445783133,-0.5665236051502146,-8.554874310239116,-4.220723482526058,2.0,1.6739926739926738,597.3741794310723,0.11864110483072063,8.15803274867591E-4,-0.21583823786492612,1263.7362637362637,-1.0,53.28563297829092,1.675203752609717,
2023-08-10 18:18:31.248000,-8.614457831325302,-0.6385542168674699,-4.566265060240964,-0.5738810545677498,-8.530349478847333,-4.267320662170447,2.0,1.6725274725274724,597.8975032851512,-0.004778276324222974,0.2753918769302494,-0.015849892197424567,1265.2014652014652,-1.0,53.28563297829092,1.6751904086988685,
2023-08-10 18:18:31.256000,-8.650602409638555,-0.6385542168674699,-4.578313253012048,-0.539546290619252,-8.527896995708154,-4.282035561005518,2.0,1.6725274725274724,597.8975032851512,-0.05046325971679939,-0.17423227084668724,-0.09381737660975473,1268.131868131868,-1.0,53.28563297829092,1.675176912687072,
2023-08-10 18:18:31.263000,-8.66265060240964,-0.6626506024096386,-4.578313253012048,-0.5272838749233598,-8.540159411404046,-4.272225628448804,2.0,1.6725274725274724,597.8975032851512,0.37783345958860254,-0.11479517510634608,-0.1530213857001342,1271.7948717948716,-1.0,53.28563297829092,1.6751632586203429,
2023-08-10 18:18:31.271000,-8.66265060240964,-0.6506024096385542,-4.55421686746988,-0.5616186388718577,-8.52053954629062,-4.252605763335377,2.0,1.6725274725274724,597.8975032851512,0.11724258493094886,-0.13146087057863695,0.0804148942369325,1273.9926739926739,-1.0,53.28563297829092,1.675149440618412,
2023-08-10 18:18:31.279000,-8.66265060240964,-0.6385542168674699,-4.542168674698796,-0.5542611894543225,-8.527896995708154,-4.282035561005518,2.0,1.6725274725274724,597.8975032851512,0.04102325039333428,0.003845929724374546,0.40160829788473873,1274.7252747252746,-1.0,53.28563297829092,1.6751354533784,
2023-08-10 18:18:31.286000,-8.650602409638555,-0.6265060240963856,-4.542168674698796,-0.5640711220110362,-8.515634580012263,-4.2158185162477,2.0,1.6739926739926738,597.3741794310723,-0.0973136763591859,-0.15127323582541732,-0.1661907814229939,1275.4578754578754,-1.0,53.28563297829092,1.675121292182522,
2023-08-10 18:18:31.294000,-8.626506024096386,-0.6265060240963856,-4.55421686746988,-0.5125689760882893,-8.513182096873084,-4.2624156958920905,2.0,1.6725274725274724,597.8975032851512,-0.06689586853912857,-0.026571878095682785,0.048365479867140425,1274.7252747252746,-1.0,53.28563297829092,1.6751069533951934,
2023-08-10 18:18:31.302000,-8.626506024096386,-0.6144578313253012,-4.55421686746988,-0.5665236051502146,-8.498467198038012,-4.223175965665236,2.0,1.6725274725274724,597.8975032851512,-0.11293048190664923,-0.2384476429112531,-0.011887419148068318,1272.5274725274724,-1.0,53.28563297829092,1.6750924340437214,
2023-08-10 18:18:31.309000,-8.63855421686747,-0.6024096385542169,-4.566265060240964,-0.510116492949111,-8.545064377682403,-4.235438381361128,2.0,1.6725274725274724,597.8975032851512,0.14637841617621353,-0.12784802750422405,-0.05745585921566346,1270.3296703296703,-1.0,53.28563297829092,1.675077731291785,
2023-08-10 18:18:31.317000,-8.63855421686747,-0.6144578313253012,-4.542168674698796,-0.5665236051502146,-8.530349478847333,-4.2329858982219495,2.0,1.6725274725274724,597.8975032851512,0.15943126857409323,0.11619369500611786,-0.1491754559757588,1268.131868131868,-1.0,53.28563297829092,1.6750628428927514,
2023-08-10 18:18:31.325000,-8.63855421686747,-0.6385542168674699,-4.590361445783133,-0.6106683016554261,-8.525444512568976,-4.228080931943593,2.0,1.6725274725274724,597.8975032851512,-0.0417225103432193,0.14532952625138426,0.018996561971913226,1265.9340659340658,-1.0,53.28563297829092,1.675047767182044,
2023-08-10 18:18:31.332000,-8.66265060240964,-0.6144578313253012,-4.566265060240964,-0.5591661557326794,-8.54996934396076,-4.255058246474555,2.0,1.6739926739926738,597.3741794310723,-0.3774838296136583,0.508944700192297,-0.014451372297651493,1265.9340659340658,-1.0,53.28563297829092,1.67503250306653,
2023-08-10 18:18:31.340000,-8.650602409638555,-0.6385542168674699,-4.590361445783133,-0.5444512568976088,-8.508277130594728,-4.255058246474555,2.0,1.6725274725274724,597.8975032851512,-0.08321193403647865,0.548336344035896,0.22842491696288075,1267.3992673992673,-1.0,53.28563297829092,1.6750170505037074,
2023-08-10 18:18:31.348000,-8.650602409638555,-0.6265060240963856,-4.602409638554217,-0.5346413243408952,-8.562231759656651,-4.237890864500306,2.0,1.6725274725274724,597.8975032851512,0.19322883281860004,0.3749198764640747,0.1344909970281452,1265.9340659340658,-1.0,53.28563297829092,1.6750014100650117,
2023-08-10 18:18:31.355000,-8.650602409638555,-0.6144578313253012,-4.614457831325302,-0.539546290619252,-8.545064377682403,-4.257510729613734,2.0,1.6739926739926738,597.3741794310723,0.20802983509119577,-0.1636268282734103,-0.06561389196433763,1263.7362637362637,-1.0,53.28563297829092,1.674985582392512,
2023-08-10 18:18:31.363000,-8.614457831325302,-0.5783132530120483,-4.614457831325302,-0.43408951563458,-8.476394849785407,-4.272225628448804,2.0,1.6725274725274724,597.8975032851512,-0.17458190082162975,-0.3169978439484879,0.10162577938348596,1260.07326007326,-1.0,53.28563297829092,1.6749695691288287,
2023-08-10 18:18:31.371000,-8.614457831325302,-0.6024096385542169,-4.614457831325302,-0.5321888412017167,-8.491109748620477,-4.242795830778663,2.0,1.6725274725274724,597.8975032851512,-0.23192121671231236,-0.4079016374337156,-0.01864693199696985,1254.212454212454,-1.0,53.28563297829092,1.674953372473744,
2023-08-10 18:18:31.378000,-8.614457831325302,-0.6265060240963856,-4.614457831325302,-0.6106683016554261,-8.496014714898834,-4.272225628448804,2.0,1.6725274725274724,597.8975032851512,-0.22947380688771132,-0.43377425557951166,-0.07843365771225438,1249.084249084249,-1.0,53.28563297829092,1.6749369946346968,
2023-08-10 18:18:31.386000,-8.626506024096386,-0.6265060240963856,-4.578313253012048,-0.5665236051502146,-8.510729613733906,-4.193746167995095,2.0,1.6725274725274724,597.8975032851512,-0.04416992016782207,0.029835091195151413,-0.04603461336751936,1249.084249084249,-1.0,53.28563297829092,1.6749204382583325,
2023-08-10 18:18:31.394000,-8.650602409638555,-0.6144578313253012,-4.578313253012048,-0.5321888412017167,-8.522992029429798,-4.2158185162477,2.0,1.6725274725274724,597.8975032851512,0.09463317988462146,0.32107686032282584,0.36909271021502243,1267.3992673992673,-1.0,53.28563297829092,1.6749037064024535,
2023-08-10 18:18:31.401000,-8.63855421686747,-0.6265060240963856,-4.566265060240964,-0.5370938074800735,-8.530349478847333,-4.230533415082771,2.0,1.6725274725274724,597.8975032851512,-0.25511333838354394,0.015500262222480757,0.2151389779150398,1306.9597069597069,-1.0,53.28563297829092,1.674886802506413,
2023-08-10 18:18:31.409000,-8.66265060240964,-0.6265060240963856,-4.542168674698796,-0.5321888412017167,-8.530349478847333,-4.2182709993868786,2.0,1.6725274725274724,597.8975032851512,-0.08542625721111802,0.28914398927801416,0.47211700949828106,1375.8241758241757,-1.0,53.28563297829092,1.6748697308180687,
2023-08-10 18:18:31.417000,-8.674698795180724,-0.6265060240963856,-4.518072289156627,-0.5444512568976088,-8.53525444512569,-4.2035561005518085,2.0,1.6725274725274724,597.8975032851512,-0.14637841617621353,-0.18670240661966103,-0.03531262746926157,1474.7252747252746,-1.0,53.28563297829092,1.6748524962944895,
2023-08-10 18:18:31.424000,-8.674698795180724,-0.5903614457831325,-4.530120481927711,-0.4880441446965052,-8.54996934396076,-4.245248313917841,2.0,1.6725274725274724,597.8975032851512,-0.022609405046325665,-0.13973544665229368,0.19252957286871414,1601.4652014652013,-1.0,53.28563297829092,1.6748351040806475,
2023-08-10 18:18:31.432000,-8.66265060240964,-0.6024096385542169,-4.566265060240964,-0.5248313917841815,-8.527896995708154,-4.237890864500306,2.0,1.6725274725274724,597.8975032851512,0.08426082396130792,-0.3842433424625607,-0.06969290833867473,1749.4505494505493,-1.0,53.28563297829092,1.6748175590215901,
2023-08-10 18:18:31.440000,-8.650602409638555,-0.6265060240963856,-4.566265060240964,-0.5567136725935009,-8.559779276517473,-4.255058246474555,2.0,1.6725274725274724,597.8975032851512,-0.025173358195909275,-0.25826000815803346,0.09894528290892152,1909.8901098901097,-1.0,53.28563297829092,1.6747998656986423,
2023-08-10 18:18:31.447000,-8.63855421686747,-0.6144578313253012,-4.578313253012048,-0.49540159411404044,-8.50091968117719,-4.284488044144696,2.0,1.6725274725274724,597.8975032851512,0.1574500320494138,-0.37655148301380986,0.22108268748907417,2071.7948717948716,-1.0,53.28563297829092,1.6747820288858826,
2023-08-10 18:18:31.455000,-8.614457831325302,-0.6265060240963856,-4.614457831325302,-0.568976088289393,-8.469037400367872,-4.24770079705702,2.0,1.6725274725274724,597.8975032851512,0.1559349688246612,-0.3701416001398517,0.22084960083911206,2224.908424908425,-1.0,53.28563297829092,1.6747640535139787,
2023-08-10 18:18:31.463000,-8.602409638554217,-0.5903614457831325,-4.614457831325302,-0.5027590435315757,-8.469037400367872,-4.2329858982219495,2.0,1.6725274725274724,597.8975032851512,0.10908455218227295,0.06270030883981152,0.1741157275217064,2358.241758241758,-1.0,53.28563297829092,1.6747459450921915,
2023-08-10 18:18:31.470000,-8.602409638554217,-0.6265060240963856,-4.566265060240964,-0.5297363580625383,-8.461679950950337,-4.2697731453096255,2.0,1.6739926739926738,597.3741794310723,0.09370083328477302,-0.057572402540644295,0.036128430744129164,2464.4688644688645,-1.0,53.28563297829092,1.6747277096057658,
2023-08-10 18:18:31.478000,-8.602409638554217,-0.6385542168674699,-4.578313253012048,-0.5493562231759657,-8.498467198038012,-4.252605763335377,2.0,1.6725274725274724,597.8975032851512,0.1687547345725775,0.28017015325447236,0.08332847736145906,2538.461538461538,-1.0,53.28563297829092,1.6747093530277624,
2023-08-10 18:18:31.486000,-8.602409638554217,-0.6385542168674699,-4.566265060240964,-0.5272838749233598,-8.503372164316369,-4.257510729613734,2.0,1.6725274725274724,597.8975032851512,-0.14043470660217872,0.23401899656197264,0.16152904842375132,2573.6263736263736,-1.0,53.28563297829092,1.6746908809358678,
2023-08-10 18:18:31.493000,-8.650602409638555,-0.6265060240963856,-4.578313253012048,-0.6204782342121398,-8.62844880441447,-4.2697731453096255,2.0,1.6725274725274724,597.8975032851512,-0.2447409824602304,0.2938057222772563,0.0090903793485226,2575.091575091575,-1.0,53.28563297829092,1.674672298446872,
2023-08-10 18:18:31.501000,-8.66265060240964,-0.6144578313253012,-4.566265060240964,-0.5346413243408952,-8.525444512568976,-4.2403433476394845,2.0,1.6725274725274724,597.8975032851512,-0.03135015441990576,0.20057106229240662,0.20709748849134646,2545.0549450549447,-1.0,53.28563297829092,1.6746536111007595,
2023-08-10 18:18:31.509000,-8.650602409638555,-0.6265060240963856,-4.578313253012048,-0.551808706315144,-8.52053954629062,-4.213366033108522,2.0,1.6725274725274724,597.8975032851512,-0.41302954373288286,0.3828448225627872,0.19101450964396022,2487.912087912088,-1.0,53.28563297829092,1.6746348243055225,
2023-08-10 18:18:31.516000,-8.66265060240964,-0.6385542168674699,-4.542168674698796,-0.5370938074800735,-8.53525444512569,-4.206008583690987,2.0,1.6725274725274724,597.8975032851512,-0.04451955014276631,0.3796981527882994,0.3595361575665752,2410.9890109890107,-1.0,53.28563297829092,1.674615942887797,
2023-08-10 18:18:31.524000,-8.686746987951807,-0.6144578313253012,-4.530120481927711,-0.568976088289393,-8.606376456161863,-4.296750459840588,2.0,1.6725274725274724,597.8975032851512,0.21642095448983162,-0.1874016665695478,-0.13309247712837255,2319.4139194139193,-1.0,53.28563297829092,1.6745969715586084,
2023-08-10 18:18:31.532000,-8.674698795180724,-0.6144578313253012,-4.566265060240964,-0.5346413243408952,-8.496014714898834,-4.237890864500306,2.0,1.6725274725274724,597.8975032851512,-0.18646931996969937,0.028669657945341313,-0.1332090204533534,2216.117216117216,-1.0,53.28563297829092,1.6745779148885938,
2023-08-10 18:18:31.539000,-8.66265060240964,-0.6144578313253012,-4.566265060240964,-0.5493562231759657,-8.594114040465971,-4.2329858982219495,2.0,1.6725274725274724,597.8975032851512,-0.001398519899773509,0.16665695472291897,0.2015034088922555,2108.424908424908,-1.0,53.28563297829092,1.6745587777434003,
2023-08-10 18:18:31.547000,-8.63855421686747,-0.6024096385542169,-4.55421686746988,-0.5493562231759657,-8.50091968117719,-4.255058246474555,2.0,1.6739926739926738,597.3741794310723,0.08950527358545597,0.11712604160596629,0.017364955422178044,1998.5347985347985,-1.0,53.28563297829092,1.6745395651963906,
2023-08-10 18:18:31.555000,-8.66265060240964,-0.6144578313253012,-4.590361445783133,-0.5444512568976088,-8.505824647455547,-4.2697731453096255,2.0,1.6725274725274724,597.8975032851512,0.029951634520132248,0.038226210593788994,-0.15104014917545608,1891.5750915750914,-1.0,53.28563297829092,1.6745202820575693,
2023-08-10 18:18:31.562000,-8.626506024096386,-0.6024096385542169,-4.566265060240964,-0.5076640098099325,-8.496014714898834,-4.367872470876763,2.0,1.6725274725274724,597.8975032851512,-0.10372355923314405,-0.08542625721111802,-0.04242177029310648,1789.7435897435896,-1.0,53.28563297829092,1.6745009329670344,
2023-08-10 18:18:31.570000,-8.63855421686747,-0.6024096385542169,-4.590361445783133,-0.5444512568976088,-8.491109748620477,-4.343347639484978,2.0,1.6725274725274724,597.8975032851512,0.23530097313676357,-0.2688654507313087,-0.04230522696812521,1694.5054945054944,-1.0,53.28563297829092,1.6744815222824956,
2023-08-10 18:18:31.578000,-8.650602409638555,-0.5783132530120483,-4.578313253012048,-0.5493562231759657,-8.513182096873084,-4.316370324954016,2.0,1.6725274725274724,597.8975032851512,0.3267874832468972,-0.4193228832818602,0.17166831769710406,1611.7216117216117,-1.0,53.28563297829092,1.6744620535808987,
2023-08-10 18:18:31.585000,-8.614457831325302,-0.6024096385542169,-4.602409638554217,-0.5591661557326794,-8.48620478234212,-4.286940527283875,2.0,1.6725274725274724,597.8975032851512,0.24847036885962412,-0.10873492220733044,0.2635044577821807,1540.6593406593406,-1.0,53.28563297829092,1.6744425301800248,
2023-08-10 18:18:31.593000,-8.626506024096386,-0.6385542168674699,-4.602409638554217,-0.5444512568976088,-8.47148988350705,-4.313917841814837,2.0,1.6725274725274724,597.8975032851512,0.18390536682011577,-0.07586970456267034,0.18681894994464188,1482.051282051282,-1.0,53.28563297829092,1.674422955558289,
2023-08-10 18:18:31.601000,-8.626506024096386,-0.6265060240963856,-4.578313253012048,-0.5616186388718577,-8.554874310239116,-4.267320662170447,2.0,1.6725274725274724,597.8975032851512,0.06001981236524707,0.5062642037177325,0.1075694889575199,1435.164835164835,-1.0,53.28563297829092,1.6744033328636105,
2023-08-10 18:18:31.608000,-8.626506024096386,-0.6265060240963856,-4.590361445783133,-0.5321888412017167,-8.527896995708154,-4.272225628448804,2.0,1.6725274725274724,597.8975032851512,0.05792203251558681,0.3640813472408361,-0.13810384010255808,1397.069597069597,-1.0,53.28563297829092,1.6743836649171717,
2023-08-10 18:18:31.616000,-8.63855421686747,-0.6265060240963856,-4.590361445783133,-0.5321888412017167,-8.503372164316369,-4.2329858982219495,2.0,1.6725274725274724,597.8975032851512,0.04020744711846669,0.0692267350387505,-0.10920109550725465,1368.4981684981683,-1.0,53.28563297829092,1.6743639542193665,
2023-08-10 18:18:31.623000,-8.650602409638555,-0.6385542168674699,-4.566265060240964,-0.539546290619252,-8.469037400367872,-4.250153280196199,2.0,1.6725274725274724,597.8975032851512,-0.1287803741040725,0.2346017131868768,0.05803857584056894,1349.4505494505493,-1.0,53.28563297829092,1.674344202957911,
2023-08-10 18:18:31.631000,-8.63855421686747,-0.6265060240963856,-4.542168674698796,-0.45616186388718577,-8.518087063151441,-4.186388718577559,2.0,1.6725274725274724,597.8975032851512,0.024124468271080012,-0.22725948371307023,-0.43249227900471987,1339.9267399267399,-1.0,53.28563297829092,1.6743244130180648,
2023-08-10 18:18:31.639000,-8.650602409638555,-0.6265060240963856,-4.542168674698796,-0.49294911097486205,-8.540159411404046,-4.208461066830165,2.0,1.6725274725274724,597.8975032851512,0.037293863993940565,0.015267175572519083,-0.2482372822096616,1336.9963369963368,-1.0,53.28563297829092,1.674304585994907,
2023-08-10 18:18:31.646000,-8.66265060240964,-0.6265060240963856,-4.55421686746988,-0.5199264255058246,-8.515634580012263,-4.24770079705702,2.0,1.6725274725274724,597.8975032851512,0.15663422877454622,0.013052852397879719,0.04253831361808732,1334.7985347985348,-1.0,53.28563297829092,1.6742847232075846,
2023-08-10 18:18:31.654000,-8.626506024096386,-0.6024096385542169,-4.578313253012048,-0.568976088289393,-8.554874310239116,-4.2403433476394845,2.0,1.671062271062271,598.4217448487506,0.03251558766971586,0.07528698793776616,-0.021793601771458507,1332.6007326007325,-1.0,53.28563297829092,1.674264825715459,
2023-08-10 18:18:31.662000,-8.650602409638555,-0.6144578313253012,-4.578313253012048,-0.5567136725935009,-8.510729613733906,-4.304107909258124,2.0,1.6725274725274724,597.8975032851512,-0.21443971796515393,0.2607074179826345,0.05174523629159119,1326.7399267399267,-1.0,53.28563297829092,1.6742448938433778,
2023-08-10 18:18:31.669000,-8.66265060240964,-0.6144578313253012,-4.590361445783133,-0.539546290619252,-8.491109748620477,-4.230533415082771,2.0,1.6725274725274724,597.8975032851512,-3.496299749425094E-4,0.16910436454752,-0.09917836955888362,1317.216117216117,-1.0,53.28563297829092,1.6742249276217827,
2023-08-10 18:18:31.677000,-8.614457831325302,-0.6265060240963856,-4.602409638554217,-0.5346413243408952,-8.466584917228694,-4.259963212752912,2.0,1.6725274725274724,597.8975032851512,0.16863819124759666,0.0643319153895467,0.010022725948371463,1304.7619047619046,-1.0,53.28563297829092,1.6742049273323982,
2023-08-10 18:18:31.685000,-8.626506024096386,-0.6265060240963856,-4.578313253012048,-0.4782342121397915,-8.473942366646229,-4.2256284488044145,2.0,1.6725274725274724,597.8975032851512,0.10652059903269108,0.187984383194452,-0.03636151739409127,1291.5750915750914,-1.0,53.28563297829092,1.674184893072395,
2023-08-10 18:18:31.692000,-8.63855421686747,-0.6265060240963856,-4.55421686746988,-0.5616186388718577,-8.513182096873084,-4.306560392397302,2.0,1.6725274725274724,597.8975032851512,0.2883281860031466,0.0026804964745644456,0.31571586737369606,1278.3882783882782,-1.0,53.28563297829092,1.6741648247777472,
2023-08-10 18:18:31.700000,-8.66265060240964,-0.6265060240963856,-4.578313253012048,-0.5591661557326794,-8.530349478847333,-4.257510729613734,2.0,1.6725274725274724,597.8975032851512,-0.0181807586970452,0.29112522580269184,0.11526134840626986,1263.7362637362637,-1.0,53.28563297829092,1.674144722247788,
2023-08-10 18:18:31.708000,-8.650602409638555,-0.6265060240963856,-4.578313253012048,-0.5812385039852851,-8.542611894543224,-4.2697731453096255,2.0,1.671062271062271,598.4217448487506,0.10384010255812663,0.19707476254297457,-0.023774838296136636,1247.6190476190475,-1.0,53.28563297829092,1.674124585170817,
2023-08-10 18:18:31.715000,-8.63855421686747,-0.6265060240963856,-4.542168674698796,-0.5174739423666462,-8.545064377682403,-4.267320662170447,2.0,1.671062271062271,598.4217448487506,0.15080706252549397,0.28774546937824064,-0.053959559466231426,1234.4322344322343,-1.0,53.28563297829092,1.6741044131157952,
2023-08-10 18:18:31.723000,-8.674698795180724,-0.6144578313253012,-4.55421686746988,-0.5370938074800735,-8.557326793378294,-4.223175965665236,2.0,1.671062271062271,598.4217448487506,-0.19893945574267316,0.013752112347764738,-0.3260882232970105,1221.9780219780218,-1.0,53.28563297829092,1.6740842049622742,
2023-08-10 18:18:31.731000,-8.66265060240964,-0.6024096385542169,-4.566265060240964,-0.5076640098099325,-8.54996934396076,-4.220723482526058,2.0,1.671062271062271,598.4217448487506,-0.1984732824427481,0.014684458947613166,-0.3217761202727113,1212.4542124542124,-1.0,53.28563297829092,1.6740639589593782,
2023-08-10 18:18:31.738000,-8.650602409638555,-0.6144578313253012,-4.55421686746988,-0.522378908645003,-8.554874310239116,-4.2256284488044145,2.0,1.6725274725274724,597.8975032851512,-0.19730784919293798,-9.323465998484274E-4,-0.03030126449507606,1209.5238095238094,-1.0,53.28563297829092,1.6740436732398616,
2023-08-10 18:18:31.746000,-8.650602409638555,-0.6144578313253012,-4.55421686746988,-0.5861434702636419,-8.483752299202942,-4.272225628448804,2.0,1.671062271062271,598.4217448487506,-0.25557951168346904,-0.09335120330983052,0.12318629450498236,1211.7216117216117,-1.0,53.28563297829092,1.6740233463338265,
2023-08-10 18:18:31.754000,-8.614457831325302,-0.6385542168674699,-4.578313253012048,-0.5493562231759657,-8.47148988350705,-4.274678111587982,2.0,1.6725274725274724,597.8975032851512,-0.14707767612610026,0.07691859448750134,-0.07621933453761415,1215.3846153846152,-1.0,53.28563297829092,1.674002976768816,
2023-08-10 18:18:31.761000,-8.626506024096386,-0.6265060240963856,-4.578313253012048,-0.5419987737584304,-8.552421827099938,-4.208461066830165,2.0,1.6725274725274724,597.8975032851512,0.02086125517160965,0.0597867257152854,-0.16957053784744466,1221.9780219780218,-1.0,53.28563297829092,1.673982563057977,
2023-08-10 18:18:31.769000,-8.614457831325302,-0.6385542168674699,-4.602409638554217,-0.5714285714285714,-8.518087063151441,-4.245248313917841,2.0,1.671062271062271,598.4217448487506,-0.4986888875939625,0.05908746576539864,-0.15593496882466076,1232.2344322344322,-1.0,53.28563297829092,1.6739621042500137,
2023-08-10 18:18:31.777000,-8.626506024096386,-0.6265060240963856,-4.590361445783133,-0.5714285714285714,-8.552421827099938,-4.235438381361128,2.0,1.6725274725274724,597.8975032851512,0.14637841617621353,0.24206048598566596,0.027271138045568237,1243.956043956044,-1.0,53.28563297829092,1.6739415990032693,
2023-08-10 18:18:31.784000,-8.63855421686747,-0.6144578313253012,-4.590361445783133,-0.5787860208461066,-8.505824647455547,-4.306560392397302,2.0,1.6725274725274724,597.8975032851512,0.14288211642678147,0.15197249577530408,0.2562787716333545,1257.142857142857,-1.0,53.28563297829092,1.6739210460304896,
2023-08-10 18:18:31.792000,-8.63855421686747,-0.6024096385542169,-4.590361445783133,-0.5542611894543225,-8.515634580012263,-4.286940527283875,2.0,1.6725274725274724,597.8975032851512,-0.0882232970106633,-0.016082978847386676,0.05605733931589082,1270.3296703296703,-1.0,53.28563297829092,1.673900444647141,
2023-08-10 18:18:31.800000,-8.614457831325302,-0.5903614457831325,-4.578313253012048,-0.5076640098099325,-8.476394849785407,-4.264868179031269,2.0,1.6725274725274724,597.8975032851512,0.323407726822446,-0.16980362449740677,-0.034380280869413145,1283.5164835164835,-1.0,53.28563297829092,1.673879794336172,
2023-08-10 18:18:31.807000,-8.66265060240964,-0.6144578313253012,-4.602409638554217,-0.4659717964438994,-8.559779276517473,-4.291845493562231,2.0,1.671062271062271,598.4217448487506,-0.061418332265018846,0.029835091195151413,-0.06666278188916733,1292.3076923076922,-1.0,53.28563297829092,1.6738590947699707,
2023-08-10 18:18:31.815000,-8.63855421686747,-0.6385542168674699,-4.602409638554217,-0.539546290619252,-8.52053954629062,-4.220723482526058,2.0,1.6725274725274724,597.8975032851512,-0.1074529456325395,0.2896101625779375,0.20791329176621406,1298.9010989010987,-1.0,53.28563297829092,1.6738383453388637,
2023-08-10 18:18:31.823000,-8.650602409638555,-0.6144578313253012,-4.590361445783133,-0.49294911097486205,-8.547516860821581,-4.255058246474555,2.0,1.6725274725274724,597.8975032851512,-0.1988229124176906,0.1642095448983162,-0.07144105821339074,1303.2967032967033,-1.0,53.28563297829092,1.6738175455918771,
2023-08-10 18:18:31.830000,-8.63855421686747,-0.6385542168674699,-4.590361445783133,-0.6057633353770693,-8.481299816063764,-4.237890864500306,2.0,1.6725274725274724,597.8975032851512,-0.16712312802284232,-0.0816968708117243,0.12831420080414915,1308.4249084249084,-1.0,53.28563297829092,1.6737966957805284,
2023-08-10 18:18:31.838000,-8.626506024096386,-0.6144578313253012,-4.566265060240964,-0.5419987737584304,-8.505824647455547,-4.255058246474555,2.0,1.6725274725274724,597.8975032851512,0.10850183555736877,0.3725890099644545,-0.20628168521647933,1315.7509157509157,-1.0,53.28563297829092,1.6737757964185431,
2023-08-10 18:18:31.846000,-8.63855421686747,-0.6385542168674699,-4.590361445783133,-0.5861434702636419,-8.579399141630901,-4.267320662170447,2.0,1.671062271062271,598.4217448487506,-0.33646057922032574,0.18588660334479346,0.31408426082396135,1319.4139194139193,-1.0,53.28563297829092,1.6737548482983102,
2023-08-10 18:18:31.853000,-8.650602409638555,-0.6265060240963856,-4.578313253012048,-0.5346413243408952,-8.552421827099938,-4.282035561005518,2.0,1.6725274725274724,597.8975032851512,0.12400209777984952,-0.22865800361284375,0.22015034088922575,1321.6117216117216,-1.0,53.28563297829092,1.673733852013442,
2023-08-10 18:18:31.861000,-8.626506024096386,-0.6144578313253012,-4.566265060240964,-0.5469037400367872,-8.510729613733906,-4.301655426118945,2.0,1.671062271062271,598.4217448487506,-0.0621175922149056,-0.29986597517627195,0.0814637841617622,1320.14652014652,-1.0,53.28563297829092,1.673712807935315,
2023-08-10 18:18:31.869000,-8.63855421686747,-0.6265060240963856,-4.542168674698796,-0.5885959534028203,-8.469037400367872,-4.250153280196199,2.0,1.671062271062271,598.4217448487506,-0.15430336227492603,-0.0973136763591859,0.05151214964162908,1318.6813186813185,-1.0,53.28563297829092,1.6736917167826073,
2023-08-10 18:18:31.876000,-8.614457831325302,-0.6265060240963856,-4.55421686746988,-0.5836909871244634,-8.545064377682403,-4.277130594727161,2.0,1.671062271062271,598.4217448487506,0.01503408892255741,0.08833984033564414,-0.041722510343220165,1315.018315018315,-1.0,53.28563297829092,1.6736705795229254,
2023-08-10 18:18:31.884000,-8.650602409638555,-0.6265060240963856,-4.578313253012048,-0.5787860208461066,-8.530349478847333,-4.235438381361128,2.0,1.6725274725274724,597.8975032851512,-0.15465299224986853,0.17959326379581614,-0.08717440708583403,1308.4249084249084,-1.0,53.28563297829092,1.6736493973422322,
2023-08-10 18:18:31.892000,-8.63855421686747,-0.6265060240963856,-4.602409638554217,-0.5738810545677498,-8.481299816063764,-4.228080931943593,2.0,1.671062271062271,598.4217448487506,-0.061418332265018846,0.20884563836606335,0.05151214964162908,1298.9010989010987,-1.0,53.28563297829092,1.673628172139663,
2023-08-10 18:18:31.899000,-8.63855421686747,-0.6265060240963856,-4.578313253012048,-0.5738810545677498,-8.579399141630901,-4.235438381361128,2.0,1.671062271062271,598.4217448487506,-0.1984732824427481,-0.11118233203193321,-0.07027562496358021,1288.6446886446886,-1.0,53.28563297829092,1.6736069061071275,
2023-08-10 18:18:31.907000,-8.626506024096386,-0.6144578313253012,-4.614457831325302,-0.5272838749233598,-8.473942366646229,-4.259963212752912,2.0,1.6725274725274724,597.8975032851512,-0.1818075869704555,0.13600606025289824,-0.2095448983159488,1277.6556776556777,-1.0,53.28563297829092,1.6735856012028294,
2023-08-10 18:18:31.915000,-8.63855421686747,-0.6265060240963856,-4.578313253012048,-0.5665236051502146,-8.493562231759656,-4.237890864500306,2.0,1.6725274725274724,597.8975032851512,0.12481790105471711,0.1828564768952865,0.0033797564244507665,1267.3992673992673,-1.0,53.28563297829092,1.6735642600983922,
2023-08-10 18:18:31.922000,-8.63855421686747,-0.6144578313253012,-4.602409638554217,-0.568976088289393,-8.54996934396076,-4.220723482526058,2.0,1.6725274725274724,597.8975032851512,0.22959035021269217,-0.0961482431093758,0.06293339548977318,1257.142857142857,-1.0,53.28563297829092,1.67354288624562,
2023-08-10 18:18:31.930000,-8.650602409638555,-0.6024096385542169,-4.590361445783133,-0.5248313917841815,-8.537706928264868,-4.296750459840588,2.0,1.671062271062271,598.4217448487506,-0.39717965153545787,-0.06864401841384458,-0.1497581726006643,1248.3516483516482,-1.0,53.28563297829092,1.6735214834167715,
2023-08-10 18:18:31.938000,-8.650602409638555,-0.5903614457831325,-4.590361445783133,-0.5738810545677498,-8.52053954629062,-4.259963212752912,2.0,1.6725274725274724,597.8975032851512,-0.1642095448983162,-0.3150166074238102,0.004428646349280464,1241.7582417582416,-1.0,53.28563297829092,1.6735000552087436,
2023-08-10 18:18:31.945000,-8.66265060240964,-0.6024096385542169,-4.578313253012048,-0.5346413243408952,-8.510729613733906,-4.274678111587982,2.0,1.671062271062271,598.4217448487506,0.06351611211467911,-0.25219975525901783,-0.039974360468504146,1237.3626373626373,-1.0,53.28563297829092,1.673478605459141,
2023-08-10 18:18:31.953000,-8.63855421686747,-0.6265060240963856,-4.578313253012048,-0.5714285714285714,-8.483752299202942,-4.2403433476394845,2.0,1.6725274725274724,597.8975032851512,-0.10255812598333396,0.07109142823844736,0.1129304819066488,1233.6996336996335,-1.0,53.28563297829092,1.6734571382724854,
2023-08-10 18:18:31.961000,-8.63855421686747,-0.6265060240963856,-4.578313253012048,-0.5935009196811771,-8.493562231759656,-4.255058246474555,2.0,1.6725274725274724,597.8975032851512,-0.16257793834858103,-0.11374628518151682,0.14276557310180063,1232.2344322344322,-1.0,53.28563297829092,1.6734356579754504,
2023-08-10 18:18:31.968000,-8.626506024096386,-0.6385542168674699,-4.602409638554217,-0.5787860208461066,-8.476394849785407,-4.343347639484978,2.0,1.671062271062271,598.4217448487506,0.1290134607540359,0.2097779849659118,0.018996561971913226,1232.967032967033,-1.0,53.28563297829092,1.673414169632923,
2023-08-10 18:18:31.976000,-8.626506024096386,-0.6024096385542169,-4.590361445783133,-0.5469037400367872,-8.496014714898834,-4.259963212752912,2.0,1.671062271062271,598.4217448487506,-0.26839927743138536,0.13146087057863695,-0.1336751937532776,1235.164835164835,-1.0,53.28563297829092,1.673392678087444,
2023-08-10 18:18:31.984000,-8.626506024096386,-0.6144578313253012,-4.566265060240964,-0.5027590435315757,-8.442060085836909,-4.272225628448804,2.0,1.671062271062271,598.4217448487506,-0.11223122195676248,0.05046325971679939,0.03496299749431863,1236.6300366300366,-1.0,53.28563297829092,1.6733711878761273,
2023-08-10 18:18:31.991000,-8.602409638554217,-0.6265060240963856,-4.578313253012048,-0.5370938074800735,-8.442060085836909,-4.2624156958920905,2.0,1.671062271062271,598.4217448487506,-0.09638132975933747,0.17108560107219944,0.1717848610220849,1235.8974358974358,-1.0,53.28563297829092,1.6733497036712799,
2023-08-10 18:18:31.999000,-8.602409638554217,-0.6506024096385542,-4.566265060240964,-0.6057633353770693,-8.473942366646229,-4.2992029429797665,2.0,1.671062271062271,598.4217448487506,-0.17201794767204787,-0.3336635394207805,0.0916030534351145,1234.4322344322343,-1.0,53.28563297829092,1.6733282302618615,
2023-08-10 18:18:32.006000,-8.626506024096386,-0.6385542168674699,-4.566265060240964,-0.5567136725935009,-8.48620478234212,-4.2697731453096255,2.0,1.6725274725274724,597.8975032851512,-0.17178486102208446,-0.32981760969640417,0.09055416351028481,1234.4322344322343,-1.0,53.28563297829092,1.6733067725337563,
2023-08-10 18:18:32.014000,-8.66265060240964,-0.6024096385542169,-4.578313253012048,-0.5885959534028203,-8.576946658491723,-4.235438381361128,2.0,1.671062271062271,598.4217448487506,0.04148942369325762,-0.09673095973428172,0.07528698793776573,1235.164835164835,-1.0,53.28563297829092,1.6732853359416702,
2023-08-10 18:18:32.022000,-8.63855421686747,-0.6265060240963856,-4.566265060240964,-0.5763335377069282,-8.52053954629062,-4.2109135499693435,2.0,1.671062271062271,598.4217448487506,0.4237515296311406,-0.005011362974186382,0.33552823262047643,1238.095238095238,-1.0,53.28563297829092,1.673263926524838,
2023-08-10 18:18:32.029000,-8.66265060240964,-0.6024096385542169,-4.55421686746988,-0.49540159411404044,-8.572041692213366,-4.291845493562231,2.0,1.671062271062271,598.4217448487506,0.054192646116193094,-0.06631315191422439,0.07342229473806887,1241.0256410256409,-1.0,53.28563297829092,1.6732425502928348,
2023-08-10 18:18:32.037000,-8.66265060240964,-0.6144578313253012,-4.590361445783133,-0.5321888412017167,-8.564684242795831,-4.27958307786634,2.0,1.671062271062271,598.4217448487506,0.16036361517394165,-0.3097721577996621,-0.003612843074412873,1245.4212454212454,-1.0,53.28563297829092,1.673221212714745,
2023-08-10 18:18:32.045000,-8.63855421686747,-0.6265060240963856,-4.602409638554217,-0.5493562231759657,-8.510729613733906,-4.198651134273452,2.0,1.671062271062271,598.4217448487506,0.06642969523920522,0.15104014917545566,-0.40184138453470086,1251.2820512820513,-1.0,53.28563297829092,1.6731999192249853,
2023-08-10 18:18:32.052000,-8.650602409638555,-0.6024096385542169,-4.566265060240964,-0.5419987737584304,-8.545064377682403,-4.257510729613734,2.0,1.671062271062271,598.4217448487506,0.11223122195676248,0.013402482372822228,0.1991725423926344,1257.142857142857,-1.0,53.28563297829092,1.6731786751662725,
2023-08-10 18:18:32.060000,-8.650602409638555,-0.6024096385542169,-4.602409638554217,-0.539546290619252,-8.503372164316369,-4.304107909258124,2.0,1.671062271062271,598.4217448487506,-0.04009090379348585,0.08892255696055006,-0.0011654332498105342,1261.5384615384614,-1.0,53.28563297829092,1.673157485343747,
2023-08-10 18:18:32.068000,-8.63855421686747,-0.6024096385542169,-4.590361445783133,-0.6008583690987124,-8.527896995708154,-4.284488044144696,2.0,1.6725274725274724,597.8975032851512,0.2067478585164031,0.2724782938057216,-0.030883981119981543,1263.7362637362637,-1.0,53.28563297829092,1.6731363544922353,
2023-08-10 18:18:32.075000,-8.63855421686747,-0.6024096385542169,-4.602409638554217,-0.5125689760882893,-8.476394849785407,-4.267320662170447,2.0,1.671062271062271,598.4217448487506,-0.25115086533418857,-0.20569896859157383,9.323465998484274E-4,1268.8644688644688,-1.0,53.28563297829092,1.6731152877436763,
2023-08-10 18:18:32.083000,-8.626506024096386,-0.6144578313253012,-4.602409638554217,-0.5297363580625383,-8.454322501532802,-4.286940527283875,2.0,1.671062271062271,598.4217448487506,-0.01736495542217761,-0.20348464541693448,0.19905599906765356,1271.7948717948716,-1.0,53.28563297829092,1.6730942901817598,
2023-08-10 18:18:32.091000,-8.602409638554217,-0.6144578313253012,-4.590361445783133,-0.5248313917841815,-8.483752299202942,-4.257510729613734,2.0,1.6725274725274724,597.8975032851512,-0.10955072548219803,-0.17096905774721688,-0.04708350329234905,1275.4578754578754,-1.0,53.28563297829092,1.6730733662930568,
2023-08-10 18:18:32.098000,-8.63855421686747,-0.6265060240963856,-4.590361445783133,-0.5297363580625383,-8.559779276517473,-4.186388718577559,2.0,1.671062271062271,598.4217448487506,0.21222539479051283,0.08799021036070162,-0.09381737660975473,1279.120879120879,-1.0,53.28563297829092,1.6730525208945002,
2023-08-10 18:18:32.106000,-8.626506024096386,-0.6024096385542169,-4.590361445783133,-0.5738810545677498,-8.540159411404046,-4.29429797670141,2.0,1.671062271062271,598.4217448487506,0.025989161470776866,0.14707767612610026,-0.3520773847677873,1282.7838827838827,-1.0,53.28563297829092,1.6730317586906769,
2023-08-10 18:18:32.114000,-8.650602409638555,-0.6144578313253012,-4.566265060240964,-0.5885959534028203,-8.518087063151441,-4.309012875536481,2.0,1.6725274725274724,597.8975032851512,0.07307266476312506,-0.02249286172134483,6.992599498863206E-4,1286.4468864468863,-1.0,53.28563297829092,1.673011083728096,
2023-08-10 18:18:32.121000,-8.66265060240964,-0.6024096385542169,-4.55421686746988,-0.5616186388718577,-8.518087063151441,-4.257510729613734,2.0,1.671062271062271,598.4217448487506,0.10372355923314405,0.009323465998484274,0.06270030883981108,1287.179487179487,-1.0,53.28563297829092,1.6729905003262349,
2023-08-10 18:18:32.129000,-8.650602409638555,-0.6265060240963856,-4.566265060240964,-0.5076640098099325,-8.545064377682403,-4.237890864500306,2.0,1.6725274725274724,597.8975032851512,0.17970980712079695,-0.252782471883922,0.16782238797272864,1286.4468864468863,-1.0,53.28563297829092,1.6729700126388243,
2023-08-10 18:18:32.137000,-8.66265060240964,-0.6144578313253012,-4.590361445783133,-0.5812385039852851,-8.52053954629062,-4.259963212752912,2.0,1.671062271062271,598.4217448487506,0.11665986830604294,-0.34053959559466196,-0.020395081871685868,1284.2490842490843,-1.0,53.28563297829092,1.6729496246051576,
2023-08-10 18:18:32.144000,-8.650602409638555,-0.6144578313253012,-4.578313253012048,-0.5812385039852851,-8.508277130594728,-4.255058246474555,2.0,1.671062271062271,598.4217448487506,0.04090670706835344,-0.231455043412389,-0.0816968708117243,1282.051282051282,-1.0,53.28563297829092,1.6729293399727225,
2023-08-10 18:18:32.152000,-8.650602409638555,-0.6144578313253012,-4.578313253012048,-0.5493562231759657,-8.476394849785407,-4.255058246474555,2.0,1.671062271062271,598.4217448487506,0.11747567158091053,-0.25989161470776695,-0.24951925878445297,1282.051282051282,-1.0,53.28563297829092,1.6729091617595209,
2023-08-10 18:18:32.160000,-8.66265060240964,-0.6385542168674699,-4.566265060240964,-0.522378908645003,-8.542611894543224,-4.274678111587982,2.0,1.6725274725274724,597.8975032851512,0.3147835207738485,-0.21339082804032466,-0.15511916554979316,1285.7142857142856,-1.0,53.28563297829092,1.6728890927010278,
2023-08-10 18:18:32.167000,-8.650602409638555,-0.6385542168674699,-4.578313253012048,-0.5125689760882893,-8.527896995708154,-4.277130594727161,2.0,1.671062271062271,598.4217448487506,0.23600023308665033,-0.24171085601072173,-0.04801584989219748,1290.8424908424909,-1.0,53.28563297829092,1.6728691357336494,
2023-08-10 18:18:32.175000,-8.626506024096386,-0.6144578313253012,-4.590361445783133,-0.5616186388718577,-8.508277130594728,-4.29429797670141,2.0,1.671062271062271,598.4217448487506,-0.22492861721344828,0.1689878212225392,-0.1580327486743197,1297.4358974358975,-1.0,53.28563297829092,1.6728492940246846,
2023-08-10 18:18:32.183000,-8.63855421686747,-0.6265060240963856,-4.626506024096386,-0.6302881667688535,-8.530349478847333,-4.2624156958920905,2.0,1.671062271062271,598.4217448487506,-0.023075578346250746,-0.09300157333488801,-0.018413845347007744,1303.2967032967033,-1.0,53.28563297829092,1.672829569917095,
2023-08-10 18:18:32.190000,-8.614457831325302,-0.6385542168674699,-4.614457831325302,-0.5199264255058246,-8.498467198038012,-4.255058246474555,2.0,1.6725274725274724,597.8975032851512,-0.3876230988870119,0.12027271138045581,-0.06304993881475446,1307.6923076923076,-1.0,53.28563297829092,1.6728099654209712,
2023-08-10 18:18:32.198000,-8.626506024096386,-0.6265060240963856,-4.590361445783133,-0.5959534028203556,-8.491109748620477,-4.264868179031269,2.0,1.6725274725274724,597.8975032851512,-0.07889983101217903,0.010955072548219456,0.16584115144805095,1310.6227106227104,-1.0,53.28563297829092,1.6727904831296692,
2023-08-10 18:18:32.206000,-8.602409638554217,-0.6385542168674699,-4.602409638554217,-0.5836909871244634,-8.503372164316369,-4.29429797670141,2.0,1.671062271062271,598.4217448487506,-0.01713186877221594,-0.0981294796340535,0.05827166249053105,1313.5531135531135,-1.0,53.28563297829092,1.6727711253456614,
2023-08-10 18:18:32.213000,-8.626506024096386,-0.6144578313253012,-4.578313253012048,-0.5150214592274678,-8.532801961986511,-4.259963212752912,2.0,1.671062271062271,598.4217448487506,-0.04498572344268966,0.026338791445719375,-0.17166831769710406,1314.2857142857142,-1.0,53.28563297829092,1.672751893208208,
2023-08-10 18:18:32.221000,-8.63855421686747,-0.6144578313253012,-4.566265060240964,-0.5812385039852851,-8.537706928264868,-4.2256284488044145,2.0,1.6725274725274724,597.8975032851512,0.004312103024299628,-0.4488083445020691,-0.033797564244508096,1313.5531135531135,-1.0,53.28563297829092,1.6727327871223179,
2023-08-10 18:18:32.229000,-8.626506024096386,-0.6144578313253012,-4.578313253012048,-0.5738810545677498,-8.50091968117719,-4.250153280196199,2.0,1.671062271062271,598.4217448487506,-0.0749373579628219,-0.276906940155002,0.23972961948604404,1312.8205128205127,-1.0,53.28563297829092,1.6727138077146113,
2023-08-10 18:18:32.236000,-8.626506024096386,-0.6144578313253012,-4.578313253012048,-0.522378908645003,-8.513182096873084,-4.2624156958920905,2.0,1.671062271062271,598.4217448487506,-0.1956762426432028,0.06083561564011466,-0.4792261523221255,1312.087912087912,-1.0,53.28563297829092,1.6726949554198964,
2023-08-10 18:18:32.244000,-8.650602409638555,-0.6144578313253012,-4.590361445783133,-0.551808706315144,-8.505824647455547,-4.2109135499693435,2.0,1.6725274725274724,597.8975032851512,-0.1188741914806823,-0.1843715401200391,-0.01794767204708353,1308.4249084249084,-1.0,53.28563297829092,1.672676230423293,
2023-08-10 18:18:32.252000,-8.66265060240964,-0.6024096385542169,-4.566265060240964,-0.5052115266707541,-8.483752299202942,-4.252605763335377,2.0,1.671062271062271,598.4217448487506,-0.05594079599090911,0.07645242118757625,0.041372880368276785,1302.5641025641025,-1.0,53.28563297829092,1.672657633554514,
2023-08-10 18:18:32.259000,-8.626506024096386,-0.6144578313253012,-4.566265060240964,-0.5787860208461066,-8.54996934396076,-4.24770079705702,2.0,1.671062271062271,598.4217448487506,0.036128430744128734,0.06258376551483068,-0.03566225744420495,1295.2380952380952,-1.0,53.28563297829092,1.6726391649336556,
2023-08-10 18:18:32.267000,-8.66265060240964,-0.6144578313253012,-4.578313253012048,-0.5763335377069282,-8.542611894543224,-4.228080931943593,2.0,1.671062271062271,598.4217448487506,-0.2697977973311571,-0.39729619486043866,-0.3722393799895111,1286.4468864468863,-1.0,53.28563297829092,1.672620823989428,
2023-08-10 18:18:32.275000,-8.626506024096386,-0.6144578313253012,-4.542168674698796,-0.5616186388718577,-8.476394849785407,-4.235438381361128,2.0,1.671062271062271,598.4217448487506,-0.08158032748674347,-0.1661907814229939,-0.08076452421187588,1278.3882783882782,1118.34716796875,53.65060306718332,1.6726026098991928,
2023-08-10 18:18:32.282000,-8.614457831325302,-0.6144578313253012,-4.578313253012048,-0.49785407725321884,-8.473942366646229,-4.291845493562231,2.0,1.671062271062271,598.4217448487506,-0.07994872093700829,-0.16595769477303224,-0.07983217761202745,1271.062271062271,-1.0,53.65060306718332,1.6725845216415332,
2023-08-10 18:18:32.290000,-8.63855421686747,-0.6144578313253012,-4.578313253012048,-0.5469037400367872,-8.508277130594728,-4.255058246474555,2.0,1.671062271062271,598.4217448487506,-0.15523570887477445,0.033797564244508534,-0.19858982576772935,1266.6666666666665,-1.0,53.65060306718332,1.6725665584379565,
2023-08-10 18:18:32.298000,-8.63855421686747,-0.6144578313253012,-4.578313253012048,-0.5469037400367872,-8.542611894543224,-4.296750459840588,2.0,1.671062271062271,598.4217448487506,-0.07831711438727311,0.2919410290775594,0.07621933453761415,1265.9340659340658,-1.0,53.65060306718332,1.6725487188239252,
2023-08-10 18:18:32.305000,-8.63855421686747,-0.6144578313253012,-4.578313253012048,-0.5812385039852851,-8.50091968117719,-4.264868179031269,2.0,1.671062271062271,598.4217448487506,-0.06281685216479235,-0.04638424334246317,0.02995163452013268,1265.9340659340658,-1.0,53.65060306718332,1.6725310007378966,
2023-08-10 18:18:32.313000,-8.626506024096386,-0.6385542168674699,-4.614457831325302,-0.539546290619252,-8.530349478847333,-4.24770079705702,2.0,1.671062271062271,598.4217448487506,0.18122487034555132,-0.10896800885729212,0.04463609346774672,1266.6666666666665,-1.0,53.65060306718332,1.6725134020316021,
2023-08-10 18:18:32.321000,-8.650602409638555,-0.6144578313253012,-4.590361445783133,-0.5591661557326794,-8.47148988350705,-4.284488044144696,2.0,1.671062271062271,598.4217448487506,0.08950527358545597,-0.0023308664996219363,-0.002214323174640232,1267.3992673992673,-1.0,53.65060306718332,1.6724959204882865,
2023-08-10 18:18:32.328000,-8.63855421686747,-0.6144578313253012,-4.590361445783133,-0.5738810545677498,-8.554874310239116,-4.259963212752912,2.0,1.671062271062271,598.4217448487506,-0.16933745119748342,-0.4289959792552887,-0.23262047666219912,1268.131868131868,-1.0,53.65060306718332,1.672478554299343,
2023-08-10 18:18:32.336000,-8.650602409638555,-0.6265060240963856,-4.578313253012048,-0.5444512568976088,-8.508277130594728,-4.2182709993868786,2.0,1.6695970695970692,598.9469065379553,-0.18343919352019067,0.20127032224229335,0.07435464133791729,1268.8644688644688,-1.0,53.65060306718332,1.6724613020162167,
2023-08-10 18:18:32.344000,-8.63855421686747,-0.6024096385542169,-4.578313253012048,-0.5469037400367872,-8.54996934396076,-4.213366033108522,2.0,1.671062271062271,598.4217448487506,0.16642386807295556,-0.11700949828098545,-0.018180758697045635,1267.3992673992673,-1.0,53.65060306718332,1.6724441615887953,
2023-08-10 18:18:32.351000,-8.63855421686747,-0.6144578313253012,-4.578313253012048,-0.5370938074800735,-8.559779276517473,-4.313917841814837,2.0,1.671062271062271,598.4217448487506,0.1341413670532014,-0.2798205232795299,-0.4134957170328071,1267.3992673992673,-1.0,53.65060306718332,1.672427130809107,
2023-08-10 18:18:32.359000,-8.63855421686747,-0.5903614457831325,-4.55421686746988,-0.510116492949111,-8.493562231759656,-4.223175965665236,2.0,1.671062271062271,598.4217448487506,0.28739583940329816,-0.47316589942311077,-0.10418973253306914,1271.7948717948716,-1.0,53.65060306718332,1.672410207858403,
2023-08-10 18:18:32.367000,-8.63855421686747,-0.6144578313253012,-4.566265060240964,-0.5125689760882893,-8.451870018393624,-4.242795830778663,2.0,1.671062271062271,598.4217448487506,0.2563953149583349,-0.058388205815511886,-0.08880601363556921,1278.3882783882782,-1.0,53.65060306718332,1.672393390870509,
2023-08-10 18:18:32.374000,-8.626506024096386,-0.6024096385542169,-4.566265060240964,-0.5444512568976088,-8.478847332924586,-4.27958307786634,2.0,1.671062271062271,598.4217448487506,0.19217994289377077,-0.18227376027038059,-0.17912709049589193,1287.179487179487,-1.0,53.65060306718332,1.6723766779522151,
2023-08-10 18:18:32.382000,-8.626506024096386,-0.6265060240963856,-4.566265060240964,-0.510116492949111,-8.481299816063764,-4.228080931943593,2.0,1.671062271062271,598.4217448487506,-0.13157741390361952,-0.26012470135773036,-0.010139269273352298,1296.7032967032967,-1.0,53.65060306718332,1.67236006720272,
2023-08-10 18:18:32.389000,-8.66265060240964,-0.6385542168674699,-4.566265060240964,-0.5665236051502146,-8.525444512568976,-4.2624156958920905,2.0,1.671062271062271,598.4217448487506,-0.04067362041839003,0.10512207913291756,0.01969582192179955,1305.4945054945053,-1.0,53.65060306718332,1.67234355673206,
2023-08-10 18:18:32.397000,-8.650602409638555,-0.6385542168674699,-4.578313253012048,-0.6008583690987124,-8.557326793378294,-4.282035561005518,2.0,1.671062271062271,598.4217448487506,-0.17807820057106177,-0.0632830254647157,0.1258667909795468,1309.89010989011,-1.0,53.65060306718332,1.6723271446784227,
2023-08-10 18:18:32.405000,-8.626506024096386,-0.6265060240963856,-4.566265060240964,-0.6057633353770693,-8.481299816063764,-4.2992029429797665,2.0,1.671062271062271,598.4217448487506,0.1446302663014975,-0.4571994639007049,-0.11677641163102377,1312.087912087912,-1.0,53.65060306718332,1.672310829224278,
2023-08-10 18:18:32.412000,-8.63855421686747,-0.6144578313253012,-4.602409638554217,-0.6033108522378908,-8.527896995708154,-4.206008583690987,2.0,1.671062271062271,598.4217448487506,-0.22481207388846747,-0.30079832177612037,-0.2671173008565935,1310.6227106227104,-1.0,53.65060306718332,1.6722946081534065,
2023-08-10 18:18:32.420000,-8.63855421686747,-0.6144578313253012,-4.590361445783133,-0.5052115266707541,-8.476394849785407,-4.267320662170447,2.0,1.671062271062271,598.4217448487506,0.06631315191422439,-0.051861779616572894,0.04370374686789829,1307.6923076923076,-1.0,53.65060306718332,1.672278479389626,
2023-08-10 18:18:32.428000,-8.63855421686747,-0.5903614457831325,-4.578313253012048,-0.49785407725321884,-8.557326793378294,-4.289393010423053,2.0,1.671062271062271,598.4217448487506,0.12575024765456555,-0.5564943767845703,-0.12493444437969795,1306.227106227106,-1.0,53.65060306718332,1.672262441430175,
2023-08-10 18:18:32.435000,-8.650602409638555,-0.5662650602409639,-4.542168674698796,-0.5321888412017167,-8.559779276517473,-4.250153280196199,2.0,1.671062271062271,598.4217448487506,-0.1196899947555499,-0.01876347532195112,-0.015733348872443296,1304.0293040293038,-1.0,53.65060306718332,1.6722464928646035,
2023-08-10 18:18:32.443000,-8.63855421686747,-0.5783132530120483,-4.566265060240964,-0.5052115266707541,-8.510729613733906,-4.223175965665236,2.0,1.671062271062271,598.4217448487506,-0.22504516053843088,-0.15873200862420647,0.060136355690227905,1302.5641025641025,-1.0,53.65060306718332,1.6722306323849359,
2023-08-10 18:18:32.451000,-8.674698795180724,-0.6024096385542169,-4.578313253012048,-0.5346413243408952,-8.530349478847333,-4.220723482526058,2.0,1.671062271062271,598.4217448487506,0.02074471184662881,0.03915855719363742,-0.2907755958277489,1301.098901098901,-1.0,53.65060306718332,1.6722148587944197,
2023-08-10 18:18:32.458000,-8.66265060240964,-0.6144578313253012,-4.566265060240964,-0.5444512568976088,-8.603923973022685,-4.2624156958920905,2.0,1.671062271062271,598.4217448487506,-0.11561097838121367,0.12773148417924324,-0.18005943709574035,1298.9010989010987,-1.0,53.65060306718332,1.6721991710148763,
2023-08-10 18:18:32.466000,-8.66265060240964,-0.6265060240963856,-4.602409638554217,-0.539546290619252,-8.574494175352545,-4.284488044144696,2.0,1.671062271062271,598.4217448487506,-0.11351319853155341,-0.18134141367053214,0.09777984965911098,1294.5054945054944,-1.0,53.65060306718332,1.6721835680926267,
2023-08-10 18:18:32.474000,-8.66265060240964,-0.6144578313253012,-4.614457831325302,-0.6376456161863887,-8.54996934396076,-4.272225628448804,2.0,1.6695970695970692,598.9469065379553,0.2851815162286588,-0.19474389604335438,-0.023774838296136636,1287.179487179487,-1.0,53.65060306718332,1.6721680492030184,
2023-08-10 18:18:32.481000,-8.614457831325302,-0.6265060240963856,-4.63855421686747,-0.5493562231759657,-8.459227467811159,-4.27958307786634,2.0,1.671062271062271,598.4217448487506,-0.09789639298409182,-0.361633937416235,-0.130178894003846,1282.051282051282,-1.0,53.65060306718332,1.6721526136187816,
2023-08-10 18:18:32.489000,-8.590361445783133,-0.6506024096385542,-4.650602409638554,-0.5469037400367872,-8.446965052115265,-4.360515021459228,2.0,1.671062271062271,598.4217448487506,-0.2790047200046623,-0.5094108734922204,0.283666453003904,1277.6556776556777,-1.0,53.65060306718332,1.67213726106506,
2023-08-10 18:18:32.497000,-8.566265060240964,-0.6385542168674699,-4.650602409638554,-0.5812385039852851,-8.422440220723482,-4.333537706928265,2.0,1.671062271062271,598.4217448487506,-0.1557018821746978,-0.015150632247538248,0.0689936483887884,1276.1904761904761,-1.0,53.65060306718332,1.6721219912981489,
2023-08-10 18:18:32.504000,-8.578313253012048,-0.6385542168674699,-4.614457831325302,-0.5616186388718577,-8.422440220723482,-4.296750459840588,2.0,1.671062271062271,598.4217448487506,-0.32422353009731364,0.1857700600198126,-0.11467863178136481,1281.3186813186812,-1.0,53.65060306718332,1.6721068037171485,
2023-08-10 18:18:32.512000,-8.602409638554217,-0.6385542168674699,-4.614457831325302,-0.5836909871244634,-8.518087063151441,-4.252605763335377,2.0,1.671062271062271,598.4217448487506,-0.031816327719829104,0.3539420779674842,0.11677641163102377,1299.6336996336995,-1.0,53.65060306718332,1.6720916978527895,
2023-08-10 18:18:32.520000,-8.650602409638555,-0.6265060240963856,-4.55421686746988,-0.5444512568976088,-8.48620478234212,-4.27958307786634,2.0,1.671062271062271,598.4217448487506,-0.09568206980945246,0.27795583007983304,0.10209195268341018,1339.194139194139,-1.0,53.65060306718332,1.6720766733624985,
2023-08-10 18:18:32.527000,-8.63855421686747,-0.6144578313253012,-4.55421686746988,-0.5616186388718577,-8.61128142244022,-4.259963212752912,2.0,1.671062271062271,598.4217448487506,-0.23262047666219912,0.30942252782471963,0.13460754035312647,1405.128205128205,-1.0,53.65060306718332,1.6720617300244742,
2023-08-10 18:18:32.535000,-8.674698795180724,-0.6024096385542169,-4.55421686746988,-0.5763335377069282,-8.56713672593501,-4.230533415082771,2.0,1.671062271062271,598.4217448487506,-0.18332265019520982,0.10733640230755867,0.30056523512615824,1502.5641025641025,-1.0,53.65060306718332,1.672046867730866,
2023-08-10 18:18:32.543000,-8.686746987951807,-0.6144578313253012,-4.530120481927711,-0.5493562231759657,-8.56713672593501,-4.250153280196199,2.0,1.671062271062271,598.4217448487506,-0.2595419847328244,-0.12213740458015267,-0.008041489423693338,1629.3040293040292,-1.0,53.65060306718332,1.6720320864801625,
2023-08-10 18:18:32.550000,-8.698795180722891,-0.6144578313253012,-4.530120481927711,-0.5150214592274678,-8.545064377682403,-4.193746167995095,2.0,1.671062271062271,598.4217448487506,-0.2574442048831659,0.2924072023774845,0.1767962239962704,1778.021978021978,-1.0,53.65060306718332,1.672017386368895,
2023-08-10 18:18:32.558000,-8.698795180722891,-0.6265060240963856,-4.590361445783133,-0.5567136725935009,-8.589209074187615,-4.2697731453096255,2.0,1.671062271062271,598.4217448487506,-0.2546471650836206,0.2912417691276727,0.17563079074645987,1937.7289377289376,-1.0,53.65060306718332,1.6720027675827798,
2023-08-10 18:18:32.566000,-8.686746987951807,-0.6265060240963856,-4.566265060240964,-0.5321888412017167,-8.574494175352545,-4.228080931943593,2.0,1.671062271062271,598.4217448487506,-0.06911019171376967,-0.33646057922032574,0.05104597634170487,2100.3663003663,-1.0,53.65060306718332,1.671988230387407,
2023-08-10 18:18:32.573000,-8.614457831325302,-0.6144578313253012,-4.566265060240964,-0.5714285714285714,-8.496014714898834,-4.267320662170447,2.0,1.671062271062271,598.4217448487506,-0.09976108618378868,-0.15115669250043648,0.14194976982693305,2255.6776556776554,-1.0,53.65060306718332,1.6719737751185872,
2023-08-10 18:18:32.581000,-8.590361445783133,-0.6385542168674699,-4.578313253012048,-0.5738810545677498,-8.481299816063764,-4.313917841814837,2.0,1.671062271062271,598.4217448487506,-0.17341646757181964,-0.014451372297651493,0.17108560107219858,2394.871794871795,-1.0,53.65060306718332,1.6719594021724762,
2023-08-10 18:18:32.589000,-8.602409638554217,-0.6385542168674699,-4.626506024096386,-0.6327406499080318,-8.513182096873084,-4.272225628448804,2.0,1.671062271062271,598.4217448487506,-0.047316589942311596,-0.26163976458248295,-0.28692966610337395,2505.494505494505,-1.0,53.65060306718332,1.6719451119956041,
2023-08-10 18:18:32.596000,-8.590361445783133,-0.6626506024096386,-4.626506024096386,-0.5910484365419988,-8.518087063151441,-4.267320662170447,2.0,1.671062271062271,598.4217448487506,-0.10593788240778515,-0.24509061243517294,-0.11479517510634565,2586.813186813187,-1.0,53.65060306718332,1.6719309050749058,
2023-08-10 18:18:32.604000,-8.590361445783133,-0.6385542168674699,-4.590361445783133,-0.5444512568976088,-8.491109748620477,-4.264868179031269,2.0,1.671062271062271,598.4217448487506,-0.2561622283083732,0.24485752578521125,0.13181050055358076,2632.967032967033,-1.0,53.65060306718332,1.6719167819278806,
2023-08-10 18:18:32.612000,-8.602409638554217,-0.6385542168674699,-4.542168674698796,-0.5935009196811771,-8.407725321888412,-4.267320662170447,2.0,1.671062271062271,598.4217448487506,0.1281976574791683,0.20115377891731254,0.024823728220966332,2643.9560439560437,-1.0,53.65060306718332,1.671902743092987,
2023-08-10 18:18:32.619000,-8.626506024096386,-0.6385542168674699,-4.590361445783133,-0.5910484365419988,-8.532801961986511,-4.335990190067443,2.0,1.6725274725274724,597.8975032851512,-0.009440009323466846,0.18728512324456695,0.05419264611619353,2619.78021978022,-1.0,53.65060306718332,1.6718887891203669,
2023-08-10 18:18:32.627000,-8.686746987951807,-0.710843373493976,-4.614457831325302,-0.6916002452483139,-8.579399141630901,-4.27958307786634,2.0,1.671062271062271,598.4217448487506,-0.3751529631140381,0.4919293747450619,0.7247829380572227,2564.8351648351645,-1.0,53.65060306718332,1.671874921055692,
2023-08-10 18:18:32.635000,-8.650602409638555,-0.7349397590361446,-4.55421686746988,-0.6989576946658491,-8.442060085836909,-4.198651134273452,2.0,1.671062271062271,598.4217448487506,0.32935143639648085,0.21537206456500235,0.521298292640289,2487.912087912088,-1.0,53.65060306718332,1.671861140011393,
2023-08-10 18:18:32.642000,-8.626506024096386,-0.6385542168674699,-4.506024096385542,-0.6082158185162476,-8.476394849785407,-4.2109135499693435,2.0,1.671062271062271,598.4217448487506,0.4495076044519558,0.6855078375386044,0.13239321717848623,2394.139194139194,-1.0,53.65060306718332,1.6718474461766222,
2023-08-10 18:18:32.650000,-8.602409638554217,-0.5783132530120483,-4.46987951807229,-0.47332924586143466,-8.434702636419374,-4.230533415082771,2.0,1.671062271062271,598.4217448487506,0.21770293106462255,0.8027504224695533,-0.05372647281626932,2285.714285714286,-1.0,53.65060306718332,1.6718338393360388,
2023-08-10 18:18:32.658000,-8.55421686746988,-0.5542168674698795,-4.530120481927711,-0.5248313917841815,-8.469037400367872,-4.223175965665236,2.0,1.671062271062271,598.4217448487506,0.01911310529689363,0.384709515762484,-0.5721111823320318,2169.230769230769,-1.0,53.65060306718332,1.6718203193525942,
2023-08-10 18:18:32.665000,-8.590361445783133,-0.6265060240963856,-4.614457831325302,-0.551808706315144,-8.466584917228694,-4.304107909258124,2.0,1.671062271062271,598.4217448487506,-0.7590466756016545,0.4588310704504401,-0.6747858516403471,2049.8168498168498,-1.0,53.65060306718332,1.6718068861591213,
2023-08-10 18:18:32.673000,-8.602409638554217,-0.5783132530120483,-4.614457831325302,-0.5616186388718577,-8.459227467811159,-4.318822808093194,2.0,1.671062271062271,598.4217448487506,-0.25068469203426347,0.6864401841384529,-0.394382611735913,1934.7985347985348,-1.0,53.65060306718332,1.6717935402093214,
2023-08-10 18:18:32.681000,-8.63855421686747,-0.5783132530120483,-4.662650602409639,-0.4659717964438994,-8.515634580012263,-4.328632740649907,2.0,1.671062271062271,598.4217448487506,-0.2178194743896051,0.5146553231163684,0.18810092651943366,1826.3736263736262,-1.0,53.65060306718332,1.6717802824051757,
2023-08-10 18:18:32.688000,-8.650602409638555,-0.5542168674698795,-4.662650602409639,-0.463519313304721,-8.513182096873084,-4.326180257510729,2.0,1.671062271062271,598.4217448487506,-0.36711147369034475,0.6334129712720699,-0.16432608822329706,1728.2051282051282,-1.0,53.65060306718332,1.671767114062695,
2023-08-10 18:18:32.696000,-8.674698795180724,-0.5542168674698795,-4.686746987951808,-0.5444512568976088,-8.540159411404046,-4.367872470876763,2.0,1.671062271062271,598.4217448487506,-0.22562787716333504,0.553697336985025,-0.22434590058854367,1641.0256410256409,-1.0,53.65060306718332,1.6717540368461288,
2023-08-10 18:18:32.704000,-8.674698795180724,-0.5783132530120483,-4.662650602409639,-0.5199264255058246,-8.562231759656651,-4.360515021459228,2.0,1.671062271062271,598.4217448487506,-0.007458772798787419,0.5953033040032634,-0.006409882873958589,1568.4981684981683,-1.0,53.65060306718332,1.6717410518241023,
2023-08-10 18:18:32.711000,-8.674698795180724,-0.5783132530120483,-4.614457831325302,-0.510116492949111,-8.569589209074188,-4.365419987737584,2.0,1.671062271062271,598.4217448487506,0.3594196142415939,0.7151098420837941,0.009906182623390191,1512.8205128205127,-1.0,53.65060306718332,1.6717281595437932,
2023-08-10 18:18:32.719000,-8.674698795180724,-0.5662650602409639,-4.602409638554217,-0.463519313304721,-8.478847332924586,-4.24770079705702,2.0,1.671062271062271,598.4217448487506,0.02214323174640232,0.3752695064390189,0.07085834158848568,1471.062271062271,-1.0,53.65060306718332,1.6717153605264434,
2023-08-10 18:18:32.727000,-8.650602409638555,-0.5662650602409639,-4.614457831325302,-0.551808706315144,-8.469037400367872,-4.284488044144696,2.0,1.671062271062271,598.4217448487506,0.008391119398635847,0.2677000174814986,-0.4032399044344735,1443.2234432234432,-1.0,53.65060306718332,1.671702655271051,
2023-08-10 18:18:32.734000,-8.626506024096386,-0.6024096385542169,-4.578313253012048,-0.522378908645003,-8.513182096873084,-4.259963212752912,2.0,1.671062271062271,598.4217448487506,-0.282734106404056,-0.11596060835615618,-0.6010139269273352,1424.9084249084249,-1.0,53.65060306718332,1.6716900442588614,
2023-08-10 18:18:32.742000,-8.614457831325302,-0.5903614457831325,-4.578313253012048,-0.5738810545677498,-8.437155119558552,-4.289393010423053,2.0,1.671062271062271,598.4217448487506,-0.2510343220092077,-0.0844939106112696,-0.5071965503175805,1412.4542124542124,-1.0,53.65060306718332,1.6716775279586324,
2023-08-10 18:18:32.750000,-8.566265060240964,-0.5903614457831325,-4.590361445783133,-0.510116492949111,-8.405272838749234,-4.272225628448804,2.0,1.671062271062271,598.4217448487506,-0.3569722044169912,-0.14497989627644,-0.8240778509410871,1402.197802197802,-1.0,53.65060306718332,1.6716651068326362,
2023-08-10 18:18:32.757000,-8.566265060240964,-0.6024096385542169,-4.578313253012048,-0.6131207847946045,-8.400367872470877,-4.286940527283875,2.0,1.671062271062271,598.4217448487506,-0.676300914865101,0.008041489423693338,-0.7709340947497233,1396.3369963369962,-1.0,53.65060306718332,1.671652781801194,
2023-08-10 18:18:32.765000,-8.542168674698795,-0.6265060240963856,-4.602409638554217,-0.5836909871244634,-8.459227467811159,-4.255058246474555,2.0,1.671062271062271,598.4217448487506,-0.4580152671755725,0.2985839986014793,-0.5364489248878269,1393.4065934065934,-1.0,53.65060306718332,1.6716405541827148,
2023-08-10 18:18:32.772000,-8.590361445783133,-0.6024096385542169,-4.602409638554217,-0.5493562231759657,-8.464132434089516,-4.313917841814837,2.0,1.671062271062271,598.4217448487506,0.2790047200046623,0.43412388555445414,-0.441815745003205,1391.9413919413919,-1.0,53.65060306718332,1.671628425213144,
2023-08-10 18:18:32.780000,-8.578313253012048,-0.6144578313253012,-4.590361445783133,-0.551808706315144,-8.47148988350705,-4.358062538320048,2.0,1.6695970695970692,598.9469065379553,-0.352310471417749,0.7060194627352715,-0.5920400909037935,1387.5457875457876,-1.0,53.65060306718332,1.6716163956000516,
2023-08-10 18:18:32.788000,-8.614457831325302,-0.6506024096385542,-4.590361445783133,-0.568976088289393,-8.547516860821581,-4.259963212752912,2.0,1.671062271062271,598.4217448487506,0.2168871277897567,0.9161470776761258,-0.4190897966318976,1379.4871794871794,-1.0,53.65060306718332,1.6716044655667908,
2023-08-10 18:18:32.795000,-8.626506024096386,-0.6385542168674699,-4.566265060240964,-0.5444512568976088,-8.503372164316369,-4.230533415082771,2.0,1.671062271062271,598.4217448487506,0.003146669774489527,0.5743255055066729,-0.5357496649379405,1368.4981684981683,-1.0,53.65060306718332,1.6715926357054804,
2023-08-10 18:18:32.803000,-8.614457831325302,-0.6385542168674699,-4.578313253012048,-0.5861434702636419,-8.532801961986511,-4.286940527283875,2.0,1.671062271062271,598.4217448487506,-0.05803857584056938,0.6001981236524673,-0.6377250742963695,1353.8461538461538,-1.0,53.65060306718332,1.6715809070204748,
2023-08-10 18:18:32.811000,-8.650602409638555,-0.6265060240963856,-4.590361445783133,-0.5444512568976088,-8.547516860821581,-4.223175965665236,2.0,1.671062271062271,598.4217448487506,-0.22248120738884725,0.6094050463259724,-0.5411106578870695,1331.8681318681317,-1.0,53.65060306718332,1.6715692804810587,
2023-08-10 18:18:32.818000,-8.66265060240964,-0.6385542168674699,-4.602409638554217,-0.5714285714285714,-8.564684242795831,-4.282035561005518,2.0,1.671062271062271,598.4217448487506,-0.02214323174640232,0.39100285531146134,-0.7813064506730377,1308.4249084249084,-1.0,53.65060306718332,1.6715577570315234,
2023-08-10 18:18:32.826000,-8.674698795180724,-0.6385542168674699,-4.626506024096386,-0.5419987737584304,-8.513182096873084,-4.306560392397302,2.0,1.6695970695970692,598.9469065379553,-0.1290134607540359,0.573160072256861,-0.4984558009440009,1282.7838827838827,-1.0,53.65060306718332,1.6715463371427994,
2023-08-10 18:18:32.834000,-8.66265060240964,-0.6265060240963856,-4.614457831325302,-0.5591661557326794,-8.545064377682403,-4.323727774371551,2.0,1.671062271062271,598.4217448487506,-0.12889691742905507,0.5697803158324098,-0.49460987121962546,1260.8058608058607,-1.0,53.65060306718332,1.671535020853817,
2023-08-10 18:18:32.841000,-8.66265060240964,-0.6506024096385542,-4.63855421686747,-0.5469037400367872,-8.53525444512569,-4.274678111587982,2.0,1.671062271062271,598.4217448487506,-0.4186236233319734,0.39659693491055364,-0.7182565118582828,1246.153846153846,-1.0,53.65060306718332,1.6715238086213513,
2023-08-10 18:18:32.849000,-8.674698795180724,-0.6385542168674699,-4.614457831325302,-0.627835683629675,-8.50091968117719,-4.304107909258124,2.0,1.6695970695970692,598.9469065379553,-0.3986947147602122,0.3961307616106286,-0.48470368859623525,1237.3626373626373,-1.0,53.65060306718332,1.671512701360029,
2023-08-10 18:18:32.857000,-8.614457831325302,-0.6385542168674699,-4.578313253012048,-0.6327406499080318,-8.576946658491723,-4.284488044144696,2.0,1.671062271062271,598.4217448487506,-0.6723384418157455,0.058388205815511886,-0.6764174581900823,1234.4322344322343,-1.0,53.65060306718332,1.6715016994986314,
2023-08-10 18:18:32.864000,-8.602409638554217,-0.6626506024096386,-4.626506024096386,-0.6597179644389944,-8.459227467811159,-4.2624156958920905,2.0,1.671062271062271,598.4217448487506,-0.14649495950119434,-0.34100576889458706,-0.7451780199289081,1236.6300366300366,-1.0,53.65060306718332,1.671490803406654,
2023-08-10 18:18:32.872000,-8.602409638554217,-0.6506024096385542,-4.602409638554217,-0.49785407725321884,-8.476394849785407,-4.259963212752912,2.0,1.671062271062271,598.4217448487506,-0.3435697220441707,0.23914690286113813,-0.5853971213798728,1243.956043956044,-1.0,53.65060306718332,1.6714800134662429,
2023-08-10 18:18:32.880000,-8.614457831325302,-0.6506024096385542,-4.63855421686747,-0.6817903126916002,-8.493562231759656,-4.286940527283875,2.0,1.671062271062271,598.4217448487506,-0.44822562787716314,0.46524095332439824,-0.7781597808985486,1253.4798534798533,-1.0,53.65060306718332,1.6714693301433516,
2023-08-10 18:18:32.887000,-8.63855421686747,-0.6506024096385542,-4.662650602409639,-0.627835683629675,-8.469037400367872,-4.3408951563458,2.0,1.671062271062271,598.4217448487506,-0.901928792028436,-0.1029077559582782,-0.9701066371423581,1269.5970695970695,-1.0,53.65060306718332,1.6714587544119826,
2023-08-10 18:18:32.895000,-8.66265060240964,-0.6626506024096386,-4.626506024096386,-0.6204782342121398,-8.461679950950337,-4.309012875536481,2.0,1.671062271062271,598.4217448487506,-1.0175397704096496,-0.22329701066371485,-0.4738651593729966,1287.9120879120878,-1.0,53.65060306718332,1.671448286806653,
2023-08-10 18:18:32.903000,-8.626506024096386,-0.674698795180723,-4.602409638554217,-0.6523605150214592,-8.542611894543224,-4.367872470876763,2.0,1.671062271062271,598.4217448487506,-1.0093817376609755,-0.26618495425674427,-0.7741973078491928,1307.6923076923076,-1.0,53.65060306718332,1.6714379279497302,
2023-08-10 18:18:32.910000,-8.626506024096386,-0.6506024096385542,-4.602409638554217,-0.6131207847946045,-8.493562231759656,-4.291845493562231,2.0,1.671062271062271,598.4217448487506,-0.9870054192646115,-0.15849892197424306,-0.6914515471126392,1326.7399267399267,-1.0,53.65060306718332,1.6714276789740132,
2023-08-10 18:18:32.918000,-8.626506024096386,-0.6626506024096386,-4.55421686746988,-0.5885959534028203,-8.481299816063764,-4.24770079705702,2.0,1.671062271062271,598.4217448487506,-0.8424916962880948,-0.40090903793485155,-0.6408717440708586,1344.3223443223442,-1.0,53.65060306718332,1.671417541031403,
2023-08-10 18:18:32.926000,-8.63855421686747,-0.6626506024096386,-4.578313253012048,-0.6106683016554261,-8.545064377682403,-4.328632740649907,2.0,1.671062271062271,598.4217448487506,-1.0783753860497645,-0.09148651011013366,-0.650078666744362,1358.974358974359,-1.0,53.65060306718332,1.6714075152934929,
2023-08-10 18:18:32.933000,-8.63855421686747,-0.674698795180723,-4.566265060240964,-0.615573267933783,-8.532801961986511,-4.259963212752912,2.0,1.6695970695970692,598.9469065379553,-0.7924946098712188,-0.39717965153545787,-0.3533593613425787,1369.9633699633698,-1.0,53.65060306718332,1.6713976029514424,
2023-08-10 18:18:32.941000,-8.626506024096386,-0.6626506024096386,-4.566265060240964,-0.5812385039852851,-8.545064377682403,-4.264868179031269,2.0,1.6695970695970692,598.9469065379553,-0.9715051570421308,-0.4407668550783757,-0.7780432375735682,1378.7545787545787,-1.0,53.65060306718332,1.671387804722448,
2023-08-10 18:18:32.949000,-8.650602409638555,-0.6506024096385542,-4.566265060240964,-0.6082158185162476,-8.522992029429798,-4.2697731453096255,2.0,1.6695970695970692,598.9469065379553,-0.9946972787133623,-0.37899889283841265,-0.2517335819590936,1383.8827838827838,-1.0,53.65060306718332,1.671378120776026,
2023-08-10 18:18:32.956000,-8.650602409638555,-0.6626506024096386,-4.566265060240964,-0.5861434702636419,-8.491109748620477,-4.213366033108522,2.0,1.671062271062271,598.4217448487506,-0.7869005302721283,-0.13402482372822055,-0.3862245789872384,1384.6153846153845,-1.0,53.65060306718332,1.6713685511841199,
2023-08-10 18:18:32.964000,-8.66265060240964,-0.6867469879518072,-4.542168674698796,-0.6180257510729613,-8.496014714898834,-4.286940527283875,2.0,1.671062271062271,598.4217448487506,-1.0093817376609755,-0.2396130761610632,-0.060485985665171285,1378.021978021978,-1.0,53.65060306718332,1.6713590964047749,
2023-08-10 18:18:32.972000,-8.63855421686747,-0.6867469879518072,-4.566265060240964,-0.6131207847946045,-8.530349478847333,-4.2403433476394845,2.0,1.671062271062271,598.4217448487506,-0.7572985257269386,-0.11677641163102377,-0.07283957811316338,1367.7655677655678,-1.0,53.65060306718332,1.6713497573441796,
2023-08-10 18:18:32.979000,-8.626506024096386,-0.6867469879518072,-4.55421686746988,-0.6499080318822807,-8.488657265481299,-4.208461066830165,2.0,1.671062271062271,598.4217448487506,-1.1766214090087987,-0.1298292640289035,-0.13181050055358032,1356.0439560439559,-1.0,53.65060306718332,1.671340534893117,
2023-08-10 18:18:32.987000,-8.63855421686747,-0.6867469879518072,-4.518072289156627,-0.6253832004904966,-8.515634580012263,-4.2697731453096255,2.0,1.671062271062271,598.4217448487506,-0.9086883048773384,-0.18914981644426382,-0.32888526309655663,1345.054945054945,-1.0,53.65060306718332,1.671331429920913,
2023-08-10 18:18:32.995000,-8.650602409638555,-0.6867469879518072,-4.518072289156627,-0.598405885959534,-8.50091968117719,-4.220723482526058,2.0,1.671062271062271,598.4217448487506,-0.7637084086008967,-0.46232737019987213,-0.4162927568323519,1334.7985347985348,-1.0,53.65060306718332,1.6713224432690832,
2023-08-10 18:18:33.002000,-8.626506024096386,-0.6626506024096386,-4.542168674698796,-0.6008583690987124,-8.503372164316369,-4.2697731453096255,2.0,1.6695970695970692,598.9469065379553,-1.2608822329701066,-0.10652059903269108,-0.6240895052735855,1326.7399267399267,-1.0,53.65060306718332,1.6713135757447277,
2023-08-10 18:18:33.010000,-8.614457831325302,-0.674698795180723,-4.566265060240964,-0.5910484365419988,-8.522992029429798,-4.24770079705702,2.0,1.6695970695970692,598.9469065379553,-1.0372355923314494,-0.3984616281102505,-0.3422877454693784,1319.4139194139193,-1.0,53.65060306718332,1.6713048271632387,
2023-08-10 18:18:33.018000,-8.626506024096386,-0.6626506024096386,-4.602409638554217,-0.6106683016554261,-8.451870018393624,-4.311465358675659,2.0,1.671062271062271,598.4217448487506,-1.2121671231280233,-0.3828448225627872,-0.7496066662781886,1311.3553113553112,-1.0,53.65060306718332,1.671296196794404,
2023-08-10 18:18:33.025000,-8.650602409638555,-0.6626506024096386,-4.614457831325302,-0.615573267933783,-8.513182096873084,-4.282035561005518,2.0,1.671062271062271,598.4217448487506,-1.1397937183147833,-0.21292465474039957,-0.5126740865916902,1302.5641025641025,-1.0,53.65060306718332,1.6712876847216658,
2023-08-10 18:18:33.033000,-8.66265060240964,-0.6867469879518072,-4.614457831325302,-0.627835683629675,-8.522992029429798,-4.272225628448804,2.0,1.671062271062271,598.4217448487506,-1.202377483829614,-0.1199230814055133,-0.07703513781248174,1293.7728937728937,-1.0,53.65060306718332,1.6712792914093606,
2023-08-10 18:18:33.041000,-8.66265060240964,-0.6626506024096386,-4.590361445783133,-0.615573267933783,-8.618638871857755,-4.267320662170447,2.0,1.671062271062271,598.4217448487506,-0.8702290076335878,-0.33343045277081707,-0.40999941728337547,1284.9816849816848,-1.0,53.65060306718332,1.6712710172376972,
2023-08-10 18:18:33.048000,-8.650602409638555,-0.6506024096385542,-4.602409638554217,-0.6204782342121398,-8.515634580012263,-4.24770079705702,2.0,1.671062271062271,598.4217448487506,-1.0129945807353884,-0.15022434590058806,-0.2524328419089795,1277.6556776556777,-1.0,53.65060306718332,1.6712628624959143,
2023-08-10 18:18:33.056000,-8.626506024096386,-0.6385542168674699,-4.590361445783133,-0.5763335377069282,-8.530349478847333,-4.311465358675659,2.0,1.671062271062271,598.4217448487506,-1.5064390187052028,-0.22446244391352496,-0.4502068644018417,1271.7948717948716,-1.0,53.65060306718332,1.6712548273757877,
2023-08-10 18:18:33.064000,-8.614457831325302,-0.6265060240963856,-4.566265060240964,-0.5665236051502146,-8.537706928264868,-4.291845493562231,2.0,1.6695970695970692,598.9469065379553,-1.4308024007924942,-0.039624730493560766,-0.4129130004079016,1265.9340659340658,-1.0,53.65060306718332,1.6712469119656046,
2023-08-10 18:18:33.071000,-8.63855421686747,-0.6385542168674699,-4.590361445783133,-0.645003065603924,-8.50091968117719,-4.323727774371551,2.0,1.6695970695970692,598.9469065379553,-1.7384767787424977,-0.42048831653167024,-0.7590466756016554,1263.7362637362637,-1.0,53.65060306718332,1.6712391157519884,
2023-08-10 18:18:33.079000,-8.63855421686747,-0.6385542168674699,-4.63855421686747,-0.6253832004904966,-8.542611894543224,-4.313917841814837,2.0,1.671062271062271,598.4217448487506,-1.3242818017598048,-0.4000932346599857,-0.7057863760853099,1263.003663003663,-1.0,53.65060306718332,1.671231437542806,
2023-08-10 18:18:33.087000,-8.614457831325302,-0.6626506024096386,-4.614457831325302,-0.6033108522378908,-8.493562231759656,-4.2624156958920905,2.0,1.6695970695970692,598.9469065379553,-1.9395140143348295,-0.2765573101800595,-0.4389021618786784,1262.2710622710622,-1.0,53.65060306718332,1.6712238759500297,
2023-08-10 18:18:33.094000,-8.626506024096386,-0.6506024096385542,-4.614457831325302,-0.6180257510729613,-8.525444512568976,-4.257510729613734,2.0,1.6695970695970692,598.9469065379553,-1.9069984266651119,-0.44403006817784435,-0.676300914865101,1261.5384615384614,-1.0,53.65060306718332,1.6712164294847067,
2023-08-10 18:18:33.102000,-8.650602409638555,-0.6506024096385542,-4.626506024096386,-0.6057633353770693,-8.464132434089516,-4.274678111587982,2.0,1.6695970695970692,598.9469065379553,-1.8600314666977447,-0.6099877629508765,-0.3640813472408365,1262.2710622710622,-1.0,53.65060306718332,1.6712090964441186,
2023-08-10 18:18:33.110000,-8.63855421686747,-0.6506024096385542,-4.590361445783133,-0.5763335377069282,-8.461679950950337,-4.289393010423053,2.0,1.6695970695970692,598.9469065379553,-1.8413845347007742,-0.6047433133267285,-0.35988578754151856,1265.2014652014652,-1.0,53.65060306718332,1.6712018748690738,
2023-08-10 18:18:33.117000,-8.626506024096386,-0.6385542168674699,-4.614457831325302,-0.5444512568976088,-8.491109748620477,-4.296750459840588,2.0,1.671062271062271,598.4217448487506,-1.915739176038692,-0.2936891789522755,-1.0752287162752752,1269.5970695970695,-1.0,53.65060306718332,1.6711947625363646,
2023-08-10 18:18:33.125000,-8.626506024096386,-0.6506024096385542,-4.602409638554217,-0.5959534028203556,-8.48620478234212,-4.24770079705702,2.0,1.671062271062271,598.4217448487506,-2.111182332031933,-0.3221257502476551,-0.9885204824893654,1273.260073260073,-1.0,53.65060306718332,1.6711877574443283,
2023-08-10 18:18:33.133000,-8.63855421686747,-0.6265060240963856,-4.602409638554217,-0.5125689760882893,-8.513182096873084,-4.301655426118945,2.0,1.6695970695970692,598.9469065379553,-2.1062875123827274,-0.7165083619835677,-0.993531845463551,1274.7252747252746,-1.0,53.65060306718332,1.6711808578784442,
2023-08-10 18:18:33.140000,-8.650602409638555,-0.6265060240963856,-4.602409638554217,-0.5787860208461066,-8.56713672593501,-4.2624156958920905,2.0,1.671062271062271,598.4217448487506,-2.4213041198065377,-0.6212924654740403,-1.1960841442806365,1276.1904761904761,-1.0,53.65060306718332,1.6711740614603514,
2023-08-10 18:18:33.148000,-8.66265060240964,-0.6867469879518072,-4.602409638554217,-0.5738810545677498,-8.552421827099938,-4.267320662170447,2.0,1.6695970695970692,598.9469065379553,-2.5357496649379394,-1.0312918827574145,-1.3220674785851638,1279.8534798534797,-1.0,53.65060306718332,1.67116736556917,
2023-08-10 18:18:33.155000,-8.626506024096386,-0.674698795180723,-4.578313253012048,-0.6082158185162476,-8.54996934396076,-4.255058246474555,2.0,1.6695970695970692,598.9469065379553,-2.588660334479342,-0.6281685216479218,-1.4932696229823432,1280.5860805860805,-1.0,53.65060306718332,1.6711607673754791,
2023-08-10 18:18:33.163000,-8.626506024096386,-0.6626506024096386,-4.590361445783133,-0.6548129981606376,-8.547516860821581,-4.235438381361128,2.0,1.671062271062271,598.4217448487506,-2.335062059320552,-0.7779266942485865,-1.3132101858866037,1281.3186813186812,-1.0,53.65060306718332,1.671154263314148,
2023-08-10 18:18:33.171000,-8.63855421686747,-0.6626506024096386,-4.566265060240964,-0.5959534028203556,-8.562231759656651,-4.318822808093194,2.0,1.6695970695970692,598.9469065379553,-2.799254122720121,-0.8345667501893824,-1.3169395722859978,1280.5860805860805,-1.0,53.65060306718332,1.6711478500336199,
2023-08-10 18:18:33.178000,-8.63855421686747,-0.674698795180723,-4.55421686746988,-0.6376456161863887,-8.449417535254444,-4.272225628448804,2.0,1.671062271062271,598.4217448487506,-2.80228424916963,-0.9215080706252547,-1.075461802925237,1282.051282051282,-1.0,53.65060306718332,1.6711415239749798,
2023-08-10 18:18:33.186000,-8.66265060240964,-0.674698795180723,-4.578313253012048,-0.5836909871244634,-8.522992029429798,-4.2624156958920905,2.0,1.6695970695970692,598.9469065379553,-2.8085775887186055,-0.9435347590466762,-1.1266243225919226,1286.4468864468863,-1.0,53.65060306718332,1.6711352813405433,
2023-08-10 18:18:33.194000,-8.63855421686747,-0.6626506024096386,-4.578313253012048,-0.6057633353770693,-8.537706928264868,-4.291845493562231,2.0,1.6695970695970692,598.9469065379553,-2.8894586562554623,-0.5398286813122777,-1.2831420080414897,1289.3772893772893,-1.0,53.65060306718332,1.6711291185910442,
2023-08-10 18:18:33.201000,-8.650602409638555,-0.6987951807228916,-4.578313253012048,-0.6327406499080318,-8.53525444512569,-4.286940527283875,2.0,1.671062271062271,598.4217448487506,-3.1555270671872258,-0.6871394440883396,-1.5150632247538012,1293.7728937728937,-1.0,53.65060306718332,1.6711230313988354,
2023-08-10 18:18:33.209000,-8.650602409638555,-0.710843373493976,-4.602409638554217,-0.5910484365419988,-8.513182096873084,-4.282035561005518,2.0,1.6695970695970692,598.9469065379553,-3.0964396014218303,-1.0325738593322071,-1.2395548044985727,1298.168498168498,-1.0,53.65060306718332,1.671117015181663,
2023-08-10 18:18:33.217000,-8.63855421686747,-0.710843373493976,-4.566265060240964,-0.6965052115266707,-8.505824647455547,-4.230533415082771,2.0,1.671062271062271,598.4217448487506,-3.0981877512965466,-0.9333954897733227,-1.2569197599207511,1301.098901098901,-1.0,53.65060306718332,1.6711110651794794,
2023-08-10 18:18:33.224000,-8.590361445783133,-0.6867469879518072,-4.590361445783133,-0.5787860208461066,-8.478847332924586,-4.2992029429797665,2.0,1.671062271062271,598.4217448487506,-3.2220733057514117,-1.1240603694423408,-1.2299982518501247,1303.2967032967033,-1.0,53.65060306718332,1.6711051764281601,
2023-08-10 18:18:33.232000,-8.626506024096386,-0.710843373493976,-4.590361445783133,-0.6597179644389944,-8.478847332924586,-4.284488044144696,2.0,1.671062271062271,598.4217448487506,-3.7871918885845828,-0.828273410640405,-1.5380222597750708,1306.9597069597069,-1.0,53.65060306718332,1.671099344296665,
2023-08-10 18:18:33.240000,-8.614457831325302,-0.6987951807228916,-4.578313253012048,-0.6474555487431024,-8.527896995708154,-4.304107909258124,2.0,1.6695970695970692,598.9469065379553,-3.6918594487500744,-1.0525027679039682,-1.8262339024532361,1309.1575091575091,-1.0,53.65060306718332,1.6710935640427291,
2023-08-10 18:18:33.247000,-8.626506024096386,-0.6987951807228916,-4.590361445783133,-0.657265481299816,-8.47148988350705,-4.291845493562231,2.0,1.6695970695970692,598.9469065379553,-4.025406444845869,-1.7151681137462853,-1.674844123302838,1308.4249084249084,-1.0,53.65060306718332,1.6710878307931638,
2023-08-10 18:18:33.255000,-8.590361445783133,-0.6987951807228916,-4.590361445783133,-0.657265481299816,-8.469037400367872,-4.267320662170447,2.0,1.6695970695970692,598.9469065379553,-4.523512615814927,-1.9776236816036359,-1.9484878503583714,1306.9597069597069,-1.0,53.65060306718332,1.671082139420978,
2023-08-10 18:18:33.263000,-8.590361445783133,-0.6987951807228916,-4.590361445783133,-0.6253832004904966,-8.469037400367872,-4.250153280196199,2.0,1.6695970695970692,598.9469065379553,-4.497989627644078,-1.793252141483597,-1.8530388671988804,1304.0293040293038,-1.0,53.65060306718332,1.6710764845273016,
2023-08-10 18:18:33.270000,-8.614457831325302,-0.710843373493976,-4.578313253012048,-0.6817903126916002,-8.481299816063764,-4.252605763335377,2.0,1.6695970695970692,598.9469065379553,-5.128139385816676,-1.9308898082862302,-2.1251675310296596,1301.098901098901,-1.0,53.65060306718332,1.671070860458216,
2023-08-10 18:18:33.278000,-8.614457831325302,-0.746987951807229,-4.566265060240964,-0.6744328632740649,-8.518087063151441,-4.284488044144696,2.0,1.671062271062271,598.4217448487506,-4.961598974418737,-1.963988112580852,-2.153371015675078,1298.9010989010987,-1.0,53.65060306718332,1.6710652608637582,
2023-08-10 18:18:33.286000,-8.66265060240964,-0.746987951807229,-4.590361445783133,-0.7308399754751685,-8.574494175352545,-4.27958307786634,2.0,1.671062271062271,598.4217448487506,-5.099003554571409,-1.948720937008333,-2.1075694889575205,1297.4358974358975,-1.0,53.65060306718332,1.671059679732632,
2023-08-10 18:18:33.293000,-8.674698795180724,-0.7349397590361446,-4.566265060240964,-0.627835683629675,-8.562231759656651,-4.24770079705702,2.0,1.6695970695970692,598.9469065379553,-5.2516753102966,-2.6052094866266535,-2.000699259949887,1296.7032967032967,-1.0,53.65060306718332,1.6710541114445332,
2023-08-10 18:18:33.301000,-8.686746987951807,-0.7349397590361446,-4.55421686746988,-0.6646229307173512,-8.562231759656651,-4.235438381361128,2.0,1.6695970695970692,598.9469065379553,-5.541751646174462,-2.070858341588486,-1.9090962065147725,1293.7728937728937,-1.0,53.65060306718332,1.671048549417267,
2023-08-10 18:18:33.309000,-8.66265060240964,-0.7228915662650602,-4.518072289156627,-0.6597179644389944,-8.58185162477008,-4.242795830778663,2.0,1.6695970695970692,598.9469065379553,-5.724957753044691,-2.9105529980770353,-2.3976458248353834,1293.040293040293,-1.0,53.65060306718332,1.6710429870043955,
2023-08-10 18:18:33.316000,-8.66265060240964,-0.746987951807229,-4.493975903614458,-0.6523605150214592,-8.591661557326793,-4.191293684855917,2.0,1.6695970695970692,598.9469065379553,-5.7096905774721725,-2.7426140667793253,-2.5961191072781316,1295.970695970696,-1.0,53.65060306718332,1.671037417442855,
2023-08-10 18:18:33.324000,-8.698795180722891,-0.7349397590361446,-4.481927710843374,-0.645003065603924,-8.56713672593501,-4.183936235438381,2.0,1.6695970695970692,598.9469065379553,-5.938698211059958,-2.712079715634287,-2.4129130004079022,1301.8315018315018,-1.0,53.65060306718332,1.671031833447149,
2023-08-10 18:18:33.332000,-8.710843373493976,-0.7228915662650602,-4.493975903614458,-0.6302881667688535,-8.572041692213366,-4.149601471489883,2.0,1.6695970695970692,598.9469065379553,-6.167705844647744,-2.9716217003671117,-2.4739817026979787,1306.227106227106,-1.0,53.65060306718332,1.6710262277170764,
2023-08-10 18:18:33.339000,-8.710843373493976,-0.7349397590361446,-4.493975903614458,-0.7014101778050276,-8.540159411404046,-4.191293684855917,2.0,1.6695970695970692,598.9469065379553,-6.4883165316706455,-2.9716217003671117,-2.550317580560574,1309.89010989011,-1.0,53.65060306718332,1.6710205929531627,
2023-08-10 18:18:33.347000,-8.686746987951807,-0.746987951807229,-4.493975903614458,-0.6916002452483139,-8.594114040465971,-4.132434089515634,2.0,1.6695970695970692,598.9469065379553,-6.625721111823317,-2.864751471359478,-2.7945923897208793,1312.8205128205127,-1.0,53.65060306718332,1.6710149223302666,
2023-08-10 18:18:33.355000,-8.698795180722891,-0.746987951807229,-4.457831325301205,-0.6695278969957081,-8.569589209074188,-4.179031269160024,2.0,1.6695970695970692,598.9469065379553,-6.946331798846217,-2.6510110133442106,-3.252607656896452,1313.5531135531135,-1.0,53.65060306718332,1.6710092089884545,
2023-08-10 18:18:33.362000,-8.686746987951807,-0.7349397590361446,-4.481927710843374,-0.6670754138565297,-8.562231759656651,-4.1667688534641325,2.0,1.671062271062271,598.4217448487506,-7.114270730143928,-2.33040032632131,-3.237340481323933,1309.89010989011,-1.0,53.65060306718332,1.6710034456280958,
2023-08-10 18:18:33.370000,-8.686746987951807,-0.7590361445783133,-4.457831325301205,-0.6793378295524218,-8.608828939301041,-4.142244022072348,2.0,1.6695970695970692,598.9469065379553,-7.114270730143928,-2.7273468912068064,-3.4510809393392,1302.5641025641025,-1.0,53.65060306718332,1.6709976255109302,
2023-08-10 18:18:33.378000,-8.698795180722891,-0.7349397590361446,-4.46987951807229,-0.657265481299816,-8.599019006744328,-4.129981606376456,2.0,1.6695970695970692,598.9469065379553,-7.755492104189729,-2.8036827690694017,-3.5579511683468334,1297.4358974358975,-1.0,53.65060306718332,1.670991742055434,
2023-08-10 18:18:33.385000,-8.686746987951807,-0.7228915662650602,-4.481927710843374,-0.7014101778050276,-8.599019006744328,-4.125076640098099,2.0,1.6695970695970692,598.9469065379553,-7.755492104189729,-2.8036827690694017,-3.5579511683468334,1295.970695970696,-1.0,53.65060306718332,1.6709857887861008,
2023-08-10 18:18:33.393000,-8.66265060240964,-0.7228915662650602,-4.457831325301205,-0.6891477621091354,-8.496014714898834,-4.115266707541386,2.0,1.668131868131868,599.4729907773386,-7.58755317289202,-2.6357438377716917,-3.481615290484238,1296.7032967032967,1110.687255859375,54.020607226267344,1.6709797592827218,
2023-08-10 18:18:33.401000,-8.66265060240964,-0.7349397590361446,-4.493975903614458,-0.6253832004904966,-8.493562231759656,-4.161863887185775,2.0,1.6695970695970692,598.9469065379553,-7.770759279762248,-2.4830720820465007,-3.924363382087291,1298.168498168498,-1.0,54.020607226267344,1.6709736467409264,
2023-08-10 18:18:33.408000,-8.650602409638555,-0.7228915662650602,-4.46987951807229,-0.6008583690987124,-8.518087063151441,-4.156958920907418,2.0,1.6695970695970692,598.9469065379553,-8.503583707243164,-1.8571178835732185,-4.244974069110192,1300.3663003663003,-1.0,54.020607226267344,1.6709674448337635,
2023-08-10 18:18:33.416000,-8.674698795180724,-0.7228915662650602,-4.481927710843374,-0.6597179644389944,-8.621091354996935,-4.149601471489883,2.0,1.6695970695970692,598.9469065379553,-8.335644775945454,-0.9868888759396307,-4.046500786667444,1302.5641025641025,-1.0,54.020607226267344,1.6709611477633266,
2023-08-10 18:18:33.424000,-8.66265060240964,-0.710843373493976,-4.481927710843374,-0.6719803801348866,-8.54996934396076,-4.147148988350705,2.0,1.6695970695970692,598.9469065379553,-8.503583707243164,-0.8800186469319972,-4.412913000407902,1307.6923076923076,-1.0,54.020607226267344,1.670954749363296,
2023-08-10 18:18:33.431000,-8.66265060240964,-0.710843373493976,-4.457831325301205,-0.6523605150214592,-8.56713672593501,-4.1667688534641325,2.0,1.6695970695970692,598.9469065379553,-8.366179127090492,-0.8189499446419207,-4.290775595827749,1312.8205128205127,-1.0,54.020607226267344,1.6709482436414496,
2023-08-10 18:18:33.439000,-8.66265060240964,-0.7228915662650602,-4.46987951807229,-0.7234825260576333,-8.542611894543224,-4.169221336603311,2.0,1.6695970695970692,598.9469065379553,-8.992133325563774,-0.7120797156342872,-4.306042771400269,1315.018315018315,-1.0,54.020607226267344,1.670941625217218,
2023-08-10 18:18:33.447000,-8.66265060240964,-0.710843373493976,-4.46987951807229,-0.657265481299816,-8.545064377682403,-4.15450643776824,2.0,1.6695970695970692,598.9469065379553,-8.793660043121028,-0.7426140667793254,-4.6571878095682075,1316.4835164835165,-1.0,54.020607226267344,1.6709348883872441,
2023-08-10 18:18:33.454000,-8.63855421686747,-0.674698795180723,-4.493975903614458,-0.645003065603924,-8.532801961986511,-4.169221336603311,2.0,1.6695970695970692,598.9469065379553,-8.976866149991256,-0.5899423110541345,-4.519783229415536,1315.7509157509157,-1.0,54.020607226267344,1.6709280272077323,
2023-08-10 18:18:33.462000,-8.650602409638555,-0.6867469879518072,-4.481927710843374,-0.6695278969957081,-8.527896995708154,-4.188841201716738,2.0,1.6695970695970692,598.9469065379553,-9.343278363731715,-0.2387972728861956,-4.596119107278131,1315.018315018315,-1.0,54.020607226267344,1.6709210359968925,
2023-08-10 18:18:33.470000,-8.63855421686747,-0.674698795180723,-4.493975903614458,-0.5812385039852851,-8.510729613733906,-4.208461066830165,2.0,1.6695970695970692,598.9469065379553,-9.5722859973195,-0.2693316240312338,-5.1152030767437795,1313.5531135531135,-1.0,54.020607226267344,1.6709139098022028,
2023-08-10 18:18:33.477000,-8.650602409638555,-0.6626506024096386,-4.542168674698796,-0.6253832004904966,-8.52053954629062,-4.164316370324954,2.0,1.6695970695970692,598.9469065379553,-9.90816385991492,-0.16246139502360019,-5.099935901171261,1312.8205128205127,-1.0,54.020607226267344,1.6709066438842677,
2023-08-10 18:18:33.485000,-8.674698795180724,-0.6385542168674699,-4.518072289156627,-0.5910484365419988,-8.586756591048436,-4.220723482526058,2.0,1.6695970695970692,598.9469065379553,-9.847095157624844,-0.08612551716100478,-5.313676359186528,1311.3553113553112,-1.0,54.020607226267344,1.6708992337621427,
2023-08-10 18:18:33.493000,-8.686746987951807,-0.6385542168674699,-4.530120481927711,-0.510116492949111,-8.542611894543224,-4.176578786020846,2.0,1.6695970695970692,598.9469065379553,-9.90816385991492,-0.025056814870928437,-5.481615290484238,1307.6923076923076,-1.0,54.020607226267344,1.6708916751883853,
2023-08-10 18:18:33.500000,-8.698795180722891,-0.6265060240963856,-4.493975903614458,-0.5493562231759657,-8.62844880441447,-4.147148988350705,2.0,1.6695970695970692,598.9469065379553,-10.137171493502706,0.02074471184662881,-5.359477885904085,1304.0293040293038,-1.0,54.020607226267344,1.6708839637350092,
2023-08-10 18:18:33.508000,-8.686746987951807,-0.6024096385542169,-4.506024096385542,-0.6057633353770693,-8.552421827099938,-4.206008583690987,2.0,1.6695970695970692,598.9469065379553,-9.724957753044691,-0.4372705553289437,-5.313676359186528,1301.8315018315018,-1.0,54.020607226267344,1.6708760957500295,
2023-08-10 18:18:33.515000,-8.698795180722891,-0.6385542168674699,-4.506024096385542,-0.6204782342121398,-8.540159411404046,-4.183936235438381,2.0,1.6695970695970692,598.9469065379553,-10.625721111823317,-0.45253773090146276,-5.099935901171261,1301.098901098901,-1.0,54.020607226267344,1.6708680682957677,
2023-08-10 18:18:33.523000,-8.698795180722891,-0.6506024096385542,-4.493975903614458,-0.5861434702636419,-8.586756591048436,-4.235438381361128,2.0,1.6695970695970692,598.9469065379553,-10.656255462968355,-0.315133150748791,-5.28314200804149,1303.2967032967033,-1.0,54.020607226267344,1.6708598786656186,
2023-08-10 18:18:33.531000,-8.686746987951807,-0.6506024096385542,-4.518072289156627,-0.5714285714285714,-8.576946658491723,-4.2109135499693435,2.0,1.6695970695970692,598.9469065379553,-10.534118058388202,-0.34566750189382917,-5.878561855369734,1309.89010989011,-1.0,54.020607226267344,1.6708515243924005,
2023-08-10 18:18:33.538000,-8.686746987951807,-0.6506024096385542,-4.542168674698796,-0.6057633353770693,-8.58185162477008,-4.171673819742489,2.0,1.6695970695970692,598.9469065379553,-10.961598974418736,0.234485169861896,-5.680088572926985,1316.4835164835165,-1.0,54.020607226267344,1.6708430032556338,
2023-08-10 18:18:33.546000,-8.674698795180724,-0.6506024096385542,-4.530120481927711,-0.6008583690987124,-8.589209074187615,-4.186388718577559,2.0,1.668131868131868,599.4729907773386,-11.282209661441637,-0.05559116601596661,-5.786958801934619,1321.6117216117216,-1.0,54.020607226267344,1.6708343128298735,
2023-08-10 18:18:33.554000,-8.674698795180724,-0.6265060240963856,-4.481927710843374,-0.6008583690987124,-8.542611894543224,-4.1667688534641325,2.0,1.668131868131868,599.4729907773386,-10.885263096556141,-0.2693316240312338,-5.802225977507138,1325.2747252747251,-1.0,54.020607226267344,1.6708254505223379,
2023-08-10 18:18:33.561000,-8.66265060240964,-0.6024096385542169,-4.457831325301205,-0.5640711220110362,-8.591661557326793,-4.176578786020846,2.0,1.6695970695970692,598.9469065379553,-11.022667676708814,-0.40673620418390555,-5.741157275217062,1323.8095238095236,-1.0,54.020607226267344,1.6708164139259631,
2023-08-10 18:18:33.569000,-8.674698795180724,-0.6265060240963856,-4.506024096385542,-0.5959534028203556,-8.616186388718576,-4.164316370324954,2.0,1.6695970695970692,598.9469065379553,-10.869995920983623,-0.37620185303886733,-5.60375269506439,1323.8095238095236,-1.0,54.020607226267344,1.6708072012755044,
2023-08-10 18:18:33.577000,-8.674698795180724,-0.6385542168674699,-4.46987951807229,-0.5910484365419988,-8.569589209074188,-4.186388718577559,2.0,1.6695970695970692,598.9469065379553,-10.610453936250797,-0.28459879960375284,-5.6648213973544665,1326.007326007326,-1.0,54.020607226267344,1.6707978115163562,
2023-08-10 18:18:33.584000,-8.674698795180724,-0.6626506024096386,-4.493975903614458,-0.5763335377069282,-8.513182096873084,-4.164316370324954,2.0,1.6695970695970692,598.9469065379553,-10.90053027212866,-0.17772857059611927,-5.5579511683468334,1328.937728937729,-1.0,54.020607226267344,1.6707882438473654,
2023-08-10 18:18:33.592000,-8.686746987951807,-0.6385542168674699,-4.506024096385542,-0.657265481299816,-8.54996934396076,-4.1961986511342735,2.0,1.6695970695970692,598.9469065379553,-11.007400501136294,0.18868364314433872,-5.481615290484238,1331.135531135531,-1.0,54.020607226267344,1.670778497720684,
2023-08-10 18:18:33.600000,-8.710843373493976,-0.6265060240963856,-4.493975903614458,-0.539546290619252,-8.640711220110362,-4.2182709993868786,2.0,1.6695970695970692,598.9469065379553,-10.839461569838583,0.5856302080298349,-5.542683992774314,1329.6703296703297,-1.0,54.020607226267344,1.6707685728408315,
2023-08-10 18:18:33.607000,-8.698795180722891,-0.6265060240963856,-4.542168674698796,-0.5787860208461066,-8.61128142244022,-4.1961986511342735,2.0,1.6695970695970692,598.9469065379553,-10.808927218693546,0.234485169861896,-5.8938290309422525,1325.2747252747251,-1.0,54.020607226267344,1.6707584687051584,
2023-08-10 18:18:33.615000,-8.698795180722891,-0.6385542168674699,-4.518072289156627,-0.6425505824647455,-8.584304107909258,-4.267320662170447,2.0,1.6695970695970692,598.9469065379553,-10.457782180525607,0.09708058970922423,-5.512149641629276,1320.14652014652,-1.0,54.020607226267344,1.6707481851266417,
2023-08-10 18:18:33.623000,-8.698795180722891,-0.6024096385542169,-4.55421686746988,-0.5272838749233598,-8.559779276517473,-4.179031269160024,2.0,1.6695970695970692,598.9469065379553,-10.946331798846218,-0.07085834158848568,-5.634287046209429,1315.018315018315,-1.0,54.020607226267344,1.6707377226520783,
2023-08-10 18:18:33.630000,-8.650602409638555,-0.6024096385542169,-4.542168674698796,-0.5444512568976088,-8.569589209074188,-4.27958307786634,2.0,1.6695970695970692,598.9469065379553,-10.534118058388202,-0.11665986830604294,-5.390012237049123,1312.087912087912,-1.0,54.020607226267344,1.670727081608718,
2023-08-10 18:18:33.638000,-8.650602409638555,-0.6024096385542169,-4.530120481927711,-0.463519313304721,-8.52053954629062,-4.252605763335377,2.0,1.6695970695970692,598.9469065379553,-10.90053027212866,-0.16246139502360019,-5.206806130178895,1317.216117216117,-1.0,54.020607226267344,1.6707162626260936,
2023-08-10 18:18:33.646000,-8.626506024096386,-0.5903614457831325,-4.55421686746988,-0.5370938074800735,-8.547516860821581,-4.24770079705702,2.0,1.6695970695970692,598.9469065379553,-11.297476837014157,-0.04032399044344752,-5.634287046209429,1334.7985347985348,-1.0,54.020607226267344,1.6707052670534346,
2023-08-10 18:18:33.653000,-8.63855421686747,-0.6024096385542169,-4.566265060240964,-0.5714285714285714,-8.530349478847333,-4.2182709993868786,2.0,1.6695970695970692,598.9469065379553,-11.037934852281332,0.3871569255870868,-5.481615290484238,1369.9633699633698,-1.0,54.020607226267344,1.670694096005711,
2023-08-10 18:18:33.661000,-8.63855421686747,-0.5903614457831325,-4.542168674698796,-0.5665236051502146,-8.53525444512569,-4.264868179031269,2.0,1.6695970695970692,598.9469065379553,-11.037934852281332,0.3871569255870868,-5.481615290484238,1427.8388278388277,-1.0,54.020607226267344,1.6706827508850481,
2023-08-10 18:18:33.669000,-8.650602409638555,-0.6024096385542169,-4.542168674698796,-0.5591661557326794,-8.503372164316369,-4.296750459840588,2.0,1.668131868131868,599.4729907773386,-10.854728745411103,0.8146378416176211,-5.420546588194162,1508.4249084249084,-1.0,54.020607226267344,1.6706712333400224,
2023-08-10 18:18:33.676000,-8.66265060240964,-0.5903614457831325,-4.530120481927711,-0.5321888412017167,-8.562231759656651,-4.27958307786634,2.0,1.6695970695970692,598.9469065379553,-10.793660043121028,0.2955538721519723,-5.313676359186528,1613.186813186813,-1.0,54.020607226267344,1.6706595448019543,
2023-08-10 18:18:33.684000,-8.674698795180724,-0.5903614457831325,-4.542168674698796,-0.568976088289393,-8.58185162477008,-4.259963212752912,2.0,1.6695970695970692,598.9469065379553,-10.534118058388202,0.3108210477244914,-5.176271779033856,1738.4615384615383,-1.0,54.020607226267344,1.6706476873228737,
2023-08-10 18:18:33.692000,-8.66265060240964,-0.5783132530120483,-4.55421686746988,-0.43654199877375843,-8.554874310239116,-4.259963212752912,2.0,1.6695970695970692,598.9469065379553,-10.686789814113393,0.3108210477244914,-5.252607656896451,1877.6556776556774,-1.0,54.020607226267344,1.6706356636042468,
2023-08-10 18:18:33.699000,-8.650602409638555,-0.5783132530120483,-4.55421686746988,-0.5150214592274678,-8.527896995708154,-4.2624156958920905,2.0,1.6695970695970692,598.9469065379553,-10.59518676067828,-0.025056814870928437,-5.252607656896451,2021.245421245421,-1.0,54.020607226267344,1.6706234760774687,
2023-08-10 18:18:33.707000,-8.63855421686747,-0.5903614457831325,-4.566265060240964,-0.5321888412017167,-8.525444512568976,-4.242795830778663,2.0,1.6695970695970692,598.9469065379553,-10.442515004953087,0.17341646757181964,-5.2220733057514135,2157.5091575091574,-1.0,54.020607226267344,1.6706111274252071,
2023-08-10 18:18:33.715000,-8.626506024096386,-0.5662650602409639,-4.578313253012048,-0.47332924586143466,-8.510729613733906,-4.301655426118945,2.0,1.6695970695970692,598.9469065379553,-10.396713478235531,-0.28459879960375284,-5.1152030767437795,2281.3186813186812,-1.0,54.020607226267344,1.6705986209987835,
2023-08-10 18:18:33.722000,-8.626506024096386,-0.5903614457831325,-4.590361445783133,-0.5125689760882893,-8.554874310239116,-4.250153280196199,2.0,1.6695970695970692,598.9469065379553,-9.877629508769882,0.14288211642678147,-5.008332847736146,2386.813186813187,-1.0,54.020607226267344,1.6705859603224533,
2023-08-10 18:18:33.730000,-8.626506024096386,-0.5662650602409639,-4.578313253012048,-0.4880441446965052,-8.522992029429798,-4.235438381361128,2.0,1.6695970695970692,598.9469065379553,-10.152438669075226,0.26501952100693416,-4.6571878095682075,2468.8644688644686,-1.0,54.020607226267344,1.6705731486325786,
2023-08-10 18:18:33.738000,-8.66265060240964,-0.5783132530120483,-4.566265060240964,-0.5003065603923973,-8.532801961986511,-4.309012875536481,2.0,1.6695970695970692,598.9469065379553,-10.121904317930188,0.4024241011596059,-4.44344735155294,2520.14652014652,-1.0,54.020607226267344,1.670560188942017,
2023-08-10 18:18:33.745000,-8.66265060240964,-0.5542168674698795,-4.578313253012048,-0.45861434702636417,-8.503372164316369,-4.255058246474555,2.0,1.6695970695970692,598.9469065379553,-9.587553172892019,0.4024241011596059,-4.535050404988055,2540.6593406593406,-1.0,54.020607226267344,1.6705470849836324,
2023-08-10 18:18:33.753000,-8.674698795180724,-0.5662650602409639,-4.590361445783133,-0.5027590435315757,-8.54996934396076,-4.2624156958920905,2.0,1.6695970695970692,598.9469065379553,-10.137171493502706,0.35662257444204865,-4.535050404988055,2529.6703296703295,-1.0,54.020607226267344,1.6705338411367805,
2023-08-10 18:18:33.761000,-8.66265060240964,-0.5662650602409639,-4.602409638554217,-0.5248313917841815,-8.569589209074188,-4.255058246474555,2.0,1.6695970695970692,598.9469065379553,-9.90816385991492,-0.07085834158848568,-4.306042771400269,2491.5750915750914,-1.0,54.020607226267344,1.6705204614755809,
2023-08-10 18:18:33.768000,-8.650602409638555,-0.5542168674698795,-4.590361445783133,-0.4782342121397915,-8.508277130594728,-4.2624156958920905,2.0,1.6695970695970692,598.9469065379553,-9.938698211059958,-0.1471942194510811,-4.412913000407902,2430.03663003663,-1.0,54.020607226267344,1.6705069502929866,
2023-08-10 18:18:33.776000,-8.650602409638555,-0.5542168674698795,-4.566265060240964,-0.4904966278356836,-8.515634580012263,-4.24770079705702,2.0,1.6695970695970692,598.9469065379553,-9.663889050754614,0.02074471184662881,-4.199172542392635,2350.1831501831502,-1.0,54.020607226267344,1.6704933125209696,
2023-08-10 18:18:33.784000,-8.650602409638555,-0.5542168674698795,-4.590361445783133,-0.48313917841814835,-8.52053954629062,-4.24770079705702,2.0,1.6695970695970692,598.9469065379553,-9.709690577472172,0.5550958568847967,-4.153371015675077,2258.6080586080584,-1.0,54.020607226267344,1.670479552779775,
2023-08-10 18:18:33.791000,-8.650602409638555,-0.5542168674698795,-4.590361445783133,-0.46842427958307786,-8.518087063151441,-4.264868179031269,2.0,1.6695970695970692,598.9469065379553,-9.511217295029423,0.41769127673212497,-3.9701649088048483,2159.7069597069594,-1.0,54.020607226267344,1.6704656759029313,
2023-08-10 18:18:33.799000,-8.626506024096386,-0.5301204819277109,-4.590361445783133,-0.463519313304721,-8.496014714898834,-4.272225628448804,2.0,1.6695970695970692,598.9469065379553,-8.793660043121028,0.3260882232970105,-4.061767962239963,2056.4102564102564,-1.0,54.020607226267344,1.6704516873582969,
2023-08-10 18:18:33.807000,-8.614457831325302,-0.5180722891566265,-4.578313253012048,-0.4659717964438994,-8.461679950950337,-4.264868179031269,2.0,1.6695970695970692,598.9469065379553,-9.007400501136294,0.46349280344968224,-3.832760328652177,1954.5787545787543,-1.0,54.020607226267344,1.6704375927559763,
2023-08-10 18:18:33.814000,-8.614457831325302,-0.5180722891566265,-4.590361445783133,-0.3850398528510116,-8.478847332924586,-4.2697731453096255,2.0,1.6695970695970692,598.9469065379553,-8.763125691975988,0.21921799428937688,-4.031233611094925,1856.4102564102564,-1.0,54.020607226267344,1.6704233978488805,
2023-08-10 18:18:33.822000,-8.602409638554217,-0.5180722891566265,-4.602409638554217,-0.42673206621704474,-8.491109748620477,-4.272225628448804,2.0,1.6695970695970692,598.9469065379553,-8.381446302663011,0.234485169861896,-3.832760328652177,1765.5677655677655,-1.0,54.020607226267344,1.6704091085332233,
2023-08-10 18:18:33.830000,-8.626506024096386,-0.5060240963855422,-4.602409638554217,-0.4463519313304721,-8.476394849785407,-4.24770079705702,2.0,1.6695970695970692,598.9469065379553,-8.366179127090492,0.15814929199930056,-3.313676359186528,1684.249084249084,-1.0,54.020607226267344,1.6703947308488925,
