Shimmer_F5D4_Timestamp_FormattedUnix_CAL,Shimmer_F5D4_Accel_LN_X_CAL,Shimmer_F5D4_Accel_LN_Y_CAL,Shimmer_F5D4_Accel_LN_Z_CAL,Shimmer_F5D4_Accel_WR_X_CAL,Shimmer_F5D4_Accel_WR_Y_CAL,Shimmer_F5D4_Accel_WR_Z_CAL,Shimmer_F5D4_GSR_Range_CAL,Shimmer_F5D4_GSR_Skin_Conductance_CAL,Shimmer_F5D4_GSR_Skin_Resistance_CAL,Shimmer_F5D4_Gyro_X_CAL,Shimmer_F5D4_Gyro_Y_CAL,Shimmer_F5D4_Gyro_Z_CAL,Shimmer_F5D4_PPG_A13_CAL,Shimmer_F5D4_PPG_IBI_CAL,Shimmer_F5D4_PPGtoHR_CAL,Shimmer_F5D4_GSR_Skin_Conductance_LPF_CAL,
yyyy/mm/dd hh:mm:ss.000,m/(s^2),m/(s^2),m/(s^2),m/(s^2),m/(s^2),m/(s^2),no_units,uS,kOhms,deg/s,deg/s,deg/s,mV,ms,BPM,uS,
2023-08-21 10:24:33.894000,-6.819277108433735,-5.120481927710844,4.72289156626506,-5.10116492949111,-6.818516247700797,5.3218884120171674,3.0,0.5130425130425131,1949.1562094331457,-0.015150632247538248,-0.2415943126857409,-0.1722510343220089,1266.6666666666665,-1.0,80.75245410112129,0.513375617475311,
2023-08-21 10:24:33.902000,-6.807228915662651,-5.120481927710844,4.746987951807229,-5.103617412630288,-6.81361128142244,5.319435928877989,3.0,0.5130425130425131,1949.1562094331457,-0.05862129246547356,-0.2449740691101921,-0.5813181050055362,1262.2710622710622,-1.0,80.75245410112129,0.5133586548324507,
2023-08-21 10:24:33.910000,-6.83132530120482,-5.120481927710844,4.771084337349397,-5.076640098099325,-6.779276517473942,5.294911097486205,3.0,0.5130425130425131,1949.1562094331457,0.020395081871686302,-0.35522405454227685,-0.0406736204183909,1260.8058608058607,-1.0,80.75245410112129,0.5133419029074813,
2023-08-21 10:24:33.917000,-6.819277108433735,-5.132530120481928,4.759036144578314,-5.103617412630288,-6.806253832004905,5.353770692826487,3.0,0.5125985125985126,1950.8445214378517,0.311636850999359,-0.44915797447701156,0.053609929491288046,1261.5384615384614,-1.0,80.75245410112129,0.5133253671758151,
2023-08-21 10:24:33.925000,-6.819277108433735,-5.120481927710844,4.771084337349397,-5.081545064377682,-6.784181483752299,5.238503985285101,3.0,0.5125985125985126,1950.8445214378517,-0.040557077093409194,-0.12866383077909166,-0.1121146786317812,1264.4688644688645,-1.0,80.75245410112129,0.5133090529731488,
2023-08-21 10:24:33.933000,-6.819277108433735,-5.1084337349397595,4.72289156626506,-5.071735131820969,-6.791538933169834,5.31698344573881,3.0,0.5130425130425131,1949.1562094331457,-0.22236466406386643,0.022376318396363993,-0.24567332906007777,1268.131868131868,-1.0,80.75245410112129,0.5132929653094158,
2023-08-21 10:24:33.940000,-6.83132530120482,-5.120481927710844,4.734939759036145,-5.057020232985898,-6.798896382587369,5.319435928877989,3.0,0.5130425130425131,1949.1562094331457,-0.052327952916496244,-0.17807820057106177,-0.30219684167589256,1269.5970695970695,-1.0,80.75245410112129,0.5132771090226707,
2023-08-21 10:24:33.948000,-6.807228915662651,-5.120481927710844,4.734939759036145,-5.098712446351931,-6.742489270386265,5.331698344573881,3.0,0.5130425130425131,1949.1562094331457,0.10279121263329563,-0.19264611619369584,-0.3308664996212339,1270.3296703296703,-1.0,80.75245410112129,0.5132614889435235,
2023-08-21 10:24:33.956000,-6.83132530120482,-5.120481927710844,4.734939759036145,-5.079092581238504,-6.816063764561618,5.30226854690374,3.0,0.5134865134865135,1947.4708171206223,-0.11129887535691405,-0.5736262455567862,-0.5249111357147024,1271.062271062271,-1.0,80.75245410112129,0.5132461097513653,
2023-08-21 10:24:33.963000,-6.807228915662651,-5.132530120481928,4.746987951807229,-5.074187614960147,-6.801348865726548,5.3366033108522375,3.0,0.5130425130425131,1949.1562094331457,0.05733931589068263,-0.17050288444729353,-0.3949653283608176,1271.062271062271,-1.0,80.75245410112129,0.5132309761188732,
2023-08-21 10:24:33.971000,-6.807228915662651,-5.132530120481928,4.746987951807229,-5.049662783568363,-6.816063764561618,5.361128142244022,3.0,0.5130425130425131,1949.1562094331457,0.05967018239030283,-0.35242701474272986,-0.19008216304411138,1271.062271062271,-1.0,80.75245410112129,0.5132160925800417,
2023-08-21 10:24:33.979000,-6.795180722891566,-5.120481927710844,4.746987951807229,-5.042305334150828,-6.823421213979153,5.353770692826487,3.0,0.5130425130425131,1949.1562094331457,0.415943126857409,-0.27457607365538184,-0.26338791445719983,1272.5274725274724,-1.0,80.75245410112129,0.5132014633669535,
2023-08-21 10:24:33.986000,-6.795180722891566,-5.132530120481928,4.771084337349397,-5.140404659717964,-6.7743715511955855,5.280196198651134,3.0,0.5130425130425131,1949.1562094331457,0.18961598974418717,-0.5914573742788889,-0.2752753336052681,1272.5274725274724,-1.0,80.75245410112129,0.5131870925446895,
2023-08-21 10:24:33.994000,-6.783132530120482,-5.120481927710844,4.771084337349397,-5.103617412630288,-6.710606989576946,5.334150827713059,3.0,0.5130425130425131,1949.1562094331457,0.07097488491346653,-0.27947089330458563,-0.06001981236524664,1270.3296703296703,-1.0,80.75245410112129,0.5131729841465054,
2023-08-21 10:24:34.002000,-6.807228915662651,-5.120481927710844,4.783132530120482,-5.157572041692213,-6.769466584917228,5.3292458614347025,3.0,0.5130425130425131,1949.1562094331457,0.0745877279878794,-0.2708466872559881,-0.06165141891498138,1264.4688644688645,-1.0,80.75245410112129,0.5131591420114019,
2023-08-21 10:24:34.009000,-6.795180722891566,-5.1084337349397595,4.710843373493976,-5.098712446351931,-6.786633966891477,5.294911097486205,3.0,0.5134865134865135,1947.4708171206223,-0.043936833517860395,0.012237049123012128,-0.42631548278072334,1255.6776556776556,-1.0,80.75245410112129,0.5131455696534917,
2023-08-21 10:24:34.017000,-6.807228915662651,-5.1084337349397595,4.72289156626506,-5.128142244022072,-6.781729000613121,5.287553648068669,3.0,0.5130425130425131,1949.1562094331457,0.24742147893479485,-0.12132160130528508,-0.6642969523920513,1246.153846153846,-1.0,80.75245410112129,0.5131322705576497,
2023-08-21 10:24:34.025000,-6.819277108433735,-5.120481927710844,4.771084337349397,-5.128142244022072,-6.737584304107909,5.353770692826487,3.0,0.5134865134865135,1947.4708171206223,0.3551075112172943,-0.10418973253306914,-0.410931763883223,1235.8974358974358,-1.0,80.75245410112129,0.5131192480494422,
2023-08-21 10:24:34.032000,-6.807228915662651,-5.120481927710844,4.771084337349397,-5.06928264868179,-6.796443899448191,5.3145309625996315,3.0,0.5130425130425131,1949.1562094331457,0.1272653108793199,0.030650894470019004,-0.0340306508944702,1225.6410256410256,-1.0,80.75245410112129,0.5131065054218674,
2023-08-21 10:24:34.040000,-6.807228915662651,-5.1084337349397595,4.746987951807229,-5.125689760882894,-6.786633966891477,5.361128142244022,3.0,0.5134865134865135,1947.4708171206223,0.23634986306159284,-0.43552240545422766,-0.1778451139211001,1217.5824175824175,-1.0,80.75245410112129,0.5130940459244115,
2023-08-21 10:24:34.048000,-6.807228915662651,-5.1084337349397595,4.746987951807229,-5.088902513795217,-6.776824034334764,5.309625996321275,3.0,0.5134865134865135,1947.4708171206223,0.15943126857409323,-0.3669949303653639,-0.36652875706543925,1208.058608058608,-1.0,80.75245410112129,0.5130818726038018,
2023-08-21 10:24:34.055000,-6.819277108433735,-5.120481927710844,4.746987951807229,-5.042305334150828,-6.740036787247087,5.319435928877989,3.0,0.5134865134865135,1947.4708171206223,0.3891381621117645,-0.34123885554454875,0.057106229240720084,1199.2673992673992,-1.0,80.75245410112129,0.5130699884645831,
2023-08-21 10:24:34.063000,-6.819277108433735,-5.120481927710844,4.771084337349397,-5.108522378908645,-6.725321888412017,5.30226854690374,3.0,0.5134865134865135,1947.4708171206223,0.1744653574966489,-0.37270555328943533,-0.04661732999242484,1191.2087912087911,-1.0,80.75245410112129,0.5130583963320712,
2023-08-21 10:24:34.071000,-6.807228915662651,-5.096385542168675,4.746987951807229,-5.150214592274678,-6.784181483752299,5.3366033108522375,3.0,0.5130425130425131,1949.1562094331457,0.06456500203950837,-0.09684750305926255,0.05034671639181855,1182.4175824175823,-1.0,80.75245410112129,0.5130470988543041,
2023-08-21 10:24:34.078000,-6.807228915662651,-5.096385542168675,4.746987951807229,-5.088902513795217,-6.76701410177805,5.361128142244022,3.0,0.5130425130425131,1949.1562094331457,0.07761785443738635,-0.3394907056698327,0.0361284307441296,1182.4175824175823,-1.0,80.75245410112129,0.5130360984936774,
2023-08-21 10:24:34.086000,-6.795180722891566,-5.1084337349397595,4.72289156626506,-5.059472716125076,-6.764561618638871,5.3586756591048434,3.0,0.5134865134865135,1947.4708171206223,0.12376901112988785,0.01654915214731002,0.22084960083911206,1170.6959706959706,-1.0,80.75245410112129,0.5130253974870865,
2023-08-21 10:24:34.093000,-6.783132530120482,-5.1084337349397595,4.734939759036145,-5.120784794604536,-6.776824034334764,5.324340895156346,3.0,0.5134865134865135,1947.4708171206223,0.45929724375036346,-0.33168230289610107,0.020628168521647974,1169.9633699633698,-1.0,80.75245410112129,0.5130149978481389,
2023-08-21 10:24:34.101000,-6.807228915662651,-5.120481927710844,4.759036144578314,-5.086450030656039,-6.744941753525445,5.334150827713059,3.0,0.5130425130425131,1949.1562094331457,0.07097488491346653,-0.08216304411164765,-0.31396771749898006,1167.7655677655678,-1.0,80.75245410112129,0.5130049014114231,
2023-08-21 10:24:34.109000,-6.819277108433735,-5.120481927710844,4.746987951807229,-5.096259963212753,-6.820968730839975,5.351318209687308,3.0,0.5134865134865135,1947.4708171206223,0.40650311753394386,-0.06246722218984984,-0.0667793252141486,1165.5677655677655,-1.0,80.75245410112129,0.5129951096959529,
2023-08-21 10:24:34.116000,-6.819277108433735,-5.120481927710844,4.734939759036145,-5.106069895769466,-6.759656652360515,5.353770692826487,3.0,0.5134865134865135,1947.4708171206223,0.008973836023541765,-0.2863469494784689,-0.050113629741856444,1161.904761904762,-1.0,80.75245410112129,0.5129856240349523,
2023-08-21 10:24:34.124000,-6.83132530120482,-5.120481927710844,4.746987951807229,-5.057020232985898,-6.754751686082158,5.4028203556100545,3.0,0.5134865134865135,1947.4708171206223,0.2067478585164031,-0.3589534409416706,-0.11094924538197067,1156.7765567765566,-1.0,80.75245410112129,0.5129764457373214,
2023-08-21 10:24:34.132000,-6.83132530120482,-5.120481927710844,4.771084337349397,-5.039852851011649,-6.740036787247087,5.351318209687308,3.0,0.5134865134865135,1947.4708171206223,0.34217120214439717,-0.09591515645941413,-0.04848202319212169,1153.113553113553,-1.0,80.75245410112129,0.5129675759513781,
2023-08-21 10:24:34.139000,-6.819277108433735,-5.120481927710844,4.759036144578314,-5.064377682403433,-6.764561618638871,5.339055793991416,3.0,0.5134865134865135,1947.4708171206223,0.15814929199930056,-0.4629100868247763,8.15803274867591E-4,1153.113553113553,-1.0,80.75245410112129,0.5129590156674989,
2023-08-21 10:24:34.147000,-6.807228915662651,-5.1084337349397595,4.746987951807229,-5.088902513795217,-6.762109135499693,5.3218884120171674,3.0,0.5130425130425131,1949.1562094331457,0.20127032224229335,-0.17096905774721688,-0.1355398869529749,1156.7765567765566,-1.0,80.75245410112129,0.5129507657208947,
2023-08-21 10:24:34.155000,-6.83132530120482,-5.1084337349397595,4.72289156626506,-5.137952176578786,-6.793991416309012,5.34886572654813,3.0,0.5134865134865135,1947.4708171206223,0.1386865567274627,-0.28040323990443405,-0.06841093176388335,1163.3699633699632,-1.0,80.75245410112129,0.5129428266452176,
2023-08-21 10:24:34.162000,-6.819277108433735,-5.120481927710844,4.759036144578314,-5.123237277743716,-6.727774371551195,5.326793378295524,3.0,0.5134865134865135,1947.4708171206223,-0.027504224695531213,-0.374686789814113,0.044752636792727556,1169.9633699633698,-1.0,80.75245410112129,0.5129351988029947,
2023-08-21 10:24:34.170000,-6.819277108433735,-5.132530120481928,4.795180722891566,-5.066830165542612,-6.8111587982832615,5.309625996321275,3.0,0.5134865134865135,1947.4708171206223,-0.05710622924072095,-0.04405337684284123,0.06409882873958415,1174.3589743589744,-1.0,80.75245410112129,0.5129278825476782,
2023-08-21 10:24:34.178000,-6.819277108433735,-5.132530120481928,4.795180722891566,-5.071735131820969,-6.75229920294298,5.326793378295524,3.0,0.5134865134865135,1947.4708171206223,-0.1466115028261752,-0.27842200337975637,0.008624206048598388,1174.3589743589744,-1.0,80.75245410112129,0.5129208780879123,
2023-08-21 10:24:34.185000,-6.807228915662651,-5.120481927710844,4.734939759036145,-5.064377682403433,-6.806253832004905,5.324340895156346,3.0,0.5134865134865135,1947.4708171206223,0.2989336285764235,-0.2973020220266883,-0.015849892197424133,1176.5567765567764,-1.0,80.75245410112129,0.5129141854906298,
2023-08-21 10:24:34.193000,-6.807228915662651,-5.1084337349397595,4.746987951807229,-5.047210300429184,-6.690987124463519,5.282648681790312,3.0,0.5134865134865135,1947.4708171206223,0.09987762950876951,-0.22690985373812772,0.033447934269564716,1178.021978021978,-1.0,80.75245410112129,0.5129078046842175,
2023-08-21 10:24:34.201000,-6.807228915662651,-5.096385542168675,4.746987951807229,-5.133047210300429,-6.762109135499693,5.3635806253832,3.0,0.5134865134865135,1947.4708171206223,0.6054425732766153,-0.6590525027679042,-0.19264611619369498,1184.6153846153845,-1.0,80.75245410112129,0.5129017356004837,
2023-08-21 10:24:34.208000,-6.807228915662651,-5.0843373493975905,4.746987951807229,-5.103617412630288,-6.8038013488657265,5.339055793991416,3.0,0.5134865134865135,1947.4708171206223,0.4488083445020691,-0.16432608822329706,-0.18891672979430083,1189.0109890109889,-1.0,80.75245410112129,0.512895978018792,
2023-08-21 10:24:34.216000,-6.795180722891566,-5.1084337349397595,4.734939759036145,-5.088902513795217,-6.8111587982832615,5.3635806253832,3.0,0.5134865134865135,1947.4708171206223,0.29287337567740784,-0.19008216304411224,-0.11106578870695194,1192.6739926739926,-1.0,80.75245410112129,0.5128905314417345,
2023-08-21 10:24:34.224000,-6.783132530120482,-5.120481927710844,4.72289156626506,-5.096259963212753,-6.740036787247087,5.351318209687308,3.0,0.5130425130425131,1949.1562094331457,0.244507895810267,-0.03076743779499984,-0.30918944117475666,1197.069597069597,-1.0,80.75245410112129,0.5128853952475294,
2023-08-21 10:24:34.231000,-6.807228915662651,-5.1084337349397595,4.734939759036145,-5.08399754751686,-6.749846719803801,5.326793378295524,3.0,0.5134865134865135,1947.4708171206223,0.21257502476545706,-0.2685158207563662,0.028436571295379204,1201.4652014652013,-1.0,80.75245410112129,0.5128805686825784,
2023-08-21 10:24:34.239000,-6.795180722891566,-5.1084337349397595,4.759036144578314,-5.08399754751686,-6.754751686082158,5.339055793991416,3.0,0.5134865134865135,1947.4708171206223,0.18017598042072205,0.31839636384826137,0.08624206048598561,1205.128205128205,-1.0,80.75245410112129,0.5128760509715921,
2023-08-21 10:24:34.247000,-6.819277108433735,-5.120481927710844,4.771084337349397,-5.120784794604536,-6.7743715511955855,5.31698344573881,3.0,0.5134865134865135,1947.4708171206223,-0.004428646349280464,0.13833692675252018,-0.3426373754443214,1208.7912087912086,-1.0,80.75245410112129,0.5128718413315926,
2023-08-21 10:24:34.254000,-6.819277108433735,-5.120481927710844,4.72289156626506,-5.098712446351931,-6.749846719803801,5.297363580625383,3.0,0.5134865134865135,1947.4708171206223,-0.1131635685566109,0.01841384534700861,-0.019579278596818277,1213.1868131868132,-1.0,80.75245410112129,0.5128679386983539,
2023-08-21 10:24:34.262000,-6.83132530120482,-5.132530120481928,4.734939759036145,-5.098712446351931,-6.796443899448191,5.312078479460453,3.0,0.5134865134865135,1947.4708171206223,0.03589534409416706,-0.30103140842608206,-0.02004545189674249,1214.6520146520145,-1.0,80.75245410112129,0.5128643417504793,
2023-08-21 10:24:34.270000,-6.807228915662651,-5.120481927710844,4.734939759036145,-5.017780502759043,-6.791538933169834,5.324340895156346,3.0,0.5134865134865135,1947.4708171206223,0.2805197832294149,0.03717732066895799,0.18017598042072117,1214.6520146520145,-1.0,80.75245410112129,0.512861049199587,
2023-08-21 10:24:34.277000,-6.807228915662651,-5.120481927710844,4.734939759036145,-5.037400367872471,-6.771919068056406,5.370938074800735,3.0,0.5134865134865135,1947.4708171206223,0.3527766447176741,-0.4380863586038113,0.16560806479808884,1214.6520146520145,-1.0,80.75245410112129,0.5128580597720221,
2023-08-21 10:24:34.285000,-6.819277108433735,-5.1084337349397595,4.771084337349397,-5.064377682403433,-6.779276517473942,5.30226854690374,3.0,0.5134865134865135,1947.4708171206223,0.3499796049181288,-0.4348231455043409,0.16840510459763414,1210.989010989011,-1.0,80.75245410112129,0.51285537206289,
2023-08-21 10:24:34.293000,-6.795180722891566,-5.120481927710844,4.771084337349397,-5.076640098099325,-6.754751686082158,5.312078479460453,3.0,0.5134865134865135,1947.4708171206223,0.1029077559582782,-0.888409766330633,0.10908455218227382,1211.7216117216117,-1.0,80.75245410112129,0.5128529845391192,
2023-08-21 10:24:34.300000,-6.807228915662651,-5.120481927710844,4.746987951807229,-5.113427345187001,-6.820968730839975,5.351318209687308,3.0,0.5134865134865135,1947.4708171206223,0.26676767088165015,-0.4538197074762537,0.0814637841617622,1215.3846153846152,-1.0,80.75245410112129,0.5128508955422636,
2023-08-21 10:24:34.308000,-6.783132530120482,-5.120481927710844,4.771084337349397,-5.074187614960147,-6.703249540159411,5.346413243408951,3.0,0.5134865134865135,1947.4708171206223,0.4770118291474853,-0.45009032107686,-0.2524328419089795,1216.8498168498168,-1.0,80.75245410112129,0.5128491032910334,
2023-08-21 10:24:34.316000,-6.783132530120482,-5.132530120481928,4.783132530120482,-5.064377682403433,-6.762109135499693,5.34886572654813,3.0,0.5134865134865135,1947.4708171206223,0.3218926635976917,-0.24765456558475654,-0.27795583007983216,1217.5824175824175,-1.0,80.75245410112129,0.512847605883561,
2023-08-21 10:24:34.323000,-6.795180722891566,-5.1084337349397595,4.783132530120482,-5.064377682403433,-6.737584304107909,5.375843041079093,3.0,0.5134865134865135,1947.4708171206223,0.2101276149408543,-5.82716624905918E-4,-0.25674494493327915,1216.117216117216,-1.0,80.75245410112129,0.512846401299409,
2023-08-21 10:24:34.331000,-6.807228915662651,-5.120481927710844,4.759036144578314,-5.096259963212753,-6.722869405272839,5.393010423053341,3.0,0.5134865134865135,1947.4708171206223,0.191480682943884,0.0018646931996968547,-0.10057688945865627,1211.7216117216117,-1.0,80.75245410112129,0.5128454874013161,
2023-08-21 10:24:34.339000,-6.819277108433735,-5.1084337349397595,4.771084337349397,-5.123237277743716,-6.76701410177805,5.351318209687308,3.0,0.5134865134865135,1947.4708171206223,0.14229939980187556,-0.1792436338208736,-0.006642969523920696,1208.058608058608,-1.0,80.75245410112129,0.5128448619367022,
2023-08-21 10:24:34.346000,-6.795180722891566,-5.096385542168675,4.759036144578314,-5.088902513795217,-6.740036787247087,5.3071735131820965,3.0,0.5134865134865135,1947.4708171206223,0.34007342229473864,-0.29648621875182074,-0.08239613076161063,1207.3260073260074,-1.0,80.75245410112129,0.51284452253893,
2023-08-21 10:24:34.354000,-6.771084337349398,-5.096385542168675,4.771084337349397,-5.0226854690374,-6.73513182096873,5.30226854690374,3.0,0.5134865134865135,1947.4708171206223,0.2154886078899832,0.014684458947613166,-0.004428646349280464,1209.5238095238094,-1.0,80.75245410112129,0.5128444668670953,
2023-08-21 10:24:34.362000,-6.795180722891566,-5.120481927710844,4.759036144578314,-5.074187614960147,-6.75229920294298,5.324340895156346,3.0,0.5134865134865135,1947.4708171206223,0.22772565701299533,-0.45533477070100803,0.19369500611852467,1211.7216117216117,-1.0,80.75245410112129,0.5128446924477253,
2023-08-21 10:24:34.369000,-6.795180722891566,-5.1084337349397595,4.72289156626506,-5.064377682403433,-6.779276517473942,5.3145309625996315,3.0,0.5134865134865135,1947.4708171206223,0.04113979371831512,-0.4647747800244749,0.2517335819590932,1213.9194139194137,-1.0,80.75245410112129,0.5128451966865483,
2023-08-21 10:24:34.377000,-6.795180722891566,-5.1084337349397595,4.72289156626506,-5.093807480073575,-6.76701410177805,5.351318209687308,3.0,0.5134865134865135,1947.4708171206223,0.30009906182623364,-0.29112522580269184,-0.04055707709340963,1213.9194139194137,-1.0,80.75245410112129,0.5128459768589155,
2023-08-21 10:24:34.385000,-6.795180722891566,-5.120481927710844,4.746987951807229,-5.106069895769466,-6.793991416309012,5.324340895156346,3.0,0.5134865134865135,1947.4708171206223,-0.09882873958394024,0.07994872093700829,-0.10011071615873206,1215.3846153846152,-1.0,80.75245410112129,0.5128470302597863,
2023-08-21 10:24:34.392000,-6.819277108433735,-5.132530120481928,4.759036144578314,-5.086450030656039,-6.798896382587369,5.324340895156346,3.0,0.5134865134865135,1947.4708171206223,0.14497989627644,0.01853038867198945,0.23739875298642252,1216.117216117216,-1.0,80.75245410112129,0.5128483541732793,
2023-08-21 10:24:34.400000,-6.807228915662651,-5.132530120481928,4.783132530120482,-5.157572041692213,-6.789086450030656,5.353770692826487,3.0,0.5134865134865135,1947.4708171206223,-0.022376318396363993,-0.3021968416758921,0.06876056173882629,1216.117216117216,-1.0,80.75245410112129,0.512849945596719,
2023-08-21 10:24:34.408000,-6.819277108433735,-5.120481927710844,4.771084337349397,-5.106069895769466,-6.76701410177805,5.3586756591048434,3.0,0.5139305139305139,1945.7883369330452,0.15954781189907408,-0.22236466406386643,0.08612551716100478,1214.6520146520145,-1.0,80.75245410112129,0.5128518013904052,
2023-08-21 10:24:34.415000,-6.795180722891566,-5.144578313253012,4.759036144578314,-5.054567749846719,-6.730226854690374,5.304721030042918,3.0,0.5134865134865135,1947.4708171206223,-0.11724258493094886,0.16234485169861934,0.48715109842083804,1216.117216117216,-1.0,80.75245410112129,0.512853918427124,
2023-08-21 10:24:34.423000,-6.83132530120482,-5.120481927710844,4.771084337349397,-5.047210300429184,-6.747394236664623,5.361128142244022,3.0,0.5139305139305139,1945.7883369330452,0.15640114212458453,0.012586679097954637,0.22469553056348707,1224.1758241758241,-1.0,80.75245410112129,0.5128562934647312,
2023-08-21 10:24:34.431000,-6.819277108433735,-5.096385542168675,4.759036144578314,-5.106069895769466,-6.754751686082158,5.3366033108522375,3.0,0.5134865134865135,1947.4708171206223,-0.2907755958277493,-0.05990326904026623,0.30103140842608245,1243.2234432234432,-1.0,80.75245410112129,0.5128589231363142,
2023-08-21 10:24:34.438000,-6.795180722891566,-5.0843373493975905,4.72289156626506,-5.091354996934395,-6.764561618638871,5.326793378295524,3.0,0.5134865134865135,1947.4708171206223,0.10663714235767191,0.03531262746926114,0.1329759338033913,1273.9926739926739,-1.0,80.75245410112129,0.5128618039613729,
2023-08-21 10:24:34.446000,-6.783132530120482,-5.0843373493975905,4.734939759036145,-5.125689760882894,-6.759656652360515,5.3071735131820965,3.0,0.5134865134865135,1947.4708171206223,0.01200396247304872,-0.08496008391119467,0.07307266476312549,1317.9487179487178,-1.0,80.75245410112129,0.5128649321866064,
2023-08-21 10:24:34.454000,-6.83132530120482,-5.096385542168675,4.734939759036145,-5.0226854690374,-6.730226854690374,5.368485591661557,3.0,0.5139305139305139,1945.7883369330452,-0.033914107569489364,-0.3260882232970105,0.3319153895460636,1372.8937728937728,-1.0,80.75245410112129,0.5128683039244937,
2023-08-21 10:24:34.461000,-6.795180722891566,-5.096385542168675,4.734939759036145,-5.059472716125076,-6.771919068056406,5.351318209687308,3.0,0.5134865134865135,1947.4708171206223,0.11899073480566313,-0.2600081580327495,0.11549443505623197,1435.164835164835,-1.0,80.75245410112129,0.512871915302367,
2023-08-21 10:24:34.469000,-6.783132530120482,-5.0843373493975905,4.734939759036145,-5.125689760882894,-6.764561618638871,5.309625996321275,3.0,0.5134865134865135,1947.4708171206223,0.06980945166365643,0.14393100635161074,-0.13181050055358076,1506.9597069597069,-1.0,80.75245410112129,0.5128757623347647,
2023-08-21 10:24:34.476000,-6.783132530120482,-5.0843373493975905,4.734939759036145,-5.147762109135499,-6.76701410177805,5.309625996321275,3.0,0.5134865134865135,1947.4708171206223,-0.17621350737136493,-0.17609696404638409,0.018413845347007744,1506.9597069597069,-1.0,80.75245410112129,0.5128798407642883,
2023-08-21 10:24:34.484000,-6.795180722891566,-5.096385542168675,4.746987951807229,-5.049662783568363,-6.762109135499693,5.34886572654813,3.0,0.5134865134865135,1947.4708171206223,-0.11735912825592969,-0.29205757240254027,-0.28867781597808995,1663.003663003663,773.651123046875,77.55433710701747,0.5128841462004022,
2023-08-21 10:24:34.492000,-6.771084337349398,-5.096385542168675,4.759036144578314,-5.08399754751686,-6.715511955855303,5.34886572654813,3.0,0.5139305139305139,1945.7883369330452,0.003962473049355383,-0.1505739758755323,-0.10477244915797462,1739.194139194139,-1.0,77.55433710701747,0.5128886741195773,
2023-08-21 10:24:34.499000,-6.807228915662651,-5.120481927710844,4.783132530120482,-5.091354996934395,-6.771919068056406,5.368485591661557,3.0,0.5134865134865135,1947.4708171206223,0.20173649554221845,-0.2234135539886957,-0.012586679097954637,1808.058608058608,-1.0,77.55433710701747,0.5128934200148686,
2023-08-21 10:24:34.507000,-6.795180722891566,-5.1084337349397595,4.783132530120482,-5.091354996934395,-6.695892090741876,5.346413243408951,3.0,0.5134865134865135,1947.4708171206223,0.27387681370549505,-0.25021851873434015,0.018530388671989015,1865.201465201465,-1.0,77.55433710701747,0.5128983792689483,
2023-08-21 10:24:34.515000,-6.795180722891566,-5.120481927710844,4.807228915662651,-5.088902513795217,-6.8405885959534025,5.393010423053341,3.0,0.5139305139305139,1945.7883369330452,0.1341413670532014,0.07272303478818254,0.019928908571761654,1906.227106227106,-1.0,77.55433710701747,0.5129035469958255,
2023-08-21 10:24:34.522000,-6.807228915662651,-5.120481927710844,4.759036144578314,-5.128142244022072,-6.715511955855303,5.3439607602697725,3.0,0.5134865134865135,1947.4708171206223,0.5759571120564064,0.12015616805547498,0.12901346075403547,1933.3333333333333,-1.0,77.55433710701747,0.5129089184687236,
2023-08-21 10:24:34.530000,-6.819277108433735,-5.120481927710844,4.807228915662651,-5.16247700797057,-6.708154506437768,5.31698344573881,3.0,0.5134865134865135,1947.4708171206223,0.44577821805256035,-0.15360410232503927,0.3422877454693784,1947.9853479853477,-1.0,77.55433710701747,0.512914488834883,
2023-08-21 10:24:34.538000,-6.795180722891566,-5.120481927710844,4.783132530120482,-5.128142244022072,-6.740036787247087,5.385652973635806,3.0,0.5134865134865135,1947.4708171206223,0.7767612609987764,-0.24147776936076004,0.06666278188916733,1947.9853479853477,-1.0,77.55433710701747,0.5129202529693996,
2023-08-21 10:24:34.545000,-6.819277108433735,-5.144578313253012,4.759036144578314,-5.10116492949111,-6.791538933169834,5.388105456774984,3.0,0.5134865134865135,1947.4708171206223,0.25196666860905614,0.0844939106112696,0.33984033564477606,1934.7985347985348,-1.0,77.55433710701747,0.5129262057448404,
2023-08-21 10:24:34.553000,-6.783132530120482,-5.1084337349397595,4.795180722891566,-5.125689760882894,-6.776824034334764,5.351318209687308,3.0,0.5134865134865135,1947.4708171206223,0.06468154536448921,0.1446302663014975,0.3047607948254762,1909.1575091575091,-1.0,77.55433710701747,0.5129323418855364,
2023-08-21 10:24:34.561000,-6.771084337349398,-5.120481927710844,4.771084337349397,-5.113427345187001,-6.725321888412017,5.3954629061925194,3.0,0.5134865134865135,1947.4708171206223,0.06316648213973486,0.14544606957636508,0.3014975817260067,1873.9926739926739,-1.0,77.55433710701747,0.5129386559713317,
2023-08-21 10:24:34.568000,-6.746987951807229,-5.120481927710844,4.783132530120482,-5.137952176578786,-6.686082158185162,5.385652973635806,3.0,0.5139305139305139,1945.7883369330452,0.25965852805780526,-0.007225686148825746,0.26560223763183965,1831.5018315018315,-1.0,77.55433710701747,0.5129451424415165,
2023-08-21 10:24:34.576000,-6.746987951807229,-5.120481927710844,4.783132530120482,-5.128142244022072,-6.737584304107909,5.378295524218271,3.0,0.5139305139305139,1945.7883369330452,0.10500553580793673,0.3610512207913291,0.14194976982693305,1831.5018315018315,-1.0,77.55433710701747,0.5129517957482497,
2023-08-21 10:24:34.584000,-6.710843373493976,-5.156626506024097,4.807228915662651,-5.091354996934395,-6.637032495401594,5.370938074800735,3.0,0.5134865134865135,1947.4708171206223,0.23972961948604404,0.3424042887943588,0.3539420779674842,1736.263736263736,-1.0,77.55433710701747,0.5129586103827902,
2023-08-21 10:24:34.591000,-6.650602409638554,-5.132530120481928,4.771084337349397,-5.113427345187001,-6.5732679337829545,5.370938074800735,3.0,0.5134865134865135,1947.4708171206223,0.35906998426665143,0.8285064972903684,0.4146611502826176,1687.9120879120878,-1.0,77.55433710701747,0.5129655805937317,
2023-08-21 10:24:34.599000,-6.626506024096386,-5.144578313253012,4.795180722891566,-5.184549356223176,-6.504598405885959,5.42489270386266,3.0,0.5134865134865135,1947.4708171206223,0.26362100110716236,1.6166890041372877,0.32189266359769253,1645.4212454212452,-1.0,77.55433710701747,0.5129727003718444,
2023-08-21 10:24:34.607000,-6.626506024096386,-5.1807228915662655,4.771084337349397,-5.128142244022072,-6.553648068669528,5.400367872470876,3.0,0.5134865134865135,1947.4708171206223,0.5183847095157621,2.3202610570479583,0.3202610570479574,1608.058608058608,-1.0,77.55433710701747,0.5129799635943012,
2023-08-21 10:24:34.614000,-6.698795180722892,-5.204819277108434,4.759036144578314,-5.179644389944819,-6.705702023298589,5.375843041079093,3.0,0.5134865134865135,1947.4708171206223,1.0488899248295553,2.5633704329584517,-0.10640405570770937,1576.5567765567764,-1.0,77.55433710701747,0.5129873640304194,
2023-08-21 10:24:34.622000,-6.783132530120482,-5.240963855421687,4.771084337349397,-5.238503985285101,-6.779276517473942,5.469037400367872,3.0,0.5134865134865135,1947.4708171206223,1.420896218169104,2.7419148068294383,0.3232911834974652,1545.7875457875457,-1.0,77.55433710701747,0.5129948953476783,
2023-08-21 10:24:34.630000,-6.903614457831326,-5.27710843373494,4.759036144578314,-5.272838749233599,-6.997547516860821,5.297363580625383,3.0,0.5134865134865135,1947.4708171206223,2.078317114387273,3.0872326787483253,1.3917603869238389,1517.216117216117,-1.0,77.55433710701747,0.5130025511180122,
2023-08-21 10:24:34.637000,-7.0361445783132535,-5.27710843373494,4.72289156626506,-5.260576333537706,-7.2329858982219495,5.2998160637645615,3.0,0.5134865134865135,1947.4708171206223,3.1892080881067533,2.101043062758581,3.763183963638483,1491.5750915750914,-1.0,77.55433710701747,0.5130103248243901,
2023-08-21 10:24:34.645000,-7.168674698795181,-5.265060240963856,4.783132530120482,-5.233599019006744,-7.20110361741263,5.378295524218271,3.0,0.5139305139305139,1945.7883369330452,2.275624963580211,0.19252957286871328,6.81452129829264,1463.7362637362637,-1.0,77.55433710701747,0.5130182100064338,
2023-08-21 10:24:34.653000,-7.1807228915662655,-5.313253012048193,4.819277108433735,-5.3660331085223785,-7.311465358675659,5.383200490496628,3.0,0.5134865134865135,1947.4708171206223,1.68941203892547,-2.126682594254414,8.926519433599442,1431.5018315018315,-1.0,77.55433710701747,0.5130262003964842,
2023-08-21 10:24:34.660000,-7.240963855421687,-5.325301204819278,4.83132530120482,-5.30226854690374,-7.213366033108522,5.429797670141017,3.0,0.5134865134865135,1947.4708171206223,1.5814929199930075,-3.6778742497523447,13.265777052619312,1394.8717948717947,-1.0,77.55433710701747,0.5130342895128843,
2023-08-21 10:24:34.668000,-7.228915662650603,-5.301204819277109,4.819277108433735,-5.368485591661557,-7.316370324954016,5.3954629061925194,3.0,0.5134865134865135,1947.4708171206223,1.5662257444204883,-5.280927684866849,15.387914457199464,1352.3809523809523,-1.0,77.55433710701747,0.5130424706689987,
2023-08-21 10:24:34.676000,-7.228915662650603,-5.301204819277109,4.819277108433735,-5.422440220723482,-7.492949110974862,5.3660331085223785,3.0,0.5134865134865135,1947.4708171206223,1.902103607015908,-7.067187226851582,18.181807586970454,1352.3809523809523,-1.0,77.55433710701747,0.5130507371099174,
2023-08-21 10:24:34.683000,-7.409638554216868,-5.421686746987952,4.819277108433735,-5.388105456774984,-7.512568976088289,5.45677498467198,3.0,0.5130425130425131,1949.1562094331457,2.0547753627410987,-10.013752112347765,21.89173125109259,1250.5494505494505,-1.0,77.55433710701747,0.5130590818929022,
2023-08-21 10:24:34.691000,-7.481927710843374,-5.506024096385542,4.819277108433735,-5.473942366646229,-7.517473942366646,5.397915389331698,3.0,0.5130425130425131,1949.1562094331457,3.4135539886952975,-12.883981119981351,26.197074762542975,1189.0109890109889,-1.0,77.55433710701747,0.513067498034247,
2023-08-21 10:24:34.699000,-7.457831325301205,-5.530120481927711,4.783132530120482,-5.562231759656652,-7.5076640098099325,5.41017780502759,3.0,0.5134865134865135,1947.4708171206223,5.688363149000641,-16.013752112347763,29.76959384651244,1124.5421245421244,-1.0,77.55433710701747,0.5130759784753839,
2023-08-21 10:24:34.706000,-7.409638554216868,-5.518072289156627,4.746987951807229,-5.486204782342121,-7.505211526670753,5.3292458614347025,3.0,0.5134865134865135,1947.4708171206223,7.444088339840335,-18.19695821921799,32.42608239613077,1062.2710622710622,-1.0,77.55433710701747,0.5130845162298425,
2023-08-21 10:24:34.714000,-7.301204819277109,-5.506024096385542,4.759036144578314,-5.505824647455548,-7.250153280196198,5.493562231759657,3.0,0.5134865134865135,1947.4708171206223,10.436454752054075,-22.73130936425616,34.761960258726184,1005.8608058608058,-1.0,77.55433710701747,0.5130931044131741,
2023-08-21 10:24:34.722000,-7.072289156626506,-5.493975903614458,4.72289156626506,-5.483752299202942,-7.120171673819742,5.361128142244022,3.0,0.5134865134865135,1947.4708171206223,14.695996736786899,-26.91451547112639,36.563486976283436,955.3113553113552,-1.0,77.55433710701747,0.5131017359750313,
2023-08-21 10:24:34.729000,-6.746987951807229,-5.493975903614458,4.807228915662651,-5.473942366646229,-6.825873697118332,5.461679950950337,3.0,0.5134865134865135,1947.4708171206223,17.230347881825068,-31.41833226501952,40.83829613658878,909.1575091575091,-1.0,77.55433710701747,0.5131104038678826,
2023-08-21 10:24:34.737000,-6.879518072289157,-5.421686746987952,4.867469879518072,-5.3733905579399135,-7.007357449417535,5.451870018393623,3.0,0.5130425130425131,1949.1562094331457,21.474622690985374,-32.0442864634928,44.62455567857351,870.3296703296703,-1.0,77.55433710701747,0.5131191011842285,
2023-08-21 10:24:34.745000,-6.771084337349398,-5.325301204819278,5.0602409638554215,-5.3218884120171674,-6.7743715511955855,5.780502759043531,3.0,0.5130425130425131,1949.1562094331457,24.085309713886137,-28.441233028378296,46.28867781597809,842.4908424908424,-1.0,77.55433710701747,0.5131278207290549,
2023-08-21 10:24:34.752000,-6.855421686746988,-5.325301204819278,5.144578313253012,-5.2630288166768855,-7.026977314530963,5.790312691600245,3.0,0.5130425130425131,1949.1562094331457,25.53569139327545,-23.03665287570654,50.92989919002389,824.9084249084249,-1.0,77.55433710701747,0.5131365551668647,
2023-08-21 10:24:34.760000,-7.168674698795181,-5.19277108433735,5.1807228915662655,-5.174739423666462,-7.372777437155119,5.7363580625383195,3.0,0.5130425130425131,1949.1562094331457,29.169279179534993,-16.425965852805778,53.708525144222364,816.8498168498168,-1.0,77.55433710701747,0.5131452972961075,
2023-08-21 10:24:34.768000,-7.337349397590362,-5.36144578313253,5.156626506024097,-5.419987737584304,-7.642550582464745,5.645616186388718,3.0,0.5130425130425131,1949.1562094331457,29.55095856884797,-8.105355165782878,60.059670182390306,820.5128205128204,-1.0,77.55433710701747,0.5131540399079234,
2023-08-21 10:24:34.775000,-7.337349397590362,-5.36144578313253,5.156626506024097,-5.3660331085223785,-8.253218884120171,5.822194972409564,3.0,0.5130425130425131,1949.1562094331457,28.115844065031176,5.512965444904143,69.31157857933687,820.5128205128204,-1.0,77.55433710701747,0.513162775793956,
2023-08-21 10:24:34.783000,-8.27710843373494,-5.421686746987952,5.325301204819278,-5.471489883507051,-8.915389331698345,6.315144083384427,3.0,0.5130425130425131,1949.1562094331457,33.123477652817435,-0.609171959676009,83.12837247246664,836.6300366300366,-1.0,77.55433710701747,0.5131714977539303,
2023-08-21 10:24:34.791000,-8.66265060240964,-5.566265060240964,5.481927710843374,-5.616186388718577,-9.074800735744942,6.241569589209074,3.0,0.5134865134865135,1947.4708171206223,41.489889866557895,-8.151156692500436,96.59402132742846,850.5494505494505,-1.0,77.55433710701747,0.5131801986030006,
2023-08-21 10:24:34.798000,-8.349397590361447,-6.1084337349397595,5.650602409638554,-6.327406499080318,-8.375843041079092,6.383813611281422,3.0,0.5134865134865135,1947.4708171206223,44.23798146961133,-16.7618437154012,104.54821980071091,869.5970695970695,-1.0,77.55433710701747,0.5131888713281544,
2023-08-21 10:24:34.806000,-7.698795180722892,-6.36144578313253,5.710843373493976,-6.437768240343347,-8.106069895769465,6.648681790312692,3.0,0.5134865134865135,1947.4708171206223,51.001340248237284,-35.81527882990501,113.75432667093992,892.3076923076923,-1.0,77.55433710701747,0.5131975091169702,
2023-08-21 10:24:34.814000,-8.506024096385543,-6.156626506024097,5.602409638554217,-6.180257510729613,-8.92274678111588,6.503985285101164,3.0,0.5134865134865135,1947.4708171206223,64.77233261464949,-41.7236757764699,122.73142590758114,917.2161172161171,-1.0,77.55433710701747,0.5132061052272071,
2023-08-21 10:24:34.821000,-9.168674698795181,-5.602409638554217,6.024096385542169,-5.454322501532801,-9.643776824034335,6.8031882280809315,3.0,0.5130425130425131,1949.1562094331457,73.85630208029835,-35.0824544024241,129.67799079307733,949.4505494505494,-1.0,77.55433710701747,0.5132146529951072,
2023-08-21 10:24:34.829000,-9.602409638554217,-5.0843373493975905,6.156626506024097,-4.954015941140405,-10.17596566523605,6.7516860821581846,3.0,0.5130425130425131,1949.1562094331457,73.96317230930597,-38.25802692150807,143.6016549152147,985.3479853479853,-1.0,77.55433710701747,0.5132231456943643,
2023-08-21 10:24:34.837000,-9.530120481927712,-4.72289156626506,6.253012048192772,-4.645003065603924,-9.717351318209687,6.817903126916002,3.0,0.5125985125985126,1950.8445214378517,73.96317230930597,-38.25802692150807,143.6016549152147,1015.3846153846154,-1.0,77.55433710701747,0.5132315765224713,
2023-08-21 10:24:34.844000,-9.19277108433735,-4.385542168674699,6.313253012048193,-4.331085223789086,-9.258736971183323,6.886572654812998,3.0,0.5125985125985126,1950.8445214378517,72.03950818716858,-45.158790280286695,151.433715983917,1030.7692307692307,-1.0,77.55433710701747,0.5132399387354106,
2023-08-21 10:24:34.852000,-9.433734939759036,-3.927710843373494,6.313253012048193,-3.8577559779276513,-9.452483139178417,6.71244635193133,3.0,0.5130425130425131,1949.1562094331457,72.42118757648154,-51.35726356272944,155.49478468620708,1008.7912087912088,-1.0,77.55433710701747,0.513248225611659,
2023-08-21 10:24:34.859000,-9.542168674698795,-3.6506024096385543,6.156626506024097,-3.654199877375843,-9.700183936235439,6.312691600245248,3.0,0.5130425130425131,1949.1562094331457,69.35248528640521,-40.74657653982868,149.9069984266651,923.076923076923,-1.0,77.55433710701747,0.5132564304578282,
2023-08-21 10:24:34.867000,-9.759036144578314,-3.7590361445783134,6.060240963855422,-3.847946045370938,-10.03862660944206,6.437768240343347,3.0,0.5130425130425131,1949.1562094331457,61.71889750014568,-33.25039333372181,147.52531903735212,758.9743589743589,-1.0,77.55433710701747,0.5132645467947035,
2023-08-21 10:24:34.875000,-9.759036144578314,-3.7590361445783134,6.060240963855422,-3.9681177191906802,-9.732066217044757,6.226854690374004,3.0,0.5130425130425131,1949.1562094331457,51.39828681312278,-32.4412330283783,149.84592972437503,758.9743589743589,-1.0,77.55433710701747,0.5132725682134982,
2023-08-21 10:24:34.882000,-9.698795180722891,-3.8192771084337354,5.879518072289157,-3.808706315144083,-9.685469037400367,6.3960760269773145,3.0,0.5130425130425131,1949.1562094331457,42.90973719480217,-43.158790280286695,152.41081522055822,317.9487179487179,-1.0,77.55433710701747,0.513280488391635,
2023-08-21 10:24:34.890000,-9.397590361445783,-3.951807228915663,6.337349397590362,-3.9705702023298586,-9.221949724095646,6.825260576333537,3.0,0.5130425130425131,1949.1562094331457,38.253248645183845,-38.853446768836314,150.57875415185595,128.2051282051282,-1.0,77.55433710701747,0.5132883012259458,
2023-08-21 10:24:34.898000,-8.831325301204819,-3.807228915662651,6.686746987951808,-3.686082158185162,-8.795217657878602,7.25444512568976,3.0,0.5130425130425131,1949.1562094331457,31.53569139327545,-31.99848493677524,143.55585338849716,1.465201465201465,-1.0,77.55433710701747,0.5132960006888131,
2023-08-21 10:24:34.905000,-8.44578313253012,-3.385542168674699,7.0120481927710845,-3.254445125689761,-8.503372164316369,7.789086450030656,3.0,0.5130425130425131,1949.1562094331457,27.444088339840338,-32.30382844822562,143.29631140376435,1.465201465201465,-1.0,77.55433710701747,0.513303580833282,
2023-08-21 10:24:34.913000,-8.036144578313253,-3.024096385542169,7.590361445783133,-2.942979767014102,-7.993255671367259,8.517473942366646,3.0,0.5125985125985126,1950.8445214378517,27.764699026863237,-33.479400967309594,145.81539537323,1.465201465201465,-1.0,77.55433710701747,0.5133110357978646,
2023-08-21 10:24:34.921000,-7.698795180722892,-2.855421686746988,8.240963855421688,-2.7271612507664007,-7.559166155732679,9.125689760882894,3.0,0.5130425130425131,1949.1562094331457,29.673095973428122,-20.56337043295845,146.4566167472758,39.560439560439555,-1.0,77.55433710701747,0.5133183596617732,
2023-08-21 10:24:34.928000,-7.421686746987953,-2.63855421686747,8.951807228915664,-2.5162477007970567,-7.451256897608829,10.01348865726548,3.0,0.5130425130425131,1949.1562094331457,34.55859215663423,-5.326729211584405,144.56348697628343,134.06593406593404,-1.0,77.55433710701747,0.5133255465766081,
2023-08-21 10:24:34.936000,-7.421686746987953,-2.3012048192771086,9.530120481927712,-2.060085836909871,-7.708767627222563,10.391171060698957,3.0,0.5130425130425131,1949.1562094331457,40.39065322533652,4.871744070858342,145.17417399918418,257.1428571428571,-1.0,77.55433710701747,0.5133325907905871,
2023-08-21 10:24:34.944000,-7.614457831325302,-1.8915662650602412,9.674698795180724,-1.6897608828939301,-7.853464132434089,10.553034947884733,3.0,0.5125985125985126,1950.8445214378517,44.573859332206744,12.673270788415593,148.16654041139793,392.67399267399264,-1.0,77.55433710701747,0.513339486672585,
2023-08-21 10:24:34.951000,-7.72289156626506,-1.5421686746987953,9.518072289156628,-1.3513182096873084,-7.9368485591661555,10.29307173513182,3.0,0.5130425130425131,1949.1562094331457,50.39065322533652,21.222889109026283,151.55585338849716,524.5421245421245,-1.0,77.55433710701747,0.5133462286939459,
2023-08-21 10:24:34.959000,-7.710843373493976,-1.2289156626506024,9.060240963855422,-1.0545677498467196,-7.843654199877375,9.68976088289393,3.0,0.5130425130425131,1949.1562094331457,55.13874482838995,25.89464483421712,154.82302896101623,641.025641025641,-1.0,77.55433710701747,0.513352811271427,
2023-08-21 10:24:34.967000,-7.746987951807229,-0.963855421686747,8.867469879518072,-0.7406499080318822,-7.880441446965052,9.589209074187615,3.0,0.5130425130425131,1949.1562094331457,57.23034788182507,27.009148651011014,156.38028086941318,736.9963369963369,-1.0,77.55433710701747,0.5133592289499816,
2023-08-21 10:24:34.974000,-7.746987951807229,-0.963855421686747,8.867469879518072,-0.5714285714285714,-7.873083997547517,9.603923973022685,3.0,0.5130425130425131,1949.1562094331457,61.10821047724492,29.05495017772857,158.7161587320086,736.9963369963369,-1.0,77.55433710701747,0.5133654764152272,
2023-08-21 10:24:34.982000,-7.493975903614459,-0.3132530120481928,8.325301204819278,-0.08338442673206621,-7.716125076640098,9.221336603310851,3.0,0.5125985125985126,1950.8445214378517,69.70363032457315,34.719072315133154,162.27341064040556,847.6190476190476,-1.0,77.55433710701747,0.5133715484955307,
2023-08-21 10:24:34.990000,-7.096385542168675,0.28915662650602414,8.060240963855422,0.5861434702636419,-7.188841201716738,8.662170447578172,3.0,0.5125985125985126,1950.8445214378517,79.35248528640521,40.76487384185071,167.69325796864985,860.07326007326,-1.0,77.55433710701747,0.5133774401537637,
2023-08-21 10:24:34.997000,-6.698795180722892,0.8313253012048193,7.783132530120482,1.091354996934396,-6.808706315144083,8.468424279583077,3.0,0.5125985125985126,1950.8445214378517,85.68836314900064,46.520599032690406,171.61692209078723,839.5604395604395,-1.0,77.55433710701747,0.5133831464475735,
2023-08-21 10:24:35.005000,-6.530120481927711,1.216867469879518,7.385542168674699,1.4812998160637645,-6.607602697731453,8.066217044757817,3.0,0.5125985125985126,1950.8445214378517,90.36011887419147,54.58166773498048,175.5863877396422,782.4175824175824,-1.0,77.55433710701747,0.5133886625212387,
2023-08-21 10:24:35.013000,-6.542168674698796,1.493975903614458,7.048192771084338,1.6284488044144696,-6.497240956468424,7.808706315144083,3.0,0.5125985125985126,1950.8445214378517,95.56622574442048,64.38319445253772,176.41081522055822,682.7838827838827,-1.0,77.55433710701747,0.513393983607969,
2023-08-21 10:24:35.020000,-6.55421686746988,1.746987951807229,6.72289156626506,1.9031269160024524,-6.590435315757204,7.458001226241569,3.0,0.5125985125985126,1950.8445214378517,99.59676009556551,72.7648738418507,174.34974651826815,547.2527472527472,-1.0,77.55433710701747,0.5133991050321292,
2023-08-21 10:24:35.028000,-6.867469879518072,1.8674698795180724,6.698795180722892,1.9546290619251991,-7.056407112201104,7.666462293071735,3.0,0.5125985125985126,1950.8445214378517,105.52042421770292,80.49006468154536,174.80776178544372,389.7435897435897,-1.0,77.55433710701747,0.5134040220726687,
2023-08-21 10:24:35.036000,-7.385542168674699,2.0,6.759036144578314,2.2366646229307174,-7.659717964438994,7.722869405272839,3.0,0.5125985125985126,1950.8445214378517,116.05477536274108,82.00151506322474,176.9298991900239,217.58241758241758,-1.0,77.55433710701747,0.5134087299856586,
2023-08-21 10:24:35.043000,-7.590361445783133,2.4457831325301207,6.530120481927711,2.6879215205395464,-7.652360515021459,7.328019619865113,3.0,0.5125985125985126,1950.8445214378517,126.5280578054892,75.31449216246139,179.84592972437503,49.81684981684981,-1.0,77.55433710701747,0.5134132242932065,
2023-08-21 10:24:35.051000,-7.349397590361447,3.072289156626506,5.795180722891566,3.367259350091968,-7.183936235438381,6.3445738810545675,3.0,0.5121545121545121,1952.5357607282183,132.2074471184663,67.61983567391177,180.02913583124524,1.465201465201465,-1.0,77.55433710701747,0.5134175006254278,
2023-08-21 10:24:35.059000,-6.602409638554217,3.3734939759036147,4.927710843373494,3.6100551808706314,-6.342734518700183,5.64316370324954,3.0,0.5121545121545121,1952.5357607282183,142.6959967367869,71.14655323116368,179.8306625488025,1.465201465201465,-1.0,77.55433710701747,0.5134215545836531,
2023-08-21 10:24:35.066000,-6.156626506024097,3.7951807228915664,4.843373493975903,4.115266707541386,-5.825260576333537,5.3145309625996315,3.0,0.5117105117105117,1954.229934924078,145.04714177495484,72.32212575024765,178.56348697628343,0.7326007326007326,-1.0,77.55433710701747,0.5134253817101697,
2023-08-21 10:24:35.074000,-6.156626506024097,3.7951807228915664,4.843373493975903,4.787247087676272,-5.891477621091354,5.16247700797057,3.0,0.5117105117105117,1954.229934924078,141.59676009556554,70.42899597925528,171.29631140376435,0.7326007326007326,-1.0,77.55433710701747,0.5134289773501356,
2023-08-21 10:24:35.082000,-6.253012048192772,4.891566265060241,4.397590361445784,5.110974862047823,-5.935622317596566,4.873083997547517,3.0,0.5108225108225107,1957.627118644068,137.0929433016724,71.95571353650719,161.4184488083445,1.465201465201465,-1.0,77.55433710701747,0.5134323367790099,
2023-08-21 10:24:35.089000,-6.0,5.216867469879518,3.8674698795180724,5.473942366646229,-5.6781115879828326,4.235438381361128,3.0,0.5103785103785103,1959.3301435406702,135.7188975001457,71.5587669716217,154.86883048773382,1.465201465201465,-1.0,77.55433710701747,0.5134354551799652,
2023-08-21 10:24:35.097000,-5.55421686746988,5.096385542168675,2.662650602409639,5.120784794604536,-5.332311465358675,3.497240956468424,3.0,0.5094905094905093,1962.745098039216,147.47462269098537,55.833576131927046,154.68562438086357,1.465201465201465,-1.0,77.55433710701747,0.5134383272902123,
2023-08-21 10:24:35.105000,-5.518072289156627,5.301204819277109,3.5662650602409642,5.5744941753525445,-5.207234825260576,3.9092581238503983,3.0,0.509046509046509,1964.4570431748803,145.36775246197774,55.13128605559117,148.2123419381155,1.465201465201465,-1.0,77.55433710701747,0.5134409473643472,
2023-08-21 10:24:35.112000,-5.265060240963856,5.879518072289157,3.132530120481928,6.153280196198651,-4.858982219497241,3.6983445738810543,3.0,0.508158508158508,1967.889908256881,145.36775246197774,55.13128605559117,148.2123419381155,1.465201465201465,-1.0,77.55433710701747,0.5134433092419666,
2023-08-21 10:24:35.120000,-4.83132530120482,6.048192771084338,3.144578313253012,6.089515634580012,-4.3071735131820965,3.830778663396689,3.0,0.5086025086025086,1966.1719773024881,139.38301963755026,42.50533185711788,142.83829613658878,1.465201465201465,-1.0,77.55433710701747,0.5134454061459063,
2023-08-21 10:24:35.128000,-3.7951807228915664,5.55421686746988,2.674698795180723,5.579399141630901,-3.622930717351318,3.595340282035561,3.0,0.5086025086025086,1966.1719773024881,141.19981353068005,41.650370025056816,135.03676941903151,1.465201465201465,-1.0,77.55433710701747,0.5134472309144289,
2023-08-21 10:24:35.135000,-3.8674698795180724,5.253012048192772,2.710843373493976,5.211526670754139,-3.851011649294911,3.830778663396689,3.0,0.5094905094905093,1962.745098039216,151.9021036070159,29.864110483072082,136.25814346483304,1.465201465201465,-1.0,77.55433710701747,0.5134487762841021,
2023-08-21 10:24:35.143000,-5.373493975903615,5.55421686746988,3.5662650602409642,6.148375229920294,-5.008583690987124,4.1079092581238505,3.0,0.5094905094905093,1962.745098039216,170.9250043703747,28.825942544140787,144.5329526251384,10.256410256410255,-1.0,77.55433710701747,0.5134500350335706,
2023-08-21 10:24:35.151000,-6.1325301204819285,7.385542168674699,4.132530120481928,7.909258123850398,-6.244635193133047,4.245248313917841,3.0,0.5094905094905093,1962.745098039216,166.63492803449682,17.2381562845988,131.1131052968941,98.90109890109889,-1.0,77.55433710701747,0.5134510001490505,
2023-08-21 10:24:35.158000,-7.096385542168675,7.301204819277109,3.433734939759036,7.551195585530349,-7.193746167995094,3.644389944819129,3.0,0.5094905094905093,1962.745098039216,152.95553872151973,7.085484528873609,125.70852514422235,222.7106227106227,-1.0,77.55433710701747,0.5134516643733036,
2023-08-21 10:24:35.166000,-5.91566265060241,7.265060240963856,2.060240963855422,7.5659104843654195,-5.376456161863887,1.9987737584304106,3.0,0.5099345099345098,1961.036134087941,143.23034788182508,-7.525202494027154,123.95279995338267,355.31135531135527,-1.0,77.55433710701747,0.5134520199246346,
2023-08-21 10:24:35.174000,-5.91566265060241,7.265060240963856,2.060240963855422,6.0331085223789085,-4.96934396076027,2.07725321888412,3.0,0.5099345099345098,1961.036134087941,143.6425616222831,-25.754210127614936,131.38791445719946,355.31135531135527,-1.0,77.55433710701747,0.5134520589397091,
2023-08-21 10:24:35.181000,-4.951807228915663,5.542168674698796,1.4096385542168675,5.496014714898835,-4.738810545677498,1.8148375229920293,3.0,0.5103785103785103,1959.3301435406702,151.38301963755026,-37.31146203601188,130.88409766330633,587.5457875457876,-1.0,77.55433710701747,0.5134517736082544,
2023-08-21 10:24:35.189000,-4.265060240963856,5.530120481927711,1.0602409638554218,5.709380748007357,-3.429184549356223,1.5524218270999386,3.0,0.5103785103785103,1959.3301435406702,152.32958452304644,-48.471767379523335,130.41081522055822,673.2600732600732,-1.0,77.55433710701747,0.5134511560216968,
2023-08-21 10:24:35.197000,-4.445783132530121,6.072289156626506,1.2409638554216869,6.376456161863887,-4.054567749846719,1.6039239730226853,3.0,0.5103785103785103,1959.3301435406702,154.77233261464949,-56.27329409708059,128.24287628926052,732.6007326007325,-1.0,77.55433710701747,0.5134501981831002,
2023-08-21 10:24:35.204000,-4.325301204819278,6.674698795180723,1.313253012048193,7.092581238503985,-4.037400367872471,1.542611894543225,3.0,0.5099345099345098,1961.036134087941,147.35248528640523,-71.4794009673096,119.00623506788648,771.4285714285713,-1.0,77.55433710701747,0.5134488918590137,
2023-08-21 10:24:35.212000,-3.987951807228916,6.927710843373494,1.2771084337349399,7.080318822808093,-3.689147762109135,1.8099325567136726,3.0,0.5099345099345098,1961.036134087941,137.8257677291533,-77.8763475321951,114.24287628926052,793.4065934065934,-1.0,77.55433710701747,0.513447228422002,
2023-08-21 10:24:35.220000,-3.6746987951807233,6.72289156626506,1.2048192771084338,6.916002452483139,-3.3310852237890862,1.5892090741876148,3.0,0.5099345099345098,1961.036134087941,133.7188975001457,-77.58627119631723,116.16654041139793,803.6630036630036,-1.0,77.55433710701747,0.5134451986832371,
2023-08-21 10:24:35.227000,-3.4096385542168677,7.072289156626506,1.349397590361446,7.504598405885959,-2.936235438381361,1.883507050889025,3.0,0.5099345099345098,1961.036134087941,131.13874482838995,-76.39543150166074,113.37264728162694,804.3956043956043,-1.0,77.55433710701747,0.5134427931834799,
2023-08-21 10:24:35.235000,-3.36144578313253,7.421686746987953,1.674698795180723,7.732679337829552,-2.926425505824647,2.251379521765788,3.0,0.5103785103785103,1959.3301435406702,127.59676009556553,-74.04428646349281,105.23524270147426,798.5347985347985,-1.0,77.55433710701747,0.5134400021765892,
2023-08-21 10:24:35.242000,-3.240963855421687,7.650602409638554,1.9879518072289157,7.887185775597793,-2.867565910484365,2.5554874310239115,3.0,0.5099345099345098,1961.036134087941,122.61966085892429,-72.88398111998136,93.86119689994754,787.5457875457874,-1.0,77.55433710701747,0.5134368156464643,
2023-08-21 10:24:35.250000,-3.493975903614458,7.867469879518072,2.132530120481928,8.282035561005518,-3.282035561005518,2.5481299816063765,3.0,0.5099345099345098,1961.036134087941,119.70363032457315,-69.76947730318746,83.57112056406969,783.1501831501831,-1.0,77.55433710701747,0.5134332233260559,
2023-08-21 10:24:35.258000,-3.734939759036145,7.879518072289157,1.108433734939759,8.228080931943593,-3.4316370324954013,1.2115266707541386,3.0,0.5099345099345098,1961.036134087941,110.25324864518383,-75.93741623448517,75.25050987704678,780.9523809523808,-1.0,77.55433710701747,0.5134292145377931,
2023-08-21 10:24:35.265000,-4.373493975903615,8.63855421686747,1.927710843373494,9.162477007970569,-4.326793378295524,2.670754138565297,3.0,0.5099345099345098,1961.036134087941,88.2990501719014,-78.74657653982868,72.59402132742846,786.080586080586,-1.0,77.55433710701747,0.5134247784729962,
2023-08-21 10:24:35.273000,-4.373493975903615,8.63855421686747,1.927710843373494,8.250153280196198,-3.9245861434702634,1.491109748620478,3.0,0.5099345099345098,1961.036134087941,96.43645475205406,-71.93741623448517,68.7008915564361,786.080586080586,-1.0,77.55433710701747,0.5134199041759027,
2023-08-21 10:24:35.281000,-4.481927710843374,7.819277108433735,1.0,8.264868179031268,-4.152667075413857,1.2826486817903127,3.0,0.5094905094905093,1962.745098039216,93.73416467571819,-61.52520249402715,64.21234193811549,827.106227106227,-1.0,77.55433710701747,0.5134145802639389,
2023-08-21 10:24:35.288000,-4.771084337349397,8.228915662650603,1.1204819277108435,8.593500919681176,-4.716738197424893,1.3439607602697732,3.0,0.509046509046509,1964.4570431748803,81.79523337800826,-71.18932463143173,54.48715109842084,860.07326007326,-1.0,77.55433710701747,0.5134087948096223,
2023-08-21 10:24:35.296000,-4.626506024096386,7.614457831325302,1.0481927710843375,7.62722256284488,-4.567136725935009,1.4518700183936235,3.0,0.508158508158508,1967.889908256881,68.16164559174872,-75.34199638715693,56.65509002971855,900.3663003663003,-1.0,77.55433710701747,0.513402535330807,
2023-08-21 10:24:35.304000,-4.19277108433735,6.710843373493976,0.963855421686747,6.646229307173513,-3.944206008583691,1.5009196811771919,3.0,0.5072705072705072,1971.3347921225386,64.90973719480216,-74.609171959676,64.24287628926052,948.7179487179486,-1.0,77.55433710701747,0.5133957888997573,
2023-08-21 10:24:35.311000,-3.8674698795180724,6.024096385542169,0.6385542168674699,6.5113427345187,-3.500306560392397,1.285101164929491,3.0,0.5077145077145077,1969.6108439003062,66.40592040090903,-66.99085134898898,69.05203659460403,1001.4652014652014,-1.0,77.55433710701747,0.5133885419131455,
2023-08-21 10:24:35.319000,-3.879518072289157,6.650602409638554,0.9759036144578314,7.019006744328633,-3.591048436541999,1.3758430410790925,3.0,0.5077145077145077,1969.6108439003062,66.66546238564186,-71.52520249402716,62.777227434298695,1058.6080586080586,-1.0,77.55433710701747,0.5133807799151765,
2023-08-21 10:24:35.327000,-3.7469879518072293,7.337349397590362,1.216867469879518,7.820968730839975,-3.399754751686082,1.6922133660331085,3.0,0.5077145077145077,1969.6108439003062,63.36775246197773,-70.89924829555387,59.1741739991842,1123.076923076923,804.290771484375,74.59988616960729,0.5133724879524012,
2023-08-21 10:24:35.334000,-3.879518072289157,8.698795180722891,1.3614457831325302,9.542611894543224,-3.5370938074800735,1.4690374003678723,3.0,0.5077145077145077,1969.6108439003062,54.86393566808461,-71.60153837188975,54.67035720529107,1194.1391941391942,-1.0,74.59988616960729,0.5133636507488738,
2023-08-21 10:24:35.342000,-4.168674698795181,9.879518072289157,1.530120481927711,10.864500306560393,-3.9147762109135495,1.8712446351931329,3.0,0.5077145077145077,1969.6108439003062,39.10821047724492,-72.48703455509586,44.441349571703284,1273.260073260073,-1.0,74.59988616960729,0.513354252723666,
2023-08-21 10:24:35.350000,-5.0602409638554215,10.578313253012048,2.144578313253012,10.881667688534641,-5.194972409564684,2.4843654199877374,3.0,0.5068265068265068,1973.0617608409989,23.260882232970108,-71.89161470776762,31.723792319794885,1364.8351648351647,-1.0,74.59988616960729,0.5133442780106217,
2023-08-21 10:24:35.357000,-5.048192771084338,7.83132530120482,1.8313253012048194,7.431023911710606,-5.663396689147762,2.5677498467198037,3.0,0.5059385059385059,1976.5247915752525,23.795233378008277,-67.8763475321951,47.98333430452771,1476.1904761904761,-1.0,74.59988616960729,0.5133337101817963,
2023-08-21 10:24:35.365000,-5.0602409638554215,6.216867469879518,2.036144578313253,6.131207847946045,-4.9816063764561616,2.7148988350705086,3.0,0.5054945054945055,1978.2608695652175,38.57385933220675,-70.4412330283783,62.6245556785735,1607.3260073260071,-1.0,74.59988616960729,0.5133225319294562,
2023-08-21 10:24:35.373000,-5.0602409638554215,6.216867469879518,2.036144578313253,4.887798896382587,-3.0269773145309626,2.3617412630288164,3.0,0.5054945054945055,1978.2608695652175,47.38301963755026,-64.70077501311113,68.92989919002389,1607.3260073260071,-1.0,74.59988616960729,0.5133107251738094,
2023-08-21 10:24:35.380000,-3.6024096385542173,6.325301204819278,1.63855421686747,7.185775597792765,-2.936235438381361,1.613733905579399,3.0,0.505050505050505,1980.0000000000002,39.87156925587087,-68.30382844822563,56.334479342695644,1929.6703296703295,-1.0,74.59988616960729,0.5132982713404902,
2023-08-21 10:24:35.388000,-3.7590361445783134,8.518072289156628,1.602409638554217,9.341508277130595,-3.4438994481912935,1.8172900061312078,3.0,0.505050505050505,1980.0000000000002,39.87156925587087,-68.30382844822563,56.334479342695644,2111.355311355311,-1.0,74.59988616960729,0.5132851515105346,
2023-08-21 10:24:35.396000,-3.5180722891566267,8.349397590361447,1.5783132530120483,8.703862660944205,-3.3752299202942977,2.060085836909871,3.0,0.505050505050505,1980.0000000000002,20.665462385641863,-72.56337043295845,41.433715983917025,2290.10989010989,-1.0,74.59988616960729,0.5132713464013361,
2023-08-21 10:24:35.403000,-3.771084337349398,8.228915662650603,1.457831325301205,8.642550582464745,-3.500306560392397,1.9570815450643775,3.0,0.505050505050505,1980.0000000000002,15.993706660451023,-61.0824544024241,42.79249460987122,2450.5494505494503,-1.0,74.59988616960729,0.5132568363803843,
2023-08-21 10:24:35.411000,-3.6746987951807233,8.240963855421688,1.4457831325301205,8.446351931330472,-3.409564684242796,1.8859595340282034,3.0,0.505050505050505,1980.0000000000002,16.39065322533652,-54.792378066546235,38.59402132742847,2585.3479853479853,-1.0,74.59988616960729,0.5132416014906631,
2023-08-21 10:24:35.419000,-3.4457831325301207,7.9397590361445785,1.4457831325301205,8.164316370324954,-3.04659717964439,2.0870631514408338,3.0,0.505050505050505,1980.0000000000002,13.444088339840334,-55.67787424975234,35.204708350329234,2677.6556776556777,-1.0,74.59988616960729,0.5132256213384366,
2023-08-21 10:24:35.426000,-3.060240963855422,7.46987951807229,1.4096385542168675,7.610055180870631,-2.8160637645616187,2.111587982832618,3.0,0.5054945054945055,1978.2608695652175,13.87156925587087,-51.95268341005769,32.242876289260536,2728.937728937729,-1.0,74.59988616960729,0.5132088751413455,
2023-08-21 10:24:35.434000,-3.108433734939759,7.783132530120482,1.674698795180723,8.188841201716738,-2.7449417535254446,2.270999386879215,3.0,0.5054945054945055,1978.2608695652175,15.657828797855604,-44.349629974943184,30.548219800710914,2732.6007326007325,-1.0,74.59988616960729,0.5131913420546264,
2023-08-21 10:24:35.442000,-3.096385542168675,7.710843373493976,1.8554216867469882,8.15205395462906,-2.865113427345187,2.462293071735132,3.0,0.505050505050505,1980.0000000000002,16.89447001922965,-39.296194860439364,26.73142590758114,2695.970695970696,-1.0,74.59988616960729,0.5131730012220693,
2023-08-21 10:24:35.449000,-3.325301204819277,7.686746987951808,1.9036144578313254,8.051502145922747,-3.071122011036174,2.3323114653586754,3.0,0.505050505050505,1980.0000000000002,17.459355515412856,-30.746576539828677,25.357380106054425,2624.175824175824,-1.0,74.59988616960729,0.513153831520233,
2023-08-21 10:24:35.457000,-3.5783132530120483,7.55421686746988,1.9397590361445785,7.823421213979153,-3.4267320662170446,2.5947271612507663,3.0,0.5054945054945055,1978.2608695652175,14.848668492512092,-27.250393333721806,23.342112930481903,2527.4725274725274,-1.0,74.59988616960729,0.5131338117092813,
2023-08-21 10:24:35.465000,-3.662650602409639,7.746987951807229,2.132530120481928,8.142244022072347,-3.3654199877375843,2.7467811158798283,3.0,0.5054945054945055,1978.2608695652175,15.489889866557892,-27.662607074179824,21.342112930481903,2412.454212454212,-1.0,74.59988616960729,0.5131129207346553,
2023-08-21 10:24:35.472000,-3.662650602409639,7.746987951807229,2.132530120481928,8.078479460453709,-3.2746781115879826,2.722256284488044,3.0,0.5054945054945055,1978.2608695652175,17.108210477244917,-29.37253073830196,19.937532777810148,2412.454212454212,-1.0,74.59988616960729,0.5130911374977724,
2023-08-21 10:24:35.480000,-3.4819277108433737,8.012048192771084,2.108433734939759,8.578786020846106,-3.2452483139178416,2.670754138565297,3.0,0.5059385059385059,1976.5247915752525,18.925004370374687,-29.7236757764699,19.43371598391702,2164.102564102564,-1.0,74.59988616960729,0.5130684407775908,
2023-08-21 10:24:35.488000,-3.325301204819277,8.325301204819278,2.0,8.855916615573268,-3.053954629061925,2.570202329858982,3.0,0.5059385059385059,1976.5247915752525,18.329584523046442,-33.20459180700425,18.563486976283432,2043.956043956044,-1.0,74.59988616960729,0.5130448095694006,
2023-08-21 10:24:35.495000,-3.144578313253012,8.590361445783133,1.8674698795180724,9.042305334150827,-2.9043531575720416,2.2979767014101777,3.0,0.5059385059385059,1976.5247915752525,17.0929433016724,-33.89161470776761,16.57875415185595,1926.7399267399267,-1.0,74.59988616960729,0.5130202230099324,
2023-08-21 10:24:35.503000,-3.168674698795181,8.855421686746988,1.6506024096385543,9.319435928877988,-2.9411404046597176,2.099325567136726,3.0,0.5063825063825064,1974.791758000877,15.154012003962473,-39.097721577996616,14.166540411397937,1815.3846153846152,-1.0,74.59988616960729,0.5129946604431596,
2023-08-21 10:24:35.511000,-3.1204819277108435,8.855421686746988,1.4698795180722892,9.135499693439607,-2.8038013488657265,2.001226241569589,3.0,0.5063825063825064,1974.791758000877,13.337218110832701,-38.6855078375386,13.845929724375036,1711.3553113553112,-1.0,74.59988616960729,0.5129681017445594,
2023-08-21 10:24:35.518000,-2.9759036144578315,8.771084337349398,1.5783132530120483,9.135499693439607,-2.695892090741876,2.153280196198651,3.0,0.5063825063825064,1974.791758000877,12.146378416176214,-36.288561272653105,10.044403006817785,1616.117216117216,-1.0,74.59988616960729,0.5129405272431359,
2023-08-21 10:24:35.526000,-2.927710843373494,8.63855421686747,1.5783132530120483,9.030042918454935,-2.6296750459840585,2.148375229920294,3.0,0.5063825063825064,1974.791758000877,12.970805897092244,-31.784744478759976,7.723792319794884,1526.007326007326,-1.0,74.59988616960729,0.5129119176356306,
2023-08-21 10:24:35.534000,-2.8313253012048194,8.650602409638555,1.5180722891566265,9.017780502759043,-2.590435315757204,2.106683016554261,3.0,0.5063825063825064,1974.791758000877,12.833401316939572,-28.792378066546235,6.120738884680381,1445.4212454212454,-1.0,74.59988616960729,0.5128822540414426,
2023-08-21 10:24:35.541000,-2.855421686746988,8.710843373493976,1.5060240963855422,9.189454322501533,-2.624770079705702,2.0159411404046597,3.0,0.5063825063825064,1974.791758000877,12.604393683351786,-23.632072723034785,5.067303770176564,1377.2893772893772,-1.0,74.59988616960729,0.5128515180594094,
2023-08-21 10:24:35.549000,-2.9759036144578315,8.55421686746988,1.4457831325301205,8.90006131207848,-2.838136112814224,2.0208461066830163,3.0,0.5063825063825064,1974.791758000877,11.19981353068003,-20.609171959676008,4.746693083153663,1323.076923076923,-1.0,74.59988616960729,0.5128196916875967,
2023-08-21 10:24:35.557000,-3.1204819277108435,8.409638554216867,1.421686746987952,8.831391784181482,-2.838136112814224,2.0674432863274066,3.0,0.5063825063825064,1974.791758000877,12.19217994289377,-19.830546005477533,5.540586212924656,1283.5164835164835,-1.0,74.59988616960729,0.5127867575426036,
2023-08-21 10:24:35.564000,-3.168674698795181,8.927710843373495,1.457831325301205,9.45677498467198,-3.071122011036174,1.908031882280809,3.0,0.5068265068265068,1973.0617608409989,12.573859332206748,-18.013752112347763,4.044403006817785,1255.6776556776556,-1.0,74.59988616960729,0.5127526989100994,
2023-08-21 10:24:35.572000,-3.168674698795181,8.927710843373495,1.457831325301205,9.351318209687308,-3.088289393010423,1.9865113427345187,3.0,0.5068265068265068,1973.0617608409989,10.176912767321252,-18.364897150515702,4.1512732358254185,1255.6776556776556,-1.0,74.59988616960729,0.5127174999671648,
2023-08-21 10:24:35.580000,-3.204819277108434,9.060240963855422,1.5421686746987953,9.61128142244022,-3.0637645616186386,2.089515634580012,3.0,0.5068265068265068,1973.0617608409989,10.36011887419148,-16.25802692150807,5.4795175106345795,1227.8388278388277,-1.0,74.59988616960729,0.5126811458574178,
2023-08-21 10:24:35.587000,-3.0843373493975905,8.987951807228916,1.493975903614458,9.451870018393622,-2.7988963825873694,2.07725321888412,3.0,0.5068265068265068,1973.0617608409989,11.505157042130412,-12.319095623798146,6.059670182390304,1224.1758241758241,-1.0,74.59988616960729,0.5126436224906041,
2023-08-21 10:24:35.595000,-3.072289156626506,9.144578313253012,1.3975903614457832,9.645616186388718,-2.877375843041079,1.8712446351931329,3.0,0.5068265068265068,1973.0617608409989,10.604393683351786,-8.548103257385932,5.830662548802518,1222.7106227106226,-1.0,74.59988616960729,0.5126049167588113,
2023-08-21 10:24:35.603000,-3.1927710843373496,9.036144578313253,1.349397590361446,9.478847332924586,-3.117719190680564,1.9717964438994482,3.0,0.5068265068265068,1973.0617608409989,9.321950935260183,-9.632072723034787,6.761960258726182,1221.9780219780218,-1.0,74.59988616960729,0.5125650166043233,
2023-08-21 10:24:35.610000,-3.1566265060240966,9.048192771084338,1.457831325301205,9.45677498467198,-3.0,2.148375229920294,3.0,0.5068265068265068,1973.0617608409989,10.19217994289377,-11.509935318454634,8.074937357962824,1222.7106227106226,-1.0,74.59988616960729,0.5125239112269161,
2023-08-21 10:24:35.618000,-3.0481927710843375,9.132530120481928,1.457831325301205,9.586756591048436,-2.730226854690374,2.069895769466585,3.0,0.5068265068265068,1973.0617608409989,11.062408950527358,-10.563370432958452,10.395548044985723,1219.7802197802198,-1.0,74.59988616960729,0.5124815911324547,
2023-08-21 10:24:35.625000,-2.951807228915663,9.180722891566266,1.4457831325301205,9.579399141630901,-2.76701410177805,2.038013488657265,3.0,0.5068265068265068,1973.0617608409989,11.459355515412854,-10.487034555095857,9.906998426665114,1215.3846153846152,-1.0,74.59988616960729,0.5124380479152808,
2023-08-21 10:24:35.633000,-2.91566265060241,9.253012048192772,1.4457831325301205,9.67259350091968,-2.5634580012262416,2.0134886572654813,3.0,0.5063825063825064,1974.791758000877,11.352485286405221,-9.357263562729443,10.029135831245267,1205.128205128205,-1.0,74.59988616960729,0.5123932743486828,
2023-08-21 10:24:35.641000,-2.879518072289157,9.216867469879519,1.3734939759036144,9.677498467198037,-2.6738197424892705,1.9202942979767013,3.0,0.5068265068265068,1973.0617608409989,10.741798263504457,-9.143523104714177,8.700891556436106,1189.7435897435896,-1.0,74.59988616960729,0.5123472645917986,
2023-08-21 10:24:35.648000,-2.855421686746988,9.10843373493976,1.313253012048193,9.451870018393622,-2.654199877375843,1.858982219497241,3.0,0.5068265068265068,1973.0617608409989,10.329584523046442,-7.5404696695996725,7.494784686207098,1168.4981684981685,-1.0,74.59988616960729,0.5123000142252921,
2023-08-21 10:24:35.656000,-2.783132530120482,9.120481927710843,1.3614457831325302,9.623543838136113,-2.5806253832004904,1.9644389944819127,3.0,0.5068265068265068,1973.0617608409989,10.51279062991667,-5.021385700134024,6.532952625138396,1144.3223443223442,-1.0,74.59988616960729,0.5122515203489884,
2023-08-21 10:24:35.664000,-2.710843373493976,9.060240963855422,1.2891566265060241,9.469037400367872,-2.5095033721643163,1.7976701410177804,3.0,0.5068265068265068,1973.0617608409989,10.51279062991667,-5.021385700134024,6.532952625138396,1115.7509157509157,-1.0,74.59988616960729,0.5122017816569255,
2023-08-21 10:24:35.671000,-2.710843373493976,9.060240963855422,1.2891566265060241,9.493562231759656,-2.5340282035561006,1.824647455548743,3.0,0.5068265068265068,1973.0617608409989,10.268515820756365,-0.3954315016607418,5.95279995338267,1115.7509157509157,-1.0,74.59988616960729,0.5121507985001202,
2023-08-21 10:24:35.679000,-2.819277108433735,9.289156626506024,1.313253012048193,9.770692826486817,-2.6394849785407724,1.7755977927651747,3.0,0.5063825063825064,1974.791758000877,9.978439484878503,-0.4106986772332609,5.7085251442223655,1043.2234432234432,-1.0,74.59988616960729,0.5120985729472437,
2023-08-21 10:24:35.687000,-2.7951807228915664,9.506024096385543,1.313253012048193,10.001226241569588,-2.526670754138565,1.8908645003065603,3.0,0.5063825063825064,1974.791758000877,9.138744828389953,-0.8992482955538715,5.174173999184197,1001.4652014652014,-1.0,74.59988616960729,0.5120451088323248,
2023-08-21 10:24:35.694000,-2.7951807228915664,9.44578313253012,1.313253012048193,9.640711220110362,-2.6296750459840585,1.8050275904353157,3.0,0.5063825063825064,1974.791758000877,7.673095973428121,-0.31909562379814643,5.63218926635977,959.7069597069597,-1.0,74.59988616960729,0.5119904116292118,
2023-08-21 10:24:35.702000,-2.8674698795180724,9.590361445783133,1.4096385542168675,10.18761496014715,-2.6125076640098097,2.001226241569589,3.0,0.5059385059385059,1976.5247915752525,5.154012003962473,-2.3648971505157035,6.227609113688014,920.1465201465201,-1.0,74.59988616960729,0.5119344885133696,
2023-08-21 10:24:35.710000,-2.807228915662651,9.63855421686747,1.3975903614457832,9.988963825873697,-2.433476394849785,1.9914163090128754,3.0,0.5059385059385059,1976.5247915752525,4.161645591748733,-4.013752112347764,4.426082396130762,884.9816849816849,-1.0,74.59988616960729,0.5118773484086877,
2023-08-21 10:24:35.717000,-2.63855421686747,9.240963855421688,1.4819277108433735,9.545064377682403,-2.56591048436542,2.0331085223789085,3.0,0.5054945054945055,1978.2608695652175,5.36775246197774,-5.693141425324864,2.1818075869704567,858.6080586080585,-1.0,74.59988616960729,0.5118190020084361,
2023-08-21 10:24:35.725000,-2.710843373493976,9.10843373493976,1.5542168674698795,9.434702636419374,-2.5757204169221337,2.1164929491109747,3.0,0.5054945054945055,1978.2608695652175,6.314317347473923,-1.906881883340131,3.9527999533826708,843.2234432234432,-1.0,74.59988616960729,0.5117594618015618,
2023-08-21 10:24:35.733000,-2.771084337349398,8.91566265060241,1.4698795180722892,9.238503985285101,-2.5683629675045982,2.0208461066830163,3.0,0.5054945054945055,1978.2608695652175,7.886836431443389,-0.5786376085309708,4.1512732358254185,840.2930402930402,-1.0,74.59988616960729,0.5116987420828635,
2023-08-21 10:24:35.740000,-2.9036144578313254,8.831325301204819,1.3734939759036144,9.167381974248926,-2.6713672593500917,1.9497240956468422,3.0,0.5054945054945055,1978.2608695652175,7.8563020802983505,-0.25802692150807005,5.9222656022376325,854.2124542124542,-1.0,74.59988616960729,0.5116368591170231,
2023-08-21 10:24:35.748000,-3.0,8.927710843373495,1.3012048192771084,9.361128142244022,-2.715511955855303,1.9055793991416308,3.0,0.5054945054945055,1978.2608695652175,8.711263912359419,-1.509935318454635,6.074937357962823,879.8534798534798,-1.0,74.59988616960729,0.5115738311583542,
2023-08-21 10:24:35.756000,-2.843373493975904,9.144578313253012,1.3734939759036144,9.635806253832005,-2.6517473942366645,1.8736971183323115,3.0,0.5046065046065046,1981.7421909370878,8.741798263504457,-3.189324631431734,6.456616747275801,913.5531135531135,-1.0,74.59988616960729,0.5115096784647734,
2023-08-21 10:24:35.763000,-2.91566265060241,9.168674698795181,1.2650602409638554,9.61128142244022,-2.737584304107909,1.841814837522992,3.0,0.505050505050505,1980.0000000000002,7.673095973428121,-1.0977215779966196,7.0367694190315255,951.6483516483515,-1.0,74.59988616960729,0.5114444231459382,
2023-08-21 10:24:35.771000,-2.91566265060241,9.168674698795181,1.2650602409638554,9.30226854690374,-2.320662170447578,1.630901287553648,3.0,0.505050505050505,1980.0000000000002,8.51279062991667,-2.7771108909737188,7.311578579336869,951.6483516483515,-1.0,74.59988616960729,0.5113780891114414,
2023-08-21 10:24:35.786000,-2.602409638554217,8.951807228915664,1.144578313253012,9.390557939914162,-2.3402820355610054,1.677498467198038,3.0,0.5054945054945055,1978.2608695652175,7.474622690985374,-1.5710040207447113,6.426082396130762,1079.8534798534797,-1.0,74.59988616960729,0.5113107022346202,
2023-08-21 10:24:35.794000,-2.5903614457831328,8.783132530120483,1.144578313253012,9.09871244635193,-2.404046597179644,1.719190680564071,3.0,0.5054945054945055,1978.2608695652175,6.283782996328885,-0.6549734863935662,4.716158732008625,1111.3553113553112,-1.0,74.59988616960729,0.5112422904990583,
2023-08-21 10:24:35.802000,-2.674698795180723,8.530120481927712,1.108433734939759,8.824034334763947,-2.4629061925199265,1.6873083997547516,3.0,0.5054945054945055,1978.2608695652175,3.7952333780082745,0.856476895285823,4.319212167123129,1135.5311355311355,-1.0,74.59988616960729,0.5111728840003387,
2023-08-21 10:24:35.809000,-2.6867469879518073,8.481927710843374,1.1325301204819278,8.917228694052728,-2.3942366646229307,1.6529736358062537,3.0,0.5054945054945055,1978.2608695652175,4.1921799428937705,0.35266010139269327,4.044403006817785,1153.113553113553,-1.0,74.59988616960729,0.5111025147820085,
2023-08-21 10:24:35.817000,-2.662650602409639,8.493975903614459,1.108433734939759,8.92949110974862,-2.3942366646229307,1.6284488044144696,3.0,0.5054945054945055,1978.2608695652175,2.253248645183847,0.3984616281102505,3.357380106054426,1158.974358974359,-1.0,74.59988616960729,0.5110312168035845,
2023-08-21 10:24:35.825000,-2.63855421686747,8.566265060240964,1.1686746987951808,9.091354996934395,-2.4114040465971796,1.6873083997547516,3.0,0.5059385059385059,1976.5247915752525,1.5356913932754501,-0.07482081463784107,1.9069984266651132,1153.8461538461538,-1.0,74.59988616960729,0.5109590259018426,
2023-08-21 10:24:35.832000,-2.6144578313253013,8.831325301204819,1.2650602409638554,9.368485591661557,-2.3304721030042916,1.765787860208461,3.0,0.5054945054945055,1978.2608695652175,-0.4032399044344735,-0.6702406619660853,0.41081522055824304,1138.4615384615383,-1.0,74.59988616960729,0.510885979894703,
2023-08-21 10:24:35.840000,-2.5180722891566267,8.891566265060241,1.4096385542168675,9.228694052728388,-2.313304721030043,1.9546290619251991,3.0,0.5059385059385059,1976.5247915752525,-3.0139269273352367,-2.1511566925004364,-0.6578870695180928,1115.018315018315,-1.0,74.59988616960729,0.5108121184017522,
2023-08-21 10:24:35.848000,-2.566265060240964,8.903614457831326,1.421686746987952,9.304721030042918,-2.3574494175352543,2.035561005518087,3.0,0.5059385059385059,1976.5247915752525,-3.5788124235184426,-3.1129887535691387,-0.7342229473806882,1086.4468864468863,-1.0,74.59988616960729,0.5107374827759819,
2023-08-21 10:24:35.855000,-2.6144578313253013,8.903614457831326,1.5180722891566265,9.324340895156345,-2.4236664622930717,2.1164929491109747,3.0,0.5059385059385059,1976.5247915752525,-1.9299574616863817,-4.120622341355398,-0.29147485577763477,1054.212454212454,-1.0,74.59988616960729,0.5106621161995233,
2023-08-21 10:24:35.863000,-2.6144578313253013,8.759036144578314,1.530120481927711,9.005518087063152,-2.497240956468424,2.153280196198651,3.0,0.5059385059385059,1976.5247915752525,-2.1284307441291297,-4.639706310821047,-0.33727638249519204,1018.3150183150183,-1.0,74.59988616960729,0.5105860634753909,
2023-08-21 10:24:35.871000,-2.698795180722892,8.710843373493976,1.6144578313253013,9.191906805640711,-2.507050889025138,2.1925199264255055,3.0,0.5059385059385059,1976.5247915752525,-0.4643086067245498,-2.242759745935551,-0.48994813822038286,980.2197802197802,-1.0,74.59988616960729,0.510509370952017,
2023-08-21 10:24:35.878000,-2.698795180722892,8.710843373493976,1.6144578313253013,8.797057020232986,-2.413856529736358,2.148375229920294,3.0,0.5059385059385059,1976.5247915752525,-1.5482780723734046,-2.029019287920284,-1.405978672571528,980.2197802197802,-1.0,74.59988616960729,0.5104320864420381,
2023-08-21 10:24:35.886000,-2.602409638554217,8.542168674698795,1.4819277108433735,9.039852851011648,-2.4212139791538934,2.03065603923973,3.0,0.5063825063825064,1974.791758000877,-0.021560515121496402,-1.4946681428821158,-0.9479634053959554,909.1575091575091,-1.0,74.59988616960729,0.5103542591355524,
2023-08-21 10:24:35.894000,-2.626506024096386,8.831325301204819,1.385542168674699,9.326793378295523,-2.4114040465971796,1.9521765787860208,3.0,0.5063825063825064,1974.791758000877,-0.43377425557951166,-2.410698677233261,-0.42887943593030653,876.1904761904761,-1.0,74.59988616960729,0.5102759396573987,
2023-08-21 10:24:35.901000,-2.698795180722892,9.10843373493976,1.2891566265060241,9.559779276517473,-2.4874310239117103,1.7731453096259961,3.0,0.5063825063825064,1974.791758000877,-1.2582017364955422,-3.021385700134024,0.2886778159780904,847.6190476190476,-1.0,74.59988616960729,0.5101971799920211,
2023-08-21 10:24:35.909000,-2.6867469879518073,9.265060240963855,1.2409638554216869,9.73390557939914,-2.4825260576333537,1.7976701410177804,3.0,0.5063825063825064,1974.791758000877,-2.4643086067245497,-2.303828448225627,1.9375327778101514,825.6410256410256,-1.0,74.59988616960729,0.5101180332447058,
2023-08-21 10:24:35.917000,-2.6144578313253013,9.349397590361447,1.385542168674699,9.851624770079706,-2.384426732066217,2.0453709380748006,3.0,0.5059385059385059,1976.5247915752525,-3.1055299807703514,0.6274692616980367,2.5787541518559527,807.3260073260072,-1.0,74.59988616960729,0.5100385535373916,
2023-08-21 10:24:35.924000,-2.5180722891566267,9.46987951807229,1.4819277108433735,9.927651747394236,-2.3108522378908645,2.158185162477008,3.0,0.5063825063825064,1974.791758000877,-2.1742322708466872,0.7038051395606322,3.0520365946040444,791.2087912087911,-1.0,74.59988616960729,0.5099587957513528,
2023-08-21 10:24:35.932000,-2.433734939759036,9.530120481927712,1.6265060240963856,10.006131207847945,-2.2397302268546904,2.2023298589822193,3.0,0.5063825063825064,1974.791758000877,-1.9146902861138628,-0.9908513489889861,3.6016549152147315,775.8241758241758,-1.0,74.59988616960729,0.5098788155431117,
2023-08-21 10:24:35.940000,-2.3855421686746987,9.46987951807229,1.7349397590361446,9.868792152053954,-2.2348252605763332,2.376456161863887,3.0,0.5059385059385059,1976.5247915752525,-1.9146902861138628,-0.9908513489889861,3.6016549152147315,763.3699633699633,-1.0,74.59988616960729,0.509798669388781,
2023-08-21 10:24:35.947000,-2.4457831325301207,9.301204819277109,1.7590361445783134,9.68976088289393,-2.2691600245248313,2.351931330472103,3.0,0.5063825063825064,1974.791758000877,-1.5177437212283666,-3.0366528757065434,3.891731251092594,753.8461538461538,-1.0,74.59988616960729,0.5097184141785308,
2023-08-21 10:24:35.955000,-2.4939759036144578,9.19277108433735,1.746987951807229,9.638258736971183,-2.2887798896382585,2.3028816676885344,3.0,0.5063825063825064,1974.791758000877,0.008973836023541765,-4.471767379523337,3.525319037352136,747.985347985348,-1.0,74.59988616960729,0.5096381070854755,
2023-08-21 10:24:35.963000,-2.4457831325301207,9.060240963855422,1.674698795180723,9.466584917228694,-2.1391784181483753,2.2219497240956465,3.0,0.5063825063825064,1974.791758000877,1.138744828389954,-5.738942952042421,3.1283724724666397,748.7179487179486,-1.0,74.59988616960729,0.5095578057620923,
2023-08-21 10:24:35.970000,-2.4096385542168677,8.975903614457831,1.5783132530120483,9.314530962599632,-2.166155732679338,2.1385652973635807,3.0,0.5059385059385059,1976.5247915752525,2.4822562787716334,-7.265660509294329,2.395548044985724,756.043956043956,-1.0,74.59988616960729,0.509477568067055,
2023-08-21 10:24:35.978000,-2.4096385542168677,8.975903614457831,1.5783132530120483,9.39301042305334,-2.1072961373390555,2.060085836909871,3.0,0.5059385059385059,1976.5247915752525,3.2914165841151446,-8.685507837538603,-0.047200046617329454,756.043956043956,-1.0,74.59988616960729,0.5093974518017014,
2023-08-21 10:24:35.985000,-2.4096385542168677,9.036144578313253,1.4096385542168675,9.45677498467198,-2.1293684855916615,1.9963212752912323,3.0,0.5059385059385059,1976.5247915752525,3.1234776528174346,-9.189324631431735,-1.8639939397471004,787.5457875457874,-1.0,74.59988616960729,0.5093175146911443,
2023-08-21 10:24:35.993000,-2.4216867469879517,9.168674698795181,1.4096385542168675,9.640711220110362,-2.1710606989576946,2.069895769466585,3.0,0.5059385059385059,1976.5247915752525,3.3830196375502593,-10.822912417691276,-2.9937649321135127,807.3260073260072,-1.0,74.59988616960729,0.5092378142474996,
2023-08-21 10:24:36.001000,-2.4698795180722892,9.265060240963855,1.457831325301205,9.792765174739424,-2.254445125689761,1.9374616799509503,3.0,0.5059385059385059,1976.5247915752525,3.566225744420488,-12.212225394790512,-4.444146611502825,827.106227106227,-1.0,74.59988616960729,0.5091584075050716,
2023-08-21 10:24:36.008000,-2.5421686746987953,9.337349397590362,1.3975903614457832,9.729000613120784,-2.28632740649908,1.9104843654199877,3.0,0.5059385059385059,1976.5247915752525,2.9402715459472057,-12.685507837538603,-5.115902336693665,846.1538461538461,-1.0,74.59988616960729,0.5090793510540222,
2023-08-21 10:24:36.016000,-2.566265060240964,9.289156626506024,1.385542168674699,9.684855916615573,-2.2985898221949723,1.9448191293684856,3.0,0.5059385059385059,1976.5247915752525,2.1311112406036945,-11.800011654332497,-6.03193287104481,860.8058608058608,-1.0,74.59988616960729,0.5090007010435834,
2023-08-21 10:24:36.024000,-2.602409638554217,9.228915662650603,1.349397590361446,9.665236051502145,-2.3574494175352543,1.836909871244635,3.0,0.5059385059385059,1976.5247915752525,0.7112639123594195,-9.143523104714177,-6.734222947380688,868.131868131868,-1.0,74.59988616960729,0.508922512910073,
2023-08-21 10:24:36.031000,-2.566265060240964,9.156626506024097,1.313253012048193,9.660331085223788,-2.2348252605763332,1.883507050889025,3.0,0.5059385059385059,1976.5247915752525,-0.06736204183905366,-6.868713944408833,-7.2991084435638935,870.3296703296703,-1.0,74.59988616960729,0.5088448412561535,
2023-08-21 10:24:36.039000,-2.662650602409639,9.156626506024097,1.3012048192771084,9.56468424279583,-2.3991416309012874,1.7608828939301042,3.0,0.5059385059385059,1976.5247915752525,-1.0902628051978323,-3.021385700134024,-8.5052153137929,868.131868131868,-1.0,74.59988616960729,0.5087677395937297,
2023-08-21 10:24:36.047000,-2.746987951807229,8.975903614457831,1.1927710843373494,9.275291232372776,-2.619865113427345,1.7437155119558552,3.0,0.5059385059385059,1976.5247915752525,-3.7162170036711144,-2.7771108909737188,-10.35254355806771,859.3406593406593,-1.0,74.59988616960729,0.5086912603875391,
2023-08-21 10:24:36.054000,-2.674698795180723,9.024096385542169,1.1686746987951808,9.336603310852237,-2.5168608215818513,1.6627835683629675,3.0,0.5059385059385059,1976.5247915752525,-4.342171202144397,-2.42596585280578,-10.337276382495192,845.4212454212453,-1.0,74.59988616960729,0.5086154550704505,
2023-08-21 10:24:36.062000,-2.6867469879518073,8.91566265060241,1.2530120481927711,9.290006131207848,-2.435928877988964,1.807480073574494,3.0,0.5054945054945055,1978.2608695652175,-5.7009498280985955,0.7954081929957467,-10.810558825243282,826.3736263736263,-1.0,74.59988616960729,0.5085403736469337,
2023-08-21 10:24:36.070000,-2.6867469879518073,8.843373493975903,1.349397590361446,9.243408951563458,-2.406499080318823,2.0257510729613735,3.0,0.505050505050505,1980.0000000000002,-6.540644484587145,1.390828040323991,-11.726589359594428,802.1978021978022,-1.0,74.59988616960729,0.5084660645984184,
2023-08-21 10:24:36.077000,-2.6867469879518073,8.843373493975903,1.349397590361446,9.341508277130595,-2.5830778663396687,2.038013488657265,3.0,0.505050505050505,1980.0000000000002,-6.296369675426839,4.047316589942311,-11.68078783287687,802.1978021978022,-1.0,74.59988616960729,0.508392574739642,
2023-08-21 10:24:36.085000,-2.783132530120482,8.903614457831326,1.4096385542168675,9.292458614347026,-2.6051502145922747,1.9742489270386265,3.0,0.5054945054945055,1978.2608695652175,-6.296369675426839,0.8412097197133039,-11.711322184021908,750.1831501831501,-1.0,74.59988616960729,0.5083199490893715,
2023-08-21 10:24:36.093000,-2.63855421686747,8.903614457831326,1.3734939759036144,9.248313917841815,-2.406499080318823,1.8687921520539545,3.0,0.5054945054945055,1978.2608695652175,-6.8154536448924885,0.1389196433774261,-11.421245848144046,727.4725274725274,-1.0,74.59988616960729,0.5082482310647747,
2023-08-21 10:24:36.100000,-2.734939759036145,8.879518072289157,1.3734939759036144,9.275291232372776,-2.578172900061312,1.9251992642550582,3.0,0.5059385059385059,1976.5247915752525,-7.9299574616863815,2.658003612843075,-13.497581726006642,714.2857142857142,-1.0,74.59988616960729,0.5081774624146194,
2023-08-21 10:24:36.108000,-2.927710843373494,8.819277108433736,1.3253012048192772,9.182096873083998,-2.7866339668914777,1.8786020846106681,3.0,0.5054945054945055,1978.2608695652175,-9.212400209777984,4.428995979255289,-13.604451955014275,715.7509157509157,-1.0,74.59988616960729,0.508107683148132,
2023-08-21 10:24:36.116000,-2.9759036144578315,8.66265060240964,1.313253012048193,8.988350705088902,-2.801348865726548,1.8467198038013488,3.0,0.5054945054945055,1978.2608695652175,-10.601713186877221,2.4442631548278078,-13.51284890157916,735.5311355311355,-1.0,74.59988616960729,0.5080389311929108,
2023-08-21 10:24:36.123000,-2.9036144578313254,8.566265060240964,1.3734939759036144,8.924586143470263,-2.683629675045984,1.8859595340282034,3.0,0.5054945054945055,1978.2608695652175,-10.998659751762718,1.7877746052094872,-13.070100809976108,769.9633699633699,-1.0,74.59988616960729,0.5079712421864649,
2023-08-21 10:24:36.131000,-2.771084337349398,8.626506024096386,1.2650602409638554,9.044757817290005,-2.5757204169221337,1.765787860208461,3.0,0.5054945054945055,1978.2608695652175,-11.746751354816153,1.2686906357438383,-14.627352718373054,816.8498168498168,-1.0,74.59988616960729,0.5079046498382321,
2023-08-21 10:24:36.139000,-2.843373493975904,8.710843373493976,1.216867469879518,9.172286940527284,-2.7498467198038012,1.6578786020846106,3.0,0.5054945054945055,1978.2608695652175,-12.61698036244974,1.2992249868888763,-14.627352718373054,879.1208791208791,-1.0,74.59988616960729,0.5078391858510584,
2023-08-21 10:24:36.146000,-2.927710843373494,8.771084337349398,1.1204819277108435,9.221336603310851,-2.725321888412017,1.5597792765174738,3.0,0.5054945054945055,1978.2608695652175,-14.601713186877221,3.3450265136064337,-14.535749664937939,950.1831501831501,-1.0,74.59988616960729,0.5077748797218704,
2023-08-21 10:24:36.154000,-2.91566265060241,8.734939759036145,1.0120481927710845,9.106069895769465,-2.654199877375843,1.4812998160637645,3.0,0.505050505050505,1980.0000000000002,-17.151331507487907,5.085484528873609,-14.87162752753336,1024.9084249084249,-1.0,74.59988616960729,0.5077117586983916,
2023-08-21 10:24:36.162000,-3.0120481927710845,8.66265060240964,0.8072289156626506,9.066830165542612,-2.8111587982832615,1.2188841201716738,3.0,0.505050505050505,1980.0000000000002,-20.235300973136763,8.291591399102616,-15.497581726006642,1099.6336996336995,-1.0,74.59988616960729,0.5076498475934274,
2023-08-21 10:24:36.169000,-3.036144578313253,8.493975903614459,0.6385542168674699,8.828939301042304,-2.8626609442060085,1.032495401594114,3.0,0.5046065046065046,1981.7421909370878,-23.212400209777982,12.04731658994231,-16.352543558067712,1175.8241758241757,-1.0,74.59988616960729,0.5075891687335204,
2023-08-21 10:24:36.177000,-3.036144578313253,8.493975903614459,0.6385542168674699,8.723482526057634,-2.9117106069895766,0.9098712446351931,3.0,0.5046065046065046,1981.7421909370878,-26.678049064739813,17.451896742614068,-16.352543558067712,1175.8241758241757,-1.0,74.59988616960729,0.5075297419242539,
2023-08-21 10:24:36.185000,-3.2289156626506026,8.024096385542169,0.44578313253012053,8.360515021459227,-3.0147148988350705,0.8166768853464133,3.0,0.5046065046065046,1981.7421909370878,-29.56354524794592,23.329759338033917,-17.986131344327255,1333.3333333333333,-1.0,74.59988616960729,0.5074715844110733,
2023-08-21 10:24:36.192000,-3.2650602409638556,7.83132530120482,0.22891566265060243,8.105456774984672,-3.029429797670141,0.7161250766400981,3.0,0.5041625041625041,1983.4874504623515,-32.815453644892486,29.680904376201855,-20.260940504632597,1419.7802197802198,-1.0,74.59988616960729,0.5074147108671588,
2023-08-21 10:24:36.200000,-3.4096385542168677,7.614457831325302,0.24096385542168675,7.889638258736971,-3.2207234825260573,0.7210300429184548,3.0,0.5041625041625041,1983.4874504623515,-34.815453644892486,36.55113338383544,-20.230406153487557,1511.3553113553112,-1.0,74.59988616960729,0.507359133397787,
2023-08-21 10:24:36.208000,-3.6024096385542173,7.409638554216868,0.24096385542168675,7.690987124463519,-3.421827099938688,0.5861434702636419,3.0,0.5041625041625041,1983.4874504623515,-37.89942311054134,43.72670590291941,-20.642619893945575,1610.989010989011,-1.0,74.59988616960729,0.5073048616472255,
2023-08-21 10:24:36.215000,-3.7831325301204823,7.240963855421687,0.2530120481927711,7.5732679337829545,-3.6033108522378905,0.6695278969957081,3.0,0.5041625041625041,1983.4874504623515,-42.311636850999356,50.474797505972845,-21.314375619136413,1718.6813186813185,-1.0,74.59988616960729,0.5072519027944209,
2023-08-21 10:24:36.223000,-3.951807228915663,7.144578313253012,0.26506024096385544,7.460453709380747,-3.7725321888412013,0.7112201103617413,3.0,0.5037185037185037,1985.235786690172,-42.311636850999356,50.474797505972845,-21.314375619136413,1840.2930402930401,842.59033203125,71.20898225280695,0.50720026156554,
2023-08-21 10:24:36.231000,-4.120481927710844,7.024096385542169,0.3855421686746988,7.367259350091968,-4.025137952176578,0.8044144696505211,3.0,0.5041625041625041,1983.4874504623515,-45.502476545655846,55.17708758230872,-22.24567332906008,1978.021978021978,-1.0,71.20898225280695,0.5071499402421757,
2023-08-21 10:24:36.238000,-4.253012048192772,6.759036144578314,0.39759036144578314,7.028816676885346,-4.081545064377682,0.8559166155732679,3.0,0.5046065046065046,1981.7421909370878,-49.700949828098594,61.42136239146903,-22.36781073364023,2137.7289377289376,-1.0,71.20898225280695,0.5071009387932339,
2023-08-21 10:24:36.246000,-4.265060240963856,6.506024096385542,0.49397590361445787,6.705088902513795,-4.10116492949111,0.9785407725321887,3.0,0.5046065046065046,1981.7421909370878,-53.24293456092302,65.97098071207971,-21.71132218402191,2315.0183150183148,-1.0,71.20898225280695,0.5070532549272397,
2023-08-21 10:24:36.254000,-4.313253012048193,6.518072289156627,0.6265060240963856,6.842427958307786,-4.00797057020233,1.1698344573881054,3.0,0.505050505050505,1980.0000000000002,-57.59407959909096,72.59693491055299,-21.925062642037176,2513.5531135531132,-1.0,71.20898225280695,0.5070068840333931,
2023-08-21 10:24:36.261000,-4.301204819277109,6.819277108433735,0.7590361445783133,7.281422440220723,-4.157572041692213,1.2483139178418148,3.0,0.5046065046065046,1981.7421909370878,-61.456675018938284,76.55113338383543,-23.52811607715168,2724.5421245421244,-1.0,71.20898225280695,0.5069618193848037,
2023-08-21 10:24:36.269000,-4.313253012048193,7.19277108433735,1.108433734939759,7.661557326793378,-4.177191906805641,1.5843041079092581,3.0,0.5041625041625041,1983.4874504623515,-66.38797272886195,78.10838529223238,-25.268574092418856,2806.5934065934066,-1.0,71.20898225280695,0.5069180520601361,
2023-08-21 10:24:36.277000,-4.313253012048193,7.19277108433735,1.108433734939759,7.995095033721642,-4.08399754751686,1.942366646229307,3.0,0.5041625041625041,1983.4874504623515,-71.12079715634287,78.50533185711788,-25.02429928325855,2806.5934065934066,-1.0,71.20898225280695,0.506875570689907,
2023-08-21 10:24:36.284000,-4.216867469879518,7.963855421686747,1.6987951807228916,8.419374616799509,-4.025137952176578,2.177805027590435,3.0,0.5032745032745032,1986.9872077635644,-75.13606433191539,78.10838529223238,-25.71132218402191,2806.5934065934066,-1.0,71.20898225280695,0.5068343617720624,
2023-08-21 10:24:36.292000,-4.156626506024097,8.228915662650603,1.6867469879518073,8.684242795830778,-3.971183323114653,2.2023298589822193,3.0,0.5032745032745032,1986.9872077635644,-79.48720937008333,74.96334712429345,-26.24567332906008,2806.5934065934066,-1.0,71.20898225280695,0.5067944095550386,
2023-08-21 10:24:36.300000,-4.144578313253012,8.060240963855422,1.7349397590361446,8.286940527283875,-3.9957081545064375,2.0502759043531573,3.0,0.5037185037185037,1985.235786690172,-82.70858341588486,69.803041780782,-26.52048248936542,2807.326007326007,-1.0,71.20898225280695,0.5067556959138653,
2023-08-21 10:24:36.307000,-4.216867469879518,7.542168674698796,1.6265060240963856,7.75229920294298,-4.093807480073575,1.888412017167382,3.0,0.5037185037185037,1985.235786690172,-89.47194219451082,67.32975933803391,-28.291474855777636,2806.5934065934066,-1.0,71.20898225280695,0.5067182008468513,
2023-08-21 10:24:36.315000,-4.240963855421687,6.879518072289157,1.5180722891566265,7.021459227467811,-4.106069895769466,1.8197424892703862,3.0,0.5041625041625041,1983.4874504623515,-97.77728570596119,67.66563720062932,-29.71132218402191,2806.5934065934066,-1.0,71.20898225280695,0.5066819025708438,
2023-08-21 10:24:36.323000,-4.27710843373494,6.397590361445784,1.3253012048192772,6.545677498467198,-4.088902513795217,1.6063764561618639,3.0,0.5041625041625041,1983.4874504623515,-106.25056814870928,71.51296544490414,-30.734222947380687,2806.5934065934066,-1.0,71.20898225280695,0.5066467776100748,
2023-08-21 10:24:36.330000,-4.289156626506024,6.168674698795181,1.2530120481927711,6.427958307786634,-4.052115266707541,1.6799509503372163,3.0,0.505050505050505,1980.0000000000002,-112.44904143115203,74.39846162811024,-32.505215313792895,2806.5934065934066,-1.0,71.20898225280695,0.5066128008995089,
2023-08-21 10:24:36.338000,-4.337349397590362,6.168674698795181,1.457831325301205,6.437768240343347,-4.110974862047823,1.9006744328632739,3.0,0.5054945054945055,1978.2608695652175,-116.9833925761902,76.38319445253772,-36.81055882524328,2709.8901098901097,-1.0,71.20898225280695,0.5065799458919943,
2023-08-21 10:24:36.346000,-4.493975903614458,6.530120481927711,1.8554216867469882,7.009196811771918,-4.44206008583691,2.3151440833844266,3.0,0.5054945054945055,1978.2608695652175,-124.70858341588486,81.34502651360643,-41.192238214556255,2508.424908424908,-1.0,71.20898225280695,0.5065481848605763,
2023-08-21 10:24:36.353000,-4.698795180722891,7.19277108433735,2.3373493975903616,7.791538933169834,-4.682403433476394,2.822808093194359,3.0,0.5059385059385059,1976.5247915752525,-130.63224753802226,88.26105704795756,-40.627352718373054,2258.6080586080584,-1.0,71.20898225280695,0.5065174888856829,
2023-08-21 10:24:36.361000,-4.855421686746988,8.048192771084338,2.7228915662650603,8.784794604537094,-4.873697118332311,3.215205395462906,3.0,0.5063825063825064,1974.791758000877,-136.6780490647398,94.99388147543849,-39.13116951226618,1998.5347985347985,-1.0,71.20898225280695,0.5064878279637143,
2023-08-21 10:24:36.368000,-4.975903614457832,8.759036144578314,3.024096385542169,9.206621704475781,-4.949724095646842,3.4114040465971796,3.0,0.5063825063825064,1974.791758000877,-142.73911776702988,100.68853796398811,-39.1464366878387,1767.032967032967,-1.0,71.20898225280695,0.5064591714177418,
2023-08-21 10:24:36.376000,-4.975903614457832,8.759036144578314,3.024096385542169,9.34886572654813,-4.988963825873697,3.4114040465971796,3.0,0.5063825063825064,1974.791758000877,-152.09789639298407,103.92517918536215,-38.78002447409824,1767.032967032967,-1.0,71.20898225280695,0.5064314878651501,
2023-08-21 10:24:36.384000,-4.9879518072289155,8.46987951807229,3.204819277108434,8.507664009809933,-4.959534028203556,3.531575720416922,3.0,0.5059385059385059,1976.5247915752525,-161.1665986830604,104.23052269681253,-38.33727638249519,1500.3663003663003,-1.0,71.20898225280695,0.5064047451785122,
2023-08-21 10:24:36.391000,-4.951807228915663,7.566265060240965,3.1566265060240966,7.467811158798283,-4.819742489270386,3.619865113427345,3.0,0.5063825063825064,1974.791758000877,-168.08262921741155,102.24578987238505,-38.64261989394557,1479.8534798534797,-1.0,71.20898225280695,0.506378910428035,
2023-08-21 10:24:36.399000,-4.903614457831326,6.55421686746988,3.060240963855422,6.496627835683629,-4.78295524218271,3.561005518087063,3.0,0.5063825063825064,1974.791758000877,-171.6398811258085,98.94807994872093,-40.64261989394557,1508.4249084249084,-1.0,71.20898225280695,0.5063539498359448,
2023-08-21 10:24:36.407000,-4.855421686746988,5.686746987951808,3.0120481927710845,5.6407112201103615,-4.697118332311465,3.5193133047210297,3.0,0.5068265068265068,1973.0617608409989,-173.34980478993063,95.36029368917895,-43.90979546646465,1558.974358974359,-1.0,71.20898225280695,0.5063298290718589,
2023-08-21 10:24:36.414000,-4.951807228915663,5.024096385542169,2.891566265060241,5.027590435315757,-4.78295524218271,3.4187614960147146,3.0,0.5068265068265068,1973.0617608409989,-173.85362158382378,91.20762193345375,-49.34490997028145,1610.989010989011,-1.0,71.20898225280695,0.5063065135278623,
2023-08-21 10:24:36.422000,-5.1084337349397595,4.771084337349397,2.5783132530120483,4.956468424279583,-5.001226241569589,2.9944819129368483,3.0,0.5068265068265068,1973.0617608409989,-172.89178952275506,85.20762193345375,-55.45178019928908,1647.6190476190475,-1.0,71.20898225280695,0.5062839684561501,
2023-08-21 10:24:36.430000,-5.19277108433735,4.83132530120482,2.180722891566265,5.042305334150828,-5.057633353770693,2.462293071735132,3.0,0.5068265068265068,1973.0617608409989,-173.80782005710623,79.20762193345375,-60.41361226035778,1668.131868131868,-1.0,71.20898225280695,0.5062621589478773,
2023-08-21 10:24:36.437000,-5.19277108433735,5.1807228915662655,1.927710843373494,5.356223175965665,-4.993868792152053,2.128755364806867,3.0,0.5072705072705072,1971.3347921225386,-179.19713303420545,77.49769826933162,-63.63498630615932,1685.7142857142856,-1.0,71.20898225280695,0.506241050050737,
2023-08-21 10:24:36.445000,-5.072289156626506,5.445783132530121,1.8554216867469882,5.711833231146535,-4.873697118332311,2.0674432863274066,3.0,0.5068265068265068,1973.0617608409989,-187.91469028611385,80.64273643727054,-66.45941378707535,1712.8205128205127,-1.0,71.20898225280695,0.5062206070354277,
2023-08-21 10:24:36.453000,-5.0602409638554215,5.614457831325302,1.8433734939759037,5.780502759043531,-4.832004904966278,2.1336603310852236,3.0,0.5068265068265068,1973.0617608409989,-198.38797272886194,84.21525552124001,-69.75712371073946,1751.6483516483515,-1.0,71.20898225280695,0.5062007953846278,
2023-08-21 10:24:36.460000,-5.0,5.590361445783133,2.072289156626506,5.6995708154506435,-4.836909871244635,2.4549356223175964,3.0,0.5068265068265068,1973.0617608409989,-207.42614066779325,91.60456849833925,-72.32200920692267,1792.6739926739926,-1.0,71.20898225280695,0.5061815808880474,
2023-08-21 10:24:36.468000,-4.879518072289157,5.27710843373494,2.5783132530120483,5.250766400980993,-4.655426118945432,3.0950337216431634,3.0,0.5063825063825064,1974.791758000877,-214.78491929374744,102.73433949070566,-75.55865042829672,1830.7692307692307,-1.0,71.20898225280695,0.5061629297359304,
2023-08-21 10:24:36.476000,-4.879518072289157,5.27710843373494,2.5783132530120483,4.571428571428571,-4.650521152667075,4.15450643776824,3.0,0.5063825063825064,1974.791758000877,-216.72385059145736,115.1618204067362,-81.34490997028145,1830.7692307692307,-1.0,71.20898225280695,0.5061448083541185,
2023-08-21 10:24:36.483000,-4.975903614457832,4.0,3.963855421686747,3.896995708154506,-4.7363580625383195,4.819129368485592,3.0,0.5063825063825064,1974.791758000877,-213.10552998077034,123.02441582658352,-91.65025348173184,1860.07326007326,-1.0,71.20898225280695,0.5061271836409457,
2023-08-21 10:24:36.491000,-5.096385542168675,3.349397590361446,4.506024096385542,3.2985898221949723,-4.836909871244635,5.160024524831392,3.0,0.5068265068265068,1973.0617608409989,-210.2047666219917,124.4442631548278,-102.36781073364023,1838.8278388278386,-1.0,71.20898225280695,0.5061100233498721,
2023-08-21 10:24:36.499000,-5.313253012048193,3.0481927710843375,4.674698795180723,3.1072961373390555,-5.121397915389331,5.309625996321275,3.0,0.5072705072705072,1971.3347921225386,-210.2047666219917,124.4442631548278,-102.36781073364023,1794.8717948717947,-1.0,71.20898225280695,0.5060932961815775,
2023-08-21 10:24:36.506000,-5.55421686746988,2.9759036144578315,4.72289156626506,3.033721643163703,-5.413243408951563,5.221336603310852,3.0,0.5077145077145077,1969.6108439003062,-209.28873608764056,119.49769826933162,-113.16170386341122,1725.2747252747251,-1.0,71.20898225280695,0.5060769719259007,
2023-08-21 10:24:36.514000,-5.771084337349398,3.0120481927710845,4.734939759036145,3.122011036174126,-5.599632127529123,5.236051502145923,3.0,0.508158508158508,1967.889908256881,-211.48720937008332,107.81830895635451,-123.97086416875473,1627.106227106227,-1.0,71.20898225280695,0.5060610217395535,
2023-08-21 10:24:36.522000,-5.819277108433735,3.204819277108434,4.843373493975903,3.3304721030042916,-5.741876149601471,5.3733905579399135,3.0,0.509046509046509,1964.4570431748803,-214.9986597517627,98.74960666627818,-132.18460462677,1495.970695970696,-1.0,71.20898225280695,0.5060454182722137,
2023-08-21 10:24:36.529000,-5.807228915662651,3.349397590361446,5.1084337349397595,3.3304721030042916,-5.702636419374617,5.655426118945432,3.0,0.5086025086025086,1966.1719773024881,-218.00629333954896,90.88701124643086,-137.90979546646466,1322.3443223443223,-1.0,71.20898225280695,0.5060301360782138,
2023-08-21 10:24:36.537000,-5.855421686746988,3.3373493975903616,5.457831325301205,3.354996934396076,-5.786020846106683,6.239117106069895,3.0,0.509046509046509,1964.4570431748803,-220.46430860672453,84.47479750597283,-143.98613134432725,1096.7032967032967,-1.0,71.20898225280695,0.506015151440523,
2023-08-21 10:24:36.545000,-5.975903614457832,3.3012048192771086,6.048192771084338,3.251992642550582,-5.923359901900674,6.987124463519313,3.0,0.5094905094905093,1962.745098039216,-221.13606433191538,78.53586620826292,-149.7265893595944,808.7912087912088,-1.0,71.20898225280695,0.5060004421603157,
2023-08-21 10:24:36.552000,-6.024096385542169,3.132530120481928,6.698795180722892,3.075413856529736,-5.982219497240957,7.592887798896382,3.0,0.5094905094905093,1962.745098039216,-216.81545364489247,73.42136239146902,-154.81055882524328,460.8058608058608,-1.0,71.20898225280695,0.5059859879496396,
2023-08-21 10:24:36.560000,-6.060240963855422,2.91566265060241,7.397590361445784,2.962599632127529,-6.072961373390558,8.441446965052116,3.0,0.5094905094905093,1962.745098039216,-211.57881242351843,71.4824310937591,-160.3525435580677,79.12087912087911,-1.0,71.20898225280695,0.5059717703939647,
2023-08-21 10:24:36.568000,-6.1325301204819285,2.698795180722892,7.987951807228916,2.6535867565910483,-6.296137339055794,8.94665849172287,3.0,0.5099345099345098,1961.036134087941,-204.3574383777169,69.43662956704154,-165.25330691684633,1.465201465201465,-1.0,71.20898225280695,0.5059577728894296,
2023-08-21 10:24:36.575000,-6.1325301204819285,2.698795180722892,7.987951807228916,2.1164929491109747,-6.374616799509503,9.135499693439607,3.0,0.5099345099345098,1961.036134087941,-197.7162170036711,67.20762193345375,-165.89452829089214,1.465201465201465,-1.0,71.20898225280695,0.5059439808629048,
2023-08-21 10:24:36.583000,-6.710843373493976,1.746987951807229,8.44578313253012,1.672593500919681,-6.8626609442060085,9.267933782955241,3.0,0.5099345099345098,1961.036134087941,-192.1284307441291,70.7648738418507,-169.39071149699902,1.465201465201465,-1.0,71.20898225280695,0.5059303818591264,
2023-08-21 10:24:36.591000,-7.385542168674699,1.3614457831325302,8.650602409638555,1.3292458614347025,-7.586143470263641,9.454322501532802,3.0,0.5099345099345098,1961.036134087941,-186.4337742555795,69.49769826933162,-173.34490997028146,1.465201465201465,-1.0,71.20898225280695,0.5059169654631069,
2023-08-21 10:24:36.598000,-8.19277108433735,0.8072289156626506,9.024096385542169,0.7136725935009196,-8.522992029429798,9.851624770079706,3.0,0.5099345099345098,1961.036134087941,-179.25820173649552,68.79540819299574,-172.93269622982342,1.465201465201465,-1.0,71.20898225280695,0.5059037234941658,
2023-08-21 10:24:36.606000,-8.578313253012048,0.43373493975903615,9.421686746987952,0.30901287553648066,-9.251379521765788,10.611894543225015,3.0,0.5099345099345098,1961.036134087941,-170.57117883573216,66.19998834566749,-173.0701008099761,1.465201465201465,-1.0,71.20898225280695,0.5058906500347078,
2023-08-21 10:24:36.614000,-9.301204819277109,-0.024096385542168676,9.91566265060241,-0.0269773145309626,-10.205395462906193,11.072961373390557,3.0,0.5099345099345098,1961.036134087941,-160.1131635685566,57.37556086475147,-168.71895577180817,1.465201465201465,-1.0,71.20898225280695,0.505877741463751,
2023-08-21 10:24:36.621000,-9.602409638554217,-0.5301204819277109,10.228915662650603,-0.5861434702636419,-10.293684855916615,11.45554874310239,3.0,0.5099345099345098,1961.036134087941,-145.70094982809857,29.375560864751474,-153.3754443214265,1.465201465201465,-1.0,71.20898225280695,0.5058649964738033,
2023-08-21 10:24:36.629000,-9.783132530120483,-1.0240963855421688,10.325301204819278,-1.003065603923973,-10.548743102391171,11.337829552421827,3.0,0.5094905094905093,1962.745098039216,-128.1742322708467,1.604568498339258,-139.08536798554863,1.465201465201465,-1.0,71.20898225280695,0.505852416230591,
2023-08-21 10:24:36.637000,-9.963855421686748,-1.1325301204819278,10.602409638554217,-1.0521152667075413,-10.614960147148988,11.840588595953403,3.0,0.5094905094905093,1962.745098039216,-114.40323990443447,-22.25802692150807,-121.1464366878387,1.465201465201465,-1.0,71.20898225280695,0.5058400043458372,
2023-08-21 10:24:36.644000,-10.144578313253012,-1.2530120481927711,11.253012048192772,-1.1624770079705702,-10.67381974248927,12.745554874310239,3.0,0.509046509046509,1964.4570431748803,-100.84598799603752,-37.05192005127906,-107.92506264203718,1.465201465201465,-1.0,71.20898225280695,0.5058277668329884,
2023-08-21 10:24:36.652000,-10.048192771084338,-1.3734939759036144,11.807228915662652,-1.1992642550582464,-10.367259350091967,13.213979153893316,3.0,0.509046509046509,1964.4570431748803,-82.37270555328944,-56.44123302837829,-101.49758172600664,178.75457875457874,-1.0,71.20898225280695,0.5058157120558663,
2023-08-21 10:24:36.660000,-9.963855421686748,-1.216867469879518,12.048192771084338,-1.0275904353157572,-10.232372777437154,13.216431637032494,3.0,0.509046509046509,1964.4570431748803,-64.28110249985433,-72.21222539479052,-98.73422294738069,594.8717948717948,-1.0,71.20898225280695,0.5058038506697382,
2023-08-21 10:24:36.667000,-9.759036144578314,-1.0120481927710845,11.951807228915664,-0.7798896382587369,-10.00674432863274,12.86817903126916,3.0,0.509046509046509,1964.4570431748803,-51.34980478993065,-90.79237806654623,-95.08536798554863,1126.7399267399267,-1.0,71.20898225280695,0.5057921954261049,
2023-08-21 10:24:36.675000,-9.759036144578314,-1.0120481927710845,11.951807228915664,-0.5003065603923973,-9.587369711833231,12.407112201103617,3.0,0.509046509046509,1964.4570431748803,-42.73911776702989,-108.73130936425616,-90.87162752753336,1126.7399267399267,-1.0,71.20898225280695,0.5057807608823071,
2023-08-21 10:24:36.683000,-8.903614457831326,-0.5542168674698795,10.963855421686748,-0.24770079705702022,-9.082158185162477,11.666462293071735,3.0,0.509046509046509,1964.4570431748803,-33.441407843365766,-122.18169104364547,-86.87162752753336,2225.6410256410254,-1.0,71.20898225280695,0.5057695632497993,
2023-08-21 10:24:36.690000,-8.361445783132531,-0.3373493975903615,10.433734939759036,-0.12507664009809932,-8.454322501532802,11.195585530349478,3.0,0.509046509046509,1964.4570431748803,-26.494842957869587,-127.63207272303478,-81.74185653516695,2682.7838827838827,-1.0,71.20898225280695,0.5057586204015849,
2023-08-21 10:24:36.698000,-7.83132530120482,-0.12048192771084337,9.927710843373495,0.14224402207234824,-7.772532188841201,10.756591048436542,3.0,0.509046509046509,1964.4570431748803,-18.464308606724547,-124.7618437154012,-78.2609405046326,2807.326007326007,-1.0,71.20898225280695,0.5057479521251608,
2023-08-21 10:24:36.706000,-7.096385542168675,0.07228915662650603,9.325301204819278,0.3384426732066217,-7.002452483139178,10.015941140404658,3.0,0.5094905094905093,1962.745098039216,-10.876522347182565,-117.99848493677524,-77.19223821455627,2806.5934065934066,-1.0,71.20898225280695,0.5057375800676757,
2023-08-21 10:24:36.713000,-6.397590361445784,0.3373493975903615,8.289156626506024,0.6106683016554261,-6.229920294297976,8.71122011036174,3.0,0.5094905094905093,1962.745098039216,-6.113163568556611,-112.68550783753861,-76.84109317638833,2806.5934065934066,-1.0,71.20898225280695,0.5057275276826252,
2023-08-21 10:24:36.721000,-5.83132530120482,0.4096385542168675,7.518072289156627,0.5714285714285714,-5.629061925199264,8.039239730226853,3.0,0.5094905094905093,1962.745098039216,-4.861255171610046,-107.0061185245615,-77.10063516112115,2806.5934065934066,-1.0,71.20898225280695,0.5057178201994535,
2023-08-21 10:24:36.729000,-5.566265060240964,0.060240963855421686,7.457831325301205,0.13733905579399142,-5.567749846719804,8.176578786020846,3.0,0.5099345099345098,1961.036134087941,-4.372705553289435,-91.78474447875998,-76.67315424509061,2806.5934065934066,-1.0,71.20898225280695,0.5057084844145515,
2023-08-21 10:24:36.736000,-5.518072289156627,-0.42168674698795183,7.975903614457832,-0.3408951563458001,-5.518700183936235,8.870631514408338,3.0,0.5099345099345098,1961.036134087941,0.421187576481557,-66.16642386807295,-74.6578870695181,2806.5934065934066,-1.0,71.20898225280695,0.5056995487722772,
2023-08-21 10:24:36.744000,-6.0361445783132535,-0.9156626506024097,7.987951807228916,-0.8657265481299815,-6.1931330472103,8.865726548129981,3.0,0.5099345099345098,1961.036134087941,10.253248645183847,-42.6855078375386,-73.23803974127382,2806.5934065934066,-1.0,71.20898225280695,0.5056910434386473,
2023-08-21 10:24:36.751000,-6.385542168674699,-1.2409638554216869,8.120481927710843,-1.155119558553035,-6.5070508890251375,8.873083997547516,3.0,0.5099345099345098,1961.036134087941,15.825767729153315,-25.326729211584404,-71.23803974127382,2806.5934065934066,-1.0,71.20898225280695,0.5056830001985827,
2023-08-21 10:24:36.759000,-6.614457831325302,-1.349397590361446,7.9397590361445785,-1.2409564684242795,-6.710606989576946,8.595953402820355,3.0,0.5103785103785103,1959.3301435406702,19.963172309305985,-15.158790280286695,-69.58918477944177,2806.5934065934066,-1.0,71.20898225280695,0.5056754523263857,
2023-08-21 10:24:36.767000,-6.734939759036145,-1.4337349397590362,7.590361445783133,-1.3194359288779889,-6.845493562231759,8.100551808706316,3.0,0.5099345099345098,1961.036134087941,21.55095856884797,-9.494668142882116,-68.33727638249519,2806.5934065934066,-1.0,71.20898225280695,0.5056684344719217,
2023-08-21 10:24:36.774000,-6.734939759036145,-1.4337349397590362,7.590361445783133,-1.4396076026977314,-6.843041079092581,7.882280809319435,3.0,0.5099345099345098,1961.036134087941,21.55095856884797,-9.494668142882116,-68.33727638249519,2806.5934065934066,-1.0,71.20898225280695,0.5056619824136425,
2023-08-21 10:24:36.782000,-6.746987951807229,-1.493975903614458,7.072289156626506,-1.280196198651134,-6.610055180870631,7.791538933169834,3.0,0.5103785103785103,1959.3301435406702,20.695996736786903,-3.8152788299050164,-65.58918477944177,2806.5934065934066,-1.0,71.20898225280695,0.5056561326360575,
2023-08-21 10:24:36.790000,-6.349397590361446,-1.385542168674699,6.518072289156627,-1.196811771919068,-6.1440833844267315,6.879215205395463,3.0,0.5103785103785103,1959.3301435406702,22.757065439076978,2.154186818949945,-65.89452829089214,2806.5934065934066,-1.0,71.20898225280695,0.5056509226474386,
2023-08-21 10:24:36.797000,-6.144578313253012,-1.4096385542168675,6.313253012048193,-1.285101164929491,-6.048436541998774,6.705088902513795,3.0,0.5099345099345098,1961.036134087941,24.986073072664762,13.100751704446127,-69.72658935959443,2753.113553113553,-1.0,71.20898225280695,0.5056463909955241,
2023-08-21 10:24:36.805000,-6.168674698795181,-1.3012048192771084,5.975903614457832,-1.1624770079705702,-6.048436541998774,6.545677498467198,3.0,0.5099345099345098,1961.036134087941,18.802866965794536,21.665637200629334,-72.36781073364023,2637.362637362637,-1.0,71.20898225280695,0.5056425766944777,
2023-08-21 10:24:36.813000,-6.349397590361446,-1.2409638554216869,5.72289156626506,-1.1600245248313916,-6.281422440220723,6.300429184549356,3.0,0.5099345099345098,1961.036134087941,15.260882232970106,29.451896742614068,-76.79529164967077,2501.098901098901,-1.0,71.20898225280695,0.5056395190642068,
2023-08-21 10:24:36.820000,-6.566265060240964,-1.457831325301205,5.759036144578314,-1.4028203556100551,-6.607602697731453,6.437768240343347,3.0,0.5099345099345098,1961.036134087941,16.497523454344154,35.51296544490415,-81.1464366878387,2358.974358974359,-1.0,71.20898225280695,0.505637257726058,
2023-08-21 10:24:36.828000,-6.843373493975904,-1.7710843373493976,5.975903614457832,-1.7903126916002452,-7.0,6.702636419374617,3.0,0.5099345099345098,1961.036134087941,17.260882232970108,43.57403414719422,-83.16170386341122,2224.908424908425,-1.0,71.20898225280695,0.5056358325962989,
2023-08-21 10:24:36.836000,-7.048192771084338,-2.0843373493975905,6.168674698795181,-2.0453709380748006,-7.156958920907418,6.786020846106682,3.0,0.5099345099345098,1961.036134087941,19.947905133733467,49.89464483421712,-83.9403298176097,2101.8315018315016,-1.0,71.20898225280695,0.5056352838575583,
2023-08-21 10:24:36.843000,-7.325301204819278,-2.3734939759036147,6.072289156626506,-2.4058859595340283,-7.394849785407725,6.538320049049663,3.0,0.5099345099345098,1961.036134087941,23.001340248237284,54.06258376551483,-82.42887943593031,1994.139194139194,-1.0,71.20898225280695,0.5056356519199259,
2023-08-21 10:24:36.851000,-7.457831325301205,-2.5301204819277108,5.855421686746988,-2.452483139178418,-7.497854077253218,6.283261802575107,3.0,0.5099345099345098,1961.036134087941,21.459355515412856,56.42899597925529,-83.37544432142649,1900.3663003663003,-1.0,71.20898225280695,0.505636977362236,
2023-08-21 10:24:36.859000,-7.602409638554217,-2.626506024096386,5.602409638554217,-2.5849172286940525,-7.689147762109135,6.160637645616186,3.0,0.5099345099345098,1961.036134087941,18.86393566808461,57.528232620476665,-83.00903210768604,1819.047619047619,-1.0,71.20898225280695,0.5056393003100419,
2023-08-21 10:24:36.866000,-7.987951807228916,-2.63855421686747,5.457831325301205,-2.523605150214592,-7.868179031269159,5.687308399754752,3.0,0.5099345099345098,1961.036134087941,16.818134141367054,57.345026513606435,-83.2991084435639,1750.9157509157508,-1.0,71.20898225280695,0.5056426600158788,
2023-08-21 10:24:36.874000,-7.987951807228916,-2.63855421686747,5.457831325301205,-2.621704475781729,-7.96137339055794,5.545064377682404,3.0,0.5099345099345098,1961.036134087941,9.276149408542626,65.10075170444613,-89.69605500844939,1750.9157509157508,-1.0,71.20898225280695,0.5056470948657058,
2023-08-21 10:24:36.882000,-7.674698795180723,-2.662650602409639,4.927710843373494,-2.6486817903126916,-7.627835683629675,5.2777437155119555,3.0,0.5099345099345098,1961.036134087941,4.131111240603694,66.74960666627818,-90.48994813822038,1665.201465201465,-1.0,71.20898225280695,0.5056526422367893,
2023-08-21 10:24:36.889000,-7.771084337349398,-2.4698795180722892,4.951807228915663,-2.2832618025751072,-7.885346413243409,5.628448804414469,3.0,0.5099345099345098,1961.036134087941,0.3448516986189616,70.7648738418507,-90.0166656954723,1646.8864468864467,-1.0,71.20898225280695,0.5056593383569034,
2023-08-21 10:24:36.897000,-7.746987951807229,-2.216867469879518,4.759036144578314,-2.0527283874923357,-7.782342121397915,4.949110974862047,3.0,0.5099345099345098,1961.036134087941,0.4059204009090379,69.83357613192703,-87.92506264203718,1643.2234432234432,-1.0,71.20898225280695,0.5056672184429188,
2023-08-21 10:24:36.905000,-7.518072289156627,-2.204819277108434,4.349397590361446,-2.1753525444512567,-7.539546290619252,4.284488044144696,3.0,0.5094905094905093,1962.745098039216,-11.059728454052793,76.68853796398811,-86.64261989394558,1655.6776556776556,-1.0,71.20898225280695,0.5056763168010919,
2023-08-21 10:24:36.912000,-7.433734939759036,-2.27710843373494,4.385542168674699,-2.317596566523605,-6.9068056407112195,4.865726548129981,3.0,0.5099345099345098,1961.036134087941,-28.2658353242818,84.07785094108735,-85.28384126799138,1685.7142857142856,-1.0,71.20898225280695,0.5056866663463502,
2023-08-21 10:24:36.920000,-7.289156626506024,-2.289156626506024,4.132530120481928,-2.177805027590435,-7.041692213366033,4.407112201103617,3.0,0.5099345099345098,1961.036134087941,-32.73911776702989,97.83357613192703,-97.97086416875473,1732.6007326007325,-1.0,71.20898225280695,0.5056982982857069,
2023-08-21 10:24:36.928000,-7.987951807228916,-2.1204819277108435,3.7228915662650603,-2.03065603923973,-8.370938074800735,3.686082158185162,3.0,0.5099345099345098,1961.036134087941,-38.5864460113047,112.21525552124001,-107.2227725657013,1792.6739926739926,-1.0,71.20898225280695,0.5057112421462623,
2023-08-21 10:24:36.935000,-9.55421686746988,-2.4698795180722892,3.6385542168674703,-2.732066217044758,-10.649294911097485,4.105456774984671,3.0,0.5099345099345098,1961.036134087941,-50.769652118174925,122.2915913991026,-105.36017714585397,1868.8644688644688,-1.0,71.20898225280695,0.5057255254991704,
2023-08-21 10:24:36.943000,-11.216867469879519,-3.433734939759036,3.8674698795180724,-3.713059472716125,-11.985898221949723,4.515021459227468,3.0,0.5099345099345098,1961.036134087941,-53.33453761435813,111.009148651011,-94.2609405046326,1958.974358974359,-1.0,71.20898225280695,0.5057411736989638,
