Shimmer_F5D4_Timestamp_FormattedUnix_CAL,Shimmer_F5D4_Accel_LN_X_CAL,Shimmer_F5D4_Accel_LN_Y_CAL,Shimmer_F5D4_Accel_LN_Z_CAL,Shimmer_F5D4_Accel_WR_X_CAL,Shimmer_F5D4_Accel_WR_Y_CAL,Shimmer_F5D4_Accel_WR_Z_CAL,Shimmer_F5D4_GSR_Range_CAL,Shimmer_F5D4_GSR_Skin_Conductance_CAL,Shimmer_F5D4_GSR_Skin_Resistance_CAL,Shimmer_F5D4_Gyro_X_CAL,Shimmer_F5D4_Gyro_Y_CAL,Shimmer_F5D4_Gyro_Z_CAL,Shimmer_F5D4_PPG_A13_CAL,Shimmer_F5D4_PPG_IBI_CAL,Shimmer_F5D4_PPGtoHR_CAL,Shimmer_F5D4_GSR_Skin_Conductance_LPF_CAL,
yyyy/mm/dd hh:mm:ss.000,m/(s^2),m/(s^2),m/(s^2),m/(s^2),m/(s^2),m/(s^2),no_units,uS,kOhms,deg/s,deg/s,deg/s,mV,ms,BPM,uS,
2023-08-11 20:00:22.576000,-8.771084337349398,-0.674698795180723,-4.289156626506024,-0.5714285714285714,-8.621091354996935,-3.896995708154506,3.0,0.5863025863025862,1705.60393790231,-0.20255229881708603,-0.18157450032049383,-0.10663714235767148,1648.3516483516482,-1.0,97.91235059760956,0.5868728491743255,
2023-08-11 20:00:22.584000,-8.771084337349398,-0.6867469879518072,-4.301204819277109,-0.5959534028203556,-8.606376456161863,-3.9534028203556097,3.0,0.5863025863025862,1705.60393790231,-0.0953324398345082,0.050113629741856874,0.17026979779733098,1670.3296703296703,-1.0,97.91235059760956,0.586863608770991,
2023-08-11 20:00:22.592000,-8.759036144578314,-0.674698795180723,-4.313253012048193,-0.6180257510729613,-8.608828939301041,-3.9411404046597176,3.0,0.5863025863025862,1705.60393790231,-0.3091894411747562,0.06736204183905366,0.1553522521997553,1682.7838827838827,-1.0,97.91235059760956,0.5868542534773258,
2023-08-11 20:00:22.599000,-8.759036144578314,-0.6867469879518072,-4.325301204819278,-0.5836909871244634,-8.608828939301041,-3.955855303494788,3.0,0.5863025863025862,1705.60393790231,-0.03484645416933779,-0.008973836023541765,-0.029368917895227633,1686.4468864468863,-1.0,97.91235059760956,0.5868447865866253,
2023-08-11 20:00:22.607000,-8.771084337349398,-0.6867469879518072,-4.301204819277109,-0.5910484365419988,-8.61128142244022,-3.9313304721030042,3.0,0.5858585858585857,1706.8965517241381,-0.1721344909970287,-0.15954781189907408,0.01969582192179955,1679.120879120879,-1.0,97.91235059760956,0.5868352113937699,
2023-08-11 20:00:22.615000,-8.783132530120483,-0.674698795180723,-4.325301204819278,-0.6670754138565297,-8.630901287553648,-4.007357449417535,3.0,0.5858585858585857,1706.8965517241381,0.08682477711089152,-0.17341646757181964,-0.17854437387098643,1665.9340659340658,-1.0,97.91235059760956,0.5868255310507869,
2023-08-11 20:00:22.622000,-8.795180722891567,-0.674698795180723,-4.325301204819278,-0.6548129981606376,-8.621091354996935,-3.9705702023298586,3.0,0.5858585858585857,1706.8965517241381,-0.2478876522347182,0.07202377483829579,0.11374628518151639,1643.956043956044,-1.0,97.91235059760956,0.5868157485503901,
2023-08-11 20:00:22.630000,-8.771084337349398,-0.6626506024096386,-4.325301204819278,-0.5910484365419988,-8.670141017780502,-4.01471489883507,3.0,0.5858585858585857,1706.8965517241381,0.07248994813822088,0.25359827515878963,0.08367810733640244,1616.117216117216,-1.0,97.91235059760956,0.5868058668689682,
2023-08-11 20:00:22.638000,-8.783132530120483,-0.6626506024096386,-4.349397590361446,-0.6302881667688535,-8.635806253832005,-3.948497854077253,3.0,0.5863025863025862,1705.60393790231,-0.0816968708117243,-0.022609405046325665,0.1770293106462325,1584.6153846153845,-1.0,97.91235059760956,0.5867958888323482,
2023-08-11 20:00:22.645000,-8.795180722891567,-0.674698795180723,-4.325301204819278,-0.5836909871244634,-8.59656652360515,-3.926425505824647,3.0,0.5858585858585857,1706.8965517241381,-0.05046325971679939,0.144280636326555,0.1601305285239787,1550.18315018315,-1.0,97.91235059760956,0.5867858174289636,
2023-08-11 20:00:22.653000,-8.783132530120483,-0.6626506024096386,-4.313253012048193,-0.5567136725935009,-8.640711220110362,-3.9705702023298586,3.0,0.5858585858585857,1706.8965517241381,-0.11269739525668582,0.2802866965794532,-0.3751529631140377,1514.2857142857142,-1.0,97.91235059760956,0.5867756556762311,
2023-08-11 20:00:22.661000,-8.759036144578314,-0.6626506024096386,-4.313253012048193,-0.5640711220110362,-8.625996321275291,-3.948497854077253,3.0,0.5863025863025862,1705.60393790231,0.039624730493560766,0.0658469786142993,0.08624206048598561,1480.5860805860805,-1.0,97.91235059760956,0.5867654063379667,
2023-08-11 20:00:22.668000,-8.734939759036145,-0.6626506024096386,-4.325301204819278,-0.6425505824647455,-8.621091354996935,-3.977927651747394,3.0,0.5858585858585857,1706.8965517241381,0.14521298292640342,0.3562729444671061,-0.09836256628401603,1451.2820512820513,-1.0,97.91235059760956,0.5867550723659622,
2023-08-11 20:00:22.676000,-8.771084337349398,-0.6626506024096386,-4.27710843373494,-0.5174739423666462,-8.594114040465971,-3.960760269773145,3.0,0.5858585858585857,1706.8965517241381,0.14113396655206545,0.35417516461744586,-0.09731367635918634,1426.3736263736262,-1.0,97.91235059760956,0.5867446567770406,
2023-08-11 20:00:22.684000,-8.759036144578314,-0.6626506024096386,-4.289156626506024,-0.5591661557326794,-8.603923973022685,-3.9460453709380747,3.0,0.5858585858585857,1706.8965517241381,-0.05908746576539864,0.0019812365246776914,0.08542625721111802,1404.3956043956043,-1.0,97.91235059760956,0.5867341624987668,
2023-08-11 20:00:22.691000,-8.74698795180723,-0.6506024096385542,-4.301204819277109,-0.598405885959534,-8.662783568362967,-3.9092581238503983,3.0,0.5863025863025862,1705.60393790231,-0.028086941320435394,-0.011071615873200292,0.14474680962647876,1385.3479853479853,-1.0,97.91235059760956,0.5867235925131546,
2023-08-11 20:00:22.699000,-8.74698795180723,-0.674698795180723,-4.313253012048193,-0.615573267933783,-8.633353770692827,-3.9117106069895766,3.0,0.5858585858585857,1706.8965517241381,0.23320319328710504,0.05430918944117393,-0.008274576073655443,1371.4285714285713,-1.0,97.91235059760956,0.5867129500109793,
2023-08-11 20:00:22.707000,-8.771084337349398,-0.674698795180723,-4.27710843373494,-0.5910484365419988,-8.64316370324954,-3.9313304721030042,3.0,0.5858585858585857,1706.8965517241381,0.1252840743546422,-0.26676767088165015,0.06794475846395914,1361.1721611721612,-1.0,97.91235059760956,0.5867022384081245,
2023-08-11 20:00:22.714000,-8.771084337349398,-0.6506024096385542,-4.301204819277109,-0.598405885959534,-8.650521152667075,-3.9730226854690374,3.0,0.5858585858585857,1706.8965517241381,0.10675368568265274,0.010022725948371029,-0.09871219625895941,1348.7179487179487,-1.0,97.91235059760956,0.5866914610324769,
2023-08-11 20:00:22.722000,-8.771084337349398,-0.6867469879518072,-4.301204819277109,-0.6033108522378908,-8.62844880441447,-4.004904966278357,3.0,0.5858585858585857,1706.8965517241381,-0.3209603169978433,0.1029077559582782,-0.12947963405395968,1337.7289377289376,635.772705078125,94.37334997359957,0.5866806212788352,
2023-08-11 20:00:22.730000,-8.771084337349398,-0.674698795180723,-4.27710843373494,-0.5861434702636419,-8.665236051502145,-4.036787247087676,3.0,0.5858585858585857,1706.8965517241381,0.1537206456500201,-0.5824835382553472,-0.06642969523920522,1327.4725274725274,-1.0,94.37334997359957,0.5866697227424676,
2023-08-11 20:00:22.737000,-8.759036144578314,-0.6626506024096386,-4.337349397590362,-0.6057633353770693,-8.655426118945432,-3.936235438381361,3.0,0.5858585858585857,1706.8965517241381,-8.15803274867591E-4,0.21513897791504066,-0.019229648621875334,1318.6813186813185,-1.0,94.37334997359957,0.5866587689367643,
2023-08-11 20:00:22.745000,-8.74698795180723,-0.6506024096385542,-4.325301204819278,-0.5935009196811771,-8.59656652360515,-4.002452483139178,3.0,0.5858585858585857,1706.8965517241381,-0.13763766680263342,-0.24369209253539942,0.027271138045568237,1311.3553113553112,-1.0,94.37334997359957,0.5866477633188131,
2023-08-11 20:00:22.753000,-8.771084337349398,-0.6626506024096386,-4.325301204819278,-0.5419987737584304,-8.616186388718576,-3.965665236051502,3.0,0.5858585858585857,1706.8965517241381,-0.2900763358778626,-0.27166249053085395,-0.11071615873200856,1305.4945054945053,-1.0,94.37334997359957,0.5866367094420281,
2023-08-11 20:00:22.760000,-8.74698795180723,-0.6506024096385542,-4.337349397590362,-0.657265481299816,-8.655426118945432,-3.914163090128755,3.0,0.5854145854145854,1708.1911262798637,-0.21257502476545706,-0.008041489423693338,0.04242177029310648,1299.6336996336995,-1.0,94.37334997359957,0.5866256109590794,
2023-08-11 20:00:22.768000,-8.783132530120483,-0.6867469879518072,-4.325301204819278,-0.615573267933783,-8.630901287553648,-3.987737584304108,3.0,0.5854145854145854,1708.1911262798637,-0.2271429403880894,-0.03484645416933779,0.1491754559757588,1294.5054945054944,-1.0,94.37334997359957,0.5866144716138162,
2023-08-11 20:00:22.776000,-8.771084337349398,-0.6867469879518072,-4.313253012048193,-0.5567136725935009,-8.702023298589822,-3.9730226854690374,3.0,0.5858585858585857,1706.8965517241381,-0.25732766155818504,0.08868947031058838,-0.2793543499796048,1293.7728937728937,-1.0,94.37334997359957,0.5866032950622305,
2023-08-11 20:00:22.783000,-8.759036144578314,-0.6987951807228916,-4.325301204819278,-0.6033108522378908,-8.638258736971183,-3.9705702023298586,3.0,0.5858585858585857,1706.8965517241381,-0.07726822446244384,0.3160654973486394,0.13460754035312647,1292.3076923076922,-1.0,94.37334997359957,0.5865920850326263,
2023-08-11 20:00:22.791000,-8.795180722891567,-0.6626506024096386,-4.325301204819278,-0.5763335377069282,-8.702023298589822,-3.977927651747394,3.0,0.5858585858585857,1706.8965517241381,0.12085542800536173,0.20336810209195189,0.21047724491579722,1291.5750915750914,-1.0,94.37334997359957,0.586580845495565,
2023-08-11 20:00:22.799000,-8.74698795180723,-0.6506024096385542,-4.349397590361446,-0.6376456161863887,-8.655426118945432,-3.9337829552421826,3.0,0.5863025863025862,1705.60393790231,-0.03251558766971586,-0.090204533535341,-0.09451663655964106,1292.3076923076922,-1.0,94.37334997359957,0.5865695805247904,
2023-08-11 20:00:22.806000,-8.771084337349398,-0.6385542168674699,-4.301204819277109,-0.5567136725935009,-8.608828939301041,-3.936235438381361,3.0,0.5858585858585857,1706.8965517241381,-0.03274867431967753,0.0927684866849246,0.3190956237981468,1298.168498168498,-1.0,94.37334997359957,0.5865582944455748,
2023-08-11 20:00:22.814000,-8.74698795180723,-0.6626506024096386,-4.337349397590362,-0.5787860208461066,-8.64316370324954,-3.936235438381361,3.0,0.5858585858585857,1706.8965517241381,0.2132742847153421,0.0597867257152854,-0.1885670998193579,1305.4945054945053,-1.0,94.37334997359957,0.586546991705711,
2023-08-11 20:00:22.822000,-8.734939759036145,-0.6506024096385542,-4.313253012048193,-0.5542611894543225,-8.630901287553648,-3.9632127529123236,3.0,0.5858585858585857,1706.8965517241381,0.012353592447992964,-0.17026979779733184,-0.1571004020744713,1312.8205128205127,-1.0,94.37334997359957,0.5865356767143284,
2023-08-11 20:00:22.829000,-8.734939759036145,-0.6626506024096386,-4.301204819277109,-0.5616186388718577,-8.616186388718576,-3.960760269773145,3.0,0.5858585858585857,1706.8965517241381,0.014684458947613166,0.015849892197425,0.14637841617621353,1318.6813186813185,-1.0,94.37334997359957,0.5865243539779106,
2023-08-11 20:00:22.837000,-8.74698795180723,-0.6626506024096386,-4.313253012048193,-0.6057633353770693,-8.606376456161863,-3.955855303494788,3.0,0.5858585858585857,1706.8965517241381,-0.06071907231513382,-0.31618204067362027,-0.09941145620884573,1324.5421245421244,-1.0,94.37334997359957,0.5865130280968825,
2023-08-11 20:00:22.845000,-8.783132530120483,-0.674698795180723,-4.313253012048193,-0.5836909871244634,-8.618638871857755,-3.9435928877988964,3.0,0.5858585858585857,1706.8965517241381,-0.17994289377075864,-0.11094924538197154,-0.23588368976166904,1331.135531135531,-1.0,94.37334997359957,0.5865017037615056,
2023-08-11 20:00:22.852000,-8.795180722891567,-0.6867469879518072,-4.27710843373494,-0.551808706315144,-8.640711220110362,-3.9803801348865724,3.0,0.5858585858585857,1706.8965517241381,-0.01048889924829611,0.04358720354291789,0.16211176504865682,1335.5311355311355,-1.0,94.37334997359957,0.5864903857470867,
2023-08-11 20:00:22.860000,-8.795180722891567,-0.6626506024096386,-4.313253012048193,-0.615573267933783,-8.603923973022685,-3.9803801348865724,3.0,0.5858585858585857,1706.8965517241381,-0.13239321717848537,0.6244391352485281,0.06852747508886418,1338.4615384615383,-1.0,94.37334997359957,0.5864790789085012,
2023-08-11 20:00:22.868000,-8.72289156626506,-0.674698795180723,-4.289156626506024,-0.6033108522378908,-8.650521152667075,-3.948497854077253,3.0,0.5858585858585857,1706.8965517241381,-0.13239321717848537,0.4059204009090379,0.32795291649670777,1341.3919413919414,-1.0,94.37334997359957,0.5864677881740439,
2023-08-11 20:00:22.875000,-8.74698795180723,-0.6867469879518072,-4.325301204819278,-0.5861434702636419,-8.655426118945432,-3.9411404046597176,3.0,0.5858585858585857,1706.8965517241381,-0.2235300973136765,0.17364955422178133,0.23331973661208544,1345.054945054945,-1.0,94.37334997359957,0.5864565185386171,
2023-08-11 20:00:22.883000,-8.783132530120483,-0.6867469879518072,-4.313253012048193,-0.5836909871244634,-8.625996321275291,-3.90680564071122,3.0,0.5858585858585857,1706.8965517241381,-0.22213157741390302,0.6275858050230176,-0.013985198997727278,1348.7179487179487,-1.0,94.37334997359957,0.5864452750562787,
2023-08-11 20:00:22.890000,-8.771084337349398,-0.6626506024096386,-4.337349397590362,-0.6646229307173512,-8.687308399754752,-3.960760269773145,3.0,0.5858585858585857,1706.8965517241381,0.02284249169628734,0.6082396130761606,0.2321543033622749,1349.4505494505493,-1.0,94.37334997359957,0.5864340628321689,
2023-08-11 20:00:22.898000,-8.771084337349398,-0.6867469879518072,-4.301204819277109,-0.5444512568976088,-8.633353770692827,-3.9043531575720416,3.0,0.5858585858585857,1706.8965517241381,-0.3431035487442456,-0.037293863993940565,0.42876289260532613,1350.18315018315,-1.0,94.37334997359957,0.5864228870138485,
2023-08-11 20:00:22.906000,-8.795180722891567,-0.674698795180723,-4.313253012048193,-0.5787860208461066,-8.591661557326793,-3.9509503372164314,3.0,0.5858585858585857,1706.8965517241381,-0.2320377600372932,0.0867082337859107,0.39554804498572355,1349.4505494505493,-1.0,94.37334997359957,0.5864117527820756,
2023-08-11 20:00:22.913000,-8.771084337349398,-0.674698795180723,-4.301204819277109,-0.5616186388718577,-8.650521152667075,-3.9435928877988964,3.0,0.5854145854145854,1708.1911262798637,-0.01619952217236751,0.2548802517335823,0.4694365130237166,1344.3223443223442,-1.0,94.37334997359957,0.5864006652023133,
2023-08-11 20:00:22.921000,-8.783132530120483,-0.6867469879518072,-4.301204819277109,-0.6253832004904966,-8.684855916615573,-3.955855303494788,3.0,0.5854145854145854,1708.1911262798637,-0.060952158965095496,-0.31175339432433985,0.22201503408892262,1337.7289377289376,-1.0,94.37334997359957,0.5863896293630798,
2023-08-11 20:00:22.929000,-8.771084337349398,-0.6867469879518072,-4.301204819277109,-0.5714285714285714,-8.655426118945432,-3.960760269773145,3.0,0.5858585858585857,1706.8965517241381,-0.3041780782005716,-0.4281801759804211,-0.023541751646174527,1330.4029304029302,-1.0,94.37334997359957,0.5863786504506415,
2023-08-11 20:00:22.936000,-8.783132530120483,-0.6626506024096386,-4.301204819277109,-0.5763335377069282,-8.665236051502145,-3.914163090128755,3.0,0.5858585858585857,1706.8965517241381,-0.2706136006060247,-0.10418973253306914,0.03659460404405338,1320.8791208791208,-1.0,94.37334997359957,0.5863677335884648,
2023-08-11 20:00:22.944000,-8.759036144578314,-0.674698795180723,-4.313253012048193,-0.6327406499080318,-8.650521152667075,-3.9509503372164314,3.0,0.5858585858585857,1706.8965517241381,-0.2396130761610632,-0.2852980595536396,0.298350911951518,1311.3553113553112,-1.0,94.37334997359957,0.5863568838674951,
2023-08-11 20:00:22.952000,-8.74698795180723,-0.6626506024096386,-4.337349397590362,-0.5616186388718577,-8.559779276517473,-3.9313304721030042,3.0,0.5858585858585857,1706.8965517241381,-0.2365829497115545,-0.28343336635394273,0.29776819532661253,1306.9597069597069,-1.0,94.37334997359957,0.586346106344444,
2023-08-11 20:00:22.959000,-8.771084337349398,-0.6506024096385542,-4.325301204819278,-0.5763335377069282,-8.675045984058858,-3.9411404046597176,3.0,0.5858585858585857,1706.8965517241381,-0.14218285647689471,-0.0078084027737316646,0.05034671639181855,1304.7619047619046,-1.0,94.37334997359957,0.5863354060293172,
2023-08-11 20:00:22.967000,-8.759036144578314,-0.6506024096385542,-4.325301204819278,-0.5003065603923973,-8.572041692213366,-3.997547516860821,3.0,0.5854145854145854,1708.1911262798637,-0.1418332265019522,0.21921799428937688,0.06456500203950837,1306.227106227106,-1.0,94.37334997359957,0.5863247878727893,
2023-08-11 20:00:22.975000,-8.771084337349398,-0.6385542168674699,-4.349397590361446,-0.5469037400367872,-8.576946658491723,-4.029429797670141,3.0,0.5858585858585857,1706.8965517241381,-0.3107045043995106,0.46209428354991045,0.15372064565002053,1309.1575091575091,-1.0,94.37334997359957,0.5863142564654509,
2023-08-11 20:00:22.982000,-8.783132530120483,-0.6385542168674699,-4.301204819277109,-0.5763335377069282,-8.670141017780502,-3.936235438381361,3.0,0.5858585858585857,1706.8965517241381,0.13449099702814563,0.5655847561330929,0.04638424334246274,1311.3553113553112,-1.0,94.37334997359957,0.5863038163116262,
2023-08-11 20:00:22.990000,-8.783132530120483,-0.6385542168674699,-4.313253012048193,-0.5297363580625383,-8.638258736971183,-3.9632127529123236,3.0,0.5858585858585857,1706.8965517241381,-0.15721694539945213,0.11864110483072063,-0.19684167589301332,1311.3553113553112,-1.0,94.37334997359957,0.5862934721032469,
2023-08-11 20:00:22.998000,-8.771084337349398,-0.6265060240963856,-4.325301204819278,-0.5812385039852851,-8.670141017780502,-3.9632127529123236,3.0,0.5858585858585857,1706.8965517241381,-0.15605151214964202,0.5153545830662551,-0.0710914282384478,1309.89010989011,-1.0,94.37334997359957,0.5862832284192641,
2023-08-11 20:00:23.005000,-8.783132530120483,-0.6506024096385542,-4.337349397590362,-0.5714285714285714,-8.64316370324954,-3.958307786633967,3.0,0.5858585858585857,1706.8965517241381,0.030301264495076495,0.4193228832818602,-0.1769127673212517,1306.9597069597069,-1.0,94.37334997359957,0.5862730895745494,
2023-08-11 20:00:23.013000,-8.795180722891567,-0.6506024096385542,-4.325301204819278,-0.551808706315144,-8.645616186388718,-3.9681177191906802,3.0,0.5858585858585857,1706.8965517241381,-0.015849892197425,0.6742031350154425,-0.022725948371306936,1302.5641025641025,-1.0,94.37334997359957,0.5862630597669436,
2023-08-11 20:00:23.021000,-8.771084337349398,-0.6506024096385542,-4.337349397590362,-0.5836909871244634,-8.594114040465971,-3.990190067443286,3.0,0.5858585858585857,1706.8965517241381,-0.15162286580036158,0.5333022551133386,-0.3586038109667268,1300.3663003663003,-1.0,94.37334997359957,0.586253143193121,
2023-08-11 20:00:23.028000,-8.759036144578314,-0.6506024096385542,-4.313253012048193,-0.5174739423666462,-8.645616186388718,-3.9215205395462904,3.0,0.5858585858585857,1706.8965517241381,-0.47060194627352714,0.5751413087815388,-0.2482372822096616,1297.4358974358975,-1.0,94.37334997359957,0.5862433438881463,
2023-08-11 20:00:23.036000,-8.771084337349398,-0.6385542168674699,-4.325301204819278,-0.5567136725935009,-8.638258736971183,-3.9730226854690374,3.0,0.5858585858585857,1706.8965517241381,0.022725948371306502,0.41675893013227655,0.07493735796282278,1292.3076923076922,-1.0,94.37334997359957,0.5862336655760387,
2023-08-11 20:00:23.044000,-8.72289156626506,-0.6506024096385542,-4.325301204819278,-0.5444512568976088,-8.633353770692827,-3.9828326180257507,3.0,0.5858585858585857,1706.8965517241381,0.1596643552240549,0.032049414369792514,-0.03333139094458345,1287.9120879120878,-1.0,94.37334997359957,0.5862241118187442,
2023-08-11 20:00:23.051000,-8.74698795180723,-0.6385542168674699,-4.349397590361446,-0.5787860208461066,-8.670141017780502,-3.9509503372164314,3.0,0.5858585858585857,1706.8965517241381,0.06771167181399616,0.1214381446302659,-0.030767437795000272,1285.7142857142856,-1.0,94.37334997359957,0.5862146859954236,
2023-08-11 20:00:23.059000,-8.771084337349398,-0.6506024096385542,-4.301204819277109,-0.551808706315144,-8.62844880441447,-3.9534028203556097,3.0,0.5858585858585857,1706.8965517241381,-0.1927626595186767,-6.992599498867545E-4,0.2146728046151156,1287.9120879120878,-1.0,94.37334997359957,0.5862053913035501,
2023-08-11 20:00:23.067000,-8.783132530120483,-0.6867469879518072,-4.313253012048193,-0.6131207847946045,-8.679950950337217,-3.9043531575720416,3.0,0.5854145854145854,1708.1911262798637,-0.20534933861663132,-0.2146728046151156,0.21315774139036167,1290.10989010989,-1.0,94.37334997359957,0.5861962307397275,
2023-08-11 20:00:23.074000,-8.795180722891567,-0.6987951807228916,-4.313253012048193,-0.6670754138565297,-8.714285714285714,-3.965665236051502,3.0,0.5854145854145854,1708.1911262798637,-0.1420663131519139,-0.32037760037293905,0.08950527358545554,1290.8424908424909,-1.0,94.37334997359957,0.5861872070918723,
2023-08-11 20:00:23.082000,-8.807228915662652,-0.6987951807228916,-4.313253012048193,-0.6523605150214592,-8.73635806253832,-3.9632127529123236,3.0,0.5858585858585857,1706.8965517241381,-0.017248412097196776,-0.22772565701299533,0.05547462269098533,1289.3772893772893,-1.0,94.37334997359957,0.58617832287949,
2023-08-11 20:00:23.090000,-8.795180722891567,-0.7228915662650602,-4.337349397590362,-0.6033108522378908,-8.660331085223788,-3.9166155732679337,3.0,0.5858585858585857,1706.8965517241381,-0.12330283782996276,0.10885146553231127,0.1497581726006643,1285.7142857142856,-1.0,94.37334997359957,0.5861695803578115,
2023-08-11 20:00:23.097000,-8.783132530120483,-0.7228915662650602,-4.337349397590362,-0.6033108522378908,-8.675045984058858,-3.9632127529123236,3.0,0.5858585858585857,1706.8965517241381,-0.19497698269331604,-0.07586970456267034,-0.04894819649204591,1285.7142857142856,-1.0,94.37334997359957,0.5861609816824273,
2023-08-11 20:00:23.105000,-8.783132530120483,-0.7228915662650602,-4.325301204819278,-0.6204782342121398,-8.62844880441447,-3.995095033721643,3.0,0.5858585858585857,1706.8965517241381,-0.19381154944350595,0.20010488899248327,0.15127323582541818,1290.8424908424909,-1.0,94.37334997359957,0.5861525287663911,
2023-08-11 20:00:23.113000,-8.759036144578314,-0.7228915662650602,-4.349397590361446,-0.6425505824647455,-8.662783568362967,-3.9166155732679337,3.0,0.5858585858585857,1706.8965517241381,-0.009440009323466846,0.09183614008507618,0.3502126915680905,1300.3663003663003,-1.0,94.37334997359957,0.5861442232769887,
2023-08-11 20:00:23.120000,-8.734939759036145,-0.7349397590361446,-4.325301204819278,-0.6695278969957081,-8.62844880441447,-3.9509503372164314,3.0,0.5858585858585857,1706.8965517241381,-0.07004253831361809,-0.013285939047841392,0.6525260765689643,1312.087912087912,-1.0,94.37334997359957,0.5861360666334529,
2023-08-11 20:00:23.128000,-8.734939759036145,-0.710843373493976,-4.325301204819278,-0.6425505824647455,-8.574494175352545,-3.9828326180257507,3.0,0.5858585858585857,1706.8965517241381,-0.17667968067129,-0.3321484761960261,0.4937940679447583,1326.007326007326,-1.0,94.37334997359957,0.5861280600056316,
2023-08-11 20:00:23.136000,-8.72289156626506,-0.710843373493976,-4.349397590361446,-0.5665236051502146,-8.621091354996935,-3.9288779889638255,3.0,0.5858585858585857,1706.8965517241381,-0.26723384418157525,-0.037876580618844746,0.5957694773031876,1344.3223443223442,-1.0,94.37334997359957,0.5861202043136328,
2023-08-11 20:00:23.143000,-8.771084337349398,-0.710843373493976,-4.325301204819278,-0.645003065603924,-8.618638871857755,-3.985285101164929,3.0,0.5858585858585857,1706.8965517241381,-0.2946215255521239,0.0078084027737316646,0.43866907522871634,1367.7655677655678,-1.0,94.37334997359957,0.5861125002284453,
2023-08-11 20:00:23.151000,-8.734939759036145,-0.6867469879518072,-4.301204819277109,-0.6008583690987124,-8.569589209074188,-3.9534028203556097,3.0,0.5858585858585857,1706.8965517241381,-0.4441466115028269,-0.3435697220441707,0.39018705203659465,1396.3369963369962,-1.0,94.37334997359957,0.5861049481735411,
2023-08-11 20:00:23.159000,-8.74698795180723,-0.6987951807228916,-4.301204819277109,-0.6474555487431024,-8.640711220110362,-3.9019006744328633,3.0,0.5858585858585857,1706.8965517241381,-0.39484878503583765,-0.48132393217178493,0.32690402657187806,1432.2344322344322,-1.0,94.37334997359957,0.5860975483274565,
2023-08-11 20:00:23.166000,-8.74698795180723,-0.6987951807228916,-4.313253012048193,-0.5738810545677498,-8.670141017780502,-3.9460453709380747,3.0,0.5858585858585857,1706.8965517241381,-0.5429753510867672,-0.23576714643668864,0.29240720237748363,1473.9926739926739,-1.0,94.37334997359957,0.5860903006273401,
2023-08-11 20:00:23.174000,-8.771084337349398,-0.674698795180723,-4.337349397590362,-0.6033108522378908,-8.625996321275291,-4.026977314530963,3.0,0.5858585858585857,1706.8965517241381,-0.11293048190664923,0.037993123943825584,0.4253831361808749,1518.6813186813185,-1.0,94.37334997359957,0.5860832047734588,
2023-08-11 20:00:23.182000,-8.783132530120483,-0.6867469879518072,-4.289156626506024,-0.5787860208461066,-8.655426118945432,-4.004904966278357,3.0,0.5858585858585857,1706.8965517241381,-0.43202610570479566,0.09591515645941413,0.29870054192646095,1563.3699633699632,-1.0,94.37334997359957,0.5860762602346341,
2023-08-11 20:00:23.189000,-8.771084337349398,-0.674698795180723,-4.301204819277109,-0.5959534028203556,-8.665236051502145,-3.9828326180257507,3.0,0.5858585858585857,1706.8965517241381,-0.1818075869704555,0.001631606549735182,0.3714235767146435,1602.9304029304028,-1.0,94.37334997359957,0.5860694662545956,
2023-08-11 20:00:23.197000,-8.759036144578314,-0.6867469879518072,-4.325301204819278,-0.6180257510729613,-8.623543838136113,-3.960760269773145,3.0,0.5858585858585857,1706.8965517241381,-0.2257444204883159,-0.06304993881475403,0.4455451314025987,1635.8974358974358,-1.0,94.37334997359957,0.586062821859211,
2023-08-11 20:00:23.205000,-8.771084337349398,-0.6867469879518072,-4.325301204819278,-0.5567136725935009,-8.645616186388718,-3.9435928877988964,3.0,0.5858585858585857,1706.8965517241381,-0.19334537614358085,-0.06293339548977318,0.5315541052386227,1659.3406593406592,-1.0,94.37334997359957,0.5860563258645635,
2023-08-11 20:00:23.212000,-8.783132530120483,-0.6626506024096386,-4.337349397590362,-0.5419987737584304,-8.623543838136113,-3.926425505824647,3.0,0.5858585858585857,1706.8965517241381,-0.03892547054367401,0.16828856127265243,0.5568440067595127,1676.1904761904761,-1.0,94.37334997359957,0.5860499768858407,
2023-08-11 20:00:23.220000,-8.783132530120483,-0.6506024096385542,-4.337349397590362,-0.5935009196811771,-8.650521152667075,-3.9632127529123236,3.0,0.5854145854145854,1708.1911262798637,-0.40195792785968254,0.13728803682769092,0.30825709457490863,1684.9816849816848,-1.0,94.37334997359957,0.5860437733469815,
2023-08-11 20:00:23.228000,-8.759036144578314,-0.6626506024096386,-4.325301204819278,-0.6597179644389944,-8.625996321275291,-3.936235438381361,3.0,0.5854145854145854,1708.1911262798637,-0.24718839228483144,-0.15465299224986853,0.5179185362158378,1686.4468864468863,-1.0,94.37334997359957,0.5860377134804992,
2023-08-11 20:00:23.235000,-8.795180722891567,-0.6506024096385542,-4.313253012048193,-0.5591661557326794,-8.667688534641323,-3.9705702023298586,3.0,0.5854145854145854,1708.1911262798637,-0.24439135248528618,-0.1537206456500201,0.5126740865916902,1676.923076923077,-1.0,94.37334997359957,0.5860317952962528,
2023-08-11 20:00:23.243000,-8.795180722891567,-0.6506024096385542,-4.337349397590362,-0.5885959534028203,-8.640711220110362,-3.86020846106683,3.0,0.5854145854145854,1708.1911262798637,-0.1497581726006647,-0.41081522055824177,0.7526367927276963,1660.8058608058607,-1.0,94.37334997359957,0.5860260165821574,
2023-08-11 20:00:23.251000,-8.783132530120483,-0.6024096385542169,-4.313253012048193,-0.5346413243408952,-8.655426118945432,-3.9019006744328633,3.0,0.5858585858585857,1706.8965517241381,-0.20872909504108078,-0.2089621816910442,0.3957811316356852,1638.8278388278386,-1.0,94.37334997359957,0.586020374915597,
2023-08-11 20:00:23.258000,-8.759036144578314,-0.6265060240963856,-4.289156626506024,-0.5493562231759657,-8.640711220110362,-3.9435928877988964,3.0,0.5858585858585857,1706.8965517241381,-0.2067478585164031,0.05197832294155373,0.6370258143464835,1610.989010989011,-1.0,94.37334997359957,0.586014867685503,
2023-08-11 20:00:23.266000,-8.759036144578314,-0.6024096385542169,-4.289156626506024,-0.5321888412017167,-8.706928264868179,-3.9754751686082157,3.0,0.5858585858585857,1706.8965517241381,-0.20628168521647974,-0.23891381621117644,0.3265543965969347,1583.150183150183,-1.0,94.37334997359957,0.5860094921462022,
2023-08-11 20:00:23.273000,-8.759036144578314,-0.6144578313253012,-4.301204819277109,-0.48068669527896996,-8.648068669527897,-3.955855303494788,3.0,0.5858585858585857,1706.8965517241381,-0.14299865975176232,-0.11596060835615618,0.5217644659402133,1552.3809523809523,-1.0,94.37334997359957,0.5860042454399569,
2023-08-11 20:00:23.281000,-8.759036144578314,-0.6144578313253012,-4.313253012048193,-0.5542611894543225,-8.652973635806253,-3.926425505824647,3.0,0.5854145854145854,1708.1911262798637,-0.050579803041780225,0.14066779325214213,0.37993123943826107,1519.4139194139193,-1.0,94.37334997359957,0.5859991247480547,
2023-08-11 20:00:23.289000,-8.783132530120483,-0.6144578313253012,-4.289156626506024,-0.551808706315144,-8.589209074187615,-3.914163090128755,3.0,0.5858585858585857,1706.8965517241381,-0.020161995221722892,0.16805547462269074,0.16071324514888416,1487.9120879120878,-1.0,94.37334997359957,0.5859941269950258,
2023-08-11 20:00:23.296000,-8.771084337349398,-0.5903614457831325,-4.301204819277109,-0.4463519313304721,-8.677498467198038,-3.9288779889638255,3.0,0.5854145854145854,1708.1911262798637,0.010372355923315273,-0.0953324398345082,0.2793543499796048,1460.8058608058607,-1.0,94.37334997359957,0.5859892488613262,
2023-08-11 20:00:23.304000,-8.759036144578314,-0.5903614457831325,-4.301204819277109,-0.48313917841814835,-8.665236051502145,-3.9435928877988964,3.0,0.5854145854145854,1708.1911262798637,0.009556552648447682,0.2234135539886957,0.030417807820056895,1436.6300366300366,-1.0,94.37334997359957,0.5859844870938884,
2023-08-11 20:00:23.312000,-8.771084337349398,-0.5903614457831325,-4.325301204819278,-0.48068669527896996,-8.648068669527897,-3.884733292458614,3.0,0.5854145854145854,1708.1911262798637,-0.17364955422178133,0.3862245789872384,-0.33855835906998427,1416.117216117216,-1.0,94.37334997359957,0.5859798381991755,
2023-08-11 20:00:23.319000,-8.783132530120483,-0.6144578313253012,-4.325301204819278,-0.4757817290006131,-8.67259350091968,-3.995095033721643,3.0,0.5854145854145854,1708.1911262798637,-0.01759804207214102,0.36850999359011655,0.05897092244041694,1398.5347985347985,-1.0,94.37334997359957,0.5859752984655157,
2023-08-11 20:00:23.327000,-8.783132530120483,-0.6144578313253012,-4.313253012048193,-0.5297363580625383,-8.59656652360515,-3.9460453709380747,3.0,0.5854145854145854,1708.1911262798637,0.13763766680263342,0.42864634928034445,0.05955363906532286,1386.080586080586,-1.0,94.37334997359957,0.5859708641232383,
2023-08-11 20:00:23.335000,-8.759036144578314,-0.6265060240963856,-4.325301204819278,-0.5321888412017167,-8.635806253832005,-3.9435928877988964,3.0,0.5854145854145854,1708.1911262798637,0.15348755900005842,0.4725831827982048,-0.01794767204708353,1373.6263736263736,-1.0,94.37334997359957,0.5859665314940595,
2023-08-11 20:00:23.342000,-8.771084337349398,-0.6144578313253012,-4.313253012048193,-0.5370938074800735,-8.601471489883506,-3.965665236051502,3.0,0.5854145854145854,1708.1911262798637,0.107802575607482,0.6524095332439827,0.19276265951867583,1361.1721611721612,-1.0,94.37334997359957,0.5859622969810944,
2023-08-11 20:00:23.350000,-8.74698795180723,-0.6265060240963856,-4.313253012048193,-0.5150214592274678,-8.608828939301041,-3.9288779889638255,3.0,0.5854145854145854,1708.1911262798637,-0.1846046267700025,0.46442515004953067,-0.17633005069634664,1348.7179487179487,-1.0,94.37334997359957,0.5859581569309681,
2023-08-11 20:00:23.358000,-8.72289156626506,-0.6024096385542169,-4.313253012048193,-0.5836909871244634,-8.640711220110362,-4.012262415695892,3.0,0.5854145854145854,1708.1911262798637,0.031117067769944086,0.5954198473282443,-0.1441640930015733,1339.9267399267399,-1.0,94.37334997359957,0.5859541076447051,
2023-08-11 20:00:23.365000,-8.74698795180723,-0.6144578313253012,-4.325301204819278,-0.5591661557326794,-8.640711220110362,-3.926425505824647,3.0,0.5854145854145854,1708.1911262798637,-0.136705320202785,0.3755025930889806,-0.23471825651185851,1335.5311355311355,-1.0,94.37334997359957,0.5859501453880623,
2023-08-11 20:00:23.373000,-8.759036144578314,-0.6385542168674699,-4.325301204819278,-0.5297363580625383,-8.655426118945432,-3.9632127529123236,3.0,0.5849705849705849,1709.4876660341558,0.03216595769477335,0.33785909912009754,-0.3407726822446241,1331.8681318681317,-1.0,94.37334997359957,0.5859462664012872,
2023-08-11 20:00:23.381000,-8.759036144578314,-0.6265060240963856,-4.325301204819278,-0.5763335377069282,-8.618638871857755,-3.9803801348865724,3.0,0.5849705849705849,1709.4876660341558,-0.14929199930073964,0.4260823961307608,-0.3394907056698327,1330.4029304029302,643.4326171875,93.2498577120091,0.5859424668977222,
2023-08-11 20:00:23.388000,-8.759036144578314,-0.6506024096385542,-4.301204819277109,-0.5370938074800735,-8.630901287553648,-3.977927651747394,3.0,0.5854145854145854,1708.1911262798637,-0.2552298817085248,0.20802983509119577,-0.5217644659402133,1326.7399267399267,-1.0,93.2498577120091,0.5859387428913333,
2023-08-11 20:00:23.396000,-8.771084337349398,-0.6385542168674699,-4.325301204819278,-0.5567136725935009,-8.68976088289393,-3.9313304721030042,3.0,0.5854145854145854,1708.1911262798637,-0.16001398519899743,0.3301672396713484,-0.37795000291358294,1324.5421245421244,-1.0,93.2498577120091,0.5859350903633511,
2023-08-11 20:00:23.404000,-8.795180722891567,-0.6506024096385542,-4.337349397590362,-0.6057633353770693,-8.645616186388718,-4.009809932556713,3.0,0.5854145854145854,1708.1911262798637,-0.15873200862420647,0.6176796223996274,-0.556960550084494,1319.4139194139193,-1.0,93.2498577120091,0.5859315052998816,
2023-08-11 20:00:23.411000,-8.771084337349398,-0.6506024096385542,-4.313253012048193,-0.657265481299816,-8.679950950337217,-3.958307786633967,3.0,0.5854145854145854,1708.1911262798637,-0.050579803041780225,0.4144280636326546,-0.2765573101800595,1315.018315018315,-1.0,93.2498577120091,0.585927983718349,
2023-08-11 20:00:23.419000,-8.771084337349398,-0.6385542168674699,-4.337349397590362,-0.6597179644389944,-8.648068669527897,-3.9534028203556097,3.0,0.5854145854145854,1708.1911262798637,0.028902744595302985,0.5502010372355929,-0.21432317464017223,1313.5531135531135,-1.0,93.2498577120091,0.5859245218005534,
2023-08-11 20:00:23.427000,-8.74698795180723,-0.6506024096385542,-4.337349397590362,-0.6131207847946045,-8.591661557326793,-3.955855303494788,3.0,0.5854145854145854,1708.1911262798637,-0.12446827107977461,0.19742439251791882,-0.2443913524852866,1315.7509157509157,-1.0,93.2498577120091,0.5859211157484286,
2023-08-11 20:00:23.434000,-8.759036144578314,-0.6626506024096386,-4.325301204819278,-0.551808706315144,-8.648068669527897,-3.987737584304108,3.0,0.5854145854145854,1708.1911262798637,-0.16887127789755835,0.30138103840102626,-0.2575607482081463,1319.4139194139193,-1.0,93.2498577120091,0.5859177617885074,
2023-08-11 20:00:23.442000,-8.74698795180723,-0.6506024096385542,-4.313253012048193,-0.6351931330472103,-8.61128142244022,-3.9337829552421826,3.0,0.5854145854145854,1708.1911262798637,0.16828856127265243,0.02587261814579603,-0.4985723442689821,1324.5421245421244,-1.0,93.2498577120091,0.5859144561758344,
2023-08-11 20:00:23.450000,-8.783132530120483,-0.6626506024096386,-4.325301204819278,-0.5616186388718577,-8.616186388718576,-3.997547516860821,3.0,0.5854145854145854,1708.1911262798637,0.08973836023541765,0.2835499096789236,-0.14404754967659245,1328.937728937729,-1.0,93.2498577120091,0.5859111951973465,
2023-08-11 20:00:23.457000,-8.771084337349398,-0.6867469879518072,-4.325301204819278,-0.6106683016554261,-8.618638871857755,-3.9754751686082157,3.0,0.5854145854145854,1708.1911262798637,0.10675368568265274,0.1885670998193579,-0.2807528698793774,1333.3333333333333,-1.0,93.2498577120091,0.585907975036011,
2023-08-11 20:00:23.465000,-8.759036144578314,-0.6987951807228916,-4.325301204819278,-0.5640711220110362,-8.640711220110362,-3.9534028203556097,3.0,0.5854145854145854,1708.1911262798637,0.12388555445486868,0.3054600547753625,-0.1587320086242056,1337.7289377289376,-1.0,93.2498577120091,0.5859047919323676,
2023-08-11 20:00:23.473000,-8.771084337349398,-0.6867469879518072,-4.349397590361446,-0.551808706315144,-8.65787860208461,-3.960760269773145,3.0,0.5854145854145854,1708.1911262798637,0.24683876230988894,0.3464833051686968,-0.23506788648680102,1340.6593406593406,-1.0,93.2498577120091,0.5859016423141368,
2023-08-11 20:00:23.480000,-8.759036144578314,-0.6987951807228916,-4.313253012048193,-0.5836909871244634,-8.706928264868179,-3.9803801348865724,3.0,0.5854145854145854,1708.1911262798637,0.3553405978672577,0.4044053376842836,-0.2974185653516696,1346.5201465201465,-1.0,93.2498577120091,0.5858985226487249,
2023-08-11 20:00:23.488000,-8.734939759036145,-0.6867469879518072,-4.325301204819278,-0.5616186388718577,-8.616186388718576,-3.9019006744328633,3.0,0.5854145854145854,1708.1911262798637,0.2330866499621242,0.2354175164617444,-0.3146669774488668,1350.18315018315,-1.0,93.2498577120091,0.5858954294446793,
2023-08-11 20:00:23.496000,-8.759036144578314,-0.6867469879518072,-4.313253012048193,-0.6253832004904966,-8.62844880441447,-3.9460453709380747,3.0,0.5854145854145854,1708.1911262798637,0.1117650486568374,-0.012470135772973802,0.006642969523920696,1352.3809523809523,-1.0,93.2498577120091,0.5858923592528446,
2023-08-11 20:00:23.503000,-8.734939759036145,-0.6867469879518072,-4.301204819277109,-0.6033108522378908,-8.650521152667075,-4.0,3.0,0.5854145854145854,1708.1911262798637,0.327486743196784,0.18880018646931956,-0.08764058038575825,1353.113553113553,-1.0,93.2498577120091,0.5858893086672587,
2023-08-11 20:00:23.511000,-8.734939759036145,-0.6867469879518072,-4.313253012048193,-0.645003065603924,-8.59656652360515,-4.004904966278357,3.0,0.5854145854145854,1708.1911262798637,0.3248062467222195,0.18763475321950945,-0.08810675368568247,1353.8461538461538,-1.0,93.2498577120091,0.5858862743258375,
2023-08-11 20:00:23.519000,-8.759036144578314,-0.6867469879518072,-4.337349397590362,-0.6180257510729613,-8.640711220110362,-3.997547516860821,3.0,0.5854145854145854,1708.1911262798637,0.20243575549210346,0.09440009323465978,-0.13111124060369442,1355.3113553113553,-1.0,93.2498577120091,0.5858832529108926,
2023-08-11 20:00:23.526000,-8.759036144578314,-0.6867469879518072,-4.349397590361446,-0.6229307173513182,-8.652973635806253,-3.9705702023298586,3.0,0.5849705849705849,1709.4876660341558,0.14160013985199055,0.1386865567274627,-0.22318046733873315,1354.5787545787546,-1.0,93.2498577120091,0.5858802411495364,
2023-08-11 20:00:23.534000,-8.783132530120483,-0.6626506024096386,-4.36144578313253,-0.6302881667688535,-8.638258736971183,-3.948497854077253,3.0,0.5849705849705849,1709.4876660341558,0.2320377600372932,0.19404463609346762,0.008857292698560493,1351.6483516483515,-1.0,93.2498577120091,0.5858772358034644,
2023-08-11 20:00:23.542000,-8.783132530120483,-0.674698795180723,-4.36144578313253,-0.568976088289393,-8.662783568362967,-3.9828326180257507,3.0,0.5854145854145854,1708.1911262798637,0.46034613367519445,0.023425208321193255,-0.0849600839111938,1348.7179487179487,-1.0,93.2498577120091,0.5858742336270094,
2023-08-11 20:00:23.549000,-8.783132530120483,-0.674698795180723,-4.337349397590362,-0.6621704475781729,-8.638258736971183,-3.990190067443286,3.0,0.5854145854145854,1708.1911262798637,0.2126915680904379,0.23285356331216078,-0.11759221490589136,1343.5897435897434,-1.0,93.2498577120091,0.5858712313670817,
2023-08-11 20:00:23.557000,-8.783132530120483,-0.674698795180723,-4.337349397590362,-0.5861434702636419,-8.665236051502145,-3.9313304721030042,3.0,0.5854145854145854,1708.1911262798637,0.12237049123011434,0.3693257968649841,-0.22702639706310812,1339.9267399267399,-1.0,93.2498577120091,0.5858682258050528,
2023-08-11 20:00:23.565000,-8.783132530120483,-0.6626506024096386,-4.301204819277109,-0.657265481299816,-8.594114040465971,-3.9730226854690374,3.0,0.5854145854145854,1708.1911262798637,0.24485752578521125,0.2731775537556083,-0.14952508595070219,1335.5311355311355,-1.0,93.2498577120091,0.585865213767049,
2023-08-11 20:00:23.572000,-8.771084337349398,-0.6867469879518072,-4.325301204819278,-0.5738810545677498,-8.670141017780502,-3.965665236051502,3.0,0.5854145854145854,1708.1911262798637,0.3667618437154005,0.0874074937357957,0.0804148942369325,1331.8681318681317,-1.0,93.2498577120091,0.5858621921238806,
2023-08-11 20:00:23.580000,-8.759036144578314,-0.6867469879518072,-4.313253012048193,-0.5714285714285714,-8.648068669527897,-3.9239730226854688,3.0,0.5854145854145854,1708.1911262798637,0.48738418507080056,-0.12959617737894008,0.19858982576772935,1326.007326007326,-1.0,93.2498577120091,0.5858591577911865,
2023-08-11 20:00:23.588000,-8.734939759036145,-0.6987951807228916,-4.313253012048193,-0.6033108522378908,-8.633353770692827,-4.009809932556713,3.0,0.5854145854145854,1708.1911262798637,0.05547462269098577,-0.0393916438435991,-0.018180758697045635,1320.8791208791208,-1.0,93.2498577120091,0.585856107729853,
2023-08-11 20:00:23.595000,-8.72289156626506,-0.6867469879518072,-4.325301204819278,-0.6033108522378908,-8.625996321275291,-3.958307786633967,3.0,0.5854145854145854,1708.1911262798637,0.329934153021385,-0.11607715168113703,0.08938873026047427,1319.4139194139193,-1.0,93.2498577120091,0.5858530389467395,
2023-08-11 20:00:23.603000,-8.771084337349398,-0.6626506024096386,-4.313253012048193,-0.5493562231759657,-8.630901287553648,-3.9803801348865724,3.0,0.5854145854145854,1708.1911262798637,0.18845055649437706,-0.08519317056115634,-0.12458481440475501,1317.9487179487178,-1.0,93.2498577120091,0.5858499484957506,
2023-08-11 20:00:23.611000,-8.771084337349398,-0.6626506024096386,-4.325301204819278,-0.5787860208461066,-8.677498467198038,-3.960760269773145,3.0,0.5854145854145854,1708.1911262798637,0.03484645416933779,0.1128139385816684,0.13495717032806942,1317.216117216117,-1.0,93.2498577120091,0.5858468334792916,
2023-08-11 20:00:23.618000,-8.74698795180723,-0.6385542168674699,-4.349397590361446,-0.5321888412017167,-8.635806253832005,-3.926425505824647,3.0,0.5854145854145854,1708.1911262798637,0.26303828448225647,-0.21094341821572188,0.02645533477070108,1318.6813186813185,-1.0,93.2498577120091,0.585843691050134,
2023-08-11 20:00:23.626000,-8.759036144578314,-0.6144578313253012,-4.313253012048193,-0.5738810545677498,-8.640711220110362,-3.9411404046597176,3.0,0.5854145854145854,1708.1911262798637,0.07924946098712153,-0.4560340306508948,0.13099469727871316,1322.3443223443223,-1.0,93.2498577120091,0.5858405185524702,
2023-08-11 20:00:23.634000,-8.807228915662652,-0.6385542168674699,-4.313253012048193,-0.5787860208461066,-8.623543838136113,-3.9534028203556097,3.0,0.5854145854145854,1708.1911262798637,-0.3499796049181288,-0.6515937299691168,0.19113105296894106,1326.7399267399267,-1.0,93.2498577120091,0.5858373135042905,
2023-08-11 20:00:23.641000,-8.807228915662652,-0.6506024096385542,-4.301204819277109,-0.5346413243408952,-8.670141017780502,-3.958307786633967,3.0,0.5854145854145854,1708.1911262798637,-0.04067362041839003,-0.6457665637200628,0.1131635685566109,1328.2051282051282,-1.0,93.2498577120091,0.5858340733138727,
2023-08-11 20:00:23.649000,-8.807228915662652,-0.6506024096385542,-4.301204819277109,-0.5714285714285714,-8.692213366033108,-3.919068056407112,3.0,0.5854145854145854,1708.1911262798637,-0.05547462269098577,-0.7641745819008218,0.2807528698793774,1328.2051282051282,-1.0,93.2498577120091,0.5858307953049774,
2023-08-11 20:00:23.656000,-8.807228915662652,-0.6626506024096386,-4.313253012048193,-0.5616186388718577,-8.706928264868179,-3.9313304721030042,3.0,0.5854145854145854,1708.1911262798637,-0.1309946972787136,-0.5444904143115198,0.26373754443214276,1328.2051282051282,-1.0,93.2498577120091,0.5858274770086975,
2023-08-11 20:00:23.664000,-8.807228915662652,-0.6385542168674699,-4.253012048192772,-0.5935009196811771,-8.711833231146535,-3.9435928877988964,3.0,0.5854145854145854,1708.1911262798637,0.11421245848144017,-0.3864576656372001,0.2732940970805896,1328.2051282051282,-1.0,93.2498577120091,0.5858241160086199,
2023-08-11 20:00:23.672000,-8.771084337349398,-0.6506024096385542,-4.253012048192772,-0.5591661557326794,-8.601471489883506,-3.8994481912936845,3.0,0.5854145854145854,1708.1911262798637,-0.1298292640289035,0.013052852397879719,0.22516170386341128,1328.937728937729,-1.0,93.2498577120091,0.5858207098179918,
2023-08-11 20:00:23.679000,-8.771084337349398,-0.6265060240963856,-4.265060240963856,-0.5174739423666462,-8.601471489883506,-3.9460453709380747,3.0,0.5849705849705849,1709.4876660341558,0.3769011129887541,0.33541168929549475,0.130178894003846,1328.937728937729,-1.0,93.2498577120091,0.585817256172824,
2023-08-11 20:00:23.687000,-8.734939759036145,-0.6265060240963856,-4.27710843373494,-0.5346413243408952,-8.630901287553648,-3.9460453709380747,3.0,0.5849705849705849,1709.4876660341558,0.4828389953965393,0.8232620476662204,0.2649029776819533,1332.6007326007325,-1.0,93.2498577120091,0.5858137530064939,
2023-08-11 20:00:23.695000,-8.72289156626506,-0.6144578313253012,-4.253012048192772,-0.5493562231759657,-8.616186388718576,-3.926425505824647,3.0,0.5849705849705849,1709.4876660341558,0.15896509527416816,0.5718780956820702,0.33890798904492764,1335.5311355311355,-1.0,93.2498577120091,0.5858101982654732,
2023-08-11 20:00:23.702000,-8.734939759036145,-0.6265060240963856,-4.301204819277109,-0.5640711220110362,-8.618638871857755,-3.9730226854690374,3.0,0.5854145854145854,1708.1911262798637,0.6011304702523157,0.2917079424275978,-0.12155468795524761,1340.6593406593406,-1.0,93.2498577120091,0.5858065897671525,
2023-08-11 20:00:23.710000,-8.771084337349398,-0.6385542168674699,-4.313253012048193,-0.5567136725935009,-8.608828939301041,-3.960760269773145,3.0,0.5854145854145854,1708.1911262798637,0.6754851115902334,0.3041780782005716,0.41267991375793944,1342.8571428571427,-1.0,93.2498577120091,0.5858029253764562,
2023-08-11 20:00:23.718000,-8.74698795180723,-0.6265060240963856,-4.325301204819278,-0.5836909871244634,-8.623543838136113,-3.9754751686082157,3.0,0.5854145854145854,1708.1911262798637,0.8095099353184539,0.7720995279995343,-0.064215372064565,1343.5897435897434,-1.0,93.2498577120091,0.5857992031824522,
2023-08-11 20:00:23.725000,-8.771084337349398,-0.6265060240963856,-4.349397590361446,-0.5910484365419988,-8.665236051502145,-3.9803801348865724,3.0,0.5854145854145854,1708.1911262798637,0.4538197074762537,0.5972845405279411,-0.05023017306683771,1342.8571428571427,-1.0,93.2498577120091,0.5857954213667083,
2023-08-11 20:00:23.733000,-8.795180722891567,-0.6385542168674699,-4.349397590361446,-0.5640711220110362,-8.677498467198038,-3.9460453709380747,3.0,0.5854145854145854,1708.1911262798637,0.952508595070218,0.9435347590466762,0.03974127381854204,1342.1245421245421,-1.0,93.2498577120091,0.5857915782105394,
2023-08-11 20:00:23.741000,-8.759036144578314,-0.6385542168674699,-4.373493975903615,-0.5738810545677498,-8.660331085223788,-4.01471489883507,3.0,0.5854145854145854,1708.1911262798637,0.8402773731134555,0.9459821688712773,0.0226094050463261,1339.9267399267399,-1.0,93.2498577120091,0.5857876721023779,
2023-08-11 20:00:23.748000,-8.759036144578314,-0.6506024096385542,-4.373493975903615,-0.568976088289393,-8.606376456161863,-4.004904966278357,3.0,0.5854145854145854,1708.1911262798637,0.9719713303420541,0.8627702348348003,0.08227958743662936,1339.194139194139,-1.0,93.2498577120091,0.5857837015452241,
2023-08-11 20:00:23.756000,-8.771084337349398,-0.6265060240963856,-4.36144578313253,-0.5738810545677498,-8.594114040465971,-3.9730226854690374,3.0,0.5854145854145854,1708.1911262798637,0.7046209428354998,0.6239729619486047,0.08076452421187588,1339.9267399267399,-1.0,93.2498577120091,0.5857796651641575,
2023-08-11 20:00:23.764000,-8.734939759036145,-0.6626506024096386,-4.337349397590362,-0.6425505824647455,-8.586756591048436,-4.019619865113427,3.0,0.5854145854145854,1708.1911262798637,0.5602237631839639,0.7531029660276215,0.18507080006992585,1342.1245421245421,-1.0,93.2498577120091,0.5857755617138652,
2023-08-11 20:00:23.771000,-8.734939759036145,-0.6385542168674699,-4.337349397590362,-0.5125689760882893,-8.635806253832005,-3.9828326180257507,3.0,0.5854145854145854,1708.1911262798637,0.539595594662316,0.516753102966027,0.04545189674261387,1348.7179487179487,-1.0,93.2498577120091,0.5857713900861534,
2023-08-11 20:00:23.779000,-8.734939759036145,-0.6385542168674699,-4.349397590361446,-0.6033108522378908,-8.660331085223788,-4.002452483139178,3.0,0.5854145854145854,1708.1911262798637,0.6563720062933397,0.09871219625895941,0.12143814463026635,1362.6373626373625,-1.0,93.2498577120091,0.5857671493174038,
2023-08-11 20:00:23.787000,-8.734939759036145,-0.6385542168674699,-4.349397590361446,-0.5665236051502146,-8.599019006744328,-4.009809932556713,3.0,0.5854145854145854,1708.1911262798637,0.6498455800944007,0.09696404638424339,0.117242584930948,1385.3479853479853,-1.0,93.2498577120091,0.5857628387346819,
2023-08-11 20:00:23.794000,-8.74698795180723,-0.6265060240963856,-4.325301204819278,-0.6033108522378908,-8.648068669527897,-4.0,3.0,0.5854145854145854,1708.1911262798637,0.5073130936425618,0.38704038226210596,0.3757356797389431,1417.5824175824175,-1.0,93.2498577120091,0.5857584578038316,
2023-08-11 20:00:23.802000,-8.759036144578314,-0.6506024096385542,-4.325301204819278,-0.5248313917841815,-8.64316370324954,-3.9730226854690374,3.0,0.5854145854145854,1708.1911262798637,0.5505506672105355,0.12446827107977461,-0.05419264611619396,1459.3406593406592,-1.0,93.2498577120091,0.5857540060088992,
2023-08-11 20:00:23.810000,-8.759036144578314,-0.6385542168674699,-4.337349397590362,-0.5567136725935009,-8.64316370324954,-3.9534028203556097,3.0,0.5854145854145854,1708.1911262798637,0.8518151622865792,0.1364722335528233,0.3107045043995106,1506.9597069597069,-1.0,93.2498577120091,0.5857494830080446,
2023-08-11 20:00:23.817000,-8.759036144578314,-0.6385542168674699,-4.337349397590362,-0.5959534028203556,-8.630901287553648,-3.955855303494788,3.0,0.5854145854145854,1708.1911262798637,0.5705961191072775,0.24136122603577922,-0.04160596701823889,1557.5091575091574,-1.0,93.2498577120091,0.5857448887786406,
2023-08-11 20:00:23.825000,-8.783132530120483,-0.6385542168674699,-4.325301204819278,-0.5714285714285714,-8.635806253832005,-3.990190067443286,3.0,0.5854145854145854,1708.1911262798637,0.7971563428704627,0.2841326263038278,0.03239904434473502,1605.8608058608058,-1.0,93.2498577120091,0.5857402234641758,
2023-08-11 20:00:23.833000,-8.74698795180723,-0.6506024096385542,-4.325301204819278,-0.6082158185162476,-8.650521152667075,-3.985285101164929,3.0,0.5849705849705849,1709.4876660341558,0.9135831245265422,0.49274517801992945,0.014451372297651493,1648.3516483516482,-1.0,93.2498577120091,0.5857354872523206,
2023-08-11 20:00:23.840000,-8.759036144578314,-0.674698795180723,-4.349397590361446,-0.6253832004904966,-8.616186388718576,-3.977927651747394,3.0,0.5854145854145854,1708.1911262798637,0.9069401550026224,0.3041780782005716,-0.0010488899248296977,1684.249084249084,-1.0,93.2498577120091,0.5857306806575115,
2023-08-11 20:00:23.848000,-8.74698795180723,-0.6867469879518072,-4.313253012048193,-0.6425505824647455,-8.606376456161863,-3.9730226854690374,3.0,0.5854145854145854,1708.1911262798637,0.7012411864110486,0.5724608123069743,-0.06409882873958415,1712.087912087912,-1.0,93.2498577120091,0.5857258044735013,
2023-08-11 20:00:23.856000,-8.74698795180723,-0.674698795180723,-4.313253012048193,-0.6670754138565297,-8.655426118945432,-4.046597179644389,3.0,0.5854145854145854,1708.1911262798637,0.7251325680321652,0.5958860206281693,0.1928792028436571,1728.937728937729,-1.0,93.2498577120091,0.5857208596608563,
2023-08-11 20:00:23.863000,-8.734939759036145,-0.6626506024096386,-4.337349397590362,-0.5861434702636419,-8.613733905579398,-4.031882280809319,3.0,0.5854145854145854,1708.1911262798637,0.9027445953033036,0.5744420488316537,0.2524328419089795,1734.065934065934,-1.0,93.2498577120091,0.5857158472231181,
2023-08-11 20:00:23.871000,-8.759036144578314,-0.674698795180723,-4.313253012048193,-0.5738810545677498,-8.694665849172287,-3.9509503372164314,3.0,0.5854145854145854,1708.1911262798637,0.6200104888992476,0.3438028086941323,0.5398286813122777,1728.937728937729,-1.0,93.2498577120091,0.5857107682308103,
2023-08-11 20:00:23.879000,-8.783132530120483,-0.6626506024096386,-4.301204819277109,-0.615573267933783,-8.638258736971183,-3.960760269773145,3.0,0.5854145854145854,1708.1911262798637,0.6141833226501954,0.06747858516403449,0.38424334246256026,1716.4835164835163,-1.0,93.2498577120091,0.5857056239722861,
2023-08-11 20:00:23.886000,-8.795180722891567,-0.6626506024096386,-4.289156626506024,-0.6008583690987124,-8.702023298589822,-3.926425505824647,3.0,0.5854145854145854,1708.1911262798637,0.6076568964512546,-0.025289901520890112,0.2596585280578057,1696.7032967032967,-1.0,93.2498577120091,0.5857004160934344,
2023-08-11 20:00:23.894000,-8.807228915662652,-0.6506024096385542,-4.240963855421687,-0.6670754138565297,-8.714285714285714,-3.8871857755977928,3.0,0.5854145854145854,1708.1911262798637,0.677466348114911,-0.7092826758347419,0.5463551075112175,1673.260073260073,-1.0,93.2498577120091,0.5856951464388924,
2023-08-11 20:00:23.902000,-8.771084337349398,-0.674698795180723,-4.253012048192772,-0.6376456161863887,-8.59656652360515,-3.8920907418761495,3.0,0.5854145854145854,1708.1911262798637,0.5042829671930549,-0.6400559407959914,0.481557018821747,1650.5494505494505,-1.0,93.2498577120091,0.5856898169241342,
2023-08-11 20:00:23.909000,-8.734939759036145,-0.674698795180723,-4.253012048192772,-0.6008583690987124,-8.589209074187615,-3.8798283261802573,3.0,0.5854145854145854,1708.1911262798637,0.48225627877163335,0.03449682419439355,0.8156867315424509,1624.1758241758241,-1.0,93.2498577120091,0.5856844296836223,
2023-08-11 20:00:23.917000,-8.74698795180723,-0.6867469879518072,-4.301204819277109,-0.5763335377069282,-8.650521152667075,-3.9288779889638255,3.0,0.5854145854145854,1708.1911262798637,0.400093234659984,0.06363265543965994,1.0096148243109375,1594.8717948717947,-1.0,93.2498577120091,0.585678987207743,
2023-08-11 20:00:23.925000,-8.771084337349398,-0.6626506024096386,-4.289156626506024,-0.6695278969957081,-8.599019006744328,-3.9435928877988964,3.0,0.5854145854145854,1708.1911262798637,0.44228191830312835,0.07855020103723478,1.095740341471942,1567.032967032967,-1.0,93.2498577120091,0.5856734923199413,
2023-08-11 20:00:23.932000,-8.771084337349398,-0.6506024096385542,-4.313253012048193,-0.49785407725321884,-8.623543838136113,-3.9435928877988964,3.0,0.5854145854145854,1708.1911262798637,0.7585805023017312,0.08903910028553089,0.9655614474680964,1540.6593406593406,-1.0,93.2498577120091,0.5856679480255628,
2023-08-11 20:00:23.940000,-8.807228915662652,-0.6626506024096386,-4.313253012048193,-0.5665236051502146,-8.650521152667075,-3.9509503372164314,3.0,0.5854145854145854,1708.1911262798637,1.2537730901462616,-0.2373987529864221,0.7428471534292874,1518.6813186813185,-1.0,93.2498577120091,0.5856623575091008,
2023-08-11 20:00:23.948000,-8.819277108433736,-0.674698795180723,-4.349397590361446,-0.5493562231759657,-8.667688534641323,-3.936235438381361,3.0,0.5854145854145854,1708.1911262798637,1.1957345143056923,-0.5589417866091713,1.0565817842783054,1499.6336996336995,-1.0,93.2498577120091,0.5856567241305626,
2023-08-11 20:00:23.955000,-8.807228915662652,-0.674698795180723,-4.325301204819278,-0.5812385039852851,-8.697118332311465,-3.9215205395462904,3.0,0.5854145854145854,1708.1911262798637,1.5199580444030059,-0.37561913641396144,0.6675601654915215,1483.5164835164835,-1.0,93.2498577120091,0.5856510514209543,
2023-08-11 20:00:23.963000,-8.819277108433736,-0.6385542168674699,-4.337349397590362,-0.5763335377069282,-8.682403433476395,-4.009809932556713,3.0,0.5854145854145854,1708.1911262798637,1.0629916671522643,0.11164850533185655,0.800536099294913,1469.5970695970695,-1.0,93.2498577120091,0.5856453430768919,
2023-08-11 20:00:23.971000,-8.783132530120483,-0.6506024096385542,-4.373493975903615,-0.5738810545677498,-8.635806253832005,-3.9460453709380747,3.0,0.5854145854145854,1708.1911262798637,1.617737894062117,-0.36454752054076117,1.0222015034088925,1454.212454212454,-1.0,93.2498577120091,0.5856396029543559,
2023-08-11 20:00:23.978000,-8.734939759036145,-0.6626506024096386,-4.36144578313253,-0.5052115266707541,-8.61128142244022,-4.024524831391784,3.0,0.5854145854145854,1708.1911262798637,1.3742788881766792,-0.8048482023192118,0.9826933162403125,1437.3626373626373,-1.0,93.2498577120091,0.5856338350616064,
2023-08-11 20:00:23.986000,-8.72289156626506,-0.6385542168674699,-4.349397590361446,-0.5321888412017167,-8.601471489883506,-4.068669527896995,3.0,0.5849705849705849,1709.4876660341558,1.2381562845987983,-1.2551716100460353,1.4937357962822682,1417.5824175824175,-1.0,93.2498577120091,0.5856280435512797,
2023-08-11 20:00:23.994000,-8.72289156626506,-0.6144578313253012,-4.36144578313253,-0.5493562231759657,-8.586756591048436,-3.9730226854690374,3.0,0.5854145854145854,1708.1911262798637,1.503292348930715,-1.3042363498630611,1.5419847328244274,1402.9304029304028,-1.0,93.2498577120091,0.5856222327011554,
2023-08-11 20:00:24.001000,-8.74698795180723,-0.6144578313253012,-4.36144578313253,-0.5469037400367872,-8.633353770692827,-4.009809932556713,3.0,0.5854145854145854,1708.1911262798637,1.748849134665813,-1.4325505506672103,1.7253073830196377,1391.2087912087911,658.75244140625,91.08125636986937,0.5856164068729999,
2023-08-11 20:00:24.009000,-8.795180722891567,-0.6024096385542169,-4.325301204819278,-0.5272838749233598,-8.652973635806253,-4.0,3.0,0.5854145854145854,1708.1911262798637,1.7786842258609628,-1.6178544373870978,1.4194976982693315,1380.2197802197802,-1.0,91.08125636986937,0.5856105705337299,
2023-08-11 20:00:24.017000,-8.759036144578314,-0.5783132530120483,-4.349397590361446,-0.5199264255058246,-8.61128142244022,-3.990190067443286,3.0,0.5854145854145854,1708.1911262798637,2.2675834741565177,-1.6344035895344096,1.2219567624264318,1369.9633699633698,-1.0,91.08125636986937,0.5856047282547362,
2023-08-11 20:00:24.024000,-8.759036144578314,-0.6024096385542169,-4.325301204819278,-0.5370938074800735,-8.618638871857755,-3.896995708154506,3.0,0.5854145854145854,1708.1911262798637,2.1263329642794715,-1.1907231513315077,1.2254530621758633,1359.7069597069597,-1.0,91.08125636986937,0.5855988847000433,
2023-08-11 20:00:24.032000,-8.783132530120483,-0.6265060240963856,-4.301204819277109,-0.5714285714285714,-8.677498467198038,-3.9239730226854688,3.0,0.5854145854145854,1708.1911262798637,2.397179651535458,-0.67501893829031,1.3484062700308834,1350.18315018315,-1.0,91.08125636986937,0.5855930446139005,
2023-08-11 20:00:24.039000,-8.759036144578314,-0.6144578313253012,-4.301204819277109,-0.5248313917841815,-8.606376456161863,-3.958307786633967,3.0,0.5854145854145854,1708.1911262798637,2.602295903502126,0.44787599790222066,1.2573859332206743,1342.1245421245421,-1.0,91.08125636986937,0.585587212807863,
2023-08-11 20:00:24.047000,-8.771084337349398,-0.6265060240963856,-4.289156626506024,-0.510116492949111,-8.633353770692827,-4.012262415695892,3.0,0.5854145854145854,1708.1911262798637,2.992599498863702,0.8588077617854433,1.3373346541576834,1335.5311355311355,-1.0,91.08125636986937,0.5855813941474258,
2023-08-11 20:00:24.055000,-8.783132530120483,-0.6144578313253012,-4.337349397590362,-0.5812385039852851,-8.640711220110362,-4.004904966278357,3.0,0.5854145854145854,1708.1911262798637,3.0907289784977574,1.5232212575024764,1.4005011362974191,1329.6703296703297,-1.0,91.08125636986937,0.585575593538266,
2023-08-11 20:00:24.062000,-8.759036144578314,-0.5903614457831325,-4.36144578313253,-0.46842427958307786,-8.618638871857755,-4.039239730226854,3.0,0.5854145854145854,1708.1911262798637,3.0650894470019248,1.5114503816793892,1.3867490239496527,1328.937728937729,-1.0,91.08125636986937,0.5855698157734197,
2023-08-11 20:00:24.070000,-8.759036144578314,-0.5903614457831325,-4.385542168674699,-0.5885959534028203,-8.640711220110362,-4.012262415695892,3.0,0.5854145854145854,1708.1911262798637,2.9458656255462983,1.4834799836839347,1.3290600780840276,1331.135531135531,-1.0,91.08125636986937,0.5855640656780791,
2023-08-11 20:00:24.078000,-8.72289156626506,-0.5903614457831325,-4.397590361445784,-0.5419987737584304,-8.542611894543224,-4.066217044757817,3.0,0.5854145854145854,1708.1911262798637,2.6745527649903833,1.6372006293339547,1.1037818308956353,1334.7985347985348,-1.0,91.08125636986937,0.5855583482226903,
2023-08-11 20:00:24.085000,-8.686746987951807,-0.6024096385542169,-4.36144578313253,-0.5591661557326794,-8.616186388718576,-4.026977314530963,3.0,0.5854145854145854,1708.1911262798637,2.9399219159722634,1.178136472233553,1.3219509352601821,1337.7289377289376,-1.0,91.08125636986937,0.5855526682204771,
2023-08-11 20:00:24.093000,-8.710843373493976,-0.6024096385542169,-4.373493975903615,-0.5419987737584304,-8.545064377682403,-3.9681177191906802,3.0,0.5854145854145854,1708.1911262798637,2.868131227783929,0.8300215605151211,0.835848726764175,1341.3919413919414,-1.0,91.08125636986937,0.5855470304720938,
2023-08-11 20:00:24.101000,-8.710843373493976,-0.6265060240963856,-4.349397590361446,-0.6131207847946045,-8.572041692213366,-3.997547516860821,3.0,0.5858585858585857,1706.8965517241381,2.582133908280401,0.8229124176912762,0.8884097663306336,1345.7875457875457,-1.0,91.08125636986937,0.5855414398787842,
2023-08-11 20:00:24.108000,-8.710843373493976,-0.6265060240963856,-4.349397590361446,-0.5616186388718577,-8.569589209074188,-3.965665236051502,3.0,0.5854145854145854,1708.1911262798637,2.7250160247071844,0.5090612435172778,0.7099819357846282,1353.8461538461538,-1.0,91.08125636986937,0.5855359014282192,
2023-08-11 20:00:24.116000,-8.72289156626506,-0.6385542168674699,-4.373493975903615,-0.5199264255058246,-8.64316370324954,-3.9754751686082157,3.0,0.5858585858585857,1706.8965517241381,2.7902802866965812,0.535516578287978,0.9770992366412213,1361.1721611721612,-1.0,91.08125636986937,0.5855304199143311,
2023-08-11 20:00:24.124000,-8.771084337349398,-0.6385542168674699,-4.36144578313253,-0.5419987737584304,-8.64316370324954,-4.007357449417535,3.0,0.5858585858585857,1706.8965517241381,2.4745644193228826,0.2708466872559881,0.846687255987413,1368.4981684981683,-1.0,91.08125636986937,0.5855249999342754,
2023-08-11 20:00:24.131000,-8.807228915662652,-0.6626506024096386,-4.385542168674699,-0.6082158185162476,-8.709380748007357,-4.049049662783568,3.0,0.5858585858585857,1706.8965517241381,2.4659402132742865,0.5569605500844936,0.8874774197307843,1372.161172161172,-1.0,91.08125636986937,0.585519646183754,
2023-08-11 20:00:24.139000,-8.783132530120483,-0.6626506024096386,-4.373493975903615,-0.5640711220110362,-8.702023298589822,-4.019619865113427,3.0,0.5854145854145854,1708.1911262798637,2.425849309480799,0.27352718373055257,0.6519433599440593,1372.8937728937728,-1.0,91.08125636986937,0.5855143633058986,
2023-08-11 20:00:24.147000,-8.783132530120483,-0.674698795180723,-4.373493975903615,-0.5616186388718577,-8.648068669527897,-3.997547516860821,3.0,0.5854145854145854,1708.1911262798637,2.5836489715051587,-0.29567041547695316,1.1365305052153132,1375.8241758241757,-1.0,91.08125636986937,0.5855091558691483,
2023-08-11 20:00:24.154000,-8.771084337349398,-0.6506024096385542,-4.373493975903615,-0.5787860208461066,-8.662783568362967,-3.965665236051502,3.0,0.5858585858585857,1706.8965517241381,2.3428704620942837,-0.37165666336460607,0.9750014567915617,1375.8241758241757,-1.0,91.08125636986937,0.5855040283142456,
2023-08-11 20:00:24.162000,-8.795180722891567,-0.6385542168674699,-4.325301204819278,-0.5321888412017167,-8.616186388718576,-3.990190067443286,3.0,0.5858585858585857,1706.8965517241381,2.4537031641512743,-0.8924887827049709,1.1807004253831357,1374.3589743589744,-1.0,91.08125636986937,0.5854989850827227,
2023-08-11 20:00:24.170000,-8.771084337349398,-0.6385542168674699,-4.301204819277109,-0.539546290619252,-8.625996321275291,-3.9288779889638255,3.0,0.5858585858585857,1706.8965517241381,2.289027445953035,-1.1661325097605026,1.1858283316823024,1373.6263736263736,-1.0,91.08125636986937,0.5854940306290332,
2023-08-11 20:00:24.177000,-8.771084337349398,-0.6506024096385542,-4.289156626506024,-0.49540159411404044,-8.652973635806253,-3.936235438381361,3.0,0.5858585858585857,1706.8965517241381,2.2311054134374446,-1.0846687255987417,1.2516753102966027,1372.161172161172,-1.0,91.08125636986937,0.5854891691355472,
2023-08-11 20:00:24.185000,-8.795180722891567,-0.6265060240963856,-4.265060240963856,-0.5321888412017167,-8.594114040465971,-3.9288779889638255,3.0,0.5858585858585857,1706.8965517241381,2.405687314259078,-1.062758580502301,1.4859273935085373,1369.9633699633698,-1.0,91.08125636986937,0.5854844046649474,
2023-08-11 20:00:24.193000,-8.771084337349398,-0.6265060240963856,-4.265060240963856,-0.5591661557326794,-8.591661557326793,-3.9534028203556097,3.0,0.5858585858585857,1706.8965517241381,2.3931006351611197,-0.9030942252782479,1.4578404521881012,1367.7655677655678,-1.0,91.08125636986937,0.5854797412818893,
2023-08-11 20:00:24.200000,-8.783132530120483,-0.6265060240963856,-4.265060240963856,-0.6008583690987124,-8.591661557326793,-3.8994481912936845,3.0,0.5858585858585857,1706.8965517241381,2.7944758463959,-0.8063632655439661,1.2625138395198414,1366.3003663003662,-1.0,91.08125636986937,0.5854751827600044,
2023-08-11 20:00:24.208000,-8.783132530120483,-0.6144578313253012,-4.27710843373494,-0.5370938074800735,-8.667688534641323,-3.936235438381361,3.0,0.5858585858585857,1706.8965517241381,3.0090321076860294,-0.49705728104422736,1.2523745702464897,1362.6373626373625,-1.0,91.08125636986937,0.585470732736887,
2023-08-11 20:00:24.216000,-8.795180722891567,-0.6385542168674699,-4.289156626506024,-0.5812385039852851,-8.655426118945432,-3.9705702023298586,3.0,0.5858585858585857,1706.8965517241381,3.206689586853915,-0.1290134607540359,1.410873492220734,1356.7765567765566,-1.0,91.08125636986937,0.5854663948383655,
2023-08-11 20:00:24.223000,-8.783132530120483,-0.6265060240963856,-4.27710843373494,-0.4757817290006131,-8.618638871857755,-3.9043531575720416,3.0,0.5858585858585857,1706.8965517241381,3.0831536623739857,0.14637841617621353,1.1255754326670935,1350.18315018315,-1.0,91.08125636986937,0.5854621725268723,
2023-08-11 20:00:24.231000,-8.771084337349398,-0.6506024096385542,-4.313253012048193,-0.5125689760882893,-8.574494175352545,-3.9313304721030042,3.0,0.5858585858585857,1706.8965517241381,3.0185886603344825,0.3889050754618028,1.2832585513664703,1340.6593406593406,-1.0,91.08125636986937,0.5854580689611476,
2023-08-11 20:00:24.239000,-8.783132530120483,-0.6385542168674699,-4.325301204819278,-0.5469037400367872,-8.633353770692827,-3.9509503372164314,3.0,0.5858585858585857,1706.8965517241381,3.001223704912298,0.42887943593030786,1.456558475613309,1328.937728937729,-1.0,91.08125636986937,0.5854540871545991,
2023-08-11 20:00:24.246000,-8.759036144578314,-0.6385542168674699,-4.337349397590362,-0.5763335377069282,-8.687308399754752,-3.9730226854690374,3.0,0.5858585858585857,1706.8965517241381,2.9226735038750684,0.9265194335994411,1.3994522463725882,1318.6813186813185,-1.0,91.08125636986937,0.5854502301028957,
2023-08-11 20:00:24.254000,-8.771084337349398,-0.6506024096385542,-4.337349397590362,-0.5812385039852851,-8.630901287553648,-3.995095033721643,3.0,0.5858585858585857,1706.8965517241381,3.1047141774954854,0.8839811199813525,1.191888584581317,1310.6227106227104,-1.0,91.08125636986937,0.5854465006355786,
2023-08-11 20:00:24.262000,-8.759036144578314,-0.6626506024096386,-4.373493975903615,-0.5248313917841815,-8.61128142244022,-4.022072348252606,3.0,0.5858585858585857,1706.8965517241381,2.6281685216479236,0.8737253073830198,1.3801060544257322,1308.4249084249084,-1.0,91.08125636986937,0.5854429014176603,
2023-08-11 20:00:24.269000,-8.734939759036145,-0.6626506024096386,-4.385542168674699,-0.6082158185162476,-8.613733905579398,-3.977927651747394,3.0,0.5858585858585857,1706.8965517241381,3.132101858866032,0.6211759221490595,1.217528116077151,1309.89010989011,-1.0,91.08125636986937,0.5854394349518791,
2023-08-11 20:00:24.277000,-8.734939759036145,-0.6506024096385542,-4.337349397590362,-0.5542611894543225,-8.635806253832005,-4.01471489883507,3.0,0.5858585858585857,1706.8965517241381,2.8380630499388144,0.582017364955422,1.0537847444787594,1312.8205128205127,-1.0,91.08125636986937,0.5854361035815661,
2023-08-11 20:00:24.285000,-8.759036144578314,-0.6385542168674699,-4.349397590361446,-0.5861434702636419,-8.623543838136113,-3.977927651747394,3.0,0.5858585858585857,1706.8965517241381,2.9586853912942126,0.25394790513373383,1.1369966785152366,1319.4139194139193,-1.0,91.08125636986937,0.5854329094940823,
2023-08-11 20:00:24.292000,-8.74698795180723,-0.6626506024096386,-4.349397590361446,-0.6204782342121398,-8.645616186388718,-3.9754751686082157,3.0,0.5854145854145854,1708.1911262798637,2.712429345609228,0.3272536565468206,1.1421245848144044,1328.2051282051282,-1.0,91.08125636986937,0.5854298547247765,
2023-08-11 20:00:24.300000,-8.759036144578314,-0.674698795180723,-4.313253012048193,-0.6646229307173512,-8.652973635806253,-4.004904966278357,3.0,0.5858585858585857,1706.8965517241381,2.4833051686964644,0.12540061767962304,1.0844356389487797,1335.5311355311355,-1.0,91.08125636986937,0.5854269411508625,
2023-08-11 20:00:24.308000,-8.795180722891567,-0.6626506024096386,-4.349397590361446,-0.6253832004904966,-8.645616186388718,-4.012262415695892,3.0,0.5858585858585857,1706.8965517241381,2.5002039508187184,-0.18378882349513492,1.2112347765281755,1344.3223443223442,-1.0,91.08125636986937,0.585424170603295,
2023-08-11 20:00:24.315000,-8.783132530120483,-0.674698795180723,-4.325301204819278,-0.5665236051502146,-8.650521152667075,-3.987737584304108,3.0,0.5858585858585857,1706.8965517241381,2.287745469378242,0.061418332265018846,1.472524911135714,1349.4505494505493,-1.0,91.08125636986937,0.5854215447441622,
2023-08-11 20:00:24.323000,-8.759036144578314,-0.6506024096385542,-4.337349397590362,-0.568976088289393,-8.670141017780502,-3.8920907418761495,3.0,0.5858585858585857,1706.8965517241381,2.319561797098073,0.16863819124759666,1.057164500903211,1351.6483516483515,-1.0,91.08125636986937,0.5854190649547273,
2023-08-11 20:00:24.331000,-8.783132530120483,-0.6626506024096386,-4.313253012048193,-0.5665236051502146,-8.640711220110362,-3.926425505824647,3.0,0.5863025863025862,1705.60393790231,2.535283491638018,0.15278829905017166,1.258551366470486,1351.6483516483515,-1.0,91.08125636986937,0.5854167324898865,
2023-08-11 20:00:24.338000,-8.783132530120483,-0.6506024096385542,-4.325301204819278,-0.5787860208461066,-8.650521152667075,-3.9730226854690374,3.0,0.5858585858585857,1706.8965517241381,2.5060311170677707,0.15278829905017166,1.244566167472759,1353.113553113553,-1.0,91.08125636986937,0.5854145484940729,
2023-08-11 20:00:24.346000,-8.771084337349398,-0.6385542168674699,-4.337349397590362,-0.5297363580625383,-8.638258736971183,-3.948497854077253,3.0,0.5858585858585857,1706.8965517241381,2.553231163685098,0.0768020511625205,1.0315249694073765,1354.5787545787546,-1.0,91.08125636986937,0.5854125140384641,
2023-08-11 20:00:24.354000,-8.771084337349398,-0.6506024096385542,-4.337349397590362,-0.551808706315144,-8.665236051502145,-3.9092581238503983,3.0,0.5858585858585857,1706.8965517241381,2.446827107977393,0.018064215372064367,1.2643785327195396,1354.5787545787546,-1.0,91.08125636986937,0.5854106300952419,
2023-08-11 20:00:24.361000,-8.795180722891567,-0.6626506024096386,-4.301204819277109,-0.5763335377069282,-8.635806253832005,-3.9632127529123236,3.0,0.5858585858585857,1706.8965517241381,2.1861196899947553,0.004195559699318791,1.233028378299634,1351.6483516483515,-1.0,91.08125636986937,0.5854088975330475,
2023-08-11 20:00:24.369000,-8.795180722891567,-0.6506024096385542,-4.289156626506024,-0.5836909871244634,-8.650521152667075,-3.990190067443286,3.0,0.5863025863025862,1705.60393790231,2.31047141774955,-0.10011071615873118,1.4310354874424573,1347.2527472527472,-1.0,91.08125636986937,0.5854073171229495,
2023-08-11 20:00:24.377000,-8.783132530120483,-0.6626506024096386,-4.325301204819278,-0.6131207847946045,-8.64316370324954,-3.958307786633967,3.0,0.5863025863025862,1705.60393790231,2.5087116135423333,-0.022026688421421484,1.016024707184897,1343.5897435897434,-1.0,91.08125636986937,0.5854058896936183,
2023-08-11 20:00:24.384000,-8.807228915662652,-0.6626506024096386,-4.313253012048193,-0.5591661557326794,-8.638258736971183,-3.9509503372164314,3.0,0.5863025863025862,1705.60393790231,2.279004720004662,0.13157741390361952,0.9238389371248757,1341.3919413919414,-1.0,91.08125636986937,0.585404616158941,
2023-08-11 20:00:24.392000,-8.783132530120483,-0.6626506024096386,-4.301204819277109,-0.6180257510729613,-8.706928264868179,-3.926425505824647,3.0,0.5863025863025862,1705.60393790231,2.400559407959907,0.33051686964629096,0.6642969523920513,1340.6593406593406,-1.0,91.08125636986937,0.5854034973865033,
2023-08-11 20:00:24.399000,-8.771084337349398,-0.6626506024096386,-4.289156626506024,-0.5763335377069282,-8.652973635806253,-3.9386879215205393,3.0,0.5858585858585857,1706.8965517241381,2.1689878212225366,0.3125691975992074,0.7258318279820526,1339.9267399267399,-1.0,91.08125636986937,0.5854025342047565,
2023-08-11 20:00:24.407000,-8.759036144578314,-0.6626506024096386,-4.337349397590362,-0.6057633353770693,-8.603923973022685,-3.9534028203556097,3.0,0.5858585858585857,1706.8965517241381,2.489248878270496,0.5704795757822967,1.169512266184955,1344.3223443223442,-1.0,91.08125636986937,0.5854017272607702,
2023-08-11 20:00:24.415000,-8.74698795180723,-0.6626506024096386,-4.337349397590362,-0.551808706315144,-8.601471489883506,-3.9386879215205393,3.0,0.5858585858585857,1706.8965517241381,2.409882873958396,0.599615407027563,1.073946739700483,1355.3113553113553,-1.0,91.08125636986937,0.5854010770052276,
2023-08-11 20:00:24.422000,-8.74698795180723,-0.6626506024096386,-4.337349397590362,-0.5076640098099325,-8.572041692213366,-3.9730226854690374,3.0,0.5863025863025862,1705.60393790231,2.0568731425907574,0.504865683817959,0.9810617096905763,1372.161172161172,-1.0,91.08125636986937,0.5854005838361224,
2023-08-11 20:00:24.430000,-8.759036144578314,-0.6385542168674699,-4.349397590361446,-0.539546290619252,-8.638258736971183,-4.004904966278357,3.0,0.5858585858585857,1706.8965517241381,2.0427714002680513,0.30499388147543915,0.9808286230406155,1397.069597069597,-1.0,91.08125636986937,0.5854002482525272,
2023-08-11 20:00:24.438000,-8.759036144578314,-0.6626506024096386,-4.385542168674699,-0.5297363580625383,-8.608828939301041,-3.9705702023298586,3.0,0.5858585858585857,1706.8965517241381,2.3327311928209293,0.33296427947089374,0.9802459064157091,1430.03663003663,-1.0,91.08125636986937,0.5854000707311372,
2023-08-11 20:00:24.445000,-8.759036144578314,-0.6506024096385542,-4.36144578313253,-0.598405885959534,-8.65787860208461,-3.997547516860821,3.0,0.5854145854145854,1708.1911262798637,1.7801992890857163,-0.1117650486568374,0.7046209428354983,1468.131868131868,-1.0,91.08125636986937,0.5854000515707345,
2023-08-11 20:00:24.453000,-8.759036144578314,-0.6626506024096386,-4.349397590361446,-0.6229307173513182,-8.633353770692827,-4.0,3.0,0.5858585858585857,1706.8965517241381,1.7074762542975328,0.3150166074238102,0.9176621409008797,1510.6227106227104,-1.0,91.08125636986937,0.5854001910233897,
2023-08-11 20:00:24.461000,-8.74698795180723,-0.6506024096385542,-4.349397590361446,-0.5665236051502146,-8.65787860208461,-4.0,3.0,0.5858585858585857,1706.8965517241381,1.802459064157102,0.2825010197540943,0.7652234718256498,1557.5091575091574,-1.0,91.08125636986937,0.5854004894038671,
2023-08-11 20:00:24.468000,-8.771084337349398,-0.6626506024096386,-4.373493975903615,-0.5640711220110362,-8.709380748007357,-4.026977314530963,3.0,0.5863025863025862,1705.60393790231,1.8660917195967628,0.1579162053493389,0.8723267874832473,1605.8608058608058,-1.0,91.08125636986937,0.5854009469635341,
2023-08-11 20:00:24.476000,-8.771084337349398,-0.6506024096385542,-4.337349397590362,-0.6033108522378908,-8.655426118945432,-3.977927651747394,3.0,0.5858585858585857,1706.8965517241381,1.547462269098539,-0.07167414486335329,0.8114911718431318,1652.0146520146518,-1.0,91.08125636986937,0.5854015639232315,
2023-08-11 20:00:24.484000,-8.783132530120483,-0.6506024096385542,-4.313253012048193,-0.5714285714285714,-8.65787860208461,-4.002452483139178,3.0,0.5863025863025862,1705.60393790231,1.6747275799778587,0.14358137637666823,0.84202552298817,1692.3076923076922,-1.0,91.08125636986937,0.5854023404949212,
2023-08-11 20:00:24.491000,-8.74698795180723,-0.6506024096385542,-4.325301204819278,-0.6106683016554261,-8.645616186388718,-3.9828326180257507,3.0,0.5863025863025862,1705.60393790231,1.98484936775246,-0.06980945166365643,0.5511333838354401,1726.7399267399267,-1.0,91.08125636986937,0.5854032768711185,
2023-08-11 20:00:24.499000,-8.710843373493976,-0.6626506024096386,-4.301204819277109,-0.5665236051502146,-8.599019006744328,-3.955855303494788,3.0,0.5858585858585857,1706.8965517241381,1.329642794708931,0.053027212866383,0.7965736262455553,1752.3809523809523,-1.0,91.08125636986937,0.5854043733840892,
2023-08-11 20:00:24.507000,-8.734939759036145,-0.6626506024096386,-4.313253012048193,-0.5640711220110362,-8.552421827099938,-3.9828326180257507,3.0,0.5863025863025862,1705.60393790231,1.5790455101684047,0.21886836431443438,0.5081288969174302,1769.230769230769,-1.0,91.08125636986937,0.5854056303561249,
2023-08-11 20:00:24.514000,-8.74698795180723,-0.6626506024096386,-4.301204819277109,-0.5812385039852851,-8.652973635806253,-3.985285101164929,3.0,0.5863025863025862,1705.60393790231,1.5531728920226069,0.049064739817027615,0.4195559699318212,1774.3589743589741,-1.0,91.08125636986937,0.585407048066907,
2023-08-11 20:00:24.522000,-8.734939759036145,-0.6626506024096386,-4.313253012048193,-0.5812385039852851,-8.545064377682403,-3.997547516860821,3.0,0.5863025863025862,1705.60393790231,1.2372239379989525,0.09428354990967895,0.6827107977390585,1771.4285714285713,-1.0,91.08125636986937,0.5854086267834174,
2023-08-11 20:00:24.530000,-8.74698795180723,-0.6626506024096386,-4.349397590361446,-0.5959534028203556,-8.62844880441447,-4.026977314530963,3.0,0.5863025863025862,1705.60393790231,1.288969174290542,-0.1363556902278425,0.48540294854612265,1761.172161172161,-1.0,91.08125636986937,0.5854103667682099,
2023-08-11 20:00:24.537000,-8.759036144578314,-0.6626506024096386,-4.421686746987952,-0.5272838749233598,-8.564684242795831,-3.948497854077253,3.0,0.5863025863025862,1705.60393790231,1.095390711496997,0.06258376551483068,0.6399393974710093,1742.124542124542,-1.0,91.08125636986937,0.5854122682766822,
2023-08-11 20:00:24.545000,-8.771084337349398,-0.6506024096385542,-4.373493975903615,-0.5787860208461066,-8.542611894543224,-3.9386879215205393,3.0,0.5863025863025862,1705.60393790231,0.7358545539304221,-0.39601421828564776,0.44379698152788183,1717.216117216117,-1.0,91.08125636986937,0.5854143315539162,
2023-08-11 20:00:24.553000,-8.759036144578314,-0.6626506024096386,-4.36144578313253,-0.5910484365419988,-8.557326793378294,-4.051502145922747,3.0,0.5863025863025862,1705.60393790231,1.021851873433952,-0.653924596468737,0.4162927568323517,1687.179487179487,-1.0,91.08125636986937,0.5854165568311072,
2023-08-11 20:00:24.560000,-8.783132530120483,-0.6626506024096386,-4.36144578313253,-0.5297363580625383,-8.677498467198038,-3.960760269773145,3.0,0.5863025863025862,1705.60393790231,0.46395897674960557,-0.4960083911193981,0.5413437445370314,1655.6776556776556,-1.0,91.08125636986937,0.5854189443216112,
2023-08-11 20:00:24.568000,-8.771084337349398,-0.674698795180723,-4.337349397590362,-0.6180257510729613,-8.694665849172287,-3.960760269773145,3.0,0.5863025863025862,1705.60393790231,0.7796748441233008,-0.7046209428354998,0.05384301614125178,1626.3736263736262,-1.0,91.08125636986937,0.58542149421664,
2023-08-11 20:00:24.576000,-8.74698795180723,-0.674698795180723,-4.373493975903615,-0.5567136725935009,-8.601471489883506,-3.990190067443286,3.0,0.5863025863025862,1705.60393790231,0.5594079599090946,-0.3321484761960261,0.3491638016432618,1600.0,-1.0,91.08125636986937,0.5854242066806314,
2023-08-11 20:00:24.583000,-8.771084337349398,-0.674698795180723,-4.373493975903615,-0.6376456161863887,-8.64316370324954,-4.017167381974248,3.0,0.5863025863025862,1705.60393790231,0.372122836664532,-0.46768836314900103,0.30802400792494483,1574.3589743589744,-1.0,91.08125636986937,0.5854270818463323,
2023-08-11 20:00:24.591000,-8.771084337349398,-0.6867469879518072,-4.397590361445784,-0.6180257510729613,-8.623543838136113,-4.022072348252606,3.0,0.5863025863025862,1705.60393790231,0.5229298991900251,-0.2832002797039794,0.7107977390594948,1553.8461538461538,-1.0,91.08125636986937,0.585430119809628,
2023-08-11 20:00:24.599000,-8.759036144578314,-0.674698795180723,-4.349397590361446,-0.615573267933783,-8.679950950337217,-4.002452483139178,3.0,0.5854145854145854,1708.1911262798637,0.8523978789114842,-0.28261756307907515,0.024823728220966765,1531.135531135531,-1.0,91.08125636986937,0.5854333206241545,
2023-08-11 20:00:24.606000,-8.771084337349398,-0.674698795180723,-4.349397590361446,-0.5567136725935009,-8.618638871857755,-3.987737584304108,3.0,0.5858585858585857,1706.8965517241381,0.3873900122370511,-0.09941145620884616,0.10815220558242582,1509.89010989011,-1.0,91.08125636986937,0.5854366841358914,
2023-08-11 20:00:24.614000,-8.783132530120483,-0.6867469879518072,-4.36144578313253,-0.5665236051502146,-8.640711220110362,-3.9803801348865724,3.0,0.5863025863025862,1705.60393790231,0.3674611036652855,-0.10057688945865627,0.09754676300914931,1491.5750915750914,-1.0,91.08125636986937,0.5854402100626201,
2023-08-11 20:00:24.622000,-8.759036144578314,-0.674698795180723,-4.373493975903615,-0.5738810545677498,-8.625996321275291,-4.0,3.0,0.5863025863025862,1705.60393790231,0.3769011129887524,-0.2681661907814237,-0.18588660334479237,1474.7252747252746,-1.0,91.08125636986937,0.5854438981466668,
2023-08-11 20:00:24.629000,-8.74698795180723,-0.6626506024096386,-4.36144578313253,-0.5567136725935009,-8.64316370324954,-4.029429797670141,3.0,0.5863025863025862,1705.60393790231,0.5405279412621644,-0.4369209253540012,-0.13216013052852413,1460.07326007326,-1.0,91.08125636986937,0.5854477480515891,
2023-08-11 20:00:24.637000,-8.771084337349398,-0.6506024096385542,-4.349397590361446,-0.5714285714285714,-8.650521152667075,-4.022072348252606,3.0,0.5863025863025862,1705.60393790231,0.1364722335528216,-0.34671639181865843,-0.09335120330983139,1448.3516483516482,-1.0,91.08125636986937,0.5854517593659054,
2023-08-11 20:00:24.645000,-8.759036144578314,-0.6626506024096386,-4.325301204819278,-0.5125689760882893,-8.64316370324954,-3.9926425505824645,3.0,0.5863025863025862,1705.60393790231,0.25115086533418685,-0.8694132043587202,-0.13076161062875083,1435.164835164835,-1.0,91.08125636986937,0.585455931596336,
2023-08-11 20:00:24.652000,-8.74698795180723,-0.6626506024096386,-4.337349397590362,-0.6033108522378908,-8.59656652360515,-3.995095033721643,3.0,0.5858585858585857,1706.8965517241381,0.015966435522404104,-1.1896742614066784,0.32002797039799524,1419.7802197802198,620.452880859375,96.70355614578722,0.585460264161151,
2023-08-11 20:00:24.660000,-8.759036144578314,-0.6626506024096386,-4.349397590361446,-0.6302881667688535,-8.601471489883506,-3.936235438381361,3.0,0.5863025863025862,1705.60393790231,-0.1260998776295072,-1.1267408659169051,-0.08635860381096655,1405.8608058608058,-1.0,96.70355614578722,0.5854647562343834,
2023-08-11 20:00:24.668000,-8.734939759036145,-0.6987951807228916,-4.325301204819278,-0.6302881667688535,-8.569589209074188,-3.9730226854690374,3.0,0.5863025863025862,1705.60393790231,-0.14567915622632502,-1.5511916554979308,0.30406153487558946,1391.9413919413919,-1.0,96.70355614578722,0.5854694068669626,
2023-08-11 20:00:24.675000,-8.771084337349398,-0.6987951807228916,-4.27710843373494,-0.6327406499080318,-8.56713672593501,-3.9730226854690374,3.0,0.5863025863025862,1705.60393790231,-0.13285939047841044,-1.6048015849892199,0.5846978614299867,1376.5567765567764,-1.0,96.70355614578722,0.5854742151396238,
2023-08-11 20:00:24.683000,-8.759036144578314,-0.6867469879518072,-4.253012048192772,-0.5787860208461066,-8.601471489883506,-3.9337829552421826,3.0,0.5863025863025862,1705.60393790231,-0.22900763358778625,-1.334304527708176,0.20628168521647888,1366.3003663003662,-1.0,96.70355614578722,0.5854791800182495,
2023-08-11 20:00:24.691000,-8.74698795180723,-0.6867469879518072,-4.289156626506024,-0.6008583690987124,-8.635806253832005,-3.9117106069895766,3.0,0.5863025863025862,1705.60393790231,-0.5192005127906296,-0.8037993123943825,0.12003962473049316,1356.7765567765566,-1.0,96.70355614578722,0.5854843003483152,
2023-08-11 20:00:24.698000,-8.759036144578314,-0.6626506024096386,-4.301204819277109,-0.5812385039852851,-8.679950950337217,-3.9460453709380747,3.0,0.5863025863025862,1705.60393790231,-0.21105996154070444,-0.1361226035778808,0.20336810209195222,1349.4505494505493,-1.0,96.70355614578722,0.585489574849736,
2023-08-11 20:00:24.706000,-8.74698795180723,-0.6626506024096386,-4.337349397590362,-0.6131207847946045,-8.64316370324954,-3.955855303494788,3.0,0.5863025863025862,1705.60393790231,-0.35056232154303213,-0.05547462269098577,-0.049297826466988964,1342.1245421245421,-1.0,96.70355614578722,0.5854950021121551,
2023-08-11 20:00:24.714000,-8.771084337349398,-0.6626506024096386,-4.337349397590362,-0.6057633353770693,-8.608828939301041,-4.002452483139178,3.0,0.5863025863025862,1705.60393790231,-0.2872792960783173,0.41943942660684097,0.12388555445486933,1338.4615384615383,-1.0,96.70355614578722,0.5855005805907143,
2023-08-11 20:00:24.721000,-8.759036144578314,-0.6506024096385542,-4.337349397590362,-0.5812385039852851,-8.633353770692827,-4.046597179644389,3.0,0.5863025863025862,1705.60393790231,-0.5446069576365015,0.20383427539187698,-0.05139560631664857,1339.9267399267399,-1.0,96.70355614578722,0.58550630860234,
2023-08-11 20:00:24.729000,-8.759036144578314,-0.6626506024096386,-4.373493975903615,-0.5493562231759657,-8.677498467198038,-3.9705702023298586,3.0,0.5863025863025862,1705.60393790231,-0.7379523337800841,-0.08286230406153441,-0.13740458015267176,1342.1245421245421,-1.0,96.70355614578722,0.5855121843225753,
2023-08-11 20:00:24.737000,-8.759036144578314,-0.674698795180723,-4.349397590361446,-0.5493562231759657,-8.557326793378294,-3.995095033721643,3.0,0.5863025863025862,1705.60393790231,-0.7646407552007459,-0.5212982926402882,-0.558592156634228,1347.985347985348,-1.0,96.70355614578722,0.5855182057829915,
2023-08-11 20:00:24.744000,-8.74698795180723,-0.6626506024096386,-4.325301204819278,-0.5174739423666462,-8.59656652360515,-3.9705702023298586,3.0,0.5863025863025862,1705.60393790231,-1.092710215022435,-0.43459005885437924,-0.39578113163568596,1353.8461538461538,-1.0,96.70355614578722,0.5855243708692002,
2023-08-11 20:00:24.752000,-8.734939759036145,-0.674698795180723,-4.313253012048193,-0.5836909871244634,-8.601471489883506,-3.9288779889638255,3.0,0.5858585858585857,1706.8965517241381,-0.9611328011188173,-1.2185770060019814,-0.28017015325447236,1359.7069597069597,-1.0,96.70355614578722,0.5855306773194853,
2023-08-11 20:00:24.760000,-8.74698795180723,-0.674698795180723,-4.325301204819278,-0.6131207847946045,-8.623543838136113,-3.995095033721643,3.0,0.5858585858585857,1706.8965517241381,-0.8142882116426786,-1.0047200046617333,-0.08868947031058773,1364.8351648351647,-1.0,96.70355614578722,0.5855371227135322,
2023-08-11 20:00:24.767000,-8.759036144578314,-0.6867469879518072,-4.325301204819278,-0.5346413243408952,-8.618638871857755,-3.9632127529123236,3.0,0.5863025863025862,1705.60393790231,-1.296544490414312,-0.8704620942835494,-0.3872734689120683,1368.4981684981683,-1.0,96.70355614578722,0.5855437044300955,
2023-08-11 20:00:24.775000,-8.771084337349398,-0.674698795180723,-4.325301204819278,-0.5787860208461066,-8.675045984058858,-4.002452483139178,3.0,0.5863025863025862,1705.60393790231,-0.9518093351203304,-0.5070800069926001,-0.5759571120564065,1370.6959706959706,-1.0,96.70355614578722,0.5855504197859434,
2023-08-11 20:00:24.782000,-8.771084337349398,-0.6867469879518072,-4.325301204819278,-0.6670754138565297,-8.635806253832005,-3.9632127529123236,3.0,0.5863025863025862,1705.60393790231,-0.9457490822213156,-0.39240137521123486,-0.48948196492045865,1368.4981684981683,-1.0,96.70355614578722,0.5855572660582109,
2023-08-11 20:00:24.790000,-8.759036144578314,-0.6867469879518072,-4.325301204819278,-0.5542611894543225,-8.650521152667075,-3.9754751686082157,3.0,0.5863025863025862,1705.60393790231,-1.0457432550550667,0.11526134840626943,-0.6779325214148358,1366.3003663003662,-1.0,96.70355614578722,0.5855642402093545,
2023-08-11 20:00:24.798000,-8.771084337349398,-0.674698795180723,-4.325301204819278,-0.6523605150214592,-8.635806253832005,-3.995095033721643,3.0,0.5863025863025862,1705.60393790231,-0.7480916030534351,0.7106811957345137,-0.8649845580094397,1364.102564102564,-1.0,96.70355614578722,0.5855713389104701,
2023-08-11 20:00:24.805000,-8.771084337349398,-0.6626506024096386,-4.36144578313253,-0.568976088289393,-8.62844880441447,-3.9117106069895766,3.0,0.5863025863025862,1705.60393790231,-1.2671755725190839,-0.006876056173883237,-0.9718547870170733,1361.1721611721612,-1.0,96.70355614578722,0.5855785586927074,
2023-08-11 20:00:24.813000,-8.759036144578314,-0.6385542168674699,-4.337349397590362,-0.5861434702636419,-8.61128142244022,-3.9730226854690374,3.0,0.5858585858585857,1706.8965517241381,-1.282442748091603,0.2373987529864221,-0.6817784511392107,1356.0439560439559,-1.0,96.70355614578722,0.5855858959500693,
2023-08-11 20:00:24.821000,-8.783132530120483,-0.6506024096385542,-4.313253012048193,-0.6033108522378908,-8.68976088289393,-3.997547516860821,3.0,0.5863025863025862,1705.60393790231,-1.114503816793893,-0.34275391876930306,-0.9871219625895924,1355.3113553113553,-1.0,96.70355614578722,0.5855933469323419,
2023-08-11 20:00:24.828000,-8.795180722891567,-0.6506024096385542,-4.289156626506024,-0.627835683629675,-8.618638871857755,-3.9411404046597176,3.0,0.5863025863025862,1705.60393790231,-1.3129770992366412,-0.49542567449449393,-1.0481906648796686,1355.3113553113553,-1.0,96.70355614578722,0.5856009077175266,
2023-08-11 20:00:24.836000,-8.759036144578314,-0.6385542168674699,-4.301204819277109,-0.5248313917841815,-8.59656652360515,-3.9092581238503983,3.0,0.5863025863025862,1705.60393790231,-1.3740458015267174,-0.7091661325097611,-0.7123128022842489,1353.8461538461538,-1.0,96.70355614578722,0.5856085743867088,
2023-08-11 20:00:24.844000,-8.734939759036145,-0.6385542168674699,-4.253012048192772,-0.5812385039852851,-8.625996321275291,-3.9337829552421826,3.0,0.5863025863025862,1705.60393790231,-1.465648854961832,-0.877105063807471,-0.9718547870170733,1351.6483516483515,-1.0,96.70355614578722,0.5856163430192713,
2023-08-11 20:00:24.851000,-8.74698795180723,-0.6144578313253012,-4.228915662650603,-0.5738810545677498,-8.608828939301041,-3.896995708154506,3.0,0.5863025863025862,1705.60393790231,-1.5877862595419847,-0.38855544548686033,-0.727579977856768,1345.054945054945,-1.0,96.70355614578722,0.5856242095505755,
2023-08-11 20:00:24.859000,-8.759036144578314,-0.6144578313253012,-4.265060240963856,-0.4659717964438994,-8.599019006744328,-3.843041079092581,3.0,0.5863025863025862,1705.60393790231,-1.6030534351145038,-0.5564943767845703,-0.8039158557193634,1338.4615384615383,-1.0,96.70355614578722,0.5856321697793372,
2023-08-11 20:00:24.867000,-8.74698795180723,-0.6144578313253012,-4.27710843373494,-0.5248313917841815,-8.608828939301041,-3.9117106069895766,3.0,0.5863025863025862,1705.60393790231,-1.7251908396946565,-0.29695239205174584,-1.5062059320552412,1333.3333333333333,-1.0,96.70355614578722,0.5856402193753888,
2023-08-11 20:00:24.874000,-8.771084337349398,-0.6024096385542169,-4.289156626506024,-0.5591661557326794,-8.694665849172287,-3.9019006744328633,3.0,0.5863025863025862,1705.60393790231,-1.648854961832061,-0.144280636326555,-1.4146028786201268,1331.8681318681317,-1.0,96.70355614578722,0.5856483538877908,
2023-08-11 20:00:24.882000,-8.771084337349398,-0.5903614457831325,-4.301204819277109,-0.5738810545677498,-8.652973635806253,-3.9509503372164314,3.0,0.5863025863025862,1705.60393790231,-1.3893129770992365,0.3442689819940557,-1.3382670007575312,1331.8681318681317,-1.0,96.70355614578722,0.5856565687532695,
2023-08-11 20:00:24.890000,-8.771084337349398,-0.6144578313253012,-4.325301204819278,-0.4782342121397915,-8.640711220110362,-3.995095033721643,3.0,0.5863025863025862,1705.60393790231,-1.3893129770992365,0.3442689819940557,-1.3382670007575312,1331.135531135531,-1.0,96.70355614578722,0.5856648593049525,
2023-08-11 20:00:24.897000,-8.783132530120483,-0.6144578313253012,-4.337349397590362,-0.48313917841814835,-8.635806253832005,-3.987737584304108,3.0,0.5863025863025862,1705.60393790231,-1.3587786259541985,0.4969407377192465,-1.475671580910203,1331.135531135531,-1.0,96.70355614578722,0.5856732207813693,
2023-08-11 20:00:24.905000,-8.783132530120483,-0.6265060240963856,-4.289156626506024,-0.5346413243408952,-8.62844880441447,-3.985285101164929,3.0,0.5858585858585857,1706.8965517241381,-1.2061068702290076,0.573276615581842,-1.6283433366353939,1329.6703296703297,-1.0,96.70355614578722,0.5856816483356851,
2023-08-11 20:00:24.913000,-8.783132530120483,-0.6265060240963856,-4.337349397590362,-0.5370938074800735,-8.61128142244022,-3.9828326180257507,3.0,0.5858585858585857,1706.8965517241381,-1.5419847328244274,0.7870170735971092,-1.475671580910203,1328.937728937729,-1.0,96.70355614578722,0.5856901370345959,
2023-08-11 20:00:24.920000,-8.759036144578314,-0.6385542168674699,-4.349397590361446,-0.568976088289393,-8.635806253832005,-3.9681177191906802,3.0,0.5858585858585857,1706.8965517241381,-1.4351145038167938,1.0007575316123762,-1.5520074587727986,1328.2051282051282,-1.0,96.70355614578722,0.5856986818256783,
2023-08-11 20:00:24.928000,-8.771084337349398,-0.6385542168674699,-4.349397590361446,-0.5714285714285714,-8.633353770692827,-3.9730226854690374,3.0,0.5863025863025862,1705.60393790231,-1.2519083969465647,0.5274750888642847,-1.7810150923605848,1328.2051282051282,-1.0,96.70355614578722,0.5857072773974502,
2023-08-11 20:00:24.936000,-8.74698795180723,-0.6506024096385542,-4.337349397590362,-0.568976088289393,-8.638258736971183,-3.9730226854690374,3.0,0.5858585858585857,1706.8965517241381,-1.4351145038167938,0.5427422644368037,-1.7504807412155465,1329.6703296703297,-1.0,96.70355614578722,0.5857159183581209,
2023-08-11 20:00:24.943000,-8.74698795180723,-0.6867469879518072,-4.36144578313253,-0.6057633353770693,-8.65787860208461,-3.987737584304108,3.0,0.5863025863025862,1705.60393790231,-1.465648854961832,0.4358720354291702,-1.5672746343453174,1329.6703296703297,-1.0,96.70355614578722,0.5857245992649348,
2023-08-11 20:00:24.951000,-8.771084337349398,-0.674698795180723,-4.337349397590362,-0.6008583690987124,-8.625996321275291,-3.9828326180257507,3.0,0.5863025863025862,1705.60393790231,-1.7404580152671756,0.5122079132917656,-1.5825418099178366,1326.007326007326,-1.0,96.70355614578722,0.5857333146218675,
2023-08-11 20:00:24.959000,-8.759036144578314,-0.6987951807228916,-4.325301204819278,-0.5959534028203556,-8.630901287553648,-3.9411404046597176,3.0,0.5863025863025862,1705.60393790231,-1.7862595419847327,0.03892547054367401,-1.85735097022318,1321.6117216117216,-1.0,96.70355614578722,0.5857420590476329,
2023-08-11 20:00:24.966000,-8.783132530120483,-0.6987951807228916,-4.325301204819278,-0.6302881667688535,-8.694665849172287,-3.8920907418761495,3.0,0.5863025863025862,1705.60393790231,-2.091603053435114,0.03892547054367401,-1.8268166190781419,1317.9487179487178,-1.0,96.70355614578722,0.5857508271458328,
2023-08-11 20:00:24.974000,-8.783132530120483,-0.710843373493976,-4.349397590361446,-0.6768853464132434,-8.640711220110362,-4.019619865113427,3.0,0.5863025863025862,1705.60393790231,-2.0610687022900764,0.03892547054367401,-1.7199463900705083,1315.018315018315,-1.0,96.70355614578722,0.5857596135138601,
2023-08-11 20:00:24.982000,-8.771084337349398,-0.710843373493976,-4.301204819277109,-0.6695278969957081,-8.687308399754752,-3.977927651747394,3.0,0.5863025863025862,1705.60393790231,-1.9389312977099236,0.02365829497115493,-2.02528990152089,1313.5531135531135,-1.0,96.70355614578722,0.5857684127517856,
2023-08-11 20:00:24.989000,-8.771084337349398,-0.6867469879518072,-4.337349397590362,-0.6253832004904966,-8.630901287553648,-3.9803801348865724,3.0,0.5863025863025862,1705.60393790231,-1.9694656488549618,0.3290018064215366,-1.8726181457956992,1312.8205128205127,-1.0,96.70355614578722,0.5857772194712054,
2023-08-11 20:00:24.997000,-8.74698795180723,-0.6987951807228916,-4.313253012048193,-0.5812385039852851,-8.562231759656651,-3.9803801348865724,3.0,0.5858585858585857,1706.8965517241381,-2.0,0.5122079132917656,-1.7810150923605848,1312.8205128205127,-1.0,96.70355614578722,0.5857860283040313,
2023-08-11 20:00:25.005000,-8.759036144578314,-0.6867469879518072,-4.337349397590362,-0.6033108522378908,-8.56713672593501,-4.029429797670141,3.0,0.5863025863025862,1705.60393790231,-1.7099236641221374,0.4358720354291702,-1.5672746343453174,1314.2857142857142,-1.0,96.70355614578722,0.5857948337619077,
2023-08-11 20:00:25.012000,-8.74698795180723,-0.6987951807228916,-4.313253012048193,-0.5935009196811771,-8.630901287553648,-3.955855303494788,3.0,0.5863025863025862,1705.60393790231,-2.183206106870229,0.405337684284132,-1.842083794650661,1315.7509157509157,-1.0,96.70355614578722,0.5858036303722447,
2023-08-11 20:00:25.020000,-8.74698795180723,-0.710843373493976,-4.313253012048193,-0.6106683016554261,-8.697118332311465,-3.9092581238503983,3.0,0.5863025863025862,1705.60393790231,-2.091603053435114,-0.006876056173883237,-1.643610512207913,1317.9487179487178,-1.0,96.70355614578722,0.5858124128456534,
2023-08-11 20:00:25.028000,-8.771084337349398,-0.7349397590361446,-4.349397590361446,-0.6425505824647455,-8.64316370324954,-3.9460453709380747,3.0,0.5863025863025862,1705.60393790231,-2.3206106870229006,0.46640638657420835,-1.7046792144979892,1317.9487179487178,-1.0,96.70355614578722,0.5858211759453741,
2023-08-11 20:00:25.035000,-8.795180722891567,-0.710843373493976,-4.325301204819278,-0.7063151440833844,-8.662783568362967,-4.031882280809319,3.0,0.5863025863025862,1705.60393790231,-2.3206106870229006,0.5122079132917656,-1.7199463900705083,1319.4139194139193,-1.0,96.70355614578722,0.5858299144953085,
2023-08-11 20:00:25.043000,-8.783132530120483,-0.7228915662650602,-4.325301204819278,-0.6744328632740649,-8.625996321275291,-4.01471489883507,3.0,0.5863025863025862,1705.60393790231,-2.198473282442748,0.45113921100168924,-1.9947555503758518,1321.6117216117216,-1.0,96.70355614578722,0.5858386233878923,
2023-08-11 20:00:25.051000,-8.783132530120483,-0.7590361445783133,-4.325301204819278,-0.6940527283874923,-8.630901287553648,-3.9435928877988964,3.0,0.5863025863025862,1705.60393790231,-2.1221374045801524,0.46640638657420835,-1.5520074587727986,1324.5421245421244,-1.0,96.70355614578722,0.5858472975917917,
2023-08-11 20:00:25.058000,-8.759036144578314,-0.746987951807229,-4.373493975903615,-0.6842427958307786,-8.537706928264868,-3.997547516860821,3.0,0.5858585858585857,1706.8965517241381,-2.259541984732824,0.6648796690169564,-1.85735097022318,1327.4725274725274,-1.0,96.70355614578722,0.5858559321594087,
2023-08-11 20:00:25.066000,-8.74698795180723,-0.7349397590361446,-4.337349397590362,-0.6768853464132434,-8.616186388718576,-4.007357449417535,3.0,0.5858585858585857,1706.8965517241381,-2.6412213740458013,0.4206048598566511,-1.8878853213682183,1331.8681318681317,-1.0,96.70355614578722,0.5858645222236412,
2023-08-11 20:00:25.074000,-8.74698795180723,-0.7228915662650602,-4.36144578313253,-0.6351931330472103,-8.564684242795831,-4.041692213366033,3.0,0.5863025863025862,1705.60393790231,-2.778625954198473,0.405337684284132,-1.3535341763300504,1339.194139194139,-1.0,96.70355614578722,0.585873062962711,
2023-08-11 20:00:25.081000,-8.734939759036145,-0.710843373493976,-4.337349397590362,-0.6597179644389944,-8.652973635806253,-4.080931943592888,3.0,0.5863025863025862,1705.60393790231,-2.8091603053435112,0.03892547054367401,-1.0787250160247068,1348.7179487179487,-1.0,96.70355614578722,0.5858815496066315,
2023-08-11 20:00:25.089000,-8.72289156626506,-0.6987951807228916,-4.373493975903615,-0.6057633353770693,-8.675045984058858,-3.9632127529123236,3.0,0.5863025863025862,1705.60393790231,-3.0839694656488548,-0.052677582891440485,-1.7199463900705083,1365.5677655677655,-1.0,96.70355614578722,0.585889977485305,
2023-08-11 20:00:25.097000,-8.759036144578314,-0.6987951807228916,-4.325301204819278,-0.6793378295524218,-8.584304107909258,-4.024524831391784,3.0,0.5863025863025862,1705.60393790231,-2.946564885496183,-0.38855544548686033,-1.5520074587727986,1391.2087912087911,-1.0,96.70355614578722,0.5858983420446698,
2023-08-11 20:00:25.104000,-8.734939759036145,-0.6987951807228916,-4.325301204819278,-0.627835683629675,-8.675045984058858,-3.9926425505824645,3.0,0.5863025863025862,1705.60393790231,-2.8091603053435112,-0.2664180409067077,-1.2161295961773786,1422.7106227106226,-1.0,96.70355614578722,0.585906638852058,
2023-08-11 20:00:25.112000,-8.72289156626506,-0.6987951807228916,-4.301204819277109,-0.5738810545677498,-8.576946658491723,-3.9337829552421826,3.0,0.5863025863025862,1705.60393790231,-2.9923664122137406,-0.2664180409067077,-1.4298700541926457,1460.8058608058607,-1.0,96.70355614578722,0.5859148636013103,
2023-08-11 20:00:25.120000,-8.759036144578314,-0.674698795180723,-4.325301204819278,-0.6033108522378908,-8.640711220110362,-3.955855303494788,3.0,0.5863025863025862,1705.60393790231,-3.0076335877862594,-0.09847910960899774,-1.5520074587727986,1504.0293040293038,-1.0,96.70355614578722,0.5859230121176437,
2023-08-11 20:00:25.127000,-8.771084337349398,-0.6867469879518072,-4.301204819277109,-0.5812385039852851,-8.648068669527897,-3.987737584304108,3.0,0.5863025863025862,1705.60393790231,-2.854961832061069,0.2832002797039794,-1.658877687780432,1553.113553113553,-1.0,96.70355614578722,0.5859310803622725,
2023-08-11 20:00:25.135000,-8.783132530120483,-0.674698795180723,-4.313253012048193,-0.6057633353770693,-8.635806253832005,-3.9534028203556097,3.0,0.5863025863025862,1705.60393790231,-2.9770992366412212,0.45113921100168924,-1.5520074587727986,1603.6630036630036,-1.0,96.70355614578722,0.5859390644367841,
2023-08-11 20:00:25.143000,-8.807228915662652,-0.6867469879518072,-4.313253012048193,-0.5812385039852851,-8.68976088289393,-3.9215205395462904,3.0,0.5863025863025862,1705.60393790231,-2.8091603053435112,0.5122079132917656,-1.5367402832002794,1652.0146520146518,-1.0,96.70355614578722,0.5859469605872643,
2023-08-11 20:00:25.150000,-8.771084337349398,-0.6626506024096386,-4.337349397590362,-0.5959534028203556,-8.62844880441447,-3.985285101164929,3.0,0.5867465867465866,1704.3132803632238,-2.854961832061069,0.5122079132917656,-1.5825418099178366,1690.8424908424906,-1.0,96.70355614578722,0.5859547652081772,
2023-08-11 20:00:25.158000,-8.771084337349398,-0.6867469879518072,-4.325301204819278,-0.5444512568976088,-8.638258736971183,-3.9926425505824645,3.0,0.5863025863025862,1705.60393790231,-2.6412213740458013,0.37480333313909386,-1.7810150923605848,1716.4835164835163,-1.0,96.70355614578722,0.5859624749952861,
2023-08-11 20:00:25.165000,-8.771084337349398,-0.6626506024096386,-4.337349397590362,-0.5714285714285714,-8.638258736971183,-4.019619865113427,3.0,0.5863025863025862,1705.60393790231,-2.6412213740458013,0.37480333313909386,-1.7810150923605848,1729.6703296703295,-1.0,96.70355614578722,0.5859700868216211,
2023-08-11 20:00:25.173000,-8.783132530120483,-0.6626506024096386,-4.349397590361446,-0.5787860208461066,-8.603923973022685,-3.985285101164929,3.0,0.5863025863025862,1705.60393790231,-2.8091603053435112,0.2832002797039794,-1.0481906648796686,1730.4029304029302,-1.0,96.70355614578722,0.5859775975816716,
2023-08-11 20:00:25.181000,-8.771084337349398,-0.674698795180723,-4.325301204819278,-0.6302881667688535,-8.65787860208461,-3.995095033721643,3.0,0.5863025863025862,1705.60393790231,-2.6259541984732824,0.29846745527649843,-1.4909387564827221,1724.5421245421244,-1.0,96.70355614578722,0.585985004333206,
2023-08-11 20:00:25.188000,-8.759036144578314,-0.674698795180723,-4.325301204819278,-0.5174739423666462,-8.662783568362967,-4.041692213366033,3.0,0.5863025863025862,1705.60393790231,-2.8396946564885495,0.31373463084901754,-1.307732649612493,1711.3553113553112,-1.0,96.70355614578722,0.5859923043000824,
2023-08-11 20:00:25.196000,-8.759036144578314,-0.6506024096385542,-4.337349397590362,-0.5714285714285714,-8.652973635806253,-3.977927651747394,3.0,0.5863025863025862,1705.60393790231,-2.198473282442748,-0.15954781189907408,-1.460404405337684,1691.5750915750914,-1.0,96.70355614578722,0.5859994948748006,
2023-08-11 20:00:25.204000,-8.795180722891567,-0.674698795180723,-4.337349397590362,-0.5910484365419988,-8.648068669527897,-3.9705702023298586,3.0,0.5863025863025862,1705.60393790231,-2.564885496183206,-0.17481498747159316,-1.5520074587727986,1665.9340659340658,-1.0,96.70355614578722,0.5860065736207886,
2023-08-11 20:00:25.211000,-8.783132530120483,-0.6506024096385542,-4.325301204819278,-0.5935009196811771,-8.635806253832005,-3.987737584304108,3.0,0.5858585858585857,1706.8965517241381,-2.259541984732824,0.08472699726123126,-1.3382670007575312,1634.4322344322343,-1.0,96.70355614578722,0.5860135382744256,
2023-08-11 20:00:25.219000,-8.795180722891567,-0.6506024096385542,-4.337349397590362,-0.627835683629675,-8.625996321275291,-3.9435928877988964,3.0,0.5863025863025862,1705.60393790231,-2.4122137404580153,-0.34275391876930306,-1.3688013519025695,1602.197802197802,-1.0,96.70355614578722,0.586020386736252,
2023-08-11 20:00:25.227000,-8.74698795180723,-0.6265060240963856,-4.337349397590362,-0.5640711220110362,-8.594114040465971,-3.960760269773145,3.0,0.5863025863025862,1705.60393790231,-2.396946564885496,-0.17481498747159316,-1.5520074587727986,1571.4285714285713,-1.0,96.70355614578722,0.5860271171794891,
2023-08-11 20:00:25.234000,-8.771084337349398,-0.6385542168674699,-4.325301204819278,-0.5935009196811771,-8.603923973022685,-3.977927651747394,3.0,0.5863025863025862,1705.60393790231,-2.519083969465649,-0.34275391876930306,-1.5214731076277603,1542.8571428571427,-1.0,96.70355614578722,0.5860337280621923,
2023-08-11 20:00:25.242000,-8.74698795180723,-0.6506024096385542,-4.349397590361446,-0.6229307173513182,-8.608828939301041,-4.012262415695892,3.0,0.5863025863025862,1705.60393790231,-2.900763358778626,-0.144280636326555,-1.4146028786201268,1515.7509157509157,-1.0,96.70355614578722,0.5860402178516015,
2023-08-11 20:00:25.250000,-8.771084337349398,-0.674698795180723,-4.337349397590362,-0.6008583690987124,-8.616186388718576,-3.965665236051502,3.0,0.5863025863025862,1705.60393790231,-2.4732824427480917,0.20686440184138394,-1.3993357030476077,1490.10989010989,-1.0,96.70355614578722,0.5860465850459018,
2023-08-11 20:00:25.257000,-8.759036144578314,-0.6626506024096386,-4.337349397590362,-0.5935009196811771,-8.616186388718576,-3.9435928877988964,3.0,0.5863025863025862,1705.60393790231,-2.564885496183206,-0.144280636326555,-1.6283433366353939,1466.6666666666665,-1.0,96.70355614578722,0.5860528283231267,
2023-08-11 20:00:25.265000,-8.734939759036145,-0.674698795180723,-4.36144578313253,-0.5738810545677498,-8.616186388718576,-3.948497854077253,3.0,0.5863025863025862,1705.60393790231,-2.5801526717557253,-0.052677582891440485,-1.475671580910203,1445.4212454212454,-1.0,96.70355614578722,0.5860589465405083,
2023-08-11 20:00:25.273000,-8.734939759036145,-0.6626506024096386,-4.301204819277109,-0.6327406499080318,-8.599019006744328,-4.034334763948498,3.0,0.5863025863025862,1705.60393790231,-2.6564885496183206,-0.525960025639532,-1.643610512207913,1427.106227106227,-1.0,96.70355614578722,0.5860649387335596,
2023-08-11 20:00:25.280000,-8.734939759036145,-0.6506024096385542,-4.349397590361446,-0.6082158185162476,-8.56713672593501,-3.990190067443286,3.0,0.5863025863025862,1705.60393790231,-2.33587786259542,-0.5717615523570894,-1.7962822679331039,1413.1868131868132,-1.0,96.70355614578722,0.5860708041149069,
2023-08-11 20:00:25.288000,-8.74698795180723,-0.6626506024096386,-4.313253012048193,-0.5812385039852851,-8.56713672593501,-3.9386879215205393,3.0,0.5863025863025862,1705.60393790231,-2.763358778625954,-0.693898956937242,-1.5214731076277603,1402.9304029304028,-1.0,96.70355614578722,0.5860765420728715,
2023-08-11 20:00:25.296000,-8.759036144578314,-0.6626506024096386,-4.313253012048193,-0.6523605150214592,-8.584304107909258,-3.948497854077253,3.0,0.5863025863025862,1705.60393790231,-2.6564885496183206,-0.6175630790746466,-1.4909387564827221,1394.139194139194,-1.0,96.70355614578722,0.5860821521698064,
2023-08-11 20:00:25.303000,-8.74698795180723,-0.6867469879518072,-4.337349397590362,-0.6253832004904966,-8.623543838136113,-3.990190067443286,3.0,0.5863025863025862,1705.60393790231,-2.549618320610687,-0.6175630790746466,-1.460404405337684,1385.3479853479853,651.092529296875,92.15280056245606,0.5860876341401938,
2023-08-11 20:00:25.311000,-8.759036144578314,-0.6867469879518072,-4.301204819277109,-0.568976088289393,-8.638258736971183,-3.990190067443286,3.0,0.5863025863025862,1705.60393790231,-2.5343511450381677,-0.4038226210593794,-1.4146028786201268,1378.7545787545787,-1.0,92.15280056245606,0.5860929878885073,
2023-08-11 20:00:25.319000,-8.759036144578314,-0.6867469879518072,-4.337349397590362,-0.6793378295524218,-8.594114040465971,-4.044144696505211,3.0,0.5867465867465866,1704.3132803632238,-2.6717557251908395,-0.6328302546471657,-1.7504807412155465,1370.6959706959706,-1.0,92.15280056245606,0.5860982134868431,
2023-08-11 20:00:25.326000,-8.771084337349398,-0.6867469879518072,-4.27710843373494,-0.6327406499080318,-8.62844880441447,-4.022072348252606,3.0,0.5863025863025862,1705.60393790231,-2.4427480916030535,-0.4190897966318985,-1.7046792144979892,1363.3699633699632,-1.0,92.15280056245606,0.5861033113216216,
2023-08-11 20:00:25.334000,-8.783132530120483,-0.6867469879518072,-4.349397590361446,-0.5616186388718577,-8.650521152667075,-3.9803801348865724,3.0,0.5863025863025862,1705.60393790231,-2.5343511450381677,-0.35802109434182217,-1.5367402832002794,1356.7765567765566,-1.0,92.15280056245606,0.5861082819633496,
2023-08-11 20:00:25.342000,-8.771084337349398,-0.6626506024096386,-4.36144578313253,-0.7136725935009196,-8.655426118945432,-3.9754751686082157,3.0,0.5863025863025862,1705.60393790231,-2.5038167938931295,-0.3122195676242649,-1.68941203892547,1350.9157509157508,-1.0,92.15280056245606,0.5861131260046466,
2023-08-11 20:00:25.349000,-8.783132530120483,-0.6867469879518072,-4.36144578313253,-0.6866952789699571,-8.599019006744328,-3.985285101164929,3.0,0.5863025863025862,1705.60393790231,-2.6564885496183206,-0.28168521647922673,-1.6283433366353939,1344.3223443223442,-1.0,92.15280056245606,0.5861178441959302,
2023-08-11 20:00:25.357000,-8.771084337349398,-0.6867469879518072,-4.36144578313253,-0.6131207847946045,-8.608828939301041,-4.022072348252606,3.0,0.5863025863025862,1705.60393790231,-2.519083969465649,-0.20534933861663132,-1.6741448633529512,1341.3919413919414,-1.0,92.15280056245606,0.5861224374421241,
2023-08-11 20:00:25.365000,-8.783132530120483,-0.6626506024096386,-4.349397590361446,-0.5591661557326794,-8.667688534641323,-3.995095033721643,3.0,0.5858585858585857,1706.8965517241381,-2.8091603053435112,-0.327486743196784,-1.5062059320552412,1337.7289377289376,-1.0,92.15280056245606,0.5861269067991542,
2023-08-11 20:00:25.372000,-8.771084337349398,-0.674698795180723,-4.325301204819278,-0.6057633353770693,-8.584304107909258,-3.9435928877988964,3.0,0.5858585858585857,1706.8965517241381,-2.5801526717557253,-0.19008216304411224,-1.6283433366353939,1335.5311355311355,-1.0,92.15280056245606,0.5861312534596784,
2023-08-11 20:00:25.380000,-8.74698795180723,-0.674698795180723,-4.301204819277109,-0.5935009196811771,-8.625996321275291,-3.985285101164929,3.0,0.5863025863025862,1705.60393790231,-2.916030534351145,-0.7091661325097611,-1.5978089854903557,1335.5311355311355,-1.0,92.15280056245606,0.5861354785681353,
2023-08-11 20:00:25.388000,-8.74698795180723,-0.6626506024096386,-4.289156626506024,-0.6474555487431024,-8.650521152667075,-3.987737584304108,3.0,0.5863025863025862,1705.60393790231,-2.7938931297709924,-0.5870287279296084,-1.475671580910203,1337.7289377289376,-1.0,92.15280056245606,0.5861395833753323,
2023-08-11 20:00:25.395000,-8.74698795180723,-0.674698795180723,-4.289156626506024,-0.6229307173513182,-8.640711220110362,-3.9239730226854688,3.0,0.5863025863025862,1705.60393790231,-2.748091603053435,-0.6480974302196847,-1.658877687780432,1342.1245421245421,-1.0,92.15280056245606,0.5861435694031687,
2023-08-11 20:00:25.403000,-8.759036144578314,-0.6867469879518072,-4.289156626506024,-0.6376456161863887,-8.650521152667075,-3.9386879215205393,3.0,0.5863025863025862,1705.60393790231,-2.595419847328244,-0.510692850067013,-1.4146028786201268,1346.5201465201465,-1.0,92.15280056245606,0.5861474383007451,
2023-08-11 20:00:25.411000,-8.771084337349398,-0.674698795180723,-4.301204819277109,-0.6425505824647455,-8.635806253832005,-3.995095033721643,3.0,0.5863025863025862,1705.60393790231,-2.198473282442748,-0.29695239205174584,-1.5978089854903557,1352.3809523809523,-1.0,92.15280056245606,0.5861511918390316,
2023-08-11 20:00:25.418000,-8.771084337349398,-0.6867469879518072,-4.289156626506024,-0.6057633353770693,-8.623543838136113,-3.9411404046597176,3.0,0.5863025863025862,1705.60393790231,-2.6412213740458013,-0.4038226210593794,-1.7962822679331039,1357.5091575091574,-1.0,92.15280056245606,0.5861548319053589,
2023-08-11 20:00:25.426000,-8.771084337349398,-0.6867469879518072,-4.301204819277109,-0.6082158185162476,-8.662783568362967,-3.9166155732679337,3.0,0.5863025863025862,1705.60393790231,-2.396946564885496,0.22213157741390302,-1.4909387564827221,1361.904761904762,-1.0,92.15280056245606,0.5861583604977383,
2023-08-11 20:00:25.434000,-8.783132530120483,-0.6867469879518072,-4.301204819277109,-0.6351931330472103,-8.633353770692827,-3.9435928877988964,3.0,0.5863025863025862,1705.60393790231,-2.259541984732824,0.25266592855894116,-1.7199463900705083,1367.032967032967,-1.0,92.15280056245606,0.5861617797190252,
2023-08-11 20:00:25.441000,-8.771084337349398,-0.6867469879518072,-4.301204819277109,-0.5861434702636419,-8.655426118945432,-3.9386879215205393,3.0,0.5863025863025862,1705.60393790231,-2.259541984732824,0.25266592855894116,-1.7199463900705083,1369.9633699633698,-1.0,92.15280056245606,0.5861650917709309,
2023-08-11 20:00:25.449000,-8.783132530120483,-0.6987951807228916,-4.337349397590362,-0.640098099325567,-8.606376456161863,-3.960760269773145,3.0,0.5863025863025862,1705.60393790231,-2.7938931297709924,0.3900705087116129,-1.307732649612493,1371.4285714285713,-1.0,92.15280056245606,0.5861682989478952,
2023-08-11 20:00:25.457000,-8.795180722891567,-0.6987951807228916,-4.301204819277109,-0.6327406499080318,-8.662783568362967,-3.9632127529123236,3.0,0.5867465867465866,1704.3132803632238,-2.610687022900763,0.4816735621467274,-1.4146028786201268,1370.6959706959706,-1.0,92.15280056245606,0.5861714036308315,
2023-08-11 20:00:25.464000,-8.771084337349398,-0.6987951807228916,-4.313253012048193,-0.6351931330472103,-8.667688534641323,-3.926425505824647,3.0,0.5867465867465866,1704.3132803632238,-2.4885496183206106,0.26793310413146026,-1.3993357030476077,1370.6959706959706,-1.0,92.15280056245606,0.5861744084300482,
2023-08-11 20:00:25.472000,-8.759036144578314,-0.674698795180723,-4.313253012048193,-0.5910484365419988,-8.67259350091968,-4.01471489883507,3.0,0.5867465867465866,1704.3132803632238,-2.519083969465649,0.37480333313909386,-1.3993357030476077,1365.5677655677655,-1.0,92.15280056245606,0.5861773162006445,
2023-08-11 20:00:25.480000,-8.759036144578314,-0.710843373493976,-4.325301204819278,-0.6425505824647455,-8.655426118945432,-4.024524831391784,3.0,0.5863025863025862,1705.60393790231,-2.519083969465649,0.03892547054367401,-1.3840685274750886,1358.2417582417581,-1.0,92.15280056245606,0.5861801298988737,
2023-08-11 20:00:25.487000,-8.759036144578314,-0.6867469879518072,-4.325301204819278,-0.640098099325567,-8.616186388718576,-3.965665236051502,3.0,0.5867465867465866,1704.3132803632238,-2.427480916030534,-0.006876056173883237,-1.3688013519025695,1348.7179487179487,-1.0,92.15280056245606,0.5861828524280636,
2023-08-11 20:00:25.495000,-8.771084337349398,-0.6987951807228916,-4.313253012048193,-0.6499080318822807,-8.652973635806253,-3.919068056407112,3.0,0.5863025863025862,1705.60393790231,-2.2900763358778624,-0.28168521647922673,-1.5062059320552412,1338.4615384615383,-1.0,92.15280056245606,0.5861854867613542,
2023-08-11 20:00:25.503000,-8.783132530120483,-0.710843373493976,-4.301204819277109,-0.6180257510729613,-8.648068669527897,-3.990190067443286,3.0,0.5867465867465866,1704.3132803632238,-2.427480916030534,0.25266592855894116,-1.5367402832002794,1328.937728937729,-1.0,92.15280056245606,0.5861880359467666,
2023-08-11 20:00:25.510000,-8.771084337349398,-0.6987951807228916,-4.301204819277109,-0.703862660944206,-8.68976088289393,-3.960760269773145,3.0,0.5867465867465866,1704.3132803632238,-2.6564885496183206,-0.052677582891440485,-1.4146028786201268,1322.3443223443223,-1.0,92.15280056245606,0.5861905030912168,
2023-08-11 20:00:25.518000,-8.759036144578314,-0.710843373493976,-4.313253012048193,-0.5910484365419988,-8.662783568362967,-3.9705702023298586,3.0,0.5863025863025862,1705.60393790231,-2.33587786259542,0.2373987529864221,-1.2924654740399741,1315.7509157509157,-1.0,92.15280056245606,0.5861928915149119,
2023-08-11 20:00:25.526000,-8.771084337349398,-0.6987951807228916,-4.313253012048193,-0.6866952789699571,-8.601471489883506,-3.9534028203556097,3.0,0.5863025863025862,1705.60393790231,-0.7738476778742486,-0.08262921741157274,-0.09276848668492438,1310.6227106227104,-1.0,92.15280056245606,0.5861952045974402,
2023-08-11 20:00:25.533000,-8.759036144578314,-0.6867469879518072,-4.313253012048193,-0.6474555487431024,-8.557326793378294,-3.9386879215205393,3.0,0.5867465867465866,1704.3132803632238,-0.9026280519783245,0.5922731775537547,-0.0961482431093758,1304.7619047619046,-1.0,92.15280056245606,0.5861974455922638,
2023-08-11 20:00:25.541000,-8.74698795180723,-0.674698795180723,-4.313253012048193,-0.6916002452483139,-8.576946658491723,-3.960760269773145,3.0,0.5867465867465866,1704.3132803632238,-0.6479808868947057,0.6648796690169564,0.021327428471534297,1301.098901098901,-1.0,92.15280056245606,0.5861996177810734,
2023-08-11 20:00:25.548000,-8.759036144578314,-0.6867469879518072,-4.337349397590362,-0.6253832004904966,-8.618638871857755,-4.004904966278357,3.0,0.5867465867465866,1704.3132803632238,-0.9612493444437946,0.5246780490647394,-0.15080706252549442,1298.168498168498,-1.0,92.15280056245606,0.5862017246386081,
2023-08-11 20:00:25.556000,-8.74698795180723,-0.674698795180723,-4.325301204819278,-0.6621704475781729,-8.635806253832005,-4.019619865113427,3.0,0.5867465867465866,1704.3132803632238,-1.2134490997028125,0.7026397063108204,-0.26187285123244547,1298.9010989010987,-1.0,92.15280056245606,0.5862037696891682,
2023-08-11 20:00:25.564000,-8.74698795180723,-0.6987951807228916,-4.337349397590362,-0.5959534028203556,-8.670141017780502,-4.004904966278357,3.0,0.5867465867465866,1704.3132803632238,-0.7741973078491945,0.6787483246897037,-0.1125808519317052,1298.168498168498,-1.0,92.15280056245606,0.5862057565019991,
