Shimmer_F5D4_Timestamp_FormattedUnix_CAL,Shimmer_F5D4_Accel_LN_X_CAL,Shimmer_F5D4_Accel_LN_Y_CAL,Shimmer_F5D4_Accel_LN_Z_CAL,Shimmer_F5D4_Accel_WR_X_CAL,Shimmer_F5D4_Accel_WR_Y_CAL,Shimmer_F5D4_Accel_WR_Z_CAL,Shimmer_F5D4_GSR_Range_CAL,Shimmer_F5D4_GSR_Skin_Conductance_CAL,Shimmer_F5D4_GSR_Skin_Resistance_CAL,Shimmer_F5D4_Gyro_X_CAL,Shimmer_F5D4_Gyro_Y_CAL,Shimmer_F5D4_Gyro_Z_CAL,Shimmer_F5D4_PPG_A13_CAL,Shimmer_F5D4_PPG_IBI_CAL,Shimmer_F5D4_PPGtoHR_CAL,Shimmer_F5D4_GSR_Skin_Conductance_LPF_CAL,
yyyy/mm/dd hh:mm:ss.000,m/(s^2),m/(s^2),m/(s^2),m/(s^2),m/(s^2),m/(s^2),no_units,uS,kOhms,deg/s,deg/s,deg/s,mV,ms,BPM,uS,
2023-08-17 17:19:44.690000,-6.542168674698796,-0.5783132530120483,-7.457831325301205,-0.4904966278356836,-6.359901900674433,-7.178418148375229,2.0,2.208791208791209,452.73631840796014,0.04288794359303113,-0.5786376085309708,-0.5717615523570889,1390.4761904761904,-1.0,-1.0,2.201804079743059,
2023-08-17 17:19:44.698000,-6.542168674698796,-0.5903614457831325,-7.433734939759036,-0.5591661557326794,-6.283874923359901,-7.210300429184549,2.0,2.208791208791209,452.73631840796014,0.024707184895985928,-0.39508187168579934,-0.5352834916380168,1386.080586080586,-1.0,-1.0,2.201847502984164,
2023-08-17 17:19:44.705000,-6.55421686746988,-0.5783132530120483,-7.433734939759036,-0.539546290619252,-6.259350091968117,-7.168608215818516,2.0,2.208791208791209,452.73631840796014,-0.6483305168696464,-0.32002797039799485,-0.25662840160829786,1380.2197802197802,-1.0,-1.0,2.2018914453914222,
2023-08-17 17:19:44.713000,-6.506024096385542,-0.6024096385542169,-7.409638554216868,-0.5321888412017167,-6.234825260576333,-7.1955855303494785,2.0,2.208791208791209,452.73631840796014,-0.2184021910145093,-0.24718839228483144,-0.22481207388846788,1376.5567765567764,-1.0,-1.0,2.201935906868986,
2023-08-17 17:19:44.720000,-6.530120481927711,-0.5903614457831325,-7.409638554216868,-0.5836909871244634,-6.225015328019619,-7.1661557326793375,2.0,2.208791208791209,452.73631840796014,-0.32573859332206795,-0.60264553347707,-0.19334537614358174,1372.161172161172,-1.0,-1.0,2.2019808870747366,
2023-08-17 17:19:44.728000,-6.518072289156627,-0.5783132530120483,-7.409638554216868,-0.5370938074800735,-6.261802575107295,-7.1808706315144075,2.0,2.208791208791209,452.73631840796014,-0.3442689819940557,-0.556144746809626,-0.23576714643668734,1369.230769230769,-1.0,-1.0,2.202026385932091,
2023-08-17 17:19:44.736000,-6.506024096385542,-0.5903614457831325,-7.409638554216868,-0.6008583690987124,-6.269160024524831,-7.126916002452483,2.0,2.208791208791209,452.73631840796014,-0.28238447642911174,-0.4188567099819351,0.013285939047840959,1367.032967032967,-1.0,-1.0,2.202072404035704,
2023-08-17 17:19:44.743000,-6.542168674698796,-0.6024096385542169,-7.445783132530121,-0.5052115266707541,-6.242182709993869,-7.175965665236051,2.0,2.208791208791209,452.73631840796014,-0.7684866849251214,-0.5270089155643614,-0.2596585280578057,1364.102564102564,-1.0,-1.0,2.2021189421419276,
2023-08-17 17:19:44.751000,-6.530120481927711,-0.5903614457831325,-7.445783132530121,-0.5321888412017167,-6.298589822194972,-7.210300429184549,2.0,2.207326007326008,453.0368403584467,-0.6996095798613133,-0.4461278480275046,-0.0903210768603227,1358.2417582417581,-1.0,-1.0,2.2021660011499087,
2023-08-17 17:19:44.759000,-6.518072289156627,-0.5783132530120483,-7.433734939759036,-0.5616186388718577,-6.264255058246475,-7.210300429184549,2.0,2.208791208791209,452.73631840796014,-0.7413320902045327,-0.6860905541635103,-0.03111706776994322,1353.113553113553,-1.0,-1.0,2.202213582045883,
2023-08-17 17:19:44.766000,-6.542168674698796,-0.5903614457831325,-7.421686746987953,-0.510116492949111,-6.227467811158798,-7.175965665236051,2.0,2.208791208791209,452.73631840796014,-0.5374978148126575,-0.5419264611619379,0.2577938348581084,1347.2527472527472,-1.0,-1.0,2.202261685775692,
2023-08-17 17:19:44.774000,-6.530120481927711,-0.6024096385542169,-7.421686746987953,-0.568976088289393,-6.269160024524831,-7.20784794604537,2.0,2.2102564102564104,452.4361948955916,-0.674552764990385,-0.7514713594778862,0.3309830429462156,1345.054945054945,-1.0,-1.0,2.202310313323431,
2023-08-17 17:19:44.782000,-6.518072289156627,-0.5662650602409639,-7.457831325301205,-0.522378908645003,-6.259350091968117,-7.156345800122624,2.0,2.2102564102564104,452.4361948955916,-0.5821339082804029,-0.6897033972379232,-0.15954781189907363,1345.054945054945,-1.0,-1.0,2.20235946621114,
2023-08-17 17:19:44.789000,-6.542168674698796,-0.5783132530120483,-7.409638554216868,-0.5199264255058246,-6.264255058246475,-7.1735131820968725,2.0,2.208791208791209,452.73631840796014,-0.7000757531612367,-0.4920459180700427,0.10267466930831523,1349.4505494505493,-1.0,-1.0,2.202409146541539,
2023-08-17 17:19:44.797000,-6.530120481927711,-0.5783132530120483,-7.421686746987953,-0.510116492949111,-6.205395462906192,-7.161250766400981,2.0,2.2102564102564104,452.4361948955916,-0.8908571761552357,-0.6325971679972022,0.07412155468795562,1358.2417582417581,-1.0,-1.0,2.2024593555641583,
2023-08-17 17:19:44.805000,-6.530120481927711,-0.5783132530120483,-7.409638554216868,-0.5052115266707541,-6.259350091968117,-7.161250766400981,2.0,2.2102564102564104,452.4361948955916,-0.5760736553813872,-0.3625662840160817,0.0017481498747160184,1368.4981684981683,-1.0,-1.0,2.202510094136765,
2023-08-17 17:19:44.812000,-6.542168674698796,-0.5903614457831325,-7.433734939759036,-0.5444512568976088,-6.261802575107295,-7.161250766400981,2.0,2.2102564102564104,452.4361948955916,-0.6306159314725246,-0.486568381795933,-0.11642678165608084,1379.4871794871794,-1.0,-1.0,2.2025613641690915,
2023-08-17 17:19:44.820000,-6.55421686746988,-0.5903614457831325,-7.409638554216868,-0.5542611894543225,-6.281422440220723,-7.117106069895769,2.0,2.2102564102564104,452.4361948955916,-0.9429520424217703,-0.5450731309364257,-0.11269739525668712,1393.4065934065934,804.290771484375,74.59988616960729,2.2026131680657595,
2023-08-17 17:19:44.828000,-6.530120481927711,-0.5783132530120483,-7.433734939759036,-0.5959534028203556,-6.301042305334151,-7.134273451870018,2.0,2.2102564102564104,452.4361948955916,-0.44507895810267534,-0.21840219101451103,-0.1545364489248877,1409.5238095238094,-1.0,74.59988616960729,2.2026655082061346,
2023-08-17 17:19:44.835000,-6.530120481927711,-0.5783132530120483,-7.385542168674699,-0.5542611894543225,-6.222562844880441,-7.134273451870018,2.0,2.2102564102564104,452.4361948955916,-0.7163918186585868,0.060952158965095496,-0.04300448691801197,1427.8388278388277,-1.0,74.59988616960729,2.2027183864585336,
2023-08-17 17:19:44.843000,-6.530120481927711,-0.5783132530120483,-7.397590361445784,-0.5321888412017167,-6.229920294297976,-7.139178418148375,2.0,2.2102564102564104,452.4361948955916,-0.23798146961132802,-0.16199522172367511,0.047782763242235377,1449.084249084249,-1.0,74.59988616960729,2.2027718042192466,
2023-08-17 17:19:44.851000,-6.518072289156627,-0.5783132530120483,-7.421686746987953,-0.5150214592274678,-6.269160024524831,-7.1587982832618025,2.0,2.2102564102564104,452.4361948955916,-0.2989336285764235,-0.1709690577472186,0.11024998543208435,1465.201465201465,-1.0,74.59988616960729,2.202825763330323,
2023-08-17 17:19:44.858000,-6.530120481927711,-0.5903614457831325,-7.421686746987953,-0.5419987737584304,-6.242182709993869,-7.1661557326793375,2.0,2.2102564102564104,452.4361948955916,-0.5277081755142481,0.28867781597808906,-0.1808752403706075,1479.8534798534797,-1.0,74.59988616960729,2.202880265980071,
2023-08-17 17:19:44.866000,-6.55421686746988,-0.6024096385542169,-7.421686746987953,-0.5419987737584304,-6.283874923359901,-7.183323114653587,2.0,2.2102564102564104,452.4361948955916,-0.34252083211933965,0.2104772449157968,-0.5155876697162168,1493.7728937728937,-1.0,74.59988616960729,2.2029353137251446,
2023-08-17 17:19:44.874000,-6.55421686746988,-0.5903614457831325,-7.421686746987953,-0.5370938074800735,-6.249540159411404,-7.119558553034947,2.0,2.2102564102564104,452.4361948955916,-0.30942252782471963,-0.20406736204183865,0.11491171843132691,1502.5641025641025,-1.0,74.59988616960729,2.202990907988338,
2023-08-17 17:19:44.881000,-6.55421686746988,-0.5783132530120483,-7.433734939759036,-0.568976088289393,-6.318209687308399,-7.1514408338442665,2.0,2.2102564102564104,452.4361948955916,-0.3096556144746813,-0.1889167297943004,0.038575840568731506,1509.89010989011,-1.0,74.59988616960729,2.2030470504524478,
2023-08-17 17:19:44.889000,-6.530120481927711,-0.5903614457831325,-7.409638554216868,-0.5567136725935009,-6.328019619865113,-7.124463519313304,2.0,2.2102564102564104,452.4361948955916,-0.42946215255521203,-0.4378532719538496,0.13285939047841044,1515.7509157509157,-1.0,74.59988616960729,2.203103742541171,
2023-08-17 17:19:44.897000,-6.542168674698796,-0.6024096385542169,-7.421686746987953,-0.522378908645003,-6.274064990803188,-7.141630901287553,2.0,2.211721611721612,452.13646902947994,-0.03169978439484827,-0.6841093176388326,0.25674494493327915,1520.14652014652,-1.0,74.59988616960729,2.2031609853928673,
2023-08-17 17:19:44.904000,-6.518072289156627,-0.5783132530120483,-7.421686746987953,-0.510116492949111,-6.198038013488657,-7.139178418148375,2.0,2.208791208791209,452.73631840796014,-0.0816968708117243,-0.5187343394907064,0.19462735271837311,1520.14652014652,-1.0,74.59988616960729,2.203218780327302,
2023-08-17 17:19:44.912000,-6.518072289156627,-0.5903614457831325,-7.409638554216868,-0.5419987737584304,-6.256897608828939,-7.1072961373390555,2.0,2.2102564102564104,452.4361948955916,-0.5157042130411976,-0.3693257968649841,0.36070159081638575,1517.9487179487178,-1.0,74.59988616960729,2.203277127906872,
2023-08-17 17:19:44.920000,-6.506024096385542,-0.5783132530120483,-7.421686746987953,-0.5003065603923973,-6.234825260576333,-7.156345800122624,2.0,2.2102564102564104,452.4361948955916,-0.2561622283083732,-0.4329584523046441,0.17749548394615672,1513.5531135531135,-1.0,74.59988616960729,2.2033360278073655,
2023-08-17 17:19:44.927000,-6.493975903614458,-0.5903614457831325,-7.409638554216868,-0.49540159411404044,-6.198038013488657,-7.112201103617412,2.0,2.211721611721612,452.13646902947994,-0.35300973136763575,-0.084726997261233,0.025406444845871817,1504.0293040293038,-1.0,74.59988616960729,2.2033954797761455,
2023-08-17 17:19:44.935000,-6.518072289156627,-0.5662650602409639,-7.385542168674699,-0.5150214592274678,-6.276517473942366,-7.148988350705088,2.0,2.211721611721612,452.13646902947994,-0.44566167472757956,-0.24322591923547607,-0.032515587669716295,1490.10989010989,-1.0,74.59988616960729,2.2034554836426015,
2023-08-17 17:19:44.943000,-6.506024096385542,-0.5662650602409639,-7.397590361445784,-0.5297363580625383,-6.296137339055794,-7.124463519313304,2.0,2.211721611721612,452.13646902947994,-0.3424042887943588,-0.2481207388846816,0.13752112347765302,1474.7252747252746,-1.0,74.59988616960729,2.203516039366525,
2023-08-17 17:19:44.950000,-6.530120481927711,-0.5662650602409639,-7.421686746987953,-0.49294911097486205,-6.234825260576333,-7.161250766400981,2.0,2.211721611721612,452.13646902947994,-0.20686440184138566,-0.03950818716857993,-0.027737311345492885,1461.5384615384614,-1.0,74.59988616960729,2.2035771465625538,
2023-08-17 17:19:44.958000,-6.542168674698796,-0.5783132530120483,-7.409638554216868,-0.5419987737584304,-6.25444512568976,-7.200490496627835,2.0,2.211721611721612,452.13646902947994,-0.5293397820639816,-0.24275974593555272,-0.21175922149058904,1452.014652014652,-1.0,74.59988616960729,2.203638804483703,
2023-08-17 17:19:44.966000,-6.518072289156627,-0.5903614457831325,-7.397590361445784,-0.5174739423666462,-6.303494788473329,-7.188228080931943,2.0,2.211721611721612,452.13646902947994,-0.5303886719888126,-0.24322591923547607,-0.20942835499096799,1441.0256410256409,-1.0,74.59988616960729,2.203701012006149,
2023-08-17 17:19:44.973000,-6.518072289156627,-0.5542168674698795,-7.421686746987953,-0.5469037400367872,-6.259350091968117,-7.163703249540159,2.0,2.211721611721612,452.13646902947994,0.0643319153895467,-0.3947322417108551,0.2524328419089795,1430.03663003663,-1.0,74.59988616960729,2.203763767615226,
2023-08-17 17:19:44.981000,-6.542168674698796,-0.5662650602409639,-7.397590361445784,-0.5003065603923973,-6.315757204169221,-7.171060698957694,2.0,2.211721611721612,452.13646902947994,-0.2894936192529567,-0.8496008391119397,-0.02389138162111747,1419.7802197802198,-1.0,74.59988616960729,2.2038270693926756,
2023-08-17 17:19:44.989000,-6.530120481927711,-0.5783132530120483,-7.421686746987953,-0.510116492949111,-6.318209687308399,-7.1808706315144075,2.0,2.211721611721612,452.13646902947994,-0.1519724957753058,-0.5493852339607236,-0.0971971330342055,1413.1868131868132,-1.0,74.59988616960729,2.2038909150051014,
2023-08-17 17:19:44.996000,-6.542168674698796,-0.5662650602409639,-7.433734939759036,-0.551808706315144,-6.217657878602084,-7.1367259350091965,2.0,2.211721611721612,452.13646902947994,-0.21443971796515218,-1.0604277140026808,-0.23052269681253973,1410.989010989011,-1.0,74.59988616960729,2.2039553016936364,
2023-08-17 17:19:45.004000,-6.530120481927711,-0.5903614457831325,-7.421686746987953,-0.568976088289393,-6.264255058246475,-7.168608215818516,2.0,2.211721611721612,452.13646902947994,-0.19987180234252158,-1.017306683759688,-0.16770584464774782,1410.989010989011,-1.0,74.59988616960729,2.204020226264769,
2023-08-17 17:19:45.012000,-6.55421686746988,-0.5783132530120483,-7.421686746987953,-0.539546290619252,-6.303494788473329,-7.148988350705088,2.0,2.211721611721612,452.13646902947994,-0.5356331216129588,-0.882349513431619,-0.02470718489598506,1413.1868131868132,-1.0,74.59988616960729,2.204085685082328,
2023-08-17 17:19:45.019000,-6.542168674698796,-0.5783132530120483,-7.421686746987953,-0.5787860208461066,-6.261802575107295,-7.1735131820968725,2.0,2.211721611721612,452.13646902947994,-0.45358662082629203,-0.7609113688013514,-0.3406561389196437,1416.117216117216,-1.0,74.59988616960729,2.2041516740605283,
2023-08-17 17:19:45.027000,-6.542168674698796,-0.5662650602409639,-7.433734939759036,-0.4880441446965052,-6.264255058246475,-7.0999386879215205,2.0,2.211721611721612,452.13646902947994,-0.4622108268748913,-0.9598508245440246,0.004661732999242571,1418.3150183150183,-1.0,74.59988616960729,2.2042181886581096,
2023-08-17 17:19:45.035000,-6.542168674698796,-0.5903614457831325,-7.433734939759036,-0.5346413243408952,-6.205395462906192,-7.1440833844267315,2.0,2.211721611721612,452.13646902947994,-0.6353942077967493,-1.168113746285182,-0.06771167181399702,1416.117216117216,-1.0,74.59988616960729,2.2042852238734376,
2023-08-17 17:19:45.042000,-6.542168674698796,-0.5542168674698795,-7.397590361445784,-0.5591661557326794,-6.264255058246475,-7.097486204782342,2.0,2.2131868131868133,451.83714001986095,-0.21409008799020968,-0.9807120797156342,-0.2903094225278247,1412.4542124542124,-1.0,74.59988616960729,2.20435277424058,
2023-08-17 17:19:45.050000,-6.518072289156627,-0.5542168674698795,-7.421686746987953,-0.5003065603923973,-6.215205395462906,-7.1735131820968725,2.0,2.2131868131868133,451.83714001986095,-0.23972961948604404,-0.7936600431210307,-0.4330749956296253,1410.2564102564102,-1.0,74.59988616960729,2.2044208343188973,
2023-08-17 17:19:45.058000,-6.506024096385542,-0.5783132530120483,-7.421686746987953,-0.4904966278356836,-6.222562844880441,-7.1440833844267315,2.0,2.211721611721612,452.13646902947994,-0.021560515121496402,-0.9591515645941379,-0.009206922673503872,1408.7912087912086,-1.0,74.59988616960729,2.204489398763009,
2023-08-17 17:19:45.065000,-6.55421686746988,-0.5542168674698795,-7.409638554216868,-0.4782342121397915,-6.247087676272225,-7.109748620478234,2.0,2.211721611721612,452.13646902947994,-0.3070916613250977,-0.5288736087640564,-0.29298991900238913,1408.7912087912086,-1.0,74.59988616960729,2.2045584618341945,
2023-08-17 17:19:45.073000,-6.530120481927711,-0.5662650602409639,-7.409638554216868,-0.5935009196811771,-6.251992642550582,-7.141630901287553,2.0,2.2131868131868133,451.83714001986095,-0.40964978730843166,-0.7726822446244385,-0.45055649437678463,1408.7912087912086,-1.0,74.59988616960729,2.2046280172663266,
2023-08-17 17:19:45.080000,-6.566265060240964,-0.5903614457831325,-7.397590361445784,-0.5444512568976088,-6.291232372777436,-7.153893316983446,2.0,2.2131868131868133,451.83714001986095,0.07400501136297521,-0.40463842433424524,-0.28739583940329816,1407.3260073260071,-1.0,74.59988616960729,2.2046980582711573,
2023-08-17 17:19:45.088000,-6.566265060240964,-0.5903614457831325,-7.421686746987953,-0.5125689760882893,-6.25444512568976,-7.1293684855916615,2.0,2.2131868131868133,451.83714001986095,0.0078084027737316646,-0.5263096556144746,-0.4878503583707243,1406.5934065934066,-1.0,74.59988616960729,2.2047685776828705,
2023-08-17 17:19:45.096000,-6.55421686746988,-0.5783132530120483,-7.397590361445784,-0.5272838749233598,-6.301042305334151,-7.139178418148375,2.0,2.2131868131868133,451.83714001986095,0.01736495542217761,-0.21770293106462255,-0.12318629450498236,1405.128205128205,-1.0,74.59988616960729,2.204839567999017,
2023-08-17 17:19:45.103000,-6.542168674698796,-0.5903614457831325,-7.409638554216868,-0.5346413243408952,-6.315757204169221,-7.1072961373390555,2.0,2.2131868131868133,451.83714001986095,0.10372355923314579,-0.4763125691976003,-0.38704038226210596,1405.8608058608058,-1.0,74.59988616960729,2.204911021387562,
2023-08-17 17:19:45.111000,-6.55421686746988,-0.5783132530120483,-7.409638554216868,-0.5052115266707541,-6.296137339055794,-7.124463519313304,2.0,2.2131868131868133,451.83714001986095,0.23250393333721828,-0.37899889283841265,-0.026222248120738974,1409.5238095238094,-1.0,74.59988616960729,2.204982929694774,
2023-08-17 17:19:45.119000,-6.578313253012048,-0.5903614457831325,-7.433734939759036,-0.5419987737584304,-6.23973022685469,-7.168608215818516,2.0,2.2131868131868133,451.83714001986095,0.16141250509877092,-0.5275916321892655,-0.023541751646174527,1415.3846153846152,-1.0,74.59988616960729,2.2050552844538305,
2023-08-17 17:19:45.126000,-6.578313253012048,-0.5783132530120483,-7.409638554216868,-0.5272838749233598,-6.264255058246475,-7.124463519313304,2.0,2.2131868131868133,451.83714001986095,-0.04626770001748233,-0.20430044869180033,-0.15651768544956582,1423.4432234432234,-1.0,74.59988616960729,2.2051280768940664,
2023-08-17 17:19:45.134000,-6.55421686746988,-0.5662650602409639,-7.397590361445784,-0.5174739423666462,-6.301042305334151,-7.161250766400981,2.0,2.2131868131868133,451.83714001986095,-0.038808927218693175,-0.16071324514888416,-0.24532369908513504,1430.7692307692307,-1.0,74.59988616960729,2.205201297950711,
2023-08-17 17:19:45.142000,-6.55421686746988,-0.5903614457831325,-7.397590361445784,-0.48068669527896996,-6.234825260576333,-7.1293684855916615,2.0,2.2131868131868133,451.83714001986095,-0.21455626129013475,-0.16316065497348695,-0.30289610162577935,1438.095238095238,-1.0,74.59988616960729,2.2052749382750436,
2023-08-17 17:19:45.149000,-6.566265060240964,-0.6024096385542169,-7.409638554216868,-0.5616186388718577,-6.261802575107295,-7.08522378908645,2.0,2.2131868131868133,451.83714001986095,-0.2399627061360057,-0.05908746576539864,-0.29823436862653674,1443.956043956044,-1.0,74.59988616960729,2.205348988244833,
2023-08-17 17:19:45.157000,-6.590361445783133,-0.5903614457831325,-7.409638554216868,-0.5861434702636419,-6.278969957081545,-7.139178418148375,2.0,2.2131868131868133,451.83714001986095,-0.30837363789988864,-0.08053143756191421,-0.07924946098712198,1442.4908424908424,-1.0,74.59988616960729,2.205423437974956,
2023-08-17 17:19:45.165000,-6.578313253012048,-0.6024096385542169,-7.385542168674699,-0.5665236051502146,-6.33292458614347,-7.163703249540159,2.0,2.2131868131868133,451.83714001986095,0.15814929199930056,-0.0417225103432193,-0.12458481440475501,1438.095238095238,-1.0,74.59988616960729,2.205498277328074,
2023-08-17 17:19:45.172000,-6.566265060240964,-0.5903614457831325,-7.373493975903615,-0.5665236051502146,-6.259350091968117,-7.171060698957694,2.0,2.2131868131868133,451.83714001986095,0.006293339548977319,-0.02074471184662881,0.13565643027795574,1432.2344322344322,-1.0,74.59988616960729,2.20557349592526,
2023-08-17 17:19:45.180000,-6.542168674698796,-0.6144578313253012,-7.385542168674699,-0.49785407725321884,-6.308399754751686,-7.13182096873084,2.0,2.2146520146520148,451.5382070790605,-0.2180525610395668,0.1835557368451715,0.043121030242992804,1425.6410256410256,-1.0,74.59988616960729,2.2056490831564655,
2023-08-17 17:19:45.188000,-6.55421686746988,-0.6265060240963856,-7.397590361445784,-0.5542611894543225,-6.301042305334151,-7.13182096873084,2.0,2.2146520146520148,451.5382070790605,-0.46978614299865956,0.21770293106462255,0.21129304819066483,1419.7802197802198,-1.0,74.59988616960729,2.205725028683383,
2023-08-17 17:19:45.195000,-6.542168674698796,-0.6265060240963856,-7.421686746987953,-0.5321888412017167,-6.301042305334151,-7.097486204782342,2.0,2.2146520146520148,451.5382070790605,-0.8733756774080773,0.2313385000874082,0.2690985373812712,1415.3846153846152,-1.0,74.59988616960729,2.2058013225214617,
2023-08-17 17:19:45.203000,-6.566265060240964,-0.6144578313253012,-7.421686746987953,-0.5910484365419988,-6.325567136725935,-7.122011036174126,2.0,2.2146520146520148,451.5382070790605,-0.5263096556144746,0.27865509002971806,0.48074121554687943,1413.1868131868132,-1.0,74.59988616960729,2.2058779545969527,
2023-08-17 17:19:45.211000,-6.566265060240964,-0.6144578313253012,-7.409638554216868,-0.5665236051502146,-6.242182709993869,-7.1072961373390555,2.0,2.2131868131868133,451.83714001986095,-0.7165083619835677,0.1574500320494138,0.7318920808810676,1408.7912087912086,-1.0,74.59988616960729,2.205954914303979,
2023-08-17 17:19:45.218000,-6.55421686746988,-0.6265060240963856,-7.409638554216868,-0.5567136725935009,-6.256897608828939,-7.1146535867565905,2.0,2.2131868131868133,451.83714001986095,-0.4775945457723912,0.29625313210185905,0.7075345259600254,1406.5934065934066,-1.0,74.59988616960729,2.2060321910097436,
2023-08-17 17:19:45.226000,-6.530120481927711,-0.6024096385542169,-7.421686746987953,-0.5959534028203556,-6.264255058246475,-7.13182096873084,2.0,2.2146520146520148,451.5382070790605,-0.3777169162636217,0.11258085193170499,0.5032340772682247,1402.9304029304028,-1.0,74.59988616960729,2.206109773893009,
2023-08-17 17:19:45.234000,-6.542168674698796,-0.6024096385542169,-7.409638554216868,-0.5812385039852851,-6.27161250766401,-7.112201103617412,2.0,2.2146520146520148,451.5382070790605,-0.5826000815803279,0.34636676184371595,1.0610104306275858,1400.7326007326005,-1.0,74.59988616960729,2.206187651532406,
2023-08-17 17:19:45.241000,-6.542168674698796,-0.6024096385542169,-7.445783132530121,-0.5370938074800735,-6.242182709993869,-7.14653586756591,2.0,2.2146520146520148,451.5382070790605,-0.5730435289318803,0.34858108501835533,1.05157042130412,1397.8021978021977,-1.0,74.59988616960729,2.206265813004154,
2023-08-17 17:19:45.249000,-6.566265060240964,-0.6144578313253012,-7.433734939759036,-0.5959534028203556,-6.28632740649908,-7.1440833844267315,2.0,2.2146520146520148,451.5382070790605,-0.6240895052735855,0.2291241769127671,0.8921391527300275,1393.4065934065934,-1.0,74.59988616960729,2.206344247399596,
2023-08-17 17:19:45.257000,-6.518072289156627,-0.6144578313253012,-7.409638554216868,-0.5738810545677498,-6.278969957081545,-7.1293684855916615,2.0,2.2146520146520148,451.5382070790605,-0.7491404929782643,0.6454169337451203,0.9000640988287396,1389.7435897435896,-1.0,74.59988616960729,2.2064229438698506,
2023-08-17 17:19:45.264000,-6.55421686746988,-0.6024096385542169,-7.421686746987953,-0.6204782342121398,-6.296137339055794,-7.122011036174126,2.0,2.2146520146520148,451.5382070790605,-1.013344210710331,0.4506730377017659,0.845987996037527,1386.8131868131868,-1.0,74.59988616960729,2.206501891600557,
2023-08-17 17:19:45.272000,-6.566265060240964,-0.6024096385542169,-7.409638554216868,-0.5640711220110362,-6.278969957081545,-7.163703249540159,2.0,2.2146520146520148,451.5382070790605,-0.8790863003321486,0.28669657945341137,1.3276615581842552,1386.8131868131868,-1.0,74.59988616960729,2.206581079855658,
2023-08-17 17:19:45.280000,-6.55421686746988,-0.5903614457831325,-7.421686746987953,-0.5346413243408952,-6.264255058246475,-7.1661557326793375,2.0,2.2146520146520148,451.5382070790605,-0.868364314433891,0.03076743779499984,1.1467863178136473,1389.7435897435896,-1.0,74.59988616960729,2.2066604979510784,
2023-08-17 17:19:45.287000,-6.542168674698796,-0.5903614457831325,-7.445783132530121,-0.5297363580625383,-6.313304721030042,-7.13182096873084,2.0,2.2146520146520148,451.5382070790605,-0.8413262630382847,0.24893654215954747,1.1971330342054658,1392.6739926739926,-1.0,74.59988616960729,2.206740134839385,
2023-08-17 17:19:45.295000,-6.55421686746988,-0.5783132530120483,-7.409638554216868,-0.5591661557326794,-6.278969957081545,-7.161250766400981,2.0,2.2146520146520148,451.5382070790605,-0.9500611852456152,0.11665986830604294,1.3708991317522288,1395.6043956043954,-1.0,74.59988616960729,2.2068199796071424,
2023-08-17 17:19:45.303000,-6.55421686746988,-0.5903614457831325,-7.409638554216868,-0.5297363580625383,-6.27161250766401,-7.126916002452483,2.0,2.2146520146520148,451.5382070790605,-1.026746693083153,0.3335469960957979,1.2558708699959211,1400.0,-1.0,74.59988616960729,2.2069000219369515,
2023-08-17 17:19:45.310000,-6.55421686746988,-0.5783132530120483,-7.385542168674699,-0.5959534028203556,-6.222562844880441,-7.117106069895769,2.0,2.2161172161172162,451.2396694214876,-1.3627410990035538,0.06048598566517042,1.4764873841850705,1404.3956043956043,-1.0,74.59988616960729,2.2069802515858536,
2023-08-17 17:19:45.318000,-6.55421686746988,-0.5783132530120483,-7.373493975903615,-0.5248313917841815,-6.274064990803188,-7.153893316983446,2.0,2.2146520146520148,451.5382070790605,-0.993182215488608,0.34100576889458706,1.2825592914165842,1406.5934065934066,-1.0,74.59988616960729,2.2070606584597203,
2023-08-17 17:19:45.326000,-6.530120481927711,-0.5542168674698795,-7.409638554216868,-0.5076640098099325,-6.261802575107295,-7.0999386879215205,2.0,2.2161172161172162,451.2396694214876,-1.0694015500262226,0.3286521764465941,1.2879202843657127,1405.8608058608058,-1.0,74.59988616960729,2.2071412326868463,
2023-08-17 17:19:45.333000,-6.542168674698796,-0.5903614457831325,-7.397590361445784,-0.522378908645003,-6.249540159411404,-7.1293684855916615,2.0,2.2161172161172162,451.2396694214876,-1.0375852223063917,0.2235300973136765,1.095740341471942,1402.9304029304028,-1.0,74.59988616960729,2.207221964586676,
2023-08-17 17:19:45.341000,-6.55421686746988,-0.5783132530120483,-7.409638554216868,-0.5542611894543225,-6.288779889638258,-7.1293684855916615,2.0,2.2161172161172162,451.2396694214876,-1.0519200512790625,0.2704970572810439,1.3454926869063575,1397.069597069597,-1.0,74.59988616960729,2.2073028452000867,
2023-08-17 17:19:45.349000,-6.542168674698796,-0.5662650602409639,-7.397590361445784,-0.5272838749233598,-6.288779889638258,-7.175965665236051,2.0,2.2161172161172162,451.2396694214876,-1.4654157683118703,0.5982168871277895,1.3971213798729674,1389.7435897435896,-1.0,74.59988616960729,2.207383865836295,
2023-08-17 17:19:45.356000,-6.542168674698796,-0.5662650602409639,-7.397590361445784,-0.49785407725321884,-6.256897608828939,-7.122011036174126,2.0,2.2161172161172162,451.2396694214876,-1.1594895402365828,0.11141541868189489,1.186294504982227,1383.8827838827838,-1.0,74.59988616960729,2.2074650180771487,
2023-08-17 17:19:45.364000,-6.542168674698796,-0.5662650602409639,-7.397590361445784,-0.5076640098099325,-6.320662170447577,-7.141630901287553,2.0,2.2146520146520148,451.5382070790605,-1.453178719188858,0.25068469203426347,1.34129712720704,1378.021978021978,-1.0,74.59988616960729,2.207546293780853,
2023-08-17 17:19:45.372000,-6.542168674698796,-0.5421686746987953,-7.409638554216868,-0.4659717964438994,-6.242182709993869,-7.092581238503985,2.0,2.2146520146520148,451.5382070790605,-0.6450673037701761,0.3706077734397768,1.328127731484179,1377.2893772893772,-1.0,74.59988616960729,2.207627685050238,
2023-08-17 17:19:45.379000,-6.530120481927711,-0.5301204819277109,-7.385542168674699,-0.5125689760882893,-6.28632740649908,-7.119558553034947,2.0,2.2161172161172162,451.2396694214876,-0.8351494668142883,0.3815628459879962,1.5893013227667385,1380.2197802197802,-1.0,74.59988616960729,2.2077091840956125,
2023-08-17 17:19:45.387000,-6.530120481927711,-0.5421686746987953,-7.409638554216868,-0.5493562231759657,-6.288779889638258,-7.087676272225628,2.0,2.2161172161172162,451.2396694214876,-0.6291008682477702,0.4056873142590763,1.6950061185245608,1384.6153846153845,-1.0,74.59988616960729,2.207790783234956,
2023-08-17 17:19:45.395000,-6.506024096385542,-0.5421686746987953,-7.397590361445784,-0.5052115266707541,-6.171060698957694,-7.134273451870018,2.0,2.2161172161172162,451.2396694214876,-1.0060019812365244,0.7155760153837192,1.6013052852397873,1386.080586080586,-1.0,74.59988616960729,2.20787247503134,
2023-08-17 17:19:45.402000,-6.518072289156627,-0.5301204819277109,-7.409638554216868,-0.4193746167995095,-6.278969957081545,-7.168608215818516,2.0,2.2161172161172162,451.2396694214876,-0.5415768311869936,0.7644076685507835,1.7354466522929892,1386.8131868131868,-1.0,74.59988616960729,2.2079542523247184,
2023-08-17 17:19:45.410000,-6.542168674698796,-0.5180722891566265,-7.409638554216868,-0.47332924586143466,-6.283874923359901,-7.058246474555487,2.0,2.2161172161172162,451.2396694214876,-0.5210652059903266,0.8124235184429818,1.700716741448634,1389.0109890109889,-1.0,74.59988616960729,2.2080361082278945,
2023-08-17 17:19:45.418000,-6.518072289156627,-0.5060240963855422,-7.385542168674699,-0.4659717964438994,-6.28632740649908,-7.117106069895769,2.0,2.2161172161172162,451.2396694214876,-0.6533418798438327,1.1500495309131176,1.2691568090437617,1391.9413919413919,-1.0,74.59988616960729,2.2081180361213844,
2023-08-17 17:19:45.425000,-6.566265060240964,-0.5060240963855422,-7.385542168674699,-0.4095646842427958,-6.190680564071122,-7.13182096873084,2.0,2.2161172161172162,451.2396694214876,-0.5905250276790405,1.1470194044636088,1.3764932113513193,1392.6739926739926,-1.0,74.59988616960729,2.2082000296471493,
2023-08-17 17:19:45.433000,-6.542168674698796,-0.5180722891566265,-7.409638554216868,-0.40220723482526055,-6.25444512568976,-7.1514408338442665,2.0,2.2175824175824177,450.94152626362734,-0.5890099644542861,1.0978381213216004,1.4369791970164907,1394.139194139194,-1.0,74.59988616960729,2.2082820827011354,
2023-08-17 17:19:45.441000,-6.55421686746988,-0.49397590361445787,-7.421686746987953,-0.4438994481912937,-6.281422440220723,-7.178418148375229,2.0,2.2175824175824177,450.94152626362734,-0.2835499096789236,1.4468853796398808,1.280111881591981,1391.9413919413919,-1.0,74.59988616960729,2.208364189917263,
2023-08-17 17:19:45.448000,-6.542168674698796,-0.5060240963855422,-7.397590361445784,-0.4414469650521152,-6.305947271612507,-7.090128755364806,2.0,2.2161172161172162,451.2396694214876,-0.3920517452362924,0.9223238739001223,1.4319678340423045,1388.278388278388,-1.0,74.59988616960729,2.2084463467296773,
2023-08-17 17:19:45.456000,-6.55421686746988,-0.49397590361445787,-7.397590361445784,-0.3727774371551195,-6.293684855916616,-7.117106069895769,2.0,2.2175824175824177,450.94152626362734,-0.27073014393100553,0.8457549093875653,0.9713886137171497,1384.6153846153845,-1.0,74.59988616960729,2.2085285484165444,
2023-08-17 17:19:45.463000,-6.566265060240964,-0.5060240963855422,-7.397590361445784,-0.4193746167995095,-6.293684855916616,-7.168608215818516,2.0,2.2161172161172162,451.2396694214876,-0.31816327719829796,0.8167356214672796,0.9424858691218465,1381.6849816849815,-1.0,74.59988616960729,2.2086107900562992,
2023-08-17 17:19:45.471000,-6.542168674698796,-0.5060240963855422,-7.433734939759036,-0.42427958307786634,-6.2323727774371545,-7.109748620478234,2.0,2.2175824175824177,450.94152626362734,-0.258609638132976,0.7716333546996091,1.0666045102266761,1375.8241758241757,-1.0,74.59988616960729,2.2086930670775007,
2023-08-17 17:19:45.479000,-6.55421686746988,-0.49397590361445787,-7.409638554216868,-0.463519313304721,-6.276517473942366,-7.13182096873084,2.0,2.2175824175824177,450.94152626362734,-0.20057106229240662,0.9576365013693835,1.0532020278538547,1372.8937728937728,-1.0,74.59988616960729,2.2087753756340573,
2023-08-17 17:19:45.486000,-6.518072289156627,-0.49397590361445787,-7.433734939759036,-0.46106683016554256,-6.227467811158798,-7.1514408338442665,2.0,2.2175824175824177,450.94152626362734,-0.204533535341762,1.3994522463725885,0.7491404929782643,1373.6263736263736,-1.0,74.59988616960729,2.2088577126284035,
2023-08-17 17:19:45.494000,-6.55421686746988,-0.49397590361445787,-7.433734939759036,-0.41446965052115264,-6.259350091968117,-7.122011036174126,2.0,2.2175824175824177,450.94152626362734,-0.14311520307674316,0.8779208670823386,0.8004195559699313,1373.6263736263736,-1.0,74.59988616960729,2.2089400752435355,
2023-08-17 17:19:45.502000,-6.542168674698796,-0.49397590361445787,-7.421686746987953,-0.41201716738197425,-6.28632740649908,-7.134273451870018,2.0,2.2175824175824177,450.94152626362734,0.2995163452013294,0.7435464133791738,0.6536915098187758,1373.6263736263736,-1.0,74.59988616960729,2.2090224609320606,
2023-08-17 17:19:45.509000,-6.55421686746988,-0.49397590361445787,-7.421686746987953,-0.40220723482526055,-6.288779889638258,-7.168608215818516,2.0,2.2175824175824177,450.94152626362734,0.1734164675718214,0.5049822271429398,0.40020977798496543,1375.091575091575,-1.0,74.59988616960729,2.209104867404376,
2023-08-17 17:19:45.517000,-6.518072289156627,-0.4819277108433735,-7.421686746987953,-0.41692213366033104,-6.215205395462906,-7.139178418148375,2.0,2.2161172161172162,451.2396694214876,0.1712021443971803,0.4968241943942657,0.39321717848610205,1374.3589743589744,-1.0,74.59988616960729,2.2091872926159195,
2023-08-17 17:19:45.525000,-6.542168674698796,-0.4819277108433735,-7.421686746987953,-0.41446965052115264,-6.261802575107295,-7.153893316983446,2.0,2.2161172161172162,451.2396694214876,0.4443796981527886,0.5364489248878265,0.3556902278422002,1373.6263736263736,-1.0,74.59988616960729,2.20926973426083,
2023-08-17 17:19:45.532000,-6.518072289156627,-0.4819277108433735,-7.409638554216868,-0.4193746167995095,-6.242182709993869,-7.153893316983446,2.0,2.2175824175824177,450.94152626362734,0.10582133908280432,0.3780665462385642,-0.046267700017482115,1373.6263736263736,-1.0,74.59988616960729,2.2093521896851187,
2023-08-17 17:19:45.540000,-6.55421686746988,-0.5060240963855422,-7.433734939759036,-0.39239730226854685,-6.291232372777436,-7.190680564071122,2.0,2.2175824175824177,450.94152626362734,0.3059262280752876,0.21980071091428283,-0.10955072548219759,1374.3589743589744,-1.0,74.59988616960729,2.2094346563581464,
2023-08-17 17:19:45.548000,-6.55421686746988,-0.5180722891566265,-7.445783132530121,-0.5027590435315757,-6.288779889638258,-7.1808706315144075,2.0,2.2175824175824177,450.94152626362734,0.2172367577646992,0.03717732066895799,-0.33704329584522996,1375.8241758241757,-1.0,74.59988616960729,2.2095171324471528,
2023-08-17 17:19:45.555000,-6.542168674698796,-0.5180722891566265,-7.457831325301205,-0.4095646842427958,-6.303494788473329,-7.198038013488657,2.0,2.2175824175824177,450.94152626362734,-0.009323465998484274,0.16141250509877092,-0.3090728978497758,1374.3589743589744,-1.0,74.59988616960729,2.2095996167617002,
2023-08-17 17:19:45.563000,-6.55421686746988,-0.5301204819277109,-7.433734939759036,-0.47087676272225626,-6.276517473942366,-7.183323114653587,2.0,2.2175824175824177,450.94152626362734,0.23961307616106145,-0.21595478118990827,-0.3559233144921625,1372.8937728937728,-1.0,74.59988616960729,2.209682107784028,
2023-08-17 17:19:45.571000,-6.55421686746988,-0.5060240963855422,-7.433734939759036,-0.4782342121397915,-6.25444512568976,-7.188228080931943,2.0,2.219047619047619,450.6437768240343,0.25756074820814673,-0.36233319736612,-0.4768952858225038,1370.6959706959706,-1.0,74.59988616960729,2.209764603716288,
2023-08-17 17:19:45.578000,-6.530120481927711,-0.5060240963855422,-7.433734939759036,-0.42427958307786634,-6.261802575107295,-7.175965665236051,2.0,2.2175824175824177,450.94152626362734,-0.1210885146553234,-0.5216479226152324,-0.47444787599790167,1369.230769230769,-1.0,74.59988616960729,2.2098471038985075,
2023-08-17 17:19:45.586000,-6.530120481927711,-0.5301204819277109,-7.445783132530121,-0.43899448191293683,-6.259350091968117,-7.1514408338442665,2.0,2.2175824175824177,450.94152626362734,0.008391119398637582,-0.5894761377542095,-0.48726764174581866,1367.7655677655678,-1.0,74.59988616960729,2.209929608295387,
2023-08-17 17:19:45.594000,-6.530120481927711,-0.5060240963855422,-7.433734939759036,-0.41201716738197425,-6.28632740649908,-7.153893316983446,2.0,2.219047619047619,450.6437768240343,0.04673387331740568,-0.4855194918711037,-0.6046267700017481,1364.102564102564,-1.0,74.59988616960729,2.210012115999853,
2023-08-17 17:19:45.601000,-6.542168674698796,-0.5301204819277109,-7.433734939759036,-0.4537093807480073,-6.274064990803188,-7.161250766400981,2.0,2.219047619047619,450.6437768240343,0.13274284715342963,-0.5659343861080354,-0.2194510809393388,1362.6373626373625,-1.0,74.59988616960729,2.2100946262291954,
2023-08-17 17:19:45.609000,-6.530120481927711,-0.5180722891566265,-7.421686746987953,-0.5321888412017167,-6.303494788473329,-7.153893316983446,2.0,2.2175824175824177,450.94152626362734,0.04720004661733076,-0.8306042771400269,-0.6599848493677526,1363.3699633699632,-1.0,74.59988616960729,2.2101771388631377,
2023-08-17 17:19:45.617000,-6.542168674698796,-0.5421686746987953,-7.433734939759036,-0.49785407725321884,-6.264255058246475,-7.1808706315144075,2.0,2.219047619047619,450.6437768240343,-0.43330808227958656,-0.815220558242527,-0.30522696812540084,1364.8351648351647,-1.0,74.59988616960729,2.210259653471871,
2023-08-17 17:19:45.624000,-6.55421686746988,-0.5421686746987953,-7.433734939759036,-0.4904966278356836,-6.23973022685469,-7.171060698957694,2.0,2.2175824175824177,450.94152626362734,-0.08647514713594728,-0.6364430977215785,-0.6081230697511795,1369.230769230769,-1.0,74.59988616960729,2.2103421697155787,
2023-08-17 17:19:45.632000,-6.542168674698796,-0.5060240963855422,-7.409638554216868,-0.5272838749233598,-6.249540159411404,-7.1587982832618025,2.0,2.219047619047619,450.6437768240343,-0.184954256744945,-0.6261872851232441,-0.22387972728861968,1376.5567765567764,-1.0,74.59988616960729,2.2104246873557556,
2023-08-17 17:19:45.640000,-6.542168674698796,-0.5180722891566265,-7.421686746987953,-0.4757817290006131,-6.244635193133047,-7.148988350705088,2.0,2.219047619047619,450.6437768240343,-0.11502826175630776,-0.4937940679447587,-0.1322766738535052,1383.8827838827838,-1.0,74.59988616960729,2.2105072061971374,
2023-08-17 17:19:45.647000,-6.55421686746988,-0.5421686746987953,-7.409638554216868,-0.48559166155732675,-6.188228080931943,-7.161250766400981,2.0,2.219047619047619,450.6437768240343,0.030068177845113085,-0.6103373929258208,0.17038634112231182,1393.4065934065934,-1.0,74.59988616960729,2.2105897265919863,
2023-08-17 17:19:45.655000,-6.530120481927711,-0.5301204819277109,-7.409638554216868,-0.48313917841814835,-6.210300429184549,-7.156345800122624,2.0,2.219047619047619,450.6437768240343,0.17341646757181964,-0.728046151156693,-0.3067420313501539,1402.9304029304028,-1.0,74.59988616960729,2.2106722489618496,
2023-08-17 17:19:45.663000,-6.518072289156627,-0.5180722891566265,-7.385542168674699,-0.48068669527896996,-6.222562844880441,-7.1072961373390555,2.0,2.219047619047619,450.6437768240343,-0.5258434823145512,-0.464192063399569,-0.5214148359652704,1410.989010989011,-1.0,74.59988616960729,2.2107547737776208,
2023-08-17 17:19:45.670000,-6.530120481927711,-0.5421686746987953,-7.36144578313253,-0.45616186388718577,-6.247087676272225,-7.0778663396689145,2.0,2.2175824175824177,450.94152626362734,-0.04323757356797364,-0.4151273235825414,-0.47701182914748574,1420.5128205128203,-1.0,74.59988616960729,2.2108373015400664,
2023-08-17 17:19:45.678000,-6.518072289156627,-0.5301204819277109,-7.397590361445784,-0.4880441446965052,-6.229920294297976,-7.139178418148375,2.0,2.2175824175824177,450.94152626362734,-0.14393100635161074,-0.03041780782005733,-0.4450789581026749,1434.4322344322343,811.95068359375,73.89611365857326,2.210919832725954,
2023-08-17 17:19:45.686000,-6.542168674698796,-0.5542168674698795,-7.409638554216868,-0.463519313304721,-6.274064990803188,-7.119558553034947,2.0,2.219047619047619,450.6437768240343,0.10582133908280432,0.07563661791270866,-0.5357496649379401,1448.3516483516482,-1.0,73.89611365857326,2.2110023671720493,
2023-08-17 17:19:45.693000,-6.55421686746988,-0.5180722891566265,-7.409638554216868,-0.48313917841814835,-6.308399754751686,-7.104843654199877,2.0,2.219047619047619,450.6437768240343,0.23157158673736986,0.516753102966027,-0.5951867606782817,1462.2710622710622,-1.0,73.89611365857326,2.2110849045806282,
2023-08-17 17:19:45.701000,-6.542168674698796,-0.5180722891566265,-7.397590361445784,-0.539546290619252,-6.278969957081545,-7.156345800122624,2.0,2.219047619047619,450.6437768240343,0.20453353534176372,0.7090495891847802,-0.6581201561680553,1473.9926739926739,-1.0,73.89611365857326,2.211167445059495,
2023-08-17 17:19:45.709000,-6.542168674698796,-0.5180722891566265,-7.409638554216868,-0.4512568976088289,-6.310852237890864,-7.122011036174126,2.0,2.219047619047619,450.6437768240343,0.1165433249810621,0.8248936542159556,-0.6745527649903847,1482.7838827838827,-1.0,73.89611365857326,2.2112499886445494,
2023-08-17 17:19:45.716000,-6.542168674698796,-0.5180722891566265,-7.433734939759036,-0.45616186388718577,-6.264255058246475,-7.1587982832618025,2.0,2.219047619047619,450.6437768240343,-0.02167705844647724,0.7113804556844004,-0.24602295903502178,1490.10989010989,-1.0,73.89611365857326,2.2113325352805284,
2023-08-17 17:19:45.724000,-6.55421686746988,-0.49397590361445787,-7.397590361445784,-0.463519313304721,-6.23973022685469,-7.163703249540159,2.0,2.219047619047619,450.6437768240343,0.33296427947089374,0.7824718839228478,-0.37014160013985214,1495.970695970696,-1.0,73.89611365857326,2.21141508480206,
2023-08-17 17:19:45.732000,-6.542168674698796,-0.5180722891566265,-7.385542168674699,-0.4904966278356836,-6.283874923359901,-7.126916002452483,2.0,2.2205128205128206,450.3464203233256,0.24136122603577922,0.8808344502068647,-0.08088106753685671,1500.3663003663003,-1.0,73.89611365857326,2.211497636914995,
2023-08-17 17:19:45.739000,-6.542168674698796,-0.5301204819277109,-7.421686746987953,-0.47332924586143466,-6.249540159411404,-7.14653586756591,2.0,2.219047619047619,450.6437768240343,0.39461569838587424,0.7191888584581321,-0.42013868655672776,1506.9597069597069,-1.0,73.89611365857326,2.211580191670675,
2023-08-17 17:19:45.747000,-6.542168674698796,-0.5180722891566265,-7.421686746987953,-0.4438994481912937,-6.291232372777436,-7.095033721643163,2.0,2.2205128205128206,450.3464203233256,0.5929724375036415,0.4528873608764053,-0.5106928500670126,1509.89010989011,-1.0,73.89611365857326,2.2116627490272953,
2023-08-17 17:19:45.755000,-6.55421686746988,-0.5180722891566265,-7.433734939759036,-0.4316370324954016,-6.266707541385653,-7.20784794604537,2.0,2.219047619047619,450.6437768240343,0.480741215546879,0.40149175455975744,-0.2515004953091311,1509.1575091575091,-1.0,73.89611365857326,2.211745308342257,
2023-08-17 17:19:45.762000,-6.530120481927711,-0.49397590361445787,-7.433734939759036,-0.46842427958307786,-6.249540159411404,-7.163703249540159,2.0,2.219047619047619,450.6437768240343,0.3697919701649092,0.8243109375910497,0.2054658819416115,1506.227106227106,-1.0,73.89611365857326,2.211827868459698,
2023-08-17 17:19:45.770000,-6.542168674698796,-0.5301204819277109,-7.421686746987953,-0.4316370324954016,-6.256897608828939,-7.163703249540159,2.0,2.219047619047619,450.6437768240343,0.3661791270904963,0.9061243517277549,0.2624555678573512,1499.6336996336995,-1.0,73.89611365857326,2.21191042765741,
2023-08-17 17:19:45.778000,-6.518072289156627,-0.5180722891566265,-7.445783132530121,-0.49294911097486205,-6.210300429184549,-7.1293684855916615,2.0,2.219047619047619,450.6437768240343,0.5014859273935078,0.7287454111065781,-0.060485985665171285,1489.3772893772893,-1.0,73.89611365857326,2.2119929840848505,
2023-08-17 17:19:45.785000,-6.518072289156627,-0.5180722891566265,-7.397590361445784,-0.4904966278356836,-6.28632740649908,-7.134273451870018,2.0,2.2205128205128206,450.3464203233256,0.3751529631140381,0.7189557718081704,-0.3040615348755896,1480.5860805860805,-1.0,73.89611365857326,2.212075535744022,
2023-08-17 17:19:45.793000,-6.518072289156627,-0.5180722891566265,-7.409638554216868,-0.38994481912936846,-6.261802575107295,-7.200490496627835,2.0,2.219047619047619,450.6437768240343,0.3725890099644545,0.7096323058096844,-0.30522696812540084,1473.260073260073,-1.0,73.89611365857326,2.2121580809637402,
2023-08-17 17:19:45.801000,-6.518072289156627,-0.5060240963855422,-7.409638554216868,-0.4218270999386879,-6.296137339055794,-7.124463519313304,2.0,2.2205128205128206,450.3464203233256,0.26222248120738884,0.6254880251733573,-0.16700658469786106,1464.4688644688645,-1.0,73.89611365857326,2.2122406179614154,
2023-08-17 17:19:45.808000,-6.506024096385542,-0.49397590361445787,-7.421686746987953,-0.40465971796443895,-6.1955855303494785,-7.148988350705088,2.0,2.2205128205128206,450.3464203233256,0.31909562379814643,0.739350853679855,-0.3354116892954952,1458.6080586080584,-1.0,73.89611365857326,2.2123231447941323,
2023-08-17 17:19:45.816000,-6.518072289156627,-0.49397590361445787,-7.421686746987953,-0.4438994481912937,-6.244635193133047,-7.14653586756591,2.0,2.2205128205128206,450.3464203233256,0.2251617038634117,0.7627760620010483,-0.22830837363789994,1455.6776556776556,-1.0,73.89611365857326,2.2124056598728243,
2023-08-17 17:19:45.824000,-6.506024096385542,-0.49397590361445787,-7.421686746987953,-0.4757817290006131,-6.217657878602084,-7.153893316983446,2.0,2.219047619047619,450.6437768240343,0.1772623972961942,0.9377075927976223,-0.1534875590000582,1450.5494505494505,-1.0,73.89611365857326,2.2124881614946075,
2023-08-17 17:19:45.831000,-6.518072289156627,-0.4819277108433735,-7.433734939759036,-0.47087676272225626,-6.305947271612507,-7.139178418148375,2.0,2.2205128205128206,450.3464203233256,0.3868072956121443,0.8054309189441177,-0.23192121671231303,1447.6190476190475,-1.0,73.89611365857326,2.21257064779928,
2023-08-17 17:19:45.839000,-6.518072289156627,-0.5180722891566265,-7.445783132530121,-0.47332924586143466,-6.301042305334151,-7.141630901287553,2.0,2.2205128205128206,450.3464203233256,0.6137171493502703,0.8750072839578107,-0.8139385816677353,1446.8864468864467,-1.0,73.89611365857326,2.212653117114851,
2023-08-17 17:19:45.846000,-6.530120481927711,-0.5060240963855422,-7.457831325301205,-0.39975475168608215,-6.293684855916616,-7.1514408338442665,2.0,2.2205128205128206,450.3464203233256,-0.033447934269564286,0.5186177961657238,-0.19987180234252028,1444.6886446886447,-1.0,73.89611365857326,2.212735567529012,
2023-08-17 17:19:45.854000,-6.542168674698796,-0.49397590361445787,-7.457831325301205,-0.4071122011036174,-6.313304721030042,-7.198038013488657,2.0,2.2205128205128206,450.3464203233256,0.13705495017772923,1.0639240137521129,-0.6890041372880369,1440.2930402930401,-1.0,73.89611365857326,2.212817996495615,
2023-08-17 17:19:45.862000,-6.55421686746988,-0.4819277108433735,-7.421686746987953,-0.3727774371551195,-6.200490496627835,-7.274064990803188,2.0,2.2205128205128206,450.3464203233256,0.21420663131519224,0.9789639298409182,-0.4869180117708759,1433.6996336996335,-1.0,73.89611365857326,2.212900401320257,
2023-08-17 17:19:45.869000,-6.542168674698796,-0.5060240963855422,-7.46987951807229,-0.40465971796443895,-6.234825260576333,-7.1955855303494785,2.0,2.2205128205128206,450.3464203233256,-0.138453470077501,0.5469378241361226,-0.7618437154012002,1430.03663003663,-1.0,73.89611365857326,2.2129827791538825,
2023-08-17 17:19:45.877000,-6.530120481927711,-0.5180722891566265,-7.433734939759036,-0.3973022685469037,-6.269160024524831,-7.1735131820968725,2.0,2.2205128205128206,450.3464203233256,0.18472117009498334,0.3618670240661967,-0.39601421828564753,1424.1758241758241,-1.0,73.89611365857326,2.213065126987005,
2023-08-17 17:19:45.885000,-6.542168674698796,-0.4819277108433735,-7.445783132530121,-0.5052115266707541,-6.207847946045371,-7.163703249540159,2.0,2.2205128205128206,450.3464203233256,0.4446127848027503,-0.17609696404638409,-0.5625546296835848,1419.047619047619,-1.0,73.89611365857326,2.2131474411865644,
2023-08-17 17:19:45.892000,-6.530120481927711,-0.5060240963855422,-7.46987951807229,-0.4414469650521152,-6.256897608828939,-7.212752912323728,2.0,2.2205128205128206,450.3464203233256,0.18343919352019067,-0.2823844764291135,-0.4841209719713302,1411.7216117216117,-1.0,73.89611365857326,2.213229718016244,
2023-08-17 17:19:45.900000,-6.542168674698796,-0.49397590361445787,-7.409638554216868,-0.4512568976088289,-6.25444512568976,-7.229920294297976,2.0,2.221978021978022,450.0494559841741,-3.496299749425094E-4,-0.2981178253015559,-0.42083794650661366,1403.6630036630036,-1.0,73.89611365857326,2.213311954053143,
2023-08-17 17:19:45.908000,-6.566265060240964,-0.5180722891566265,-7.433734939759036,-0.41446965052115264,-6.296137339055794,-7.178418148375229,2.0,2.221978021978022,450.0494559841741,-0.19497698269331604,-0.2697977973311571,-0.40289027445953013,1396.3369963369962,-1.0,73.89611365857326,2.2133941461842563,
2023-08-17 17:19:45.915000,-6.518072289156627,-0.5180722891566265,-7.433734939759036,-0.46842427958307786,-6.269160024524831,-7.122011036174126,2.0,2.221978021978022,450.0494559841741,-0.20523279529165048,-0.408367810733639,-0.2481207388846803,1394.139194139194,-1.0,73.89611365857326,2.213476291217463,
2023-08-17 17:19:45.923000,-6.493975903614458,-0.5180722891566265,-7.421686746987953,-0.48559166155732675,-6.269160024524831,-7.1293684855916615,2.0,2.221978021978022,450.0494559841741,0.010372355923315273,-0.7279296078317122,-0.38331099586271183,1394.139194139194,-1.0,73.89611365857326,2.213558385493277,
2023-08-17 17:19:45.931000,-6.530120481927711,-0.5060240963855422,-7.409638554216868,-0.522378908645003,-6.229920294297976,-7.153893316983446,2.0,2.221978021978022,450.0494559841741,0.1499912592506264,-0.5874949012295317,0.015500262222481624,1394.8717948717947,-1.0,73.89611365857326,2.2136404258340807,
2023-08-17 17:19:45.938000,-6.46987951807229,-0.5180722891566265,-7.433734939759036,-0.41201716738197425,-6.234825260576333,-7.141630901287553,2.0,2.221978021978022,450.0494559841741,0.1199230814055133,-0.12481790105471711,-0.07843365771225481,1398.5347985347985,-1.0,73.89611365857326,2.213722409018889,
2023-08-17 17:19:45.946000,-6.518072289156627,-0.5060240963855422,-7.397590361445784,-0.5174739423666462,-6.229920294297976,-7.168608215818516,2.0,2.221978021978022,450.0494559841741,0.05885437911543697,-0.18588660334479346,-0.09579861313443286,1405.128205128205,-1.0,73.89611365857326,2.213804331363175,
2023-08-17 17:19:45.954000,-6.506024096385542,-0.5301204819277109,-7.397590361445784,-0.47087676272225626,-6.274064990803188,-7.134273451870018,2.0,2.2205128205128206,450.3464203233256,-9.323465998484274E-4,-0.03274867431967927,-0.26443680438202843,1413.9194139194137,-1.0,73.89611365857326,2.213886189212776,
2023-08-17 17:19:45.961000,-6.518072289156627,-0.5180722891566265,-7.409638554216868,-0.49294911097486205,-6.288779889638258,-7.122011036174126,2.0,2.221978021978022,450.0494559841741,0.27667385350504037,0.16665695472291897,-0.52467804906474,1421.9780219780218,-1.0,73.89611365857326,2.2139679784532844,
2023-08-17 17:19:45.969000,-6.530120481927711,-0.5421686746987953,-7.433734939759036,-0.5321888412017167,-6.276517473942366,-7.104843654199877,2.0,2.221978021978022,450.0494559841741,0.5802692150807061,0.37829963288852586,-0.09731367635918656,1426.3736263736262,-1.0,73.89611365857326,2.214049695391137,
2023-08-17 17:19:45.977000,-6.530120481927711,-0.5180722891566265,-7.409638554216868,-0.5125689760882893,-6.251992642550582,-7.183323114653587,2.0,2.2205128205128206,450.3464203233256,0.6830604277140033,0.6188450556494375,-0.2533651885088284,1430.03663003663,-1.0,73.89611365857326,2.2141313367562754,
2023-08-17 17:19:45.984000,-6.530120481927711,-0.5180722891566265,-7.433734939759036,-0.47087676272225626,-6.242182709993869,-7.117106069895769,2.0,2.2205128205128206,450.3464203233256,0.6979779733115782,0.26094050463259794,0.05326029951634554,1432.9670329670328,-1.0,73.89611365857326,2.2142128987914296,
2023-08-17 17:19:45.992000,-6.518072289156627,-0.5060240963855422,-7.445783132530121,-0.5297363580625383,-6.266707541385653,-7.215205395462906,2.0,2.2205128205128206,450.3464203233256,0.6795641279645713,0.4365712953790569,-0.010955072548220106,1435.164835164835,-1.0,73.89611365857326,2.214294377608074,
2023-08-17 17:19:46,-6.542168674698796,-0.5180722891566265,-7.409638554216868,-0.49540159411404044,-6.217657878602084,-7.1931330472103,2.0,2.221978021978022,450.0494559841741,0.524911135714701,0.33820872909504,0.19952217236757777,1438.095238095238,-1.0,73.89611365857326,2.214375768695349,
2023-08-17 17:19:46.007000,-6.518072289156627,-0.5180722891566265,-7.397590361445784,-0.4316370324954016,-6.283874923359901,-7.171060698957694,2.0,2.221978021978022,450.0494559841741,0.8442398461628109,0.03810966726880642,0.02563953149583414,1441.0256410256409,-1.0,73.89611365857326,2.2144570674803377,
2023-08-17 17:19:46.015000,-6.530120481927711,-0.5421686746987953,-7.433734939759036,-0.48313917841814835,-6.256897608828939,-7.14653586756591,2.0,2.221978021978022,450.0494559841741,0.7642911252258026,0.32061068702290074,0.1435813763766678,1441.7582417582416,-1.0,73.89611365857326,2.214538269887637,
2023-08-17 17:19:46.023000,-6.530120481927711,-0.5301204819277109,-7.433734939759036,-0.5027590435315757,-6.27161250766401,-7.229920294297976,2.0,2.221978021978022,450.0494559841741,0.8350329234893075,0.18961598974418717,0.07843365771225481,1437.3626373626373,-1.0,73.89611365857326,2.2146193718809744,
2023-08-17 17:19:46.030000,-6.518072289156627,-0.5180722891566265,-7.445783132530121,-0.5027590435315757,-6.318209687308399,-7.183323114653587,2.0,2.221978021978022,450.0494559841741,0.40195792785968254,-0.15337101567507758,0.3471825651185825,1432.2344322344322,-1.0,73.89611365857326,2.214700369462457,
2023-08-17 17:19:46.038000,-6.518072289156627,-0.5301204819277109,-7.421686746987953,-0.46106683016554256,-6.247087676272225,-7.1587982832618025,2.0,2.221978021978022,450.0494559841741,0.7048540294854615,-0.34275391876930306,0.26525260765689646,1430.03663003663,-1.0,73.89611365857326,2.214781258213599,
2023-08-17 17:19:46.046000,-6.518072289156627,-0.5180722891566265,-7.421686746987953,-0.42673206621704474,-6.205395462906192,-7.215205395462906,2.0,2.221978021978022,450.0494559841741,-0.07994872093700829,-0.2729444671056466,0.33599440592040086,1429.3040293040292,-1.0,73.89611365857326,2.214862033361031,
2023-08-17 17:19:46.053000,-6.493975903614458,-0.5180722891566265,-7.421686746987953,-0.4316370324954016,-6.266707541385653,-7.220110361741263,2.0,2.221978021978022,450.0494559841741,0.5641862362333193,-0.2635044577821798,0.4349396888293226,1430.03663003663,-1.0,73.89611365857326,2.214942690262839,
2023-08-17 17:19:46.061000,-6.506024096385542,-0.5180722891566265,-7.457831325301205,-0.49785407725321884,-6.244635193133047,-7.1955855303494785,2.0,2.221978021978022,450.0494559841741,0.13449099702814563,-0.22236466406386643,0.4555678573509706,1429.3040293040292,-1.0,73.89611365857326,2.21502322440227,
2023-08-17 17:19:46.069000,-6.506024096385542,-0.5180722891566265,-7.421686746987953,-0.4512568976088289,-6.298589822194972,-7.153893316983446,2.0,2.221978021978022,450.0494559841741,0.13717149350271007,-0.2287745469378246,0.44857525785210695,1426.3736263736262,-1.0,73.89611365857326,2.2151036313814196,
2023-08-17 17:19:46.076000,-6.530120481927711,-0.5421686746987953,-7.457831325301205,-0.43654199877375843,-6.269160024524831,-7.117106069895769,2.0,2.221978021978022,450.0494559841741,-0.21350737136530548,-0.44577821805256035,-0.21712021443971793,1420.5128205128203,-1.0,73.89611365857326,2.215183906914813,
2023-08-17 17:19:46.084000,-6.506024096385542,-0.5180722891566265,-7.421686746987953,-0.47087676272225626,-6.222562844880441,-7.163703249540159,2.0,2.2234432234432235,449.75288303130145,-0.027970397995454557,-0.26618495425674427,0.021677058446477673,1411.7216117216117,-1.0,73.89611365857326,2.2152640468228206,
2023-08-17 17:19:46.092000,-6.506024096385542,-0.5060240963855422,-7.421686746987953,-0.4316370324954016,-6.266707541385653,-7.1931330472103,2.0,2.221978021978022,450.0494559841741,0.08344502068644033,-0.6807295612143814,0.24450789581026766,1404.3956043956043,-1.0,73.89611365857326,2.2153440475174775,
2023-08-17 17:19:46.099000,-6.506024096385542,-0.49397590361445787,-7.409638554216868,-0.4316370324954016,-6.227467811158798,-7.188228080931943,2.0,2.2234432234432235,449.75288303130145,-0.11188159198181996,-0.8183672280170149,-0.16199522172367598,1399.2673992673992,-1.0,73.89611365857326,2.2154239055748213,
2023-08-17 17:19:46.107000,-6.506024096385542,-0.5060240963855422,-7.421686746987953,-0.4757817290006131,-6.251992642550582,-7.1661557326793375,2.0,2.2234432234432235,449.75288303130145,0.09125342346017198,-0.464192063399569,-0.1963755025930887,1394.139194139194,-1.0,73.89611365857326,2.215503617695494,
2023-08-17 17:19:46.115000,-6.506024096385542,-0.5060240963855422,-7.445783132530121,-0.42427958307786634,-6.274064990803188,-7.185775597792765,2.0,2.2234432234432235,449.75288303130145,-0.11875764815570147,-0.5728104422819186,-0.2784220033797559,1393.4065934065934,-1.0,73.89611365857326,2.215583181227349,
2023-08-17 17:19:46.122000,-6.530120481927711,-0.5060240963855422,-7.409638554216868,-0.43899448191293683,-6.27161250766401,-7.178418148375229,2.0,2.2234432234432235,449.75288303130145,-0.5094108734922204,-0.4052211409591512,-0.28086941320435893,1395.6043956043954,-1.0,73.89611365857326,2.2156625937051286,
2023-08-17 17:19:46.130000,-6.518072289156627,-0.49397590361445787,-7.421686746987953,-0.4659717964438994,-6.1955855303494785,-7.097486204782342,2.0,2.221978021978022,450.0494559841741,-0.683876230988871,-0.39286754851115824,-0.25278247188392333,1394.139194139194,-1.0,73.89611365857326,2.215741852847979,
2023-08-17 17:19:46.138000,-6.55421686746988,-0.49397590361445787,-7.445783132530121,-0.45861434702636417,-6.237277743715512,-7.163703249540159,2.0,2.221978021978022,450.0494559841741,-0.11048307208204645,-0.6073072664763122,-0.1954431559932407,1390.4761904761904,-1.0,73.89611365857326,2.215820956522044,
2023-08-17 17:19:46.145000,-6.518072289156627,-0.49397590361445787,-7.433734939759036,-0.3654199877375843,-6.256897608828939,-7.2029429797670135,2.0,2.2234432234432235,449.75288303130145,-0.014684458947613166,-0.20919526834100588,-0.169803624497407,1387.5457875457876,-1.0,73.89611365857326,2.215899902140312,
2023-08-17 17:19:46.153000,-6.542168674698796,-0.46987951807228917,-7.433734939759036,-0.43899448191293683,-6.234825260576333,-7.156345800122624,2.0,2.2234432234432235,449.75288303130145,0.09428354990967895,-0.5623215430336225,-0.2822679331041318,1386.8131868131868,-1.0,73.89611365857326,2.2159786871833216,
2023-08-17 17:19:46.161000,-6.493975903614458,-0.5180722891566265,-7.409638554216868,-0.45616186388718577,-6.225015328019619,-7.171060698957694,2.0,2.2234432234432235,449.75288303130145,-0.851232445661675,-1.0036711147369042,-0.1801759804207216,1386.080586080586,-1.0,73.89611365857326,2.2160573097536322,
2023-08-17 17:19:46.168000,-6.518072289156627,-0.4819277108433735,-7.433734939759036,-0.4071122011036174,-6.242182709993869,-7.112201103617412,2.0,2.2234432234432235,449.75288303130145,-0.9504108152205577,-0.43424042887943676,-0.48948196492045976,1384.6153846153845,-1.0,73.89611365857326,2.216135768112043,
2023-08-17 17:19:46.176000,-6.55421686746988,-0.46987951807228917,-7.409638554216868,-0.48068669527896996,-6.237277743715512,-7.141630901287553,2.0,2.2234432234432235,449.75288303130145,-0.9078725016024708,0.008973836023541765,-0.47619602587261833,1383.8827838827838,-1.0,73.89611365857326,2.2162140602133045,
2023-08-17 17:19:46.184000,-6.542168674698796,-0.5180722891566265,-7.445783132530121,-0.43654199877375843,-6.276517473942366,-7.178418148375229,2.0,2.2234432234432235,449.75288303130145,-0.3476487384185069,0.1741157275217064,-0.5984499737777517,1383.150183150183,-1.0,73.89611365857326,2.2162921837663605,
2023-08-17 17:19:46.191000,-6.542168674698796,-0.46987951807228917,-7.421686746987953,-0.4414469650521152,-6.264255058246475,-7.1587982832618025,2.0,2.2234432234432235,449.75288303130145,-0.022376318396363993,-0.5918070042538314,-0.39986014801002295,1383.150183150183,-1.0,73.89611365857326,2.2163701367150788,
2023-08-17 17:19:46.199000,-6.55421686746988,-0.5060240963855422,-7.409638554216868,-0.4414469650521152,-6.291232372777436,-7.1808706315144075,2.0,2.2234432234432235,449.75288303130145,0.4358720354291702,-0.8173183380921856,-0.5679156226327132,1383.150183150183,-1.0,73.89611365857326,2.21644791722626,
2023-08-17 17:19:46.207000,-6.518072289156627,-0.5060240963855422,-7.433734939759036,-0.43899448191293683,-6.249540159411404,-7.1808706315144075,2.0,2.2234432234432235,449.75288303130145,0.5515995571353647,-1.3768428413262628,-0.4594137870753447,1383.150183150183,-1.0,73.89611365857326,2.216525523677556,
2023-08-17 17:19:46.214000,-6.530120481927711,-0.49397590361445787,-7.421686746987953,-0.37522992029429797,-6.323114653586757,-7.215205395462906,2.0,2.2234432234432235,449.75288303130145,0.3178136472233555,-0.9088048482023192,-0.31956179709807103,1383.150183150183,-1.0,73.89611365857326,2.2166029546452073,
2023-08-17 17:19:46.222000,-6.542168674698796,-0.5060240963855422,-7.397590361445784,-0.4537093807480073,-6.27161250766401,-7.13182096873084,2.0,2.224908424908425,449.45670069147184,0.13006235067886518,-0.5826000815803279,-0.3619835673911771,1382.4175824175823,-1.0,73.89611365857326,2.216680208891604,
2023-08-17 17:19:46.229000,-6.530120481927711,-0.5180722891566265,-7.397590361445784,-0.48559166155732675,-6.266707541385653,-7.14653586756591,2.0,2.2234432234432235,449.75288303130145,0.06759512848901532,-0.41046559058329923,-0.11409591515645932,1381.6849816849815,-1.0,73.89611365857326,2.216757285845226,
2023-08-17 17:19:46.237000,-6.542168674698796,-0.4819277108433735,-7.397590361445784,-0.45616186388718577,-6.261802575107295,-7.153893316983446,2.0,2.224908424908425,449.45670069147184,0.311636850999359,-0.08833984033564414,-0.1291300040790161,1380.2197802197802,-1.0,73.89611365857326,2.2168341851671287,
2023-08-17 17:19:46.245000,-6.530120481927711,-0.4819277108433735,-7.385542168674699,-0.37522992029429797,-6.264255058246475,-7.1587982832618025,2.0,2.2234432234432235,449.75288303130145,0.445312044752637,-0.08752403706077655,-0.26187285123244614,1380.952380952381,-1.0,73.89611365857326,2.216910906705701,
2023-08-17 17:19:46.252000,-6.518072289156627,-0.4819277108433735,-7.409638554216868,-0.37768240343347637,-6.296137339055794,-7.156345800122624,2.0,2.2234432234432235,449.75288303130145,0.07412155468795431,-0.1630441116485061,-0.08822329701066352,1383.8827838827838,-1.0,73.89611365857326,2.2169874505208282,
2023-08-17 17:19:46.260000,-6.530120481927711,-0.49397590361445787,-7.385542168674699,-0.463519313304721,-6.274064990803188,-7.119558553034947,2.0,2.2234432234432235,449.75288303130145,0.45335353417633034,-0.009906182623390191,-0.22236466406386554,1386.080586080586,-1.0,73.89611365857326,2.21706381634565,
2023-08-17 17:19:46.268000,-6.55421686746988,-0.5060240963855422,-7.409638554216868,-0.41446965052115264,-6.291232372777436,-7.161250766400981,2.0,2.2234432234432235,449.75288303130145,0.6606841093176393,0.1604801584989225,-0.446943651302372,1386.080586080586,-1.0,73.89611365857326,2.2171400040307567,
2023-08-17 17:19:46.275000,-6.566265060240964,-0.49397590361445787,-7.421686746987953,-0.42918454935622313,-6.23973022685469,-7.178418148375229,2.0,2.224908424908425,449.45670069147184,0.6047433133267285,0.26700075753161184,-0.27317755375560876,1383.8827838827838,-1.0,73.89611365857326,2.2172160135298467,
2023-08-17 17:19:46.283000,-6.518072289156627,-0.49397590361445787,-7.457831325301205,-0.5199264255058246,-6.210300429184549,-7.171060698957694,2.0,2.2234432234432235,449.75288303130145,0.4432142649029785,0.005011362974186382,-0.3717732066895869,1379.4871794871794,-1.0,73.89611365857326,2.217291845377384,
2023-08-17 17:19:46.291000,-6.506024096385542,-0.49397590361445787,-7.409638554216868,-0.4512568976088289,-6.207847946045371,-7.13182096873084,2.0,2.2234432234432235,449.75288303130145,0.313385000874075,0.4911135714701943,-0.5013693840685278,1377.2893772893772,-1.0,73.89611365857326,2.217367500710224,
2023-08-17 17:19:46.298000,-6.518072289156627,-0.49397590361445787,-7.409638554216868,-0.46842427958307786,-6.264255058246475,-7.102391171060699,2.0,2.2234432234432235,449.75288303130145,0.3525435580677124,0.7919118932463146,-0.2935726356272942,1375.091575091575,-1.0,73.89611365857326,2.217442980201456,
2023-08-17 17:19:46.306000,-6.518072289156627,-0.5180722891566265,-7.421686746987953,-0.4880441446965052,-6.249540159411404,-7.1293684855916615,2.0,2.224908424908425,449.45670069147184,0.6041605967018243,0.6007808402773731,-0.05535807936600472,1372.8937728937728,-1.0,73.89611365857326,2.217518284080412,
2023-08-17 17:19:46.314000,-6.55421686746988,-0.49397590361445787,-7.409638554216868,-0.4757817290006131,-6.303494788473329,-7.190680564071122,2.0,2.224908424908425,449.45670069147184,0.8378299632888527,0.48901579162053577,-0.10978381213216057,1369.9633699633698,-1.0,73.89611365857326,2.217593412641864,
2023-08-17 17:19:46.321000,-6.518072289156627,-0.5060240963855422,-7.457831325301205,-0.4218270999386879,-6.251992642550582,-7.1587982832618025,2.0,2.2234432234432235,449.75288303130145,0.8837480333313908,0.49810617096905835,-0.28413262630382863,1367.7655677655678,-1.0,73.89611365857326,2.2176683663663166,
2023-08-17 17:19:46.329000,-6.506024096385542,-0.49397590361445787,-7.433734939759036,-0.4782342121397915,-6.278969957081545,-7.190680564071122,2.0,2.224908424908425,449.45670069147184,0.33646057922032574,0.4023075578346251,-0.12260357788007731,1365.5677655677655,-1.0,73.89611365857326,2.217743145901237,
2023-08-17 17:19:46.337000,-6.530120481927711,-0.5180722891566265,-7.409638554216868,-0.45861434702636417,-6.266707541385653,-7.1587982832618025,2.0,2.224908424908425,449.45670069147184,0.5101101334421071,0.23075578346250228,-0.282734106404056,1361.904761904762,-1.0,73.89611365857326,2.217817751937981,
2023-08-17 17:19:46.344000,-6.530120481927711,-0.5180722891566265,-7.457831325301205,-0.4193746167995095,-6.274064990803188,-7.171060698957694,2.0,2.224908424908425,449.45670069147184,0.22446244391352496,0.2428762892605318,-0.1223704912301152,1361.904761904762,-1.0,73.89611365857326,2.2178921852971047,
2023-08-17 17:19:46.352000,-6.542168674698796,-0.5301204819277109,-7.409638554216868,-0.41692213366033104,-6.244635193133047,-7.237277743715511,2.0,2.224908424908425,449.45670069147184,0.2154886078899832,0.2399627061360057,-0.11386282850649701,1362.6373626373625,-1.0,73.89611365857326,2.2179664469441436,
2023-08-17 17:19:46.360000,-6.530120481927711,-0.5301204819277109,-7.433734939759036,-0.45861434702636417,-6.247087676272225,-7.1661557326793375,2.0,2.224908424908425,449.45670069147184,0.5391294213623908,0.2700308839811205,-0.15069051920051293,1362.6373626373625,-1.0,73.89611365857326,2.218040537970919,
2023-08-17 17:19:46.367000,-6.530120481927711,-0.5060240963855422,-7.445783132530121,-0.42673206621704474,-6.229920294297976,-7.156345800122624,2.0,2.224908424908425,449.45670069147184,0.5876114445545126,-0.2229473806887706,-0.02074471184662881,1361.1721611721612,-1.0,73.89611365857326,2.2181144595771434,
2023-08-17 17:19:46.375000,-6.506024096385542,-0.5060240963855422,-7.433734939759036,-0.3678724708767627,-6.25444512568976,-7.112201103617412,2.0,2.224908424908425,449.45670069147184,0.40428879435930276,-0.2225977507138281,-0.07365538138803097,1359.7069597069597,-1.0,73.89611365857326,2.218188213052315,
2023-08-17 17:19:46.383000,-6.506024096385542,-0.4819277108433735,-7.421686746987953,-0.3973022685469037,-6.1955855303494785,-7.220110361741263,2.0,2.224908424908425,449.45670069147184,0.3657129537905712,0.11456208845638441,-0.49251209136996693,1362.6373626373625,-1.0,73.89611365857326,2.2182617997578578,
2023-08-17 17:19:46.390000,-6.518072289156627,-0.5180722891566265,-7.409638554216868,-0.4659717964438994,-6.200490496627835,-7.153893316983446,2.0,2.224908424908425,449.45670069147184,0.02051162519666714,-0.08507662723617551,-0.035778800769186006,1365.5677655677655,-1.0,73.89611365857326,2.2183352211094958,
2023-08-17 17:19:46.398000,-6.530120481927711,-0.5060240963855422,-7.433734939759036,-0.5125689760882893,-6.215205395462906,-7.13182096873084,2.0,2.224908424908425,449.45670069147184,0.2748091603053435,-0.17609696404638409,-0.17691276732125147,1367.032967032967,-1.0,73.89611365857326,2.218408478559823,
2023-08-17 17:19:46.406000,-6.518072289156627,-0.5180722891566265,-7.433734939759036,-0.5052115266707541,-6.276517473942366,-7.168608215818516,2.0,2.2263736263736265,449.16090819348466,0.0051279062991672186,-0.17236757764699037,-0.43960142182856454,1368.4981684981683,-1.0,73.89611365857326,2.2184815735810512,
2023-08-17 17:19:46.413000,-6.518072289156627,-0.5421686746987953,-7.409638554216868,-0.4880441446965052,-6.264255058246475,-7.2029429797670135,2.0,2.224908424908425,449.45670069147184,-0.12167123128022758,-0.13763766680263342,-0.2562787716333547,1367.032967032967,-1.0,73.89611365857326,2.2185545081405484,
2023-08-17 17:19:46.421000,-6.530120481927711,-0.5421686746987953,-7.433734939759036,-0.463519313304721,-6.217657878602084,-7.2029429797670135,2.0,2.224908424908425,449.45670069147184,-0.06421537206456586,-0.026338791445719375,-0.12015616805547433,1367.032967032967,-1.0,73.89611365857326,2.2186272842633463,
2023-08-17 17:19:46.429000,-6.493975903614458,-0.5180722891566265,-7.421686746987953,-0.49294911097486205,-6.249540159411404,-7.185775597792765,2.0,2.224908424908425,449.45670069147184,-0.038808927218693175,0.17842783054600603,-0.03391410756948872,1368.4981684981683,-1.0,73.89611365857326,2.2186999034907133,
2023-08-17 17:19:46.436000,-6.506024096385542,-0.49397590361445787,-7.421686746987953,-0.46106683016554256,-6.256897608828939,-7.217657878602084,2.0,2.2234432234432235,449.75288303130145,-0.21164267816560864,-0.21362391469028633,0.03741040731892075,1370.6959706959706,-1.0,73.89611365857326,2.2187723668638526,
2023-08-17 17:19:46.444000,-6.530120481927711,-0.4819277108433735,-7.433734939759036,-0.42918454935622313,-6.261802575107295,-7.188228080931943,2.0,2.224908424908425,449.45670069147184,-0.38319445253773143,-0.32806945982168817,-0.028553114620360042,1375.091575091575,-1.0,73.89611365857326,2.2188446753979467,
2023-08-17 17:19:46.452000,-6.518072289156627,-0.4819277108433735,-7.445783132530121,-0.4512568976088289,-6.283874923359901,-7.178418148375229,2.0,2.2263736263736265,449.16090819348466,0.013752112347764738,-0.4845871452712553,-0.033914107569488934,1375.8241758241757,-1.0,73.89611365857326,2.2189168303822697,
2023-08-17 17:19:46.459000,-6.518072289156627,-0.5060240963855422,-7.433734939759036,-0.4316370324954016,-6.28632740649908,-7.161250766400981,2.0,2.224908424908425,449.45670069147184,0.055707709340947445,-0.5367985548627707,0.14532952625138382,1370.6959706959706,-1.0,73.89611365857326,2.218988833467793,
2023-08-17 17:19:46.467000,-6.506024096385542,-0.49397590361445787,-7.397590361445784,-0.41692213366033104,-6.244635193133047,-7.171060698957694,2.0,2.2263736263736265,449.16090819348466,0.1287803741040725,-0.5584756133092479,-0.13810384010255808,1363.3699633699632,-1.0,73.89611365857326,2.2190606858064785,
2023-08-17 17:19:46.475000,-6.530120481927711,-0.46987951807228917,-7.385542168674699,-0.4512568976088289,-6.234825260576333,-7.13182096873084,2.0,2.2263736263736265,449.16090819348466,0.3077909212749844,-0.45789872385059166,0.05384301614125059,1356.0439560439559,-1.0,73.89611365857326,2.2191323880694562,
2023-08-17 17:19:46.482000,-6.518072289156627,-0.5180722891566265,-7.421686746987953,-0.47332924586143466,-6.229920294297976,-7.190680564071122,2.0,2.224908424908425,449.45670069147184,0.36373171726589354,-0.32771982984674564,-0.21257502476545664,1351.6483516483515,-1.0,73.89611365857326,2.219203941448694,
2023-08-17 17:19:46.490000,-6.506024096385542,-0.5180722891566265,-7.421686746987953,-0.49294911097486205,-6.256897608828939,-7.1955855303494785,2.0,2.224908424908425,449.45670069147184,-0.20628168521647974,0.0015150632247543454,-0.1715517743721228,1351.6483516483515,-1.0,73.89611365857326,2.2192753466914614,
2023-08-17 17:19:46.498000,-6.542168674698796,-0.49397590361445787,-7.409638554216868,-0.4463519313304721,-6.256897608828939,-7.1293684855916615,2.0,2.2263736263736265,449.16090819348466,0.05244449624147708,0.19439426606841012,-0.07190723151331495,1353.8461538461538,-1.0,73.89611365857326,2.219346604014235,
2023-08-17 17:19:46.505000,-6.518072289156627,-0.5060240963855422,-7.433734939759036,-0.38749233599019006,-6.266707541385653,-7.141630901287553,2.0,2.224908424908425,449.45670069147184,0.15698385874949047,-0.10652059903269108,-0.3083736378998895,1358.974358974359,-1.0,73.89611365857326,2.21941771403482,
2023-08-17 17:19:46.513000,-6.518072289156627,-0.49397590361445787,-7.445783132530121,-0.4537093807480073,-6.298589822194972,-7.171060698957694,2.0,2.224908424908425,449.45670069147184,0.3556902278422002,-0.16176213507371343,0.23460171318687725,1362.6373626373625,-1.0,73.89611365857326,2.2194886773338394,
2023-08-17 17:19:46.521000,-6.493975903614458,-0.5060240963855422,-7.445783132530121,-0.4414469650521152,-6.266707541385653,-7.168608215818516,2.0,2.2263736263736265,449.16090819348466,0.44507895810267534,-0.05034671639181855,0.35941961424159435,1365.5677655677655,-1.0,73.89611365857326,2.219559493912579,
2023-08-17 17:19:46.528000,-6.530120481927711,-0.49397590361445787,-7.433734939759036,-0.4659717964438994,-6.1931330472103,-7.1955855303494785,2.0,2.2263736263736265,449.16090819348466,0.014684458947613166,-0.0924188567099821,0.28483188625371497,1370.6959706959706,857.91015625,69.93739328400683,2.2196301641268015,
2023-08-17 17:19:46.536000,-6.518072289156627,-0.49397590361445787,-7.433734939759036,-0.4659717964438994,-6.249540159411404,-7.1808706315144075,2.0,2.2263736263736265,449.16090819348466,0.215605151214964,-0.24066196608589246,0.2258609638132976,1374.3589743589744,-1.0,69.93739328400683,2.2197006887424884,
2023-08-17 17:19:46.544000,-6.542168674698796,-0.49397590361445787,-7.457831325301205,-0.4193746167995095,-6.256897608828939,-7.212752912323728,2.0,2.2263736263736265,449.16090819348466,2.3308664996167294E-4,-0.2209661441640929,0.3017306683759688,1377.2893772893772,-1.0,69.93739328400683,2.2197710684673346,
2023-08-17 17:19:46.551000,-6.542168674698796,-0.49397590361445787,-7.421686746987953,-0.48559166155732675,-6.308399754751686,-7.163703249540159,2.0,2.2263736263736265,449.16090819348466,-0.1661907814229939,-0.5994988637025822,0.239146902861139,1380.2197802197802,-1.0,69.93739328400683,2.219841303940928,
2023-08-17 17:19:46.559000,-6.530120481927711,-0.49397590361445787,-7.397590361445784,-0.44880441446965047,-6.274064990803188,-7.153893316983446,2.0,2.2263736263736265,449.16090819348466,-0.48470368859623614,-0.32002797039799485,0.14474680962647876,1380.2197802197802,-1.0,69.93739328400683,2.2199113957256884,
2023-08-17 17:19:46.567000,-6.530120481927711,-0.5180722891566265,-7.409638554216868,-0.4463519313304721,-6.274064990803188,-7.163703249540159,2.0,2.2263736263736265,449.16090819348466,-0.03915855719363742,-0.24019579278596737,0.234485169861896,1382.4175824175823,-1.0,69.93739328400683,2.219981344298501,
2023-08-17 17:19:46.574000,-6.518072289156627,-0.5180722891566265,-7.421686746987953,-0.4659717964438994,-6.212752912323728,-7.178418148375229,2.0,2.2263736263736265,449.16090819348466,-0.053143756191363835,-0.43866907522871545,0.2621059378824076,1384.6153846153845,-1.0,69.93739328400683,2.220051150042976,
2023-08-17 17:19:46.582000,-6.518072289156627,-0.49397590361445787,-7.409638554216868,-0.41201716738197425,-6.261802575107295,-7.1735131820968725,2.0,2.2263736263736265,449.16090819348466,0.03997436046850501,-0.46885379639881114,0.2885612726531091,1386.8131868131868,-1.0,69.93739328400683,2.220120812784392,
2023-08-17 17:19:46.590000,-6.530120481927711,-0.49397590361445787,-7.409638554216868,-0.4316370324954016,-6.27161250766401,-7.122011036174126,2.0,2.224908424908425,449.45670069147184,-0.3743371598391705,-0.4390187052036597,0.20791329176621406,1389.0109890109889,-1.0,69.93739328400683,2.2201903318502465,
2023-08-17 17:19:46.597000,-6.506024096385542,-0.49397590361445787,-7.409638554216868,-0.43408951563458,-6.2323727774371545,-7.1955855303494785,2.0,2.224908424908425,449.45670069147184,-0.005943709574034809,-0.16572460812307055,0.17353301089680093,1391.9413919413919,-1.0,69.93739328400683,2.220259706517562,
2023-08-17 17:19:46.605000,-6.530120481927711,-0.49397590361445787,-7.409638554216868,-0.4463519313304721,-6.247087676272225,-7.141630901287553,2.0,2.2263736263736265,449.16090819348466,0.17667968067129,-0.10756948895752033,-0.06001981236524664,1396.3369963369962,-1.0,69.93739328400683,2.2203289358638316,
2023-08-17 17:19:46.612000,-6.530120481927711,-0.49397590361445787,-7.409638554216868,-0.48068669527896996,-6.23973022685469,-7.1587982832618025,2.0,2.2263736263736265,449.16090819348466,-0.13006235067886518,-0.29485461220208553,-0.16677349804789937,1402.197802197802,-1.0,69.93739328400683,2.2203980187570824,
2023-08-17 17:19:46.620000,-6.542168674698796,-0.5060240963855422,-7.409638554216868,-0.4218270999386879,-6.237277743715512,-7.08522378908645,2.0,2.2263736263736265,449.16090819348466,0.1602470718489591,-0.29963288852631026,-0.0012819765747918046,1410.2564102564102,-1.0,69.93739328400683,2.2204669539849315,
2023-08-17 17:19:46.628000,-6.542168674698796,-0.5060240963855422,-7.433734939759036,-0.4438994481912937,-6.220110361741263,-7.156345800122624,2.0,2.2263736263736265,449.16090819348466,0.1545364489248877,-0.30441116485053327,-0.0023308664996210685,1419.7802197802198,-1.0,69.93739328400683,2.220535740279805,
2023-08-17 17:19:46.635000,-6.566265060240964,-0.5060240963855422,-7.421686746987953,-0.4782342121397915,-6.249540159411404,-7.175965665236051,2.0,2.2263736263736265,449.16090819348466,0.10558825243284264,-0.03309830429462177,-0.18891672979430127,1430.7692307692307,-1.0,69.93739328400683,2.2206043763100833,
2023-08-17 17:19:46.643000,-6.530120481927711,-0.49397590361445787,-7.409638554216868,-0.46842427958307786,-6.28632740649908,-7.1367259350091965,2.0,2.2263736263736265,449.16090819348466,0.025639531495834356,-0.053959559466231426,-0.5849309480799486,1443.2234432234432,-1.0,69.93739328400683,2.2206728606719266,
2023-08-17 17:19:46.651000,-6.518072289156627,-0.49397590361445787,-7.433734939759036,-0.4463519313304721,-6.178418148375229,-7.185775597792765,2.0,2.2263736263736265,449.16090819348466,0.08414428063632708,0.21630441116485077,-0.1527882990501721,1453.4798534798533,-1.0,69.93739328400683,2.2207411918816935,
2023-08-17 17:19:46.658000,-6.542168674698796,-0.5180722891566265,-7.433734939759036,-0.42673206621704474,-6.303494788473329,-7.1955855303494785,2.0,2.2278388278388275,448.86550476816836,0.15849892197424306,0.16292756832352354,-0.3627993706660451,1463.7362637362637,-1.0,69.93739328400683,2.2208093683688914,
2023-08-17 17:19:46.666000,-6.566265060240964,-0.5060240963855422,-7.457831325301205,-0.4193746167995095,-6.242182709993869,-7.1735131820968725,2.0,2.2278388278388275,448.86550476816836,0.12644950760445228,0.17003671114736846,0.03589534409416706,1475.4578754578754,-1.0,69.93739328400683,2.220877388962266,
2023-08-17 17:19:46.674000,-6.566265060240964,-0.5060240963855422,-7.445783132530121,-0.4537093807480073,-6.264255058246475,-7.183323114653587,2.0,2.2278388278388275,448.86550476816836,-0.0023308664996219363,-0.034729910844356955,-0.4097663306334129,1483.5164835164835,-1.0,69.93739328400683,2.220945252955777,
2023-08-17 17:19:46.681000,-6.55421686746988,-0.49397590361445787,-7.433734939759036,-0.47087676272225626,-6.305947271612507,-7.139178418148375,2.0,2.2278388278388275,448.86550476816836,0.10244158265835313,-0.054425732766156504,0.09486626653458399,1487.9120879120878,-1.0,69.93739328400683,2.221012959650407,
2023-08-17 17:19:46.689000,-6.530120481927711,-0.49397590361445787,-7.409638554216868,-0.42427958307786634,-6.247087676272225,-7.183323114653587,2.0,2.2278388278388275,448.86550476816836,0.06817784511392125,-0.025289901520890112,0.15313792902511505,1490.10989010989,-1.0,69.93739328400683,2.2210805083546767,
2023-08-17 17:19:46.697000,-6.55421686746988,-0.5060240963855422,-7.433734939759036,-0.46106683016554256,-6.305947271612507,-7.2029429797670135,2.0,2.2278388278388275,448.86550476816836,0.15814929199930056,-0.27038051395606305,0.25604568498339236,1491.5750915750914,-1.0,69.93739328400683,2.221147898385905,
2023-08-17 17:19:46.704000,-6.530120481927711,-0.5180722891566265,-7.445783132530121,-0.44880441446965047,-6.320662170447577,-7.124463519313304,2.0,2.2278388278388275,448.86550476816836,0.01934619194685704,0.06992599498863726,0.14393100635161118,1491.5750915750914,-1.0,69.93739328400683,2.221215129072113,
2023-08-17 17:19:46.712000,-6.518072289156627,-0.5060240963855422,-7.445783132530121,-0.3801348865726548,-6.283874923359901,-7.1661557326793375,2.0,2.2278388278388275,448.86550476816836,0.18670240661966103,-0.46104539362507946,0.07796748441233016,1490.10989010989,-1.0,69.93739328400683,2.2212821997544303,
2023-08-17 17:19:46.720000,-6.542168674698796,-0.4819277108433735,-7.409638554216868,-0.48559166155732675,-6.256897608828939,-7.161250766400981,2.0,2.2278388278388275,448.86550476816836,0.1994056290425965,-0.16257793834858103,0.21082687489074062,1487.179487179487,-1.0,69.93739328400683,2.2213491093320665,
2023-08-17 17:19:46.727000,-6.518072289156627,-0.49397590361445787,-7.409638554216868,-0.48559166155732675,-6.225015328019619,-7.156345800122624,2.0,2.2278388278388275,448.86550476816836,0.43995105180350813,-0.17248412097197122,-0.1273818542043003,1482.7838827838827,-1.0,69.93739328400683,2.221415856332665,
2023-08-17 17:19:46.735000,-6.530120481927711,-0.5060240963855422,-7.409638554216868,-0.45616186388718577,-6.190680564071122,-7.163703249540159,2.0,2.2278388278388275,448.86550476816836,-0.41792436338208666,-0.22749257036303192,0.36046850416642406,1477.6556776556777,-1.0,69.93739328400683,2.2214824394039847,
2023-08-17 17:19:46.743000,-6.542168674698796,-0.49397590361445787,-7.421686746987953,-0.4316370324954016,-6.281422440220723,-7.168608215818516,2.0,2.2263736263736265,449.16090819348466,0.11934036478060739,0.08519317056115634,0.08344502068644033,1470.3296703296703,-1.0,69.93739328400683,2.2215488573135813,
2023-08-17 17:19:46.750000,-6.542168674698796,-0.49397590361445787,-7.409638554216868,-0.4537093807480073,-6.269160024524831,-7.20784794604537,2.0,2.2278388278388275,448.86550476816836,0.22621059378824096,-0.017831128722102692,-0.1177087582308722,1460.8058608058607,-1.0,69.93739328400683,2.221615108914305,
2023-08-17 17:19:46.758000,-6.530120481927711,-0.5060240963855422,-7.397590361445784,-0.4463519313304721,-6.266707541385653,-7.1440833844267315,2.0,2.2278388278388275,448.86550476816836,0.5169861896159903,0.19858982576772893,-0.10430627585805041,1449.8168498168498,-1.0,69.93739328400683,2.221681193498253,
2023-08-17 17:19:46.766000,-6.506024096385542,-0.5301204819277109,-7.421686746987953,-0.39975475168608215,-6.249540159411404,-7.090128755364806,2.0,2.2278388278388275,448.86550476816836,0.2856476895285821,0.4740982460229592,-0.02797039799545499,1439.5604395604394,-1.0,69.93739328400683,2.2217471103760835,
2023-08-17 17:19:46.773000,-6.530120481927711,-0.49397590361445787,-7.397590361445784,-0.46842427958307786,-6.190680564071122,-7.156345800122624,2.0,2.2278388278388275,448.86550476816836,0.5590583299341538,0.47596293922265603,0.06654623856418607,1429.3040293040292,-1.0,69.93739328400683,2.221812858490676,
2023-08-17 17:19:46.781000,-6.542168674698796,-0.5180722891566265,-7.445783132530121,-0.48559166155732675,-6.237277743715512,-7.163703249540159,2.0,2.2278388278388275,448.86550476816836,0.17388264087174474,0.7075345259600259,-0.388788532136822,1421.9780219780218,-1.0,69.93739328400683,2.221878436909227,
2023-08-17 17:19:46.789000,-6.542168674698796,-0.5301204819277109,-7.421686746987953,-0.46842427958307786,-6.281422440220723,-7.1514408338442665,2.0,2.2278388278388275,448.86550476816836,0.052211409591515406,0.6154652992249863,-0.30872326787483245,1415.3846153846152,-1.0,69.93739328400683,2.2219438448226296,
2023-08-17 17:19:46.796000,-6.530120481927711,-0.5060240963855422,-7.445783132530121,-0.45861434702636417,-6.234825260576333,-7.2029429797670135,2.0,2.2278388278388275,448.86550476816836,0.4190897966318985,0.6309655614474688,-0.29217411572752156,1411.7216117216117,-1.0,69.93739328400683,2.222009081544701,
2023-08-17 17:19:46.804000,-6.530120481927711,-0.5180722891566265,-7.445783132530121,-0.42427958307786634,-6.313304721030042,-7.122011036174126,2.0,2.2278388278388275,448.86550476816836,0.23355282326204754,0.9364256162228313,0.12120505798030425,1412.4542124542124,-1.0,69.93739328400683,2.2220741465111367,
2023-08-17 17:19:46.812000,-6.530120481927711,-0.5180722891566265,-7.46987951807229,-0.42673206621704474,-6.220110361741263,-7.1735131820968725,2.0,2.2278388278388275,448.86550476816836,0.10966726880717886,0.46034613367519445,-0.06293339548977318,1415.3846153846152,-1.0,69.93739328400683,2.2221390392780633,
2023-08-17 17:19:46.819000,-6.530120481927711,-0.5301204819277109,-7.433734939759036,-0.45861434702636417,-6.301042305334151,-7.171060698957694,2.0,2.2278388278388275,448.86550476816836,0.27725657012994626,0.6300332148476204,-0.06374919876464077,1419.047619047619,-1.0,69.93739328400683,2.2222037595201196,
2023-08-17 17:19:46.827000,-6.542168674698796,-0.5180722891566265,-7.433734939759036,-0.4782342121397915,-6.276517473942366,-7.183323114653587,2.0,2.2278388278388275,448.86550476816836,0.1222539479051335,0.31012178777460464,0.10418973253306914,1421.245421245421,-1.0,69.93739328400683,2.222268307027893,
2023-08-17 17:19:46.835000,-6.530120481927711,-0.5060240963855422,-7.433734939759036,-0.45861434702636417,-6.278969957081545,-7.178418148375229,2.0,2.2278388278388275,448.86550476816836,0.19707476254297457,0.3452013285939041,-0.09498280985956527,1422.7106227106226,-1.0,69.93739328400683,2.2223326817046587,
2023-08-17 17:19:46.842000,-6.530120481927711,-0.5180722891566265,-7.445783132530121,-0.4904966278356836,-6.288779889638258,-7.161250766400981,2.0,2.2278388278388275,448.86550476816836,-0.27667385350504037,0.21117650486568357,0.02738768137054951,1423.4432234432234,-1.0,69.93739328400683,2.2223968835623125,
2023-08-17 17:19:46.850000,-6.530120481927711,-0.5180722891566265,-7.46987951807229,-0.40220723482526055,-6.315757204169221,-7.210300429184549,2.0,2.2278388278388275,448.86550476816836,-0.24124468271079838,-0.16549152147310714,0.12913000407901631,1421.245421245421,-1.0,69.93739328400683,2.222460912258499,
2023-08-17 17:19:46.858000,-6.493975903614458,-0.5060240963855422,-7.433734939759036,-0.41201716738197425,-6.215205395462906,-7.1661557326793375,2.0,2.2293040293040294,448.5704896483733,-0.04300448691801197,0.022959035021269912,0.11258085193170542,1420.5128205128203,-1.0,69.93739328400683,2.222524767615778,
2023-08-17 17:19:46.865000,-6.506024096385542,-0.5060240963855422,-7.421686746987953,-0.40465971796443895,-6.222562844880441,-7.1661557326793375,2.0,2.2278388278388275,448.86550476816836,0.17026979779733184,0.03100052444496325,0.5504341238855546,1418.3150183150183,-1.0,69.93739328400683,2.2225884500705,
2023-08-17 17:19:46.873000,-6.506024096385542,-0.5060240963855422,-7.433734939759036,-0.43654199877375843,-6.180870631514408,-7.163703249540159,2.0,2.2293040293040294,448.5704896483733,-0.1823903035953614,-0.266884214206631,0.2230639240137523,1416.117216117216,-1.0,69.93739328400683,2.2226519598193892,
2023-08-17 17:19:46.881000,-6.481927710843374,-0.4819277108433735,-7.421686746987953,-0.44880441446965047,-6.251992642550582,-7.200490496627835,2.0,2.2278388278388275,448.86550476816836,0.07563661791270866,-0.5657012994580737,0.06398228541460288,1415.3846153846152,-1.0,69.93739328400683,2.222715297267376,
2023-08-17 17:19:46.888000,-6.518072289156627,-0.49397590361445787,-7.433734939759036,-0.463519313304721,-6.229920294297976,-7.1955855303494785,2.0,2.2278388278388275,448.86550476816836,-0.15441990559990684,-0.40557077093409544,0.1989394557426723,1414.6520146520145,-1.0,69.93739328400683,2.222778463052006,
2023-08-17 17:19:46.896000,-6.506024096385542,-0.4819277108433735,-7.421686746987953,-0.42673206621704474,-6.283874923359901,-7.215205395462906,2.0,2.2263736263736265,449.16090819348466,-0.16700658469786148,0.2225977507138281,0.1636268282734107,1411.7216117216117,-1.0,69.93739328400683,2.222841457505279,
2023-08-17 17:19:46.904000,-6.518072289156627,-0.49397590361445787,-7.409638554216868,-0.463519313304721,-6.244635193133047,-7.1514408338442665,2.0,2.2278388278388275,448.86550476816836,-0.1661907814229939,0.21921799428937688,0.15966435522405448,1410.989010989011,-1.0,69.93739328400683,2.2229042810629576,
2023-08-17 17:19:46.911000,-6.518072289156627,-0.49397590361445787,-7.421686746987953,-0.4782342121397915,-6.269160024524831,-7.1367259350091965,2.0,2.2278388278388275,448.86550476816836,-0.12097197133034257,-0.25756074820814673,0.07983217761202745,1410.2564102564102,-1.0,69.93739328400683,2.222966934603245,
2023-08-17 17:19:46.919000,-6.530120481927711,-0.5060240963855422,-7.421686746987953,-0.4463519313304721,-6.276517473942366,-7.175965665236051,2.0,2.2278388278388275,448.86550476816836,0.07505390128780448,-0.2724782938057216,-0.4420488316531671,1409.5238095238094,-1.0,69.93739328400683,2.223029419009646,
2023-08-17 17:19:46.927000,-6.530120481927711,-0.5180722891566265,-7.421686746987953,-0.48313917841814835,-6.27161250766401,-7.217657878602084,2.0,2.2293040293040294,448.5704896483733,-0.0816968708117243,-0.41046559058329923,-0.21071033156575936,1410.2564102564102,-1.0,69.93739328400683,2.223091734767127,
2023-08-17 17:19:46.934000,-6.530120481927711,-0.5060240963855422,-7.445783132530121,-0.42673206621704474,-6.276517473942366,-7.190680564071122,2.0,2.2293040293040294,448.5704896483733,-0.05244449624147708,-0.4429811782530151,-0.6386574208962184,1410.989010989011,-1.0,69.93739328400683,2.2231538829284303,
2023-08-17 17:19:46.942000,-6.55421686746988,-0.49397590361445787,-7.445783132530121,-0.48559166155732675,-6.278969957081545,-7.212752912323728,2.0,2.2293040293040294,448.5704896483733,-0.09871219625895941,-0.09253540003496293,-0.17481498747159271,1410.2564102564102,-1.0,69.93739328400683,2.2232158651663734,
2023-08-17 17:19:46.950000,-6.530120481927711,-0.5060240963855422,-7.445783132530121,-0.4071122011036174,-6.242182709993869,-7.161250766400981,2.0,2.2293040293040294,448.5704896483733,-0.17539770409649733,0.24345900588543773,-0.38692383893712473,1409.5238095238094,-1.0,69.93739328400683,2.2232776833007706,
2023-08-17 17:19:46.957000,-6.530120481927711,-0.49397590361445787,-7.421686746987953,-0.4537093807480073,-6.1955855303494785,-7.205395462906192,2.0,2.2278388278388275,448.86550476816836,-0.37410407318920885,-0.23273701998717997,-0.36850999359011694,1408.7912087912086,-1.0,69.93739328400683,2.223339339283016,
2023-08-17 17:19:46.965000,-6.518072289156627,-0.5060240963855422,-7.433734939759036,-0.47332924586143466,-6.256897608828939,-7.1735131820968725,2.0,2.2293040293040294,448.5704896483733,-0.08321193403647865,-0.4446127848027503,-0.13775421012761513,1410.989010989011,-1.0,69.93739328400683,2.2234008346877334,
2023-08-17 17:19:46.972000,-6.530120481927711,-0.5180722891566265,-7.433734939759036,-0.48313917841814835,-6.298589822194972,-7.190680564071122,2.0,2.2293040293040294,448.5704896483733,-0.03671114736903465,-0.39379989511100666,-0.1550026222248119,1412.4542124542124,-1.0,69.93739328400683,2.223462170659474,
2023-08-17 17:19:46.980000,-6.530120481927711,-0.49397590361445787,-7.409638554216868,-0.46842427958307786,-6.249540159411404,-7.183323114653587,2.0,2.2293040293040294,448.5704896483733,0.2865800361284305,-0.28063632655439574,-0.09253540003496293,1412.4542124542124,-1.0,69.93739328400683,2.2235233484882904,
2023-08-17 17:19:46.988000,-6.542168674698796,-0.5060240963855422,-7.421686746987953,-0.42427958307786634,-6.242182709993869,-7.217657878602084,2.0,2.2293040293040294,448.5704896483733,-0.1551191655497936,-0.47176737952333725,0.22784220033797573,1412.4542124542124,-1.0,69.93739328400683,2.2235843700811078,
2023-08-17 17:19:46.995000,-6.530120481927711,-0.5060240963855422,-7.421686746987953,-0.40465971796443895,-6.283874923359901,-7.119558553034947,2.0,2.2293040293040294,448.5704896483733,-0.07423809801293689,-0.3129188275741499,-0.06258376551483025,1410.989010989011,-1.0,69.93739328400683,2.223645237415705,
2023-08-17 17:19:47.003000,-6.542168674698796,-0.5060240963855422,-7.421686746987953,-0.47332924586143466,-6.291232372777436,-7.171060698957694,2.0,2.2293040293040294,448.5704896483733,-0.19252957286871328,-0.15383718897500093,0.16782238797272864,1408.058608058608,-1.0,69.93739328400683,2.2237059525570553,
2023-08-17 17:19:47.011000,-6.530120481927711,-0.5180722891566265,-7.493975903614459,-0.46106683016554256,-6.28632740649908,-7.2029429797670135,2.0,2.2293040293040294,448.5704896483733,-0.17364955422178133,-0.21036070159081596,0.35231047141774946,1403.6630036630036,-1.0,69.93739328400683,2.2237665176042305,
2023-08-17 17:19:47.018000,-6.518072289156627,-0.5060240963855422,-7.421686746987953,-0.4463519313304721,-6.200490496627835,-7.1661557326793375,2.0,2.2293040293040294,448.5704896483733,-0.12190431793019099,-0.23809801293630886,0.21350737136530507,1399.2673992673992,-1.0,69.93739328400683,2.2238269342491153,
2023-08-17 17:19:47.026000,-6.481927710843374,-0.49397590361445787,-7.433734939759036,-0.3973022685469037,-6.222562844880441,-7.1293684855916615,2.0,2.2293040293040294,448.5704896483733,0.0510459763417053,-0.1412505098770463,0.3362274925703632,1396.3369963369962,-1.0,69.93739328400683,2.2238872042487117,
2023-08-17 17:19:47.034000,-6.481927710843374,-0.4819277108433735,-7.445783132530121,-0.46106683016554256,-6.1955855303494785,-7.134273451870018,2.0,2.2293040293040294,448.5704896483733,0.3759687663889057,-0.13763766680263342,0.579686498455801,1390.4761904761904,-1.0,69.93739328400683,2.2239473294052425,
2023-08-17 17:19:47.041000,-6.506024096385542,-0.49397590361445787,-7.421686746987953,-0.43408951563458,-6.247087676272225,-7.249540159411404,2.0,2.2293040293040294,448.5704896483733,0.0844939106112696,-0.09078725016024691,0.31956179709807103,1384.6153846153845,-1.0,69.93739328400683,2.2240073115467096,
2023-08-17 17:19:47.049000,-6.518072289156627,-0.5060240963855422,-7.445783132530121,-0.4316370324954016,-6.244635193133047,-7.124463519313304,2.0,2.2278388278388275,448.86550476816836,-0.4467105646524088,0.07645242118757625,-0.06130178894003844,1380.2197802197802,-1.0,69.93739328400683,2.2240671525079367,
2023-08-17 17:19:47.057000,-6.530120481927711,-0.5180722891566265,-7.421686746987953,-0.45861434702636417,-6.249540159411404,-7.1587982832618025,2.0,2.2293040293040294,448.5704896483733,0.11945690810558822,0.18192413029543805,-0.11805838820581559,1377.2893772893772,-1.0,69.93739328400683,2.2241268540772547,
2023-08-17 17:19:47.064000,-6.55421686746988,-0.5060240963855422,-7.433734939759036,-0.4512568976088289,-6.242182709993869,-7.171060698957694,2.0,2.2293040293040294,448.5704896483733,-0.1687547345725775,-0.018646931996970283,0.04020744711846625,1379.4871794871794,-1.0,69.93739328400683,2.2241864183316844,
2023-08-17 17:19:47.072000,-6.55421686746988,-0.5060240963855422,-7.457831325301205,-0.39975475168608215,-6.269160024524831,-7.171060698957694,2.0,2.2293040293040294,448.5704896483733,0.2900763358778626,-0.2936891789522755,-0.07726822446244384,1380.952380952381,-1.0,69.93739328400683,2.224245847197571,
2023-08-17 17:19:47.080000,-6.542168674698796,-0.5060240963855422,-7.457831325301205,-0.39239730226854685,-6.298589822194972,-7.141630901287553,2.0,2.2293040293040294,448.5704896483733,0.058388205815511886,-0.3223588368976168,-0.22434590058854367,1380.952380952381,-1.0,69.93739328400683,2.2243051420458313,
2023-08-17 17:19:47.087000,-6.506024096385542,-0.46987951807228917,-7.433734939759036,-0.3948497854077253,-6.234825260576333,-7.153893316983446,2.0,2.2293040293040294,448.5704896483733,0.32958452304644253,-0.7341064040557069,-0.100460346133675,1381.6849816849815,-1.0,69.93739328400683,2.224364304165991,
2023-08-17 17:19:47.095000,-6.530120481927711,-0.49397590361445787,-7.397590361445784,-0.39975475168608215,-6.247087676272225,-7.212752912323728,2.0,2.2293040293040294,448.5704896483733,-0.0564069692908342,-0.5458889342112933,-0.03671114736903465,1381.6849816849815,-1.0,69.93739328400683,2.2244233347480185,
2023-08-17 17:19:47.103000,-6.518072289156627,-0.4819277108433735,-7.433734939759036,-0.42427958307786634,-6.278969957081545,-7.217657878602084,2.0,2.230769230769231,448.2758620689655,-0.27073014393100553,-0.3927510051861774,-0.24648913233494557,1379.4871794871794,-1.0,69.93739328400683,2.2244822348646056,
2023-08-17 17:19:47.110000,-6.542168674698796,-0.5060240963855422,-7.397590361445784,-0.4537093807480073,-6.276517473942366,-7.1587982832618025,2.0,2.2293040293040294,448.5704896483733,-0.24066196608589246,-0.15022434590058806,-0.1981236524678047,1378.7545787545787,-1.0,69.93739328400683,2.224541005488734,
2023-08-17 17:19:47.118000,-6.55421686746988,-0.4819277108433735,-7.421686746987953,-0.4218270999386879,-6.264255058246475,-7.095033721643163,2.0,2.2293040293040294,448.5704896483733,-0.041372880368276785,-0.6702406619660853,0.07866674436221649,1378.021978021978,-1.0,69.93739328400683,2.224599647581539,
2023-08-17 17:19:47.126000,-6.530120481927711,-0.49397590361445787,-7.433734939759036,-0.43408951563458,-6.261802575107295,-7.14653586756591,2.0,2.2293040293040294,448.5704896483733,-0.05897092244041781,-0.8206980945166368,-0.2426432026105706,1376.5567765567764,-1.0,69.93739328400683,2.2246581619726595,
2023-08-17 17:19:47.133000,-6.55421686746988,-0.49397590361445787,-7.421686746987953,-0.46106683016554256,-6.323114653586757,-7.153893316983446,2.0,2.230769230769231,448.2758620689655,-0.01841384534700861,-1.1824485752578526,-0.05768894586562557,1378.021978021978,-1.0,69.93739328400683,2.2247165488530087,
2023-08-17 17:19:47.141000,-6.530120481927711,-0.49397590361445787,-7.409638554216868,-0.47087676272225626,-6.278969957081545,-7.1661557326793375,2.0,2.2293040293040294,448.5704896483733,-0.19334537614358085,-0.854262572111182,-0.22504516053843,1380.2197802197802,-1.0,69.93739328400683,2.2247748083206123,
2023-08-17 17:19:47.149000,-6.518072289156627,-0.4819277108433735,-7.409638554216868,-0.3678724708767627,-6.161250766400981,-7.175965665236051,2.0,2.2293040293040294,448.5704896483733,0.15640114212458453,-0.8813006235067881,0.18949944641920632,1381.6849816849815,-1.0,69.93739328400683,2.2248329408927283,
2023-08-17 17:19:47.156000,-6.481927710843374,-0.49397590361445787,-7.385542168674699,-0.3678724708767627,-6.222562844880441,-7.1587982832618025,2.0,2.2293040293040294,448.5704896483733,0.5041664238680723,-0.3859914923372767,0.15838237864926266,1383.8827838827838,-1.0,69.93739328400683,2.224890946439375,
2023-08-17 17:19:47.164000,-6.493975903614458,-0.4819277108433735,-7.409638554216868,-0.42673206621704474,-6.220110361741263,-7.1293684855916615,2.0,2.230769230769231,448.2758620689655,0.5905250276790405,0.1029077559582782,-0.19392809276848677,1383.150183150183,-1.0,69.93739328400683,2.224948824662791,
2023-08-17 17:19:47.172000,-6.518072289156627,-0.46987951807228917,-7.373493975903615,-0.43408951563458,-6.2029429797670135,-7.095033721643163,2.0,2.230769230769231,448.2758620689655,0.2720121205057982,0.493094807994872,-0.5885437911543614,1380.2197802197802,-1.0,69.93739328400683,2.2250065755428574,
2023-08-17 17:19:47.179000,-6.55421686746988,-0.49397590361445787,-7.409638554216868,-0.46842427958307786,-6.261802575107295,-7.234825260576333,2.0,2.230769230769231,448.2758620689655,0.260357788007692,0.48761727172076225,-0.5855136647048541,1374.3589743589744,-1.0,69.93739328400683,2.225064198974401,
2023-08-17 17:19:47.187000,-6.566265060240964,-0.5060240963855422,-7.421686746987953,-0.3948497854077253,-6.283874923359901,-7.1440833844267315,2.0,2.2293040293040294,448.5704896483733,0.035196084144280305,0.5923897208787373,-0.38389371248761733,1368.4981684981683,-1.0,69.93739328400683,2.2251216947940966,
2023-08-17 17:19:47.195000,-6.590361445783133,-0.49397590361445787,-7.433734939759036,-0.45616186388718577,-6.283874923359901,-7.156345800122624,2.0,2.230769230769231,448.2758620689655,0.1517394091253424,0.4075520074587731,-0.6732707884155936,1364.102564102564,-1.0,69.93739328400683,2.225179062281486,
2023-08-17 17:19:47.202000,-6.590361445783133,-0.5060240963855422,-7.397590361445784,-0.39239730226854685,-6.330472103004292,-7.060698957694665,2.0,2.2293040293040294,448.5704896483733,0.422469553056348,0.05034671639181855,-0.19555969931822154,1361.904761904762,-1.0,69.93739328400683,2.225236300574641,
2023-08-17 17:19:47.210000,-6.518072289156627,-0.5180722891566265,-7.421686746987953,-0.41692213366033104,-6.264255058246475,-7.0999386879215205,2.0,2.2293040293040294,448.5704896483733,0.7403997436046843,-0.07691859448750134,0.032981760969640506,1358.974358974359,-1.0,69.93739328400683,2.2252934091564676,
2023-08-17 17:19:47.218000,-6.518072289156627,-0.5060240963855422,-7.409638554216868,-0.5076640098099325,-6.28632740649908,-7.139178418148375,2.0,2.2293040293040294,448.5704896483733,0.7362041839053672,-0.16176213507371343,0.04685041664238695,1356.7765567765566,-1.0,69.93739328400683,2.225350387254768,
2023-08-17 17:19:47.225000,-6.506024096385542,-0.4819277108433735,-7.409638554216868,-0.4904966278356836,-6.227467811158798,-7.134273451870018,2.0,2.230769230769231,448.2758620689655,0.8523978789114851,0.35289318804265496,-0.06048598566517085,1355.3113553113553,-1.0,69.93739328400683,2.225407233346948,
2023-08-17 17:19:47.233000,-6.493975903614458,-0.4819277108433735,-7.397590361445784,-0.43899448191293683,-6.185775597792765,-7.1293684855916615,2.0,2.230769230769231,448.2758620689655,0.44717673795233387,0.51488840976633,-0.06048598566517085,1356.7765567765566,-1.0,69.93739328400683,2.2254639457172876,
2023-08-17 17:19:47.241000,-6.518072289156627,-0.5060240963855422,-7.397590361445784,-0.46842427958307786,-6.210300429184549,-7.1587982832618025,2.0,2.230769230769231,448.2758620689655,0.21245848144047624,0.7837538604976405,-0.028086941320435828,1358.974358974359,-1.0,69.93739328400683,2.225520523014721,
2023-08-17 17:19:47.248000,-6.530120481927711,-0.5180722891566265,-7.433734939759036,-0.4218270999386879,-6.2323727774371545,-7.229920294297976,2.0,2.230769230769231,448.2758620689655,0.39356680846104497,0.6407552007458764,-0.16397645824835366,1363.3699633699632,-1.0,69.93739328400683,2.225576963793927,
2023-08-17 17:19:47.256000,-6.530120481927711,-0.49397590361445787,-7.421686746987953,-0.46106683016554256,-6.23973022685469,-7.198038013488657,2.0,2.2293040293040294,448.5704896483733,0.4216537497814821,0.8957519958044395,0.05127906299166698,1364.102564102564,-1.0,69.93739328400683,2.225633266515347,
2023-08-17 17:19:47.264000,-6.542168674698796,-0.5180722891566265,-7.409638554216868,-0.45861434702636417,-6.234825260576333,-7.190680564071122,2.0,2.230769230769231,448.2758620689655,0.29403880892721795,0.4916962880951002,-0.11549443505623197,1360.4395604395604,-1.0,69.93739328400683,2.2256894290534524,
2023-08-17 17:19:47.271000,-6.566265060240964,-0.5060240963855422,-7.445783132530121,-0.4218270999386879,-6.210300429184549,-7.1735131820968725,2.0,2.230769230769231,448.2758620689655,0.13973544665229368,0.1681720179476716,-0.28203484645416926,1357.5091575091574,-1.0,69.93739328400683,2.225745448661183,
2023-08-17 17:19:47.279000,-6.55421686746988,-0.5060240963855422,-7.445783132530121,-0.44880441446965047,-6.293684855916616,-7.156345800122624,2.0,2.2293040293040294,448.5704896483733,0.15616805547462287,-0.10582133908280432,0.024241011596060846,1353.8461538461538,-1.0,69.93739328400683,2.22580132302216,
2023-08-17 17:19:47.287000,-6.55421686746988,-0.5060240963855422,-7.409638554216868,-0.4316370324954016,-6.301042305334151,-7.161250766400981,2.0,2.2293040293040294,448.5704896483733,0.2790047200046623,0.0658469786142993,-0.37282209661441656,1355.3113553113553,-1.0,69.93739328400683,2.2258570492660636,
2023-08-17 17:19:47.294000,-6.55421686746988,-0.5301204819277109,-7.397590361445784,-0.522378908645003,-6.278969957081545,-7.124463519313304,2.0,2.230769230769231,448.2758620689655,0.0791329176621407,-0.3306334129712718,-0.1875182098945282,1357.5091575091574,-1.0,69.93739328400683,2.225912623932836,
2023-08-17 17:19:47.302000,-6.55421686746988,-0.5180722891566265,-7.409638554216868,-0.5150214592274678,-6.207847946045371,-7.1514408338442665,2.0,2.230769230769231,448.2758620689655,0.06304993881475403,-0.018064215372064367,-0.26420371773206697,1360.4395604395604,-1.0,69.93739328400683,2.2259680443432424,
2023-08-17 17:19:47.310000,-6.530120481927711,-0.49397590361445787,-7.421686746987953,-0.4193746167995095,-6.278969957081545,-7.1808706315144075,2.0,2.230769230769231,448.2758620689655,0.2764407668550787,-0.23984616281102486,-0.20138686556727464,1361.1721611721612,-1.0,69.93739328400683,2.2260233081777336,
2023-08-17 17:19:47.317000,-6.542168674698796,-0.5060240963855422,-7.409638554216868,-0.4880441446965052,-6.296137339055794,-7.1514408338442665,2.0,2.230769230769231,448.2758620689655,0.505448400442865,0.10360701590816322,-0.3052269681254004,1361.1721611721612,-1.0,69.93739328400683,2.2260784130232403,
2023-08-17 17:19:47.325000,-6.518072289156627,-0.5060240963855422,-7.409638554216868,-0.4193746167995095,-6.274064990803188,-7.171060698957694,2.0,2.230769230769231,448.2758620689655,0.3223588368976168,0.2146728046151156,-0.3476487384185069,1361.1721611721612,-1.0,69.93739328400683,2.2261333559202208,
2023-08-17 17:19:47.333000,-6.55421686746988,-0.5301204819277109,-7.433734939759036,-0.49294911097486205,-6.1955855303494785,-7.1293684855916615,2.0,2.230769230769231,448.2758620689655,0.431210302429928,0.49297826466989114,-0.5895926810791912,1363.3699633699632,-1.0,69.93739328400683,2.226188133892898,
2023-08-17 17:19:47.340000,-6.542168674698796,-0.5180722891566265,-7.433734939759036,-0.463519313304721,-6.281422440220723,-7.126916002452483,2.0,2.230769230769231,448.2758620689655,-0.12132160130528508,0.8142882116426786,-0.32468970339723785,1364.8351648351647,-1.0,69.93739328400683,2.226242743917702,
2023-08-17 17:19:47.348000,-6.530120481927711,-0.5180722891566265,-7.409638554216868,-0.4904966278356836,-6.227467811158798,-7.102391171060699,2.0,2.230769230769231,448.2758620689655,0.7515879028028671,0.7501893829030936,-0.2920575724025407,1365.5677655677655,-1.0,69.93739328400683,2.2262971825036924,
2023-08-17 17:19:47.355000,-6.493975903614458,-0.5180722891566265,-7.409638554216868,-0.4537093807480073,-6.28632740649908,-7.095033721643163,2.0,2.2293040293040294,448.5704896483733,1.0966726880717903,0.9920167822387979,-0.044752636792727556,1365.5677655677655,-1.0,69.93739328400683,2.226351446186667,
2023-08-17 17:19:47.363000,-6.542168674698796,-0.5421686746987953,-7.409638554216868,-0.5076640098099325,-6.335377069282648,-7.1440833844267315,2.0,2.230769230769231,448.2758620689655,1.210069343278363,1.3541168929549563,-0.1657246081230697,1364.102564102564,-1.0,69.93739328400683,2.226405531496292,
2023-08-17 17:19:47.371000,-6.542168674698796,-0.5421686746987953,-7.409638554216868,-0.5076640098099325,-6.242182709993869,-7.1367259350091965,2.0,2.230769230769231,448.2758620689655,1.17242584930948,1.4693782413612257,0.12609987762950892,1362.6373626373625,-1.0,69.93739328400683,2.2264594348537416,
2023-08-17 17:19:47.378000,-6.530120481927711,-0.5301204819277109,-7.397590361445784,-0.5027590435315757,-6.283874923359901,-7.1514408338442665,2.0,2.230769230769231,448.2758620689655,1.2576190198706363,2.3738709865392456,0.3097721577996621,1364.8351648351647,-1.0,69.93739328400683,2.2265131526776374,
2023-08-17 17:19:47.386000,-6.518072289156627,-0.5542168674698795,-7.409638554216868,-0.45861434702636417,-6.278969957081545,-7.156345800122624,2.0,2.230769230769231,448.2758620689655,1.1423576714643668,2.401142124584815,0.5984499737777521,1365.5677655677655,-1.0,69.93739328400683,2.22656668142037,
2023-08-17 17:19:47.394000,-6.518072289156627,-0.5301204819277109,-7.421686746987953,-0.510116492949111,-6.283874923359901,-7.171060698957694,2.0,2.230769230769231,448.2758620689655,1.2108851465532307,3.0565817842783063,0.5915739176038692,1366.3003663003662,-1.0,69.93739328400683,2.2266200175697217,
2023-08-17 17:19:47.401000,-6.518072289156627,-0.5542168674698795,-7.433734939759036,-0.3850398528510116,-6.259350091968117,-7.200490496627835,2.0,2.230769230769231,448.2758620689655,1.1235941961424156,2.6977448866616163,0.9544898315948952,1366.3003663003662,-1.0,69.93739328400683,2.2266731576505685,
2023-08-17 17:19:47.409000,-6.542168674698796,-0.5421686746987953,-7.433734939759036,-0.510116492949111,-6.264255058246475,-7.200490496627835,2.0,2.230769230769231,448.2758620689655,0.8556610920109554,2.966726880717906,0.8859623565060311,1367.032967032967,-1.0,69.93739328400683,2.226726098226549,
2023-08-17 17:19:47.417000,-6.493975903614458,-0.5542168674698795,-7.421686746987953,-0.48068669527896996,-6.217657878602084,-7.185775597792765,2.0,2.2322344322344323,447.9816212668198,0.5571936367344552,2.8365479867140615,1.2127498397529284,1367.7655677655678,-1.0,69.93739328400683,2.2267788359016287,
2023-08-17 17:19:47.424000,-6.493975903614458,-0.5421686746987953,-7.421686746987953,-0.522378908645003,-6.215205395462906,-7.1931330472103,2.0,2.2322344322344323,447.9816212668198,0.6111531962006884,2.8142882116426784,1.2634461861196897,1368.4981684981683,-1.0,69.93739328400683,2.226831367814162,
2023-08-17 17:19:47.432000,-6.493975903614458,-0.5180722891566265,-7.457831325301205,-0.5052115266707541,-6.217657878602084,-7.222562844880441,2.0,2.2322344322344323,447.9816212668198,0.512440999941729,2.3195617970980713,1.2840743546413378,1372.161172161172,-1.0,69.93739328400683,2.226883691710228,
2023-08-17 17:19:47.440000,-6.481927710843374,-0.5301204819277109,-7.457831325301205,-0.4782342121397915,-6.188228080931943,-7.20784794604537,2.0,2.2322344322344323,447.9816212668198,0.7047374861604806,2.1811083270205702,0.9844414661150284,1375.091575091575,-1.0,69.93739328400683,2.226935805034265,
2023-08-17 17:19:47.447000,-6.518072289156627,-0.5180722891566265,-7.445783132530121,-0.4218270999386879,-6.225015328019619,-7.247087676272225,2.0,2.230769230769231,448.2758620689655,0.2835499096789236,1.7352135656430292,0.5348173183380921,1377.2893772893772,-1.0,69.93739328400683,2.226987705002961,
2023-08-17 17:19:47.455000,-6.493975903614458,-0.49397590361445787,-7.481927710843374,-0.45616186388718577,-6.215205395462906,-7.229920294297976,2.0,2.2322344322344323,447.9816212668198,0.520715576015384,1.6733290600780852,0.6681428821164268,1378.7545787545787,-1.0,69.93739328400683,2.2270393886077016,
2023-08-17 17:19:47.463000,-6.493975903614458,-0.4819277108433735,-7.46987951807229,-0.47087676272225626,-6.185775597792765,-7.1808706315144075,2.0,2.2322344322344323,447.9816212668198,0.5147718664413492,1.6563137346308485,0.6628984324922792,1378.021978021978,-1.0,69.93739328400683,2.2270908530382076,
2023-08-17 17:19:47.470000,-6.518072289156627,-0.46987951807228917,-7.46987951807229,-0.46106683016554256,-6.234825260576333,-7.2323727774371545,2.0,2.2322344322344323,447.9816212668198,0.47864343569722045,1.2724200221432302,0.5673329060078084,1376.5567765567764,-1.0,69.93739328400683,2.227142096210789,
2023-08-17 17:19:47.478000,-6.506024096385542,-0.49397590361445787,-7.46987951807229,-0.38749233599019006,-6.215205395462906,-7.266707541385653,2.0,2.2322344322344323,447.9816212668198,0.4585979838004784,1.196433774255579,0.5007866674436219,1372.161172161172,850.250244140625,70.56745989016905,2.2271931163141088,
2023-08-17 17:19:47.486000,-6.493975903614458,-0.4819277108433735,-7.493975903614459,-0.45861434702636417,-6.185775597792765,-7.210300429184549,2.0,2.230769230769231,448.2758620689655,0.21105996154070272,1.0300099061826236,0.3750364197890564,1365.5677655677655,-1.0,70.56745989016905,2.227243911813241,
2023-08-17 17:19:47.493000,-6.46987951807229,-0.49397590361445787,-7.46987951807229,-0.45861434702636417,-6.215205395462906,-7.14653586756591,2.0,2.230769230769231,448.2758620689655,-0.2936891789522755,1.125225802692151,0.3244566167472757,1358.974358974359,-1.0,70.56745989016905,2.2272944814192224,
2023-08-17 17:19:47.501000,-6.46987951807229,-0.5060240963855422,-7.493975903614459,-0.4659717964438994,-6.1440833844267315,-7.244635193133047,2.0,2.2322344322344323,447.9816212668198,-0.0813472408367818,0.8556610920109536,0.5492686906357438,1353.113553113553,-1.0,70.56745989016905,2.227344823496279,
2023-08-17 17:19:47.509000,-6.46987951807229,-0.46987951807228917,-7.481927710843374,-0.37522992029429797,-6.183323114653587,-7.261802575107295,2.0,2.2293040293040294,448.5704896483733,-0.4946098712196263,0.4673387331740585,0.5592914165841151,1348.7179487179487,-1.0,70.56745989016905,2.227394936590285,
2023-08-17 17:19:47.516000,-6.493975903614458,-0.46987951807228917,-7.493975903614459,-0.4414469650521152,-6.234825260576333,-7.210300429184549,2.0,2.230769230769231,448.2758620689655,-0.2932230056523504,0.3238739001223711,0.2009206922673502,1347.985347985348,-1.0,70.56745989016905,2.227444819463864,
2023-08-17 17:19:47.524000,-6.493975903614458,-0.5060240963855422,-7.481927710843374,-0.41692213366033104,-6.229920294297976,-7.23973022685469,2.0,2.230769230769231,448.2758620689655,-0.5498514072606486,-0.017481498747160183,0.01724841209719721,1347.2527472527472,-1.0,70.56745989016905,2.2274944709220645,
2023-08-17 17:19:47.532000,-6.506024096385542,-0.4819277108433735,-7.493975903614459,-0.42427958307786634,-6.229920294297976,-7.237277743715511,2.0,2.230769230769231,448.2758620689655,-0.6663947322417108,-0.24858691218460321,0.12598333430452788,1348.7179487179487,-1.0,70.56745989016905,2.227543890303045,
2023-08-17 17:19:47.539000,-6.493975903614458,-0.49397590361445787,-7.457831325301205,-0.3605150214592274,-6.198038013488657,-7.227467811158798,2.0,2.2322344322344323,447.9816212668198,-0.6020628168521641,-1.1195151797680796,-0.22469553056348707,1350.9157509157508,-1.0,70.56745989016905,2.2275930765610994,
2023-08-17 17:19:47.547000,-6.493975903614458,-0.49397590361445787,-7.445783132530121,-0.3678724708767627,-6.2323727774371545,-7.1735131820968725,2.0,2.2322344322344323,447.9816212668198,-0.6435522405454235,-1.3895460637492,-0.008274576073655443,1353.8461538461538,-1.0,70.56745989016905,2.2276420288236656,
2023-08-17 17:19:47.555000,-6.481927710843374,-0.49397590361445787,-7.433734939759036,-0.4095646842427958,-6.175965665236051,-7.161250766400981,2.0,2.2322344322344323,447.9816212668198,6.992599498867545E-4,-1.3062175863877388,0.22236466406386576,1356.0439560439559,-1.0,70.56745989016905,2.22769074694728,
2023-08-17 17:19:47.562000,-6.457831325301205,-0.46987951807228917,-7.445783132530121,-0.4438994481912937,-6.1661557326793375,-7.190680564071122,2.0,2.2322344322344323,447.9816212668198,0.07388846803799265,-1.1195151797680796,-0.09882873958394024,1356.0439560439559,-1.0,70.56745989016905,2.227739231055236,
2023-08-17 17:19:47.570000,-6.46987951807229,-0.4819277108433735,-7.409638554216868,-0.45861434702636417,-6.200490496627835,-7.14653586756591,2.0,2.2322344322344323,447.9816212668198,0.2814521298292633,-0.8557776353359363,0.07027562496358042,1356.0439560439559,-1.0,70.56745989016905,2.2277874815325984,
2023-08-17 17:19:47.578000,-6.493975903614458,-0.46987951807228917,-7.445783132530121,-0.37768240343347637,-6.2029429797670135,-7.1661557326793375,2.0,2.2322344322344323,447.9816212668198,-0.05885437911543697,-0.6850416642386811,-0.28028669657945343,1356.0439560439559,-1.0,70.56745989016905,2.227835499020649,
2023-08-17 17:19:47.585000,-6.481927710843374,-0.4819277108433735,-7.457831325301205,-0.4537093807480073,-6.242182709993869,-7.220110361741263,2.0,2.2322344322344323,447.9816212668198,0.3513781248179006,-0.18122487034555132,-0.24625604568498347,1356.7765567765566,-1.0,70.56745989016905,2.2278832844107046,
2023-08-17 17:19:47.593000,-6.506024096385542,-0.5180722891566265,-7.457831325301205,-0.44880441446965047,-6.229920294297976,-7.14653586756591,2.0,2.2322344322344323,447.9816212668198,0.25534642503350563,-0.18530388671988754,-0.24275974593555186,1360.4395604395604,-1.0,70.56745989016905,2.2279308388372963,
2023-08-17 17:19:47.601000,-6.518072289156627,-0.5060240963855422,-7.433734939759036,-0.40220723482526055,-6.25444512568976,-7.188228080931943,2.0,2.2322344322344323,447.9816212668198,0.4774780024474104,-0.1128139385816684,-0.07190723151331495,1369.9633699633698,-1.0,70.56745989016905,2.227978163670636,
2023-08-17 17:19:47.608000,-6.542168674698796,-0.5060240963855422,-7.433734939759036,-0.45861434702636417,-6.281422440220723,-7.205395462906192,2.0,2.2322344322344323,447.9816212668198,0.7464599965036999,0.03752695064390224,-0.4521881009265194,1380.952380952381,-1.0,70.56745989016905,2.228025260508369,
2023-08-17 17:19:47.616000,-6.506024096385542,-0.5301204819277109,-7.421686746987953,-0.4659717964438994,-6.237277743715512,-7.1661557326793375,2.0,2.2322344322344323,447.9816212668198,0.8468037993123945,-0.22504516053843088,-0.19008216304411138,1397.069597069597,-1.0,70.56745989016905,2.228072131166568,
2023-08-17 17:19:47.624000,-6.493975903614458,-0.5180722891566265,-7.421686746987953,-0.4659717964438994,-6.274064990803188,-7.153893316983446,2.0,2.2322344322344323,447.9816212668198,0.8523978789114851,0.10838529223238619,0.0692267350387505,1415.3846153846152,-1.0,70.56745989016905,2.2281187772120594,
2023-08-17 17:19:47.631000,-6.518072289156627,-0.5301204819277109,-7.433734939759036,-0.43899448191293683,-6.259350091968117,-7.175965665236051,2.0,2.2322344322344323,447.9816212668198,1.5013111124060374,0.22551133383835423,0.17516461744653566,1433.6996336996335,-1.0,70.56745989016905,2.228165200476965,
2023-08-17 17:19:47.639000,-6.506024096385542,-0.5060240963855422,-7.445783132530121,-0.47087676272225626,-6.269160024524831,-7.210300429184549,2.0,2.2322344322344323,447.9816212668198,1.2597167997202965,0.38750655556202934,-0.11665986830604294,1452.014652014652,-1.0,70.56745989016905,2.2282114030105267,
2023-08-17 17:19:47.647000,-6.506024096385542,-0.5180722891566265,-7.457831325301205,-0.43408951563458,-6.200490496627835,-7.1514408338442665,2.0,2.2322344322344323,447.9816212668198,1.0195210069343275,-0.10617096905774856,0.12668259425441397,1468.8644688644688,-1.0,70.56745989016905,2.2282573866421056,
2023-08-17 17:19:47.654000,-6.481927710843374,-0.5180722891566265,-7.457831325301205,-0.42673206621704474,-6.220110361741263,-7.205395462906192,2.0,2.2322344322344323,447.9816212668198,1.2537730901462616,-0.016082978847386676,0.7162752753336054,1482.7838827838827,-1.0,70.56745989016905,2.228303153457127,
2023-08-17 17:19:47.662000,-6.493975903614458,-0.5060240963855422,-7.457831325301205,-0.45861434702636417,-6.278969957081545,-7.183323114653587,2.0,2.230769230769231,448.2758620689655,1.4560923023133843,0.2433424625604569,0.6022959035021268,1490.10989010989,-1.0,70.56745989016905,2.228348705780172,
2023-08-17 17:19:47.670000,-6.481927710843374,-0.5180722891566265,-7.445783132530121,-0.5076640098099325,-6.23973022685469,-7.1661557326793375,2.0,2.2322344322344323,447.9816212668198,1.2451488840976623,-0.018646931996970283,0.39589767496066647,1493.7728937728937,-1.0,70.56745989016905,2.2283940461230825,
2023-08-17 17:19:47.677000,-6.493975903614458,-0.5301204819277109,-7.46987951807229,-0.4782342121397915,-6.229920294297976,-7.222562844880441,2.0,2.2322344322344323,447.9816212668198,1.6309072897849775,-0.2022026688421418,0.5146553231163686,1494.5054945054944,-1.0,70.56745989016905,2.228439177520899,
