Shimmer_F5D4_Timestamp_FormattedUnix_CAL,Shimmer_F5D4_Accel_LN_X_CAL,Shimmer_F5D4_Accel_LN_Y_CAL,Shimmer_F5D4_Accel_LN_Z_CAL,Shimmer_F5D4_Accel_WR_X_CAL,Shimmer_F5D4_Accel_WR_Y_CAL,Shimmer_F5D4_Accel_WR_Z_CAL,Shimmer_F5D4_GSR_Range_CAL,Shimmer_F5D4_GSR_Skin_Conductance_CAL,Shimmer_F5D4_GSR_Skin_Resistance_CAL,Shimmer_F5D4_Gyro_X_CAL,Shimmer_F5D4_Gyro_Y_CAL,Shimmer_F5D4_Gyro_Z_CAL,Shimmer_F5D4_PPG_A13_CAL,Shimmer_F5D4_PPG_IBI_CAL,Shimmer_F5D4_PPGtoHR_CAL,Shimmer_F5D4_GSR_Skin_Conductance_LPF_CAL,
yyyy/mm/dd hh:mm:ss.000,m/(s^2),m/(s^2),m/(s^2),m/(s^2),m/(s^2),m/(s^2),no_units,uS,kOhms,deg/s,deg/s,deg/s,mV,ms,BPM,uS,
2023-08-10 17:20:03.007000,7.987951807228916,1.7228915662650603,-5.590361445783133,1.8786020846106681,8.649294911097487,-5.027590435315757,2.0,2.283516483516483,437.92107795957656,0.09032107686032356,0.09253540003496293,0.04661732999242484,1286.4468864468863,-1.0,73.89611365857326,2.2839091616888534,
2023-08-10 17:20:03.015000,8.012048192771084,1.710843373493976,-5.578313253012048,1.9104843654199877,8.654199877375843,-5.027590435315757,2.0,2.283516483516483,437.92107795957656,-0.15407027562496434,0.414661150282618,0.07831711438727354,1301.098901098901,-1.0,73.89611365857326,2.283894193354483,
2023-08-10 17:20:03.022000,8.012048192771084,1.7349397590361446,-5.590361445783133,1.8933169834457386,8.676272225628448,-5.025137952176578,2.0,2.283516483516483,437.92107795957656,-0.13705495017772923,0.3851756890624091,0.47631256919759896,1315.7509157509157,-1.0,73.89611365857326,2.2838794901522443,
2023-08-10 17:20:03.030000,8.012048192771084,1.7228915662650603,-5.578313253012048,1.854077253218884,8.656652360515022,-5.06928264868179,2.0,2.282051282051282,438.2022471910113,-0.0896218169104368,0.18472117009498334,-0.02703805139560613,1329.6703296703297,-1.0,73.89611365857326,2.2838650617344753,
2023-08-10 17:20:03.038000,8.024096385542169,1.7228915662650603,-5.602409638554217,1.8344573881054567,8.683629675045983,-5.020232985898222,2.0,2.283516483516483,437.92107795957656,-0.3178136472233555,0.10687022900763359,-0.13204358720354287,1345.7875457875457,-1.0,73.89611365857326,2.283850916578931,
2023-08-10 17:20:03.045000,8.036144578313253,1.7228915662650603,-5.55421686746988,1.8638871857755976,8.6591048436542,-5.037400367872471,2.0,2.283516483516483,437.92107795957656,-0.2225977507138281,-0.0019812365246776914,0.08158032748674304,1364.8351648351647,-1.0,73.89611365857326,2.2838370623905,
2023-08-10 17:20:03.053000,8.012048192771084,1.6867469879518073,-5.602409638554217,1.8810545677498467,8.708154506437769,-5.052115266707541,2.0,2.282051282051282,438.2022471910113,-0.06957636501369302,-0.2781889167297947,-0.10267466930831523,1385.3479853479853,-1.0,73.89611365857326,2.283823506609578,
2023-08-10 17:20:03.061000,8.024096385542169,1.710843373493976,-5.614457831325302,1.9031269160024524,8.722869405272839,-5.064377682403433,2.0,2.283516483516483,437.92107795957656,-0.08519317056115634,-0.30697511800011684,0.26455334770700994,1406.5934065934066,-1.0,73.89611365857326,2.283810255447496,
2023-08-10 17:20:03.068000,8.0,1.710843373493976,-5.602409638554217,1.917841814837523,8.651747394236665,-5.012875536480687,2.0,2.283516483516483,437.92107795957656,0.22015034088922533,-0.37002505681487086,-0.117242584930948,1422.7106227106226,-1.0,73.89611365857326,2.283797314295732,
2023-08-10 17:20:03.076000,8.012048192771084,1.7228915662650603,-5.590361445783133,1.8663396689147762,8.725321888412017,-5.057020232985898,2.0,2.282051282051282,438.2022471910113,0.12586679097954637,-0.17050288444729353,-0.010605442573276513,1430.03663003663,-1.0,73.89611365857326,2.2837846882419752,
2023-08-10 17:20:03.084000,8.0,1.710843373493976,-5.590361445783133,1.8933169834457386,8.713059472716125,-5.049662783568363,2.0,2.282051282051282,438.2022471910113,0.1259833343045272,-0.13985198997727452,0.19113105296894106,1433.6996336996335,-1.0,73.89611365857326,2.2837723815712296,
2023-08-10 17:20:03.091000,8.036144578313253,1.6987951807228916,-5.626506024096386,1.8736971183323115,8.64193746167995,-5.066830165542612,2.0,2.282051282051282,438.2022471910113,0.18716857991958438,0.012703222422935475,-0.12773148417924365,1434.4322344322343,-1.0,73.89611365857326,2.2837603976230394,
2023-08-10 17:20:03.099000,7.963855421686747,1.7228915662650603,-5.626506024096386,1.908031882280809,8.661557326793378,-5.017780502759043,2.0,2.282051282051282,438.2022471910113,0.15441990559990684,0.055824252665928276,0.1195734514305695,1434.4322344322343,-1.0,73.89611365857326,2.2837487382970934,
2023-08-10 17:20:03.107000,7.987951807228916,1.710843373493976,-5.614457831325302,1.9227467811158798,8.664009809932557,-5.103617412630288,2.0,2.282051282051282,438.2022471910113,-0.0597867257152854,-0.14171668317697136,0.1657246081230697,1432.2344322344322,-1.0,73.89611365857326,2.2837374041203775,
2023-08-10 17:20:03.114000,8.0,1.7228915662650603,-5.614457831325302,1.908031882280809,8.656652360515022,-5.047210300429184,2.0,2.282051282051282,438.2022471910113,-0.18099178369558963,0.059320552415360314,-0.18588660334479346,1429.3040293040292,-1.0,73.89611365857326,2.28372639473707,
2023-08-10 17:20:03.122000,8.0,1.710843373493976,-5.626506024096386,1.8859595340282034,8.62722256284488,-5.049662783568363,2.0,2.282051282051282,438.2022471910113,-0.1480100227259487,-0.24555678573509626,0.18029252374570245,1424.9084249084249,-1.0,73.89611365857326,2.2837157089080677,
2023-08-10 17:20:03.130000,8.012048192771084,1.7228915662650603,-5.614457831325302,1.8908645003065603,8.70324954015941,-5.049662783568363,2.0,2.283516483516483,437.92107795957656,-0.08577588718606226,-0.024707184895985928,0.1339082804032397,1419.047619047619,-1.0,73.89611365857326,2.2837053445128275,
2023-08-10 17:20:03.137000,7.975903614457832,1.7228915662650603,-5.614457831325302,1.8663396689147762,8.6591048436542,-5.042305334150828,2.0,2.282051282051282,438.2022471910113,-0.19019870636909308,-0.022376318396363993,-0.09603169978439496,1410.989010989011,-1.0,73.89611365857326,2.2836952990461667,
2023-08-10 17:20:03.145000,7.975903614457832,1.7228915662650603,-5.614457831325302,1.8393623543838136,8.634580012262415,-5.071735131820969,2.0,2.283516483516483,437.92107795957656,-0.2973020220266883,0.09964454285880783,-0.2311054134374452,1400.7326007326005,-1.0,73.89611365857326,2.2836855692042524,
2023-08-10 17:20:03.153000,8.0,1.7228915662650603,-5.590361445783133,1.917841814837523,8.710606989576947,-5.034947884733292,2.0,2.282051282051282,438.2022471910113,-0.07983217761202745,-0.0363615173940904,-0.4134957170328071,1389.7435897435896,-1.0,73.89611365857326,2.2836761508615324,
2023-08-10 17:20:03.160000,7.987951807228916,1.7228915662650603,-5.590361445783133,1.912936848559166,8.683629675045983,-4.9662783568362965,2.0,2.282051282051282,438.2022471910113,-0.07773439776236893,-0.0363615173940904,0.002097779849658962,1376.5567765567764,-1.0,73.89611365857326,2.283667039119801,
2023-08-10 17:20:03.168000,8.0,1.710843373493976,-5.602409638554217,1.8442673206621703,8.632127529123236,-5.044757817290006,2.0,2.282051282051282,438.2022471910113,0.060952158965095496,-0.15873200862420647,0.04580152671755725,1362.6373626373625,-1.0,73.89611365857326,2.283658227797616,
2023-08-10 17:20:03.176000,8.0,1.710843373493976,-5.626506024096386,1.858982219497241,8.676272225628448,-5.057020232985898,2.0,2.282051282051282,438.2022471910113,0.18332265019520982,0.08729095041081487,-0.01794767204708353,1348.7179487179487,-1.0,73.89611365857326,2.2836497099048985,
2023-08-10 17:20:03.183000,8.012048192771084,1.7228915662650603,-5.614457831325302,1.8320049049662783,8.683629675045983,-5.017780502759043,2.0,2.282051282051282,438.2022471910113,0.090204533535341,-0.20313501544199022,0.13472408367810731,1337.7289377289376,-1.0,73.89611365857326,2.2836414776618272,
2023-08-10 17:20:03.191000,7.987951807228916,1.7349397590361446,-5.578313253012048,1.9399141630901287,8.637032495401593,-5.030042918454935,2.0,2.282051282051282,438.2022471910113,0.08729095041081487,-0.19858982576772893,0.1329759338033913,1328.2051282051282,-1.0,73.89611365857326,2.283633522519794,
2023-08-10 17:20:03.199000,7.987951807228916,1.7228915662650603,-5.626506024096386,1.8638871857755976,8.654199877375843,-5.017780502759043,2.0,2.283516483516483,437.92107795957656,0.024590641571003356,0.12458481440475544,0.5291066954140203,1319.4139194139193,-1.0,73.89611365857326,2.2836258351844223,
2023-08-10 17:20:03.206000,7.987951807228916,1.7228915662650603,-5.614457831325302,1.8614347026364193,8.632127529123236,-5.071735131820969,2.0,2.282051282051282,438.2022471910113,0.11549443505623284,0.17050288444729353,0.17341646757181964,1311.3553113553112,-1.0,73.89611365857326,2.283618406133209,
2023-08-10 17:20:03.214000,8.012048192771084,1.7228915662650603,-5.614457831325302,1.8957694665849172,8.656652360515022,-5.0226854690374,2.0,2.282051282051282,438.2022471910113,-0.024124468271080012,0.07412155468795606,0.13996853330225492,1303.2967032967033,-1.0,73.89611365857326,2.2836112252219305,
2023-08-10 17:20:03.221000,7.987951807228916,1.7228915662650603,-5.614457831325302,1.8565297363580624,8.644389944819128,-5.025137952176578,2.0,2.282051282051282,438.2022471910113,0.0981294796340535,0.14894236932579713,0.16747275799778572,1296.7032967032967,-1.0,73.89611365857326,2.283604281188848,
2023-08-10 17:20:03.229000,8.012048192771084,1.710843373493976,-5.590361445783133,1.8859595340282034,8.610055180870631,-5.015328019619865,2.0,2.2805860805860805,438.4837777063926,0.035662257444205384,-0.2366994930365371,0.15034088922556976,1287.9120879120878,-1.0,73.89611365857326,2.283597562143658,
2023-08-10 17:20:03.237000,8.012048192771084,1.710843373493976,-5.614457831325302,1.9055793991416308,8.624770079705701,-5.086450030656039,2.0,2.282051282051282,438.2022471910113,0.14113396655206545,-0.2681661907814237,0.28599731950352547,1282.7838827838827,-1.0,73.89611365857326,2.2835910555653993,
2023-08-10 17:20:03.244000,7.987951807228916,1.710843373493976,-5.590361445783133,1.858982219497241,8.6591048436542,-5.076640098099325,2.0,2.282051282051282,438.2022471910113,0.17003671114736846,-0.5257269389895687,0.0689936483887884,1276.923076923077,-1.0,73.89611365857326,2.2835847482320455,
2023-08-10 17:20:03.252000,8.0,1.6987951807228916,-5.602409638554217,1.8712446351931329,8.64193746167995,-5.010423053341508,2.0,2.282051282051282,438.2022471910113,-0.2742264436804376,-0.29508769885204894,0.1139793718314785,1272.5274725274724,-1.0,73.89611365857326,2.2835786263595774,
2023-08-10 17:20:03.260000,8.024096385542169,1.710843373493976,-5.602409638554217,1.8908645003065603,8.649294911097487,-5.049662783568363,2.0,2.282051282051282,438.2022471910113,0.20127032224229335,-0.18588660334479346,0.19101450964396022,1267.3992673992673,-1.0,73.89611365857326,2.2835726756725414,
2023-08-10 17:20:03.267000,8.012048192771084,1.7349397590361446,-5.626506024096386,1.9251992642550582,8.72041692213366,-5.052115266707541,2.0,2.282051282051282,438.2022471910113,0.09125342346017198,-0.09381737660975387,-0.14626187285123224,1264.4688644688645,-1.0,73.89611365857326,2.283566881441083,
2023-08-10 17:20:03.275000,8.0,1.7228915662650603,-5.590361445783133,1.8810545677498467,8.700797057020232,-5.037400367872471,2.0,2.282051282051282,438.2022471910113,0.1185245615057398,-0.15360410232503927,-0.3756191364139619,1263.003663003663,-1.0,73.89611365857326,2.2835612285191504,
2023-08-10 17:20:03.283000,8.012048192771084,1.7228915662650603,-5.602409638554217,1.8761496014714898,8.605150214592275,-4.998160637645616,2.0,2.282051282051282,438.2022471910113,-0.08064798088689504,0.20033797564244493,0.14334828972670569,1263.7362637362637,-1.0,73.89611365857326,2.2835557013837717,
2023-08-10 17:20:03.290000,8.024096385542169,1.710843373493976,-5.614457831325302,1.836909871244635,8.67381974248927,-5.088902513795217,2.0,2.282051282051282,438.2022471910113,-0.15640114212458453,0.4127964570829212,-0.08624206048598561,1265.9340659340658,-1.0,73.89611365857326,2.283550284175306,
2023-08-10 17:20:03.298000,8.024096385542169,1.7228915662650603,-5.626506024096386,1.9006744328632739,8.646842427958306,-5.027590435315757,2.0,2.282051282051282,438.2022471910113,0.07365538138803097,0.3964803915855711,-0.009206922673503872,1268.131868131868,-1.0,73.89611365857326,2.283544960738564,
2023-08-10 17:20:03.306000,8.012048192771084,1.7228915662650603,-5.626506024096386,1.9963212752912323,8.651747394236665,-4.983445738810546,2.0,2.282051282051282,438.2022471910113,-0.04720004661733076,0.37829963288852586,-0.08647514713594771,1266.6666666666665,-1.0,73.89611365857326,2.283539714664698,
2023-08-10 17:20:03.313000,7.987951807228916,1.710843373493976,-5.63855421686747,1.9202942979767013,8.617412630288166,-5.034947884733292,2.0,2.282051282051282,438.2022471910113,-0.15395373229998177,-0.037060777343977155,0.021094341821572188,1265.9340659340658,-1.0,73.89611365857326,2.2835345293337475,
2023-08-10 17:20:03.321000,8.012048192771084,1.7228915662650603,-5.626506024096386,1.8712446351931329,8.62722256284488,-5.010423053341508,2.0,2.282051282051282,438.2022471910113,-0.10687022900763359,0.146028786201271,-0.009906182623390191,1265.2014652014652,-1.0,73.89611365857326,2.283529387957751,
2023-08-10 17:20:03.329000,8.0,1.7228915662650603,-5.602409638554217,1.836909871244635,8.698344573881053,-5.057020232985898,2.0,2.282051282051282,438.2022471910113,-0.07505390128780448,-0.08262921741157274,0.2964862187518212,1265.2014652014652,-1.0,73.89611365857326,2.283524273624281,
2023-08-10 17:20:03.336000,7.975903614457832,1.710843373493976,-5.626506024096386,1.8761496014714898,8.661557326793378,-5.086450030656039,2.0,2.282051282051282,438.2022471910113,-0.05862129246547356,0.14894236932579713,0.28110249985432084,1265.2014652014652,-1.0,73.89611365857326,2.283519169340334,
2023-08-10 17:20:03.344000,8.0,1.7228915662650603,-5.602409638554217,1.8663396689147762,8.637032495401593,-5.000613120784794,2.0,2.282051282051282,438.2022471910113,0.09405046325971728,0.25429753510867636,0.09661441640930002,1263.003663003663,-1.0,73.89611365857326,2.2835140580764275,
2023-08-10 17:20:03.352000,8.0,1.7228915662650603,-5.614457831325302,1.9006744328632739,8.639484978540771,-5.0324954015941135,2.0,2.282051282051282,438.2022471910113,0.06130178894003801,0.25115086533418857,0.21921799428937688,1263.003663003663,-1.0,73.89611365857326,2.283508922810819,
2023-08-10 17:20:03.359000,8.0,1.7228915662650603,-5.614457831325302,1.8565297363580624,8.686082158185162,-5.093807480073575,2.0,2.282051282051282,438.2022471910113,-0.36734456034030644,0.12481790105471711,0.018180758697045635,1262.2710622710622,-1.0,73.89611365857326,2.283503746573705,
2023-08-10 17:20:03.367000,8.0,1.7228915662650603,-5.578313253012048,1.8467198038013488,8.649294911097487,-5.005518087063151,2.0,2.282051282051282,438.2022471910113,-0.10570479575782349,-0.015849892197425,0.1392692733523686,1262.2710622710622,-1.0,73.89611365857326,2.2834985124913345,
2023-08-10 17:20:03.375000,8.0,1.7228915662650603,-5.63855421686747,1.8859595340282034,8.6591048436542,-5.027590435315757,2.0,2.282051282051282,438.2022471910113,-0.16560806479808798,0.028902744595302985,-0.12202086125517139,1260.8058608058607,-1.0,73.89611365857326,2.283493203829863,
2023-08-10 17:20:03.382000,8.012048192771084,1.7228915662650603,-5.590361445783133,1.8712446351931329,8.678724708767627,-5.106069895769466,2.0,2.2805860805860805,438.4837777063926,-0.11631023833110044,-0.1874016665695478,0.031233611094924486,1257.142857142857,-1.0,73.89611365857326,2.283487804038899,
2023-08-10 17:20:03.390000,7.987951807228916,1.6987951807228916,-5.614457831325302,1.9006744328632739,8.629675045984058,-5.064377682403433,2.0,2.282051282051282,438.2022471910113,-0.15989744187401658,-0.06852747508886375,-0.07761785443738722,1254.212454212454,-1.0,73.89611365857326,2.2834822967597908,
2023-08-10 17:20:03.398000,8.0,1.7349397590361446,-5.626506024096386,1.9006744328632739,8.732679337829552,-4.9957081545064375,2.0,2.282051282051282,438.2022471910113,0.10057688945865627,0.5111590233669363,0.04335411689295491,1255.6776556776556,-1.0,73.89611365857326,2.2834766657634993,
2023-08-10 17:20:03.405000,8.0,1.7228915662650603,-5.614457831325302,1.8663396689147762,8.695892090741875,-5.047210300429184,2.0,2.282051282051282,438.2022471910113,-0.06689586853912857,0.06281685216479235,0.11817493153079642,1260.8058608058607,-1.0,73.89611365857326,2.2834708950958467,
2023-08-10 17:20:03.413000,8.0,1.710843373493976,-5.602409638554217,1.8786020846106681,8.62722256284488,-5.096259963212753,2.0,2.282051282051282,438.2022471910113,-0.003845929724374546,0.352310471417749,0.19497698269331604,1267.3992673992673,-1.0,73.89611365857326,2.283464969152126,
2023-08-10 17:20:03.421000,8.0,1.710843373493976,-5.614457831325302,1.9006744328632739,8.727774371551195,-5.007970570202329,2.0,2.282051282051282,438.2022471910113,-0.17283375094691372,0.04183905366820187,0.14824310937591037,1271.7948717948716,-1.0,73.89611365857326,2.2834588727160856,
2023-08-10 17:20:03.428000,8.012048192771084,1.7228915662650603,-5.614457831325302,1.8957694665849172,8.637032495401593,-5.010423053341508,2.0,2.282051282051282,438.2022471910113,0.42386807295612144,0.25651185828331746,0.37596876638890525,1274.7252747252746,-1.0,73.89611365857326,2.2834525909979804,
2023-08-10 17:20:03.436000,8.0,1.7228915662650603,-5.590361445783133,1.9055793991416308,8.695892090741875,-4.968730839975475,2.0,2.282051282051282,438.2022471910113,-0.32806945982168817,-0.1741157275217064,0.2819183031291884,1275.4578754578754,-1.0,73.89611365857326,2.2834461096715892,
2023-08-10 17:20:03.444000,8.012048192771084,1.7228915662650603,-5.590361445783133,1.8786020846106681,8.651747394236665,-5.017780502759043,2.0,2.282051282051282,438.2022471910113,-0.1741157275217064,-0.09777984965911098,0.006293339548977319,1275.4578754578754,-1.0,73.89611365857326,2.283439414910136,
2023-08-10 17:20:03.451000,7.987951807228916,1.710843373493976,-5.590361445783133,1.8614347026364193,8.683629675045983,-5.005518087063151,2.0,2.282051282051282,438.2022471910113,0.026921508070625294,0.068877105063808,-0.17901054717091064,1276.923076923077,-1.0,73.89611365857326,2.2834324934210164,
2023-08-10 17:20:03.459000,7.951807228915663,1.6987951807228916,-5.578313253012048,1.883507050889025,8.587982832618025,-5.052115266707541,2.0,2.282051282051282,438.2022471910113,0.012586679097954637,-0.390536682011538,-0.039158557193636555,1276.1904761904761,-1.0,73.89611365857326,2.28342533247927,
2023-08-10 17:20:03.467000,7.975903614457832,1.6987951807228916,-5.590361445783133,1.841814837522992,8.639484978540771,-5.0226854690374,2.0,2.282051282051282,438.2022471910113,0.01200396247304872,-0.38808927218693523,-0.03717732066895886,1273.260073260073,-1.0,73.89611365857326,2.2834179199596956,
2023-08-10 17:20:03.474000,8.012048192771084,1.7228915662650603,-5.590361445783133,1.8982219497240955,8.683629675045983,-5.025137952176578,2.0,2.282051282051282,438.2022471910113,0.05792203251558681,-0.18728512324456695,-0.020628168521647974,1268.131868131868,-1.0,73.89611365857326,2.283410244367565,
2023-08-10 17:20:03.482000,8.012048192771084,1.7228915662650603,-5.602409638554217,1.917841814837523,8.6591048436542,-5.025137952176578,2.0,2.282051282051282,438.2022471910113,0.08764058038575911,-0.42864634928034445,-0.003496299749432037,1262.2710622710622,-1.0,73.89611365857326,2.2834022948678356,
2023-08-10 17:20:03.490000,8.0,1.7228915662650603,-5.602409638554217,1.854077253218884,8.664009809932557,-5.059472716125076,2.0,2.282051282051282,438.2022471910113,0.22586096381329673,0.004195559699318791,0.16537497814812674,1260.07326007326,-1.0,73.89611365857326,2.2833940613128214,
2023-08-10 17:20:03.497000,8.024096385542169,1.7228915662650603,-5.614457831325302,1.824647455548743,8.693439607602697,-5.015328019619865,2.0,2.282051282051282,438.2022471910113,-0.0961482431093758,0.32422353009731364,0.041722510343220165,1261.5384615384614,-1.0,73.89611365857326,2.2833855342682345,
2023-08-10 17:20:03.505000,8.036144578313253,1.710843373493976,-5.602409638554217,1.8859595340282034,8.695892090741875,-5.052115266707541,2.0,2.2805860805860805,438.4837777063926,-0.15698385874949047,0.3055765981003433,-0.06608006526426184,1264.4688644688645,-1.0,73.89611365857326,2.2833767050375515,
2023-08-10 17:20:03.513000,8.024096385542169,1.710843373493976,-5.590361445783133,1.8982219497240955,8.637032495401593,-5.012875536480687,2.0,2.282051282051282,438.2022471910113,-0.14031816327719787,0.7322417108560101,0.08717440708583403,1268.131868131868,-1.0,73.89611365857326,2.283367565191965,
2023-08-10 17:20:03.520000,8.012048192771084,1.710843373493976,-5.602409638554217,1.858982219497241,8.717964438994482,-5.017780502759043,2.0,2.282051282051282,438.2022471910113,-0.01678223879727343,0.5281743488141715,0.14859273935085374,1273.260073260073,-1.0,73.89611365857326,2.2833581070117046,
2023-08-10 17:20:03.528000,8.0,1.7228915662650603,-5.590361445783133,1.836909871244635,8.690987124463518,-5.012875536480687,2.0,2.282051282051282,438.2022471910113,-0.09195268341005701,0.4174581900821633,0.3443855253190374,1277.6556776556777,-1.0,73.89611365857326,2.2833483240295163,
2023-08-10 17:20:03.536000,8.0,1.710843373493976,-5.590361445783133,1.930104230533415,8.695892090741875,-5.017780502759043,2.0,2.2805860805860805,438.4837777063926,-0.06048598566517042,0.047316589942311596,0.33937416234485185,1279.120879120879,-1.0,73.89611365857326,2.283338210589279,
2023-08-10 17:20:03.543000,7.987951807228916,1.7228915662650603,-5.578313253012048,1.9251992642550582,8.683629675045983,-5.027590435315757,2.0,2.2805860805860805,438.4837777063926,-0.10582133908280432,-0.06130178894003801,0.24544024241011586,1279.120879120879,-1.0,73.89611365857326,2.2833277618258037,
2023-08-10 17:20:03.551000,8.0,1.7228915662650603,-5.590361445783133,1.8933169834457386,8.661557326793378,-5.064377682403433,2.0,2.282051282051282,438.2022471910113,-0.33086649962123343,-0.12283666453003943,0.06223413553988687,1279.120879120879,-1.0,73.89611365857326,2.283316973538034,
2023-08-10 17:20:03.559000,7.987951807228916,1.710843373493976,-5.626506024096386,1.8442673206621703,8.61250766400981,-5.012875536480687,2.0,2.282051282051282,438.2022471910113,0.2366994930365371,-0.2449740691101921,-0.16758930132276653,1276.1904761904761,-1.0,73.89611365857326,2.2833058421984678,
2023-08-10 17:20:03.566000,7.975903614457832,1.710843373493976,-5.614457831325302,1.8638871857755976,8.678724708767627,-5.079092581238504,2.0,2.282051282051282,438.2022471910113,-0.08799021036070162,-0.07447118466289857,0.04731658994231116,1275.4578754578754,-1.0,73.89611365857326,2.2832943650987705,
2023-08-10 17:20:03.574000,7.987951807228916,1.710843373493976,-5.614457831325302,1.8393623543838136,8.678724708767627,-5.057020232985898,2.0,2.282051282051282,438.2022471910113,-0.11910727813064571,0.12330283782996276,0.07528698793776573,1273.260073260073,-1.0,73.89611365857326,2.2832825403887784,
2023-08-10 17:20:03.582000,7.975903614457832,1.7349397590361446,-5.626506024096386,1.9399141630901287,8.64193746167995,-5.047210300429184,2.0,2.282051282051282,438.2022471910113,-0.009906182623390191,-0.0924188567099821,0.013519025697803066,1271.062271062271,-1.0,73.89611365857326,2.2832703670787677,
2023-08-10 17:20:03.589000,7.987951807228916,1.710843373493976,-5.590361445783133,1.8810545677498467,8.644389944819128,-5.012875536480687,2.0,2.2805860805860805,438.4837777063926,0.08146378416176263,-0.07820057106229227,-0.1379872967775768,1272.5274725274724,-1.0,73.89611365857326,2.283257845039805,
2023-08-10 17:20:03.597000,7.987951807228916,1.7349397590361446,-5.602409638554217,1.8491722869405272,8.622317596566523,-5.074187614960147,2.0,2.282051282051282,438.2022471910113,-0.08775712371073996,-0.44589476137754297,0.030068177845113953,1279.120879120879,834.930419921875,71.86227566797032,2.2832449745095036,
2023-08-10 17:20:03.604000,7.987951807228916,1.7349397590361446,-5.626506024096386,1.9153893316983446,8.666462293071735,-5.054567749846719,2.0,2.282051282051282,438.2022471910113,0.2482372822096607,-0.64331915389546,0.10477244915797462,1291.5750915750914,-1.0,71.86227566797032,2.2832317565090827,
2023-08-10 17:20:03.612000,7.987951807228916,1.7228915662650603,-5.626506024096386,1.8786020846106681,8.61250766400981,-5.103617412630288,2.0,2.2805860805860805,438.4837777063926,0.1554687955247361,-0.34613367519375254,0.210011071615873,1313.5531135531135,-1.0,71.86227566797032,2.283218193362571,
2023-08-10 17:20:03.620000,7.987951807228916,1.6987951807228916,-5.590361445783133,1.8736971183323115,8.683629675045983,-5.06928264868179,2.0,2.282051282051282,438.2022471910113,-0.07761785443738635,0.361633937416235,0.2688654507313096,1346.5201465201465,-1.0,71.86227566797032,2.2832042881964343,
2023-08-10 17:20:03.627000,7.987951807228916,1.7228915662650603,-5.626506024096386,1.8442673206621703,8.644389944819128,-5.015328019619865,2.0,2.2805860805860805,438.4837777063926,0.2588427247829377,0.1792436338208736,0.47899306567216343,1391.9413919413919,-1.0,71.86227566797032,2.2831900452833405,
2023-08-10 17:20:03.635000,7.987951807228916,1.6987951807228916,-5.626506024096386,1.8957694665849172,8.671367259350092,-5.020232985898222,2.0,2.282051282051282,438.2022471910113,-0.09335120330983052,0.08787366703572079,0.5658178427830545,1446.8864468864467,-1.0,71.86227566797032,2.283175469574444,
2023-08-10 17:20:03.643000,8.0,1.7228915662650603,-5.602409638554217,1.8810545677498467,8.637032495401593,-4.990803188228081,2.0,2.2805860805860805,438.4837777063926,0.15255521240021,0.4704854029485463,0.14812656605092953,1512.8205128205127,-1.0,71.86227566797032,2.283160566194332,
2023-08-10 17:20:03.650000,7.987951807228916,1.6987951807228916,-5.602409638554217,1.9251992642550582,8.686082158185162,-4.990803188228081,2.0,2.282051282051282,438.2022471910113,-0.16968708117242592,0.2067478585164031,0.14311520307674358,1590.4761904761904,-1.0,71.86227566797032,2.2831453409859392,
2023-08-10 17:20:03.658000,8.012048192771084,1.6867469879518073,-5.602409638554217,1.8442673206621703,8.644389944819128,-5.081545064377682,2.0,2.282051282051282,438.2022471910113,-0.33622749257036233,-0.20919526834100588,0.18390536682011532,1673.260073260073,-1.0,71.86227566797032,2.2831298004216256,
2023-08-10 17:20:03.666000,8.012048192771084,1.6987951807228916,-5.614457831325302,1.8614347026364193,8.651747394236665,-5.074187614960147,2.0,2.282051282051282,438.2022471910113,0.03309830429462177,-0.19590932929316449,0.33133267292115853,1758.974358974359,-1.0,71.86227566797032,2.2831139516860333,
2023-08-10 17:20:03.673000,8.024096385542169,1.6987951807228916,-5.590361445783133,1.836909871244635,8.683629675045983,-5.054567749846719,2.0,2.282051282051282,438.2022471910113,-0.03100052444496325,-0.4132626303828445,-0.26944816735621463,1842.4908424908424,-1.0,71.86227566797032,2.283097803145685,
2023-08-10 17:20:03.681000,8.024096385542169,1.6867469879518073,-5.614457831325302,1.8491722869405272,8.664009809932557,-5.057020232985898,2.0,2.282051282051282,438.2022471910113,0.07318920808810589,-0.19975525901753902,-0.16420954489831577,1920.8791208791208,-1.0,71.86227566797032,2.2830813642574648,
2023-08-10 17:20:03.689000,8.012048192771084,1.7228915662650603,-5.602409638554217,1.8859595340282034,8.629675045984058,-5.059472716125076,2.0,2.279120879120879,438.76567020250724,-0.17061942777227437,-0.2760911368801344,-0.32061068702290074,1988.278388278388,-1.0,71.86227566797032,2.283064644596995,
2023-08-10 17:20:03.696000,7.987951807228916,1.7349397590361446,-5.602409638554217,1.841814837522992,8.600245248313918,-5.088902513795217,2.0,2.2805860805860805,438.4837777063926,-0.0791329176621407,-0.32259192354757843,0.04428646349280334,2046.8864468864467,-1.0,71.86227566797032,2.2830476538335893,
2023-08-10 17:20:03.704000,7.987951807228916,1.6987951807228916,-5.614457831325302,1.8687921520539545,8.656652360515022,-5.08399754751686,2.0,2.2805860805860805,438.4837777063926,0.1827399335703039,-0.04789930656721578,-0.11024998543208435,2091.5750915750914,-1.0,71.86227566797032,2.2830304019502994,
2023-08-10 17:20:03.712000,8.024096385542169,1.710843373493976,-5.602409638554217,1.8614347026364193,8.68853464132434,-5.064377682403433,2.0,2.2805860805860805,438.4837777063926,0.01538371889749992,0.1018588660334472,-0.019113105296894063,2120.14652014652,-1.0,71.86227566797032,2.283012899281895,
2023-08-10 17:20:03.719000,7.975903614457832,1.710843373493976,-5.602409638554217,1.8491722869405272,8.607602697731453,-5.030042918454935,2.0,2.282051282051282,438.2022471910113,-0.05908746576539864,0.2677000174814986,0.0428879435930307,2128.205128205128,-1.0,71.86227566797032,2.2829951565158986,
2023-08-10 17:20:03.727000,8.0,1.710843373493976,-5.602409638554217,1.8663396689147762,8.61250766400981,-5.08399754751686,2.0,2.282051282051282,438.2022471910113,0.0643319153895467,-0.10232503933337228,-0.07843365771225438,2116.4835164835163,-1.0,71.86227566797032,2.2829771851497287,
2023-08-10 17:20:03.735000,7.987951807228916,1.7228915662650603,-5.602409638554217,1.8859595340282034,8.664009809932557,-5.103617412630288,2.0,2.282051282051282,438.2022471910113,0.21595478118990652,-0.5423926344618613,0.04405337684284123,2088.6446886446884,-1.0,71.86227566797032,2.2829589975257965,
2023-08-10 17:20:03.742000,8.0,1.7349397590361446,-5.614457831325302,1.9104843654199877,8.649294911097487,-5.074187614960147,2.0,2.282051282051282,438.2022471910113,0.21315774139036126,-0.5377309014626191,0.04498572344268966,2047.6190476190475,-1.0,71.86227566797032,2.282940606340678,
2023-08-10 17:20:03.750000,8.0,1.7228915662650603,-5.614457831325302,1.8982219497240955,8.656652360515022,-5.066830165542612,2.0,2.282051282051282,438.2022471910113,-0.2785385467047372,-0.638074704271312,0.09253540003496293,1995.6043956043954,-1.0,71.86227566797032,2.282922024611571,
2023-08-10 17:20:03.758000,7.987951807228916,1.7228915662650603,-5.626506024096386,1.8810545677498467,8.661557326793378,-5.064377682403433,2.0,2.282051282051282,438.2022471910113,-0.3992774313851181,-0.3108210477244914,0.2590758114329002,1935.5311355311353,-1.0,71.86227566797032,2.2829032651844074,
2023-08-10 17:20:03.765000,8.0,1.710843373493976,-5.650602409638554,1.858982219497241,8.671367259350092,-5.093807480073575,2.0,2.2805860805860805,438.4837777063926,-0.18297302022026732,-0.06281685216479235,0.0750539012878036,1871.0622710622708,-1.0,71.86227566797032,2.282884341224695,
2023-08-10 17:20:03.773000,8.012048192771084,1.710843373493976,-5.614457831325302,1.8516247700797055,8.6591048436542,-5.093807480073575,2.0,2.2805860805860805,438.4837777063926,0.10896800885729212,0.25849309480799515,0.2575607482081463,1804.3956043956043,-1.0,71.86227566797032,2.2828652661115525,
2023-08-10 17:20:03.781000,8.024096385542169,1.710843373493976,-5.626506024096386,1.8810545677498467,8.644389944819128,-5.015328019619865,2.0,2.2805860805860805,438.4837777063926,0.09311811665986884,0.289260532602995,0.45148884097663305,1735.5311355311353,-1.0,71.86227566797032,2.2828460528391363,
2023-08-10 17:20:03.788000,7.987951807228916,1.6987951807228916,-5.578313253012048,1.836909871244635,8.68853464132434,-5.057020232985898,2.0,2.2805860805860805,438.4837777063926,-0.07517044461278531,0.29030942252782427,0.06689586853912943,1665.9340659340658,-1.0,71.86227566797032,2.282826714435396,
2023-08-10 17:20:03.796000,8.0,1.6987951807228916,-5.614457831325302,1.8565297363580624,8.740036787247087,-5.012875536480687,2.0,2.2805860805860805,438.4837777063926,-0.06071907231513382,0.25895926810791847,0.06596352193928101,1597.069597069597,-1.0,71.86227566797032,2.2828072639227193,
2023-08-10 17:20:03.804000,8.012048192771084,1.7349397590361446,-5.602409638554217,1.9374616799509503,8.693439607602697,-5.039852851011649,2.0,2.282051282051282,438.2022471910113,0.04626770001748233,0.04859856651710253,0.17085251442223648,1531.8681318681317,-1.0,71.86227566797032,2.2827877142784496,
2023-08-10 17:20:03.811000,8.0,1.710843373493976,-5.614457831325302,1.8761496014714898,8.637032495401593,-5.057020232985898,2.0,2.2805860805860805,438.4837777063926,-0.2591923547578819,-0.010022725948371029,0.12202086125517139,1473.260073260073,-1.0,71.86227566797032,2.2827680788881612,
2023-08-10 17:20:03.819000,7.975903614457832,1.7228915662650603,-5.590361445783133,1.854077253218884,8.70324954015941,-5.027590435315757,2.0,2.2805860805860805,438.4837777063926,-0.04288794359303113,-0.17621350737136493,-0.14078433657712253,1421.9780219780218,-1.0,71.86227566797032,2.282748371086027,
2023-08-10 17:20:03.827000,8.0,1.7228915662650603,-5.63855421686747,1.9227467811158798,8.629675045984058,-5.064377682403433,2.0,2.2805860805860805,438.4837777063926,-0.1185245615057398,-0.053143756191363835,0.08799021036070162,1376.5567765567764,-1.0,71.86227566797032,2.2827286035915866,
2023-08-10 17:20:03.834000,7.987951807228916,1.6867469879518073,-5.626506024096386,1.9006744328632739,8.646842427958306,-5.066830165542612,2.0,2.2805860805860805,438.4837777063926,-0.23774838296136636,-0.3290018064215366,-0.0984791096089973,1339.194139194139,-1.0,71.86227566797032,2.2827087884722177,
2023-08-10 17:20:03.842000,8.0,1.6987951807228916,-5.614457831325302,1.8810545677498467,8.68853464132434,-5.10116492949111,2.0,2.279120879120879,438.76567020250724,-0.144280636326555,-0.2518501252840736,-0.038342753918769394,1306.9597069597069,-1.0,71.86227566797032,2.2826889371735923,
2023-08-10 17:20:03.850000,8.012048192771084,1.7228915662650603,-5.614457831325302,1.854077253218884,8.646842427958306,-5.06928264868179,2.0,2.279120879120879,438.76567020250724,-0.09649787308431831,-0.25336518850882794,-0.05512499271604239,1282.051282051282,-1.0,71.86227566797032,2.282669061395221,
2023-08-10 17:20:03.857000,7.975903614457832,1.7349397590361446,-5.63855421686747,1.8859595340282034,8.629675045984058,-5.052115266707541,2.0,2.2805860805860805,438.4837777063926,-0.08053143756191421,-0.2850649729036762,0.06712895518909155,1265.9340659340658,-1.0,71.86227566797032,2.282649172387403,
2023-08-10 17:20:03.865000,7.987951807228916,1.6987951807228916,-5.626506024096386,1.9202942979767013,8.64193746167995,-5.0324954015941135,2.0,2.2805860805860805,438.4837777063926,0.12085542800536173,-0.5584756133092479,0.21781947438960425,1257.8754578754579,-1.0,71.86227566797032,2.2826292809500726,
2023-08-10 17:20:03.873000,8.012048192771084,1.6987951807228916,-5.614457831325302,1.8442673206621703,8.666462293071735,-5.091354996934395,2.0,2.2805860805860805,438.4837777063926,-0.061068702290076333,-0.4166423868072957,0.18600314666977427,1254.212454212454,-1.0,71.86227566797032,2.2826093979598374,
2023-08-10 17:20:03.880000,8.0,1.710843373493976,-5.626506024096386,1.8638871857755976,8.686082158185162,-5.047210300429184,2.0,2.2805860805860805,438.4837777063926,0.4446127848027503,0.0011654332498101003,0.5357496649379405,1254.212454212454,-1.0,71.86227566797032,2.282589533880761,
2023-08-10 17:20:03.888000,8.0,1.710843373493976,-5.602409638554217,1.8810545677498467,8.67381974248927,-5.044757817290006,2.0,2.2805860805860805,438.4837777063926,0.028203484645416232,0.05046325971679939,0.11992308140551243,1257.8754578754579,-1.0,71.86227566797032,2.282569698734692,
2023-08-10 17:20:03.896000,7.987951807228916,1.7228915662650603,-5.602409638554217,1.8491722869405272,8.666462293071735,-5.091354996934395,2.0,2.2805860805860805,438.4837777063926,0.1496416292756839,0.43435697220441755,0.09113688013519029,1268.131868131868,-1.0,71.86227566797032,2.282549902073406,
2023-08-10 17:20:03.903000,8.0,1.7349397590361446,-5.602409638554217,1.8516247700797055,8.695892090741875,-5.061925199264254,2.0,2.279120879120879,438.76567020250724,-0.033447934269564286,-0.07062525493852402,0.09218577006001999,1279.120879120879,-1.0,71.86227566797032,2.282530152952692,
2023-08-10 17:20:03.911000,7.975903614457832,1.710843373493976,-5.626506024096386,1.8516247700797055,8.646842427958306,-5.049662783568363,2.0,2.2805860805860805,438.4837777063926,-0.03228250101975418,-0.05244449624147708,0.23203776003729365,1293.7728937728937,-1.0,71.86227566797032,2.282510459415835,
2023-08-10 17:20:03.919000,8.0,1.710843373493976,-5.626506024096386,1.908031882280809,8.676272225628448,-5.0324954015941135,2.0,2.2805860805860805,438.4837777063926,-0.13996853330225537,0.20709748849134735,-0.012819765747916744,1309.89010989011,-1.0,71.86227566797032,2.2824908288924286,
2023-08-10 17:20:03.926000,8.024096385542169,1.7228915662650603,-5.614457831325302,1.9055793991416308,8.639484978540771,-5.057020232985898,2.0,2.279120879120879,438.76567020250724,-0.15523570887477445,-0.1307616106287519,0.2938057222772567,1328.937728937729,-1.0,71.86227566797032,2.282471268703482,
2023-08-10 17:20:03.934000,7.987951807228916,1.6987951807228916,-5.614457831325302,1.8810545677498467,8.622317596566523,-5.027590435315757,2.0,2.279120879120879,438.76567020250724,0.014334828972670657,-0.054891906066079854,-0.0578054891906064,1349.4505494505493,-1.0,71.86227566797032,2.282451785093266,
2023-08-10 17:20:03.942000,8.0,1.7228915662650603,-5.626506024096386,1.824647455548743,8.690987124463518,-5.059472716125076,2.0,2.2805860805860805,438.4837777063926,-0.3676941903152489,-0.08227958743663023,0.3102383310995863,1371.4285714285713,-1.0,71.86227566797032,2.282432383141973,
2023-08-10 17:20:03.949000,8.0,1.6867469879518073,-5.626506024096386,1.7976701410177804,8.637032495401593,-5.066830165542612,2.0,2.279120879120879,438.76567020250724,-0.3185129071732422,0.3012644950760437,-0.36419789056581775,1391.9413919413919,-1.0,71.86227566797032,2.2824130676981365,
2023-08-10 17:20:03.957000,7.987951807228916,1.710843373493976,-5.602409638554217,1.8516247700797055,8.72041692213366,-5.025137952176578,2.0,2.279120879120879,438.76567020250724,0.07948254763708494,0.2544140784336572,0.2037177320668957,1409.5238095238094,-1.0,71.86227566797032,2.2823938429420236,
2023-08-10 17:20:03.965000,8.012048192771084,1.710843373493976,-5.602409638554217,1.8270999386879214,8.686082158185162,-5.034947884733292,2.0,2.279120879120879,438.76567020250724,-0.2574442048831659,-0.12959617737894008,0.21455626129013475,1425.6410256410256,-1.0,71.86227566797032,2.28237471184714,
2023-08-10 17:20:03.972000,8.024096385542169,1.7228915662650603,-5.626506024096386,1.8736971183323115,8.637032495401593,-5.0226854690374,2.0,2.279120879120879,438.76567020250724,-0.11817493153079728,-0.19008216304411224,-0.12551716100460344,1442.4908424908424,-1.0,71.86227566797032,2.2823556766268767,
2023-08-10 17:20:03.980000,8.024096385542169,1.710843373493976,-5.602409638554217,1.8982219497240955,8.708154506437769,-5.093807480073575,2.0,2.279120879120879,438.76567020250724,0.005943709574034809,-0.23320319328710504,0.17936017714585403,1454.9450549450548,-1.0,71.86227566797032,2.282336738725525,
2023-08-10 17:20:03.987000,7.987951807228916,1.6987951807228916,-5.626506024096386,1.8982219497240955,8.632127529123236,-5.039852851011649,2.0,2.2805860805860805,438.4837777063926,-0.12971272070392093,0.04486918011770882,-0.037760037293863916,1465.201465201465,-1.0,71.86227566797032,2.28231789881157,
2023-08-10 17:20:03.995000,8.012048192771084,1.710843373493976,-5.63855421686747,1.8442673206621703,8.578172900061311,-5.059472716125076,2.0,2.279120879120879,438.76567020250724,-0.1881009265194328,0.06071907231513382,0.008391119398636281,1470.3296703296703,-1.0,71.86227566797032,2.282299157265999,
2023-08-10 17:20:04.003000,7.975903614457832,1.710843373493976,-5.63855421686747,1.8982219497240955,8.656652360515022,-5.034947884733292,2.0,2.279120879120879,438.76567020250724,-0.01619952217236751,-0.381213216013052,0.03787658061884518,1471.7948717948716,-1.0,71.86227566797032,2.2822805142177276,
2023-08-10 17:20:04.010000,7.975903614457832,1.710843373493976,-5.602409638554217,1.942366646229307,8.646842427958306,-5.086450030656039,2.0,2.279120879120879,438.76567020250724,0.03193287104481168,0.11106578870695237,0.31152030767437816,1470.3296703296703,-1.0,71.86227566797032,2.282261968952284,
2023-08-10 17:20:04.018000,7.975903614457832,1.710843373493976,-5.626506024096386,1.8908645003065603,8.651747394236665,-5.096259963212753,2.0,2.2805860805860805,438.4837777063926,0.03274867431967753,0.11106578870695237,0.3086067245498516,1463.7362637362637,-1.0,71.86227566797032,2.2822435194269706,
2023-08-10 17:20:04.026000,7.975903614457832,1.710843373493976,-5.626506024096386,1.8982219497240955,8.590435315757203,-5.071735131820969,2.0,2.2805860805860805,438.4837777063926,0.21490589126507728,-0.1307616106287519,5.827166249054841E-4,1454.9450549450548,-1.0,71.86227566797032,2.2822251628403856,
2023-08-10 17:20:04.033000,7.987951807228916,1.6867469879518073,-5.63855421686747,1.8761496014714898,8.698344573881053,-5.098712446351931,2.0,2.279120879120879,438.76567020250724,-0.06223413553988644,-0.12668259425441397,0.1254006176796226,1442.4908424908424,-1.0,71.86227566797032,2.2822068962044093,
2023-08-10 17:20:04.041000,8.0,1.6867469879518073,-5.63855421686747,1.9350091968117717,8.710606989576947,-5.081545064377682,2.0,2.279120879120879,438.76567020250724,0.09055416351028524,-0.3073247479750594,0.18437154012003953,1427.8388278388277,-1.0,71.86227566797032,2.282188715408849,
2023-08-10 17:20:04.049000,7.987951807228916,1.7228915662650603,-5.602409638554217,1.8982219497240955,8.690987124463518,-5.047210300429184,2.0,2.279120879120879,438.76567020250724,0.2556960550084499,0.001398519899773509,-0.18542043004486924,1410.989010989011,-1.0,71.86227566797032,2.2821706151674963,
2023-08-10 17:20:04.056000,8.0,1.7228915662650603,-5.614457831325302,1.8442673206621703,8.619865113427345,-5.025137952176578,2.0,2.279120879120879,438.76567020250724,-0.17516461744653566,0.4443796981527886,0.22784220033797573,1394.8717948717947,-1.0,71.86227566797032,2.282152589491759,
2023-08-10 17:20:04.064000,7.987951807228916,1.7228915662650603,-5.63855421686747,1.8908645003065603,8.644389944819128,-5.025137952176578,2.0,2.279120879120879,438.76567020250724,0.14649495950119434,0.43913524852864055,0.14801002272594826,1378.7545787545787,-1.0,71.86227566797032,2.282134631708818,
2023-08-10 17:20:04.072000,7.963855421686747,1.7228915662650603,-5.626506024096386,1.9374616799509503,8.671367259350092,-5.098712446351931,2.0,2.2805860805860805,438.4837777063926,-0.11456208845638441,-0.024357554921041684,-0.06584697861429974,1365.5677655677655,-1.0,71.86227566797032,2.282116734482164,
2023-08-10 17:20:04.079000,7.987951807228916,1.7228915662650603,-5.614457831325302,1.8933169834457386,8.634580012262415,-5.0324954015941135,2.0,2.279120879120879,438.76567020250724,-0.17283375094691372,0.415943126857409,0.23809801293630886,1354.5787545787546,-1.0,71.86227566797032,2.2820988903271333,
2023-08-10 17:20:04.087000,7.987951807228916,1.7349397590361446,-5.602409638554217,1.9006744328632739,8.592887798896383,-5.027590435315757,2.0,2.279120879120879,438.76567020250724,0.04347066021793532,0.15208903910028493,-0.0090903793485226,1347.985347985348,-1.0,71.86227566797032,2.2820810912155713,
2023-08-10 17:20:04.095000,8.0,1.710843373493976,-5.614457831325302,1.9104843654199877,8.695892090741875,-5.047210300429184,2.0,2.279120879120879,438.76567020250724,-0.01666569547229259,0.21105996154070272,0.11351319853155428,1339.9267399267399,-1.0,71.86227566797032,2.2820633280787175,
2023-08-10 17:20:04.102000,8.0,1.710843373493976,-5.614457831325302,1.8614347026364193,8.678724708767627,-5.074187614960147,2.0,2.279120879120879,438.76567020250724,0.2600081580327495,0.011188159198181129,0.5075461802925239,1328.937728937729,-1.0,71.86227566797032,2.282045590837351,
2023-08-10 17:20:04.110000,8.0,1.6987951807228916,-5.650602409638554,1.8687921520539545,8.656652360515022,-5.071735131820969,2.0,2.279120879120879,438.76567020250724,0.38167938931297707,-0.06468154536448921,0.24392517918536197,1317.9487179487178,-1.0,71.86227566797032,2.282027868959115,
2023-08-10 17:20:04.118000,8.0,1.710843373493976,-5.650602409638554,1.8565297363580624,8.61250766400981,-5.012875536480687,2.0,2.279120879120879,438.76567020250724,-0.07936600431210238,0.011188159198181129,0.15057397587553187,1305.4945054945053,-1.0,71.86227566797032,2.2820101519138,
2023-08-10 17:20:04.125000,8.0,1.7349397590361446,-5.602409638554217,1.9031269160024524,8.740036787247087,-5.054567749846719,2.0,2.279120879120879,438.76567020250724,-0.01876347532195112,0.34753219509352606,0.07050871161354232,1293.7728937728937,-1.0,71.86227566797032,2.281992428717379,
2023-08-10 17:20:04.133000,8.012048192771084,1.710843373493976,-5.626506024096386,1.812385039852851,8.654199877375843,-5.037400367872471,2.0,2.279120879120879,438.76567020250724,-0.24847036885962412,0.28203484645416926,0.14649495950119434,1284.2490842490843,-1.0,71.86227566797032,2.2819746879704446,
2023-08-10 17:20:04.141000,7.987951807228916,1.710843373493976,-5.626506024096386,1.7927651747394235,8.6591048436542,-5.064377682403433,2.0,2.279120879120879,438.76567020250724,0.058388205815511886,-0.11724258493094886,0.20628168521647933,1274.7252747252746,-1.0,71.86227566797032,2.281956917898309,
2023-08-10 17:20:04.148000,8.0,1.7228915662650603,-5.63855421686747,1.8687921520539545,8.624770079705701,-5.064377682403433,2.0,2.2776556776556776,439.04792537793503,0.08729095041081487,-0.05547462269098577,0.5081288969174289,1266.6666666666665,-1.0,71.86227566797032,2.28193910639262,
2023-08-10 17:20:04.156000,7.975903614457832,1.6987951807228916,-5.626506024096386,1.8295524218270998,8.678724708767627,-5.047210300429184,2.0,2.279120879120879,438.76567020250724,-0.03752695064390224,0.20523279529165048,-0.12470135772973584,1259.3406593406592,-1.0,71.86227566797032,2.2819212405616884,
2023-08-10 17:20:04.164000,8.012048192771084,1.7228915662650603,-5.602409638554217,1.8859595340282034,8.690987124463518,-5.06928264868179,2.0,2.279120879120879,438.76567020250724,0.17609696404638409,0.17283375094691372,0.1771458539712138,1249.8168498168498,-1.0,71.86227566797032,2.2819033071952157,
2023-08-10 17:20:04.171000,8.0,1.7228915662650603,-5.602409638554217,1.8516247700797055,8.654199877375843,-5.059472716125076,2.0,2.279120879120879,438.76567020250724,0.22015034088922533,0.4154769535574856,0.052327952916496674,1243.956043956044,-1.0,71.86227566797032,2.2818852933341462,
2023-08-10 17:20:04.179000,8.012048192771084,1.7228915662650603,-5.626506024096386,1.858982219497241,8.666462293071735,-5.012875536480687,2.0,2.279120879120879,438.76567020250724,-0.16257793834858103,-0.04696695996736735,0.020395081871685868,1239.5604395604396,-1.0,71.86227566797032,2.281867185858497,
2023-08-10 17:20:04.187000,7.987951807228916,1.7349397590361446,-5.590361445783133,1.8221949724095645,8.656652360515022,-5.027590435315757,2.0,2.279120879120879,438.76567020250724,0.13029543732882684,0.4119806538080536,0.1409008799021038,1237.3626373626373,-1.0,71.86227566797032,2.281848971533892,
2023-08-10 17:20:04.194000,7.987951807228916,1.7228915662650603,-5.614457831325302,1.8197424892703862,8.651747394236665,-5.118332311465358,2.0,2.279120879120879,438.76567020250724,-0.37363789988928375,0.13239321717848537,0.20057106229240704,1235.8974358974358,-1.0,71.86227566797032,2.281830637058799,
2023-08-10 17:20:04.202000,8.0,1.710843373493976,-5.590361445783133,1.8172900061312078,8.629675045984058,-5.039852851011649,2.0,2.279120879120879,438.76567020250724,-0.049297826466989284,0.2671173008565927,0.09183614008507661,1237.3626373626373,-1.0,71.86227566797032,2.2818121691122863,
2023-08-10 17:20:04.210000,8.0,1.6867469879518073,-5.602409638554217,1.8957694665849172,8.686082158185162,-5.071735131820969,2.0,2.279120879120879,438.76567020250724,-0.06374919876464077,0.41850708000699255,0.24648913233494557,1238.8278388278388,-1.0,71.86227566797032,2.2817935544021792,
2023-08-10 17:20:04.217000,7.963855421686747,1.6987951807228916,-5.614457831325302,1.8786020846106681,8.639484978540771,-5.054567749846719,2.0,2.279120879120879,438.76567020250724,-0.016316065497348348,-0.05687314259075754,0.10721985898257697,1240.2930402930401,-1.0,71.86227566797032,2.28177477971343,
2023-08-10 17:20:04.225000,8.012048192771084,1.6987951807228916,-5.63855421686747,1.8786020846106681,8.73513182096873,-5.044757817290006,2.0,2.279120879120879,438.76567020250724,0.014451372297651493,0.3866907522871635,0.47258318279820527,1241.7582417582416,-1.0,71.86227566797032,2.281755831956572,
2023-08-10 17:20:04.233000,8.024096385542169,1.6867469879518073,-5.626506024096386,1.8761496014714898,8.666462293071735,-5.074187614960147,2.0,2.279120879120879,438.76567020250724,0.030650894470019004,0.033564477594545124,0.31629858399860156,1240.2930402930401,-1.0,71.86227566797032,2.2817366982160823,
2023-08-10 17:20:04.240000,8.0,1.6867469879518073,-5.602409638554217,1.9055793991416308,8.715511955855304,-5.037400367872471,2.0,2.279120879120879,438.76567020250724,0.09206922673503957,0.29089213915273016,0.09999417283375121,1238.095238095238,-1.0,71.86227566797032,2.281717365798485,
2023-08-10 17:20:04.248000,8.012048192771084,1.6987951807228916,-5.626506024096386,1.8565297363580624,8.624770079705701,-5.061925199264254,2.0,2.279120879120879,438.76567020250724,0.07750131111240552,0.19486043936833522,0.2527824718839229,1235.8974358974358,-1.0,71.86227566797032,2.2816978222800843,
2023-08-10 17:20:04.256000,8.0,1.6987951807228916,-5.602409638554217,1.854077253218884,8.619865113427345,-4.993255671367259,2.0,2.279120879120879,438.76567020250724,0.09381737660975387,0.09754676300914931,0.021094341821572188,1234.4322344322343,-1.0,71.86227566797032,2.2816780555540954,
2023-08-10 17:20:04.263000,7.987951807228916,1.6987951807228916,-5.602409638554217,1.883507050889025,8.68853464132434,-5.110974862047823,2.0,2.279120879120879,438.76567020250724,0.2593088980828627,0.1553522521997553,0.020511625196666706,1234.4322344322343,-1.0,71.86227566797032,2.281658053877097,
2023-08-10 17:20:04.271000,8.024096385542169,1.6867469879518073,-5.602409638554217,1.841814837522992,8.649294911097487,-5.034947884733292,2.0,2.279120879120879,438.76567020250724,0.19812365246780558,0.27457607365538184,0.2037177320668957,1237.3626373626373,-1.0,71.86227566797032,2.2816378059145834,
2023-08-10 17:20:04.279000,8.024096385542169,1.710843373493976,-5.602409638554217,1.8295524218270998,8.683629675045983,-5.076640098099325,2.0,2.279120879120879,438.76567020250724,0.16712312802284232,0.2561622283083732,0.04708350329234905,1243.2234432234432,-1.0,71.86227566797032,2.281617300785508,
2023-08-10 17:20:04.286000,8.012048192771084,1.6987951807228916,-5.614457831325302,1.812385039852851,8.654199877375843,-5.047210300429184,2.0,2.279120879120879,438.76567020250724,-0.061884505564943924,0.4206048598566511,-0.15593496882466032,1252.014652014652,-1.0,71.86227566797032,2.2815965281056636,
2023-08-10 17:20:04.294000,8.0,1.6867469879518073,-5.63855421686747,1.812385039852851,8.64193746167995,-5.086450030656039,2.0,2.279120879120879,438.76567020250724,-0.06165141891498225,0.41850708000699255,-0.1550026222248119,1263.003663003663,-1.0,71.86227566797032,2.2815754780297253,
2023-08-10 17:20:04.302000,8.012048192771084,1.6867469879518073,-5.626506024096386,1.8442673206621703,8.676272225628448,-5.017780502759043,2.0,2.2776556776556776,439.04792537793503,0.02960200454518974,-0.024707184895985928,-0.3084901812248703,1271.7948717948716,-1.0,71.86227566797032,2.281554140833991,
2023-08-10 17:20:04.309000,7.987951807228916,1.6987951807228916,-5.63855421686747,1.8982219497240955,8.622317596566523,-5.06928264868179,2.0,2.2776556776556776,439.04792537793503,-0.2597750713827861,0.3750364197890573,-0.17015325447235016,1276.1904761904761,-1.0,71.86227566797032,2.2815325074457133,
2023-08-10 17:20:04.317000,8.0,1.6987951807228916,-5.590361445783133,1.836909871244635,8.654199877375843,-5.042305334150828,2.0,2.279120879120879,438.76567020250724,-0.10512207913291756,0.374686789814113,-0.07924946098712198,1279.8534798534797,-1.0,71.86227566797032,2.281510569304199,
2023-08-10 17:20:04.325000,8.012048192771084,1.6987951807228916,-5.602409638554217,1.8320049049662783,8.676272225628448,-5.0324954015941135,2.0,2.279120879120879,438.76567020250724,-0.15092360585047482,0.0658469786142993,-0.0340306508944702,1283.5164835164835,-1.0,71.86227566797032,2.281488318428077,
2023-08-10 17:20:04.332000,7.987951807228916,1.7349397590361446,-5.63855421686747,1.8614347026364193,8.654199877375843,-5.030042918454935,2.0,2.279120879120879,438.76567020250724,0.06351611211467911,0.020278538546705464,0.1174756715809101,1284.9816849816848,-1.0,71.86227566797032,2.2814657480074687,
2023-08-10 17:20:04.340000,7.987951807228916,1.710843373493976,-5.650602409638554,1.908031882280809,8.654199877375843,-5.037400367872471,2.0,2.279120879120879,438.76567020250724,0.13915273002738776,-0.08775712371073996,0.04113979371831468,1284.9816849816848,-1.0,71.86227566797032,2.2814428515184404,
2023-08-10 17:20:04.347000,7.987951807228916,1.710843373493976,-5.650602409638554,1.8467198038013488,8.72041692213366,-5.025137952176578,2.0,2.279120879120879,438.76567020250724,0.07691859448750134,0.09684750305926255,0.14847619602587248,1284.2490842490843,-1.0,71.86227566797032,2.281419623276207,
2023-08-10 17:20:04.355000,8.0,1.710843373493976,-5.614457831325302,1.8687921520539545,8.632127529123236,-5.052115266707541,2.0,2.279120879120879,438.76567020250724,-0.1363556902278425,0.18926635976924464,0.3299341530213859,1282.051282051282,-1.0,71.86227566797032,2.2813960588821476,
2023-08-10 17:20:04.363000,7.963855421686747,1.710843373493976,-5.614457831325302,1.8957694665849172,8.664009809932557,-5.108522378908645,2.0,2.279120879120879,438.76567020250724,0.18611968999475512,0.1741157275217064,0.1139793718314785,1278.3882783882782,-1.0,71.86227566797032,2.2813721542975034,
2023-08-10 17:20:04.370000,8.0,1.710843373493976,-5.626506024096386,1.841814837522992,8.654199877375843,-5.057020232985898,2.0,2.279120879120879,438.76567020250724,0.09067070683526607,0.234485169861896,0.14241594312685726,1279.120879120879,-1.0,71.86227566797032,2.2813479063904167,
2023-08-10 17:20:04.378000,8.012048192771084,1.710843373493976,-5.602409638554217,1.8859595340282034,8.710606989576947,-5.054567749846719,2.0,2.279120879120879,438.76567020250724,0.12003962473049413,0.4154769535574856,-0.34753219509352606,1279.8534798534797,-1.0,71.86227566797032,2.2813233133765296,
2023-08-10 17:20:04.386000,8.012048192771084,1.6987951807228916,-5.63855421686747,1.9006744328632739,8.654199877375843,-5.066830165542612,2.0,2.279120879120879,438.76567020250724,-0.019229648621874467,0.15267175572519084,-0.057106229240720084,1279.8534798534797,-1.0,71.86227566797032,2.2812983743440056,
2023-08-10 17:20:04.393000,8.012048192771084,1.710843373493976,-5.590361445783133,1.8786020846106681,8.668914776210913,-5.0324954015941135,2.0,2.279120879120879,438.76567020250724,0.056640055940795866,0.04288794359303113,0.2170036711147371,1281.3186813186812,-1.0,71.86227566797032,2.281273089268645,
2023-08-10 17:20:04.401000,8.024096385542169,1.6987951807228916,-5.626506024096386,1.8982219497240955,8.715511955855304,-5.044757817290006,2.0,2.279120879120879,438.76567020250724,-0.05162869296660949,0.11805838820581471,0.1065205990326902,1281.3186813186812,-1.0,71.86227566797032,2.2812474590264804,
2023-08-10 17:20:04.409000,8.012048192771084,1.674698795180723,-5.650602409638554,1.8270999386879214,8.70324954015941,-5.066830165542612,2.0,2.279120879120879,438.76567020250724,0.14824310937591037,0.1818075869704555,-0.29229065905250284,1279.120879120879,-1.0,71.86227566797032,2.281221485403708,
2023-08-10 17:20:04.416000,8.012048192771084,1.6867469879518073,-5.626506024096386,1.836909871244635,8.664009809932557,-5.08399754751686,2.0,2.279120879120879,438.76567020250724,-0.26536915098187663,0.4554513140259889,0.030068177845113953,1276.1904761904761,-1.0,71.86227566797032,2.2811951711040073,
2023-08-10 17:20:04.424000,7.975903614457832,1.6867469879518073,-5.63855421686747,1.8221949724095645,8.622317596566523,-5.106069895769466,2.0,2.279120879120879,438.76567020250724,0.08799021036070162,0.48493677524619777,-0.18378882349513448,1273.9926739926739,-1.0,71.86227566797032,2.2811685197531655,
2023-08-10 17:20:04.432000,8.012048192771084,1.6987951807228916,-5.626506024096386,1.8491722869405272,8.649294911097487,-5.0030656039239725,2.0,2.279120879120879,438.76567020250724,-0.3565060311170678,0.02330866499621242,-0.09102033681020902,1273.260073260073,-1.0,71.86227566797032,2.281141535901037,
2023-08-10 17:20:04.439000,8.0,1.6867469879518073,-5.626506024096386,1.8099325567136726,8.629675045984058,-5.034947884733292,2.0,2.279120879120879,438.76567020250724,-0.029718547870170576,0.1927626595186767,-0.13460754035312647,1271.7948717948716,-1.0,71.86227566797032,2.2811142250207976,
2023-08-10 17:20:04.447000,7.987951807228916,1.710843373493976,-5.63855421686747,1.917841814837523,8.651747394236665,-5.086450030656039,2.0,2.279120879120879,438.76567020250724,-0.19963871569255817,0.2660684109317634,-0.23961307616106275,1270.3296703296703,-1.0,71.86227566797032,2.281086593505523,
2023-08-10 17:20:04.455000,7.987951807228916,1.6867469879518073,-5.626506024096386,1.942366646229307,8.585530349478846,-5.030042918454935,2.0,2.2776556776556776,439.04792537793503,0.15197249577530408,0.2172367577646992,0.05104597634170487,1268.131868131868,-1.0,71.86227566797032,2.28105864866209,
2023-08-10 17:20:04.462000,7.987951807228916,1.6987951807228916,-5.626506024096386,1.8320049049662783,8.651747394236665,-5.061925199264254,2.0,2.279120879120879,438.76567020250724,-0.03193287104481168,0.35324281801759744,-0.21152613484062693,1267.3992673992673,-1.0,71.86227566797032,2.2810303986676406,
2023-08-10 17:20:04.470000,8.0,1.6987951807228916,-5.602409638554217,1.8786020846106681,8.637032495401593,-5.108522378908645,2.0,2.2776556776556776,439.04792537793503,-0.061884505564943924,-0.003845929724374546,-0.13519025697803153,1268.131868131868,-1.0,71.86227566797032,2.281001852911425,
2023-08-10 17:20:04.478000,7.987951807228916,1.7228915662650603,-5.63855421686747,1.8565297363580624,8.654199877375843,-5.088902513795217,2.0,2.279120879120879,438.76567020250724,-0.12213740458015267,0.22189849076394133,-0.3037119049006469,1268.8644688644688,-1.0,71.86227566797032,2.280973021066446,
2023-08-10 17:20:04.485000,7.963855421686747,1.7228915662650603,-5.602409638554217,1.8614347026364193,8.622317596566523,-5.034947884733292,2.0,2.279120879120879,438.76567020250724,0.15430336227492603,-0.02587261814579603,-0.13495717032806942,1270.3296703296703,-1.0,71.86227566797032,2.2809439135637337,
2023-08-10 17:20:04.493000,7.9397590361445785,1.710843373493976,-5.626506024096386,1.8050275904353157,8.629675045984058,-5.076640098099325,2.0,2.2776556776556776,439.04792537793503,-0.38028086941320355,0.03169978439484827,-0.25744420488316544,1273.260073260073,-1.0,71.86227566797032,2.280914542063547,
2023-08-10 17:20:04.501000,7.963855421686747,1.710843373493976,-5.614457831325302,1.8761496014714898,8.656652360515022,-5.061925199264254,2.0,2.279120879120879,438.76567020250724,0.021560515121496402,0.12260357788007775,-0.08764058038575825,1279.120879120879,880.889892578125,68.11293954616318,2.280884918059889,
2023-08-10 17:20:04.508000,7.987951807228916,1.6987951807228916,-5.614457831325302,1.8957694665849172,8.68853464132434,-5.108522378908645,2.0,2.279120879120879,438.76567020250724,-0.07062525493852402,0.0015150632247543454,-0.042188683643144376,1291.5750915750914,-1.0,68.11293954616318,2.2808550537669436,
2023-08-10 17:20:04.516000,8.0,1.6867469879518073,-5.626506024096386,1.8663396689147762,8.671367259350092,-5.049662783568363,2.0,2.279120879120879,438.76567020250724,0.17329992424683882,0.7209370083328481,-0.1353068003030128,1312.087912087912,-1.0,68.11293954616318,2.280824963072601,
2023-08-10 17:20:04.524000,8.0,1.710843373493976,-5.626506024096386,1.8467198038013488,8.664009809932557,-5.0324954015941135,2.0,2.279120879120879,438.76567020250724,0.003263213099470364,0.6442515004953084,-0.19602587261814575,1342.1245421245421,-1.0,68.11293954616318,2.2807946609818583,
2023-08-10 17:20:04.531000,8.012048192771084,1.6987951807228916,-5.602409638554217,1.7903126916002452,8.661557326793378,-5.057020232985898,2.0,2.279120879120879,438.76567020250724,-0.13402482372822055,0.9635802109434183,-0.19474389604335393,1383.8827838827838,-1.0,68.11293954616318,2.280764162637234,
2023-08-10 17:20:04.539000,8.0,1.710843373493976,-5.590361445783133,1.888412017167382,8.671367259350092,-5.086450030656039,2.0,2.279120879120879,438.76567020250724,0.21770293106462255,0.592622807528699,0.021793601771458507,1434.4322344322343,-1.0,68.11293954616318,2.2807334833546196,
2023-08-10 17:20:04.547000,7.963855421686747,1.710843373493976,-5.590361445783133,1.854077253218884,8.649294911097487,-5.027590435315757,2.0,2.279120879120879,438.76567020250724,0.032632130994696695,0.9392226560223765,-0.007575316123769124,1495.2380952380952,-1.0,68.11293954616318,2.280702639078008,
2023-08-10 17:20:04.554000,7.987951807228916,1.710843373493976,-5.626506024096386,1.8859595340282034,8.651747394236665,-5.061925199264254,2.0,2.279120879120879,438.76567020250724,0.15395373229998177,0.7479750597284542,-0.20534933861663088,1566.3003663003662,-1.0,68.11293954616318,2.280671646340143,
2023-08-10 17:20:04.562000,8.0,1.6867469879518073,-5.578313253012048,1.8810545677498467,8.656652360515022,-5.049662783568363,2.0,2.279120879120879,438.76567020250724,0.05885437911543697,0.5729269856068995,0.16187867839869471,1643.2234432234432,-1.0,68.11293954616318,2.280640522221904,
2023-08-10 17:20:04.570000,8.0,1.6987951807228916,-5.614457831325302,1.8957694665849172,8.747394236664622,-5.061925199264254,2.0,2.2776556776556776,439.04792537793503,0.06036944234018958,0.5661674727579971,0.15814929199930056,1723.0769230769229,-1.0,68.11293954616318,2.2806092847684565,
2023-08-10 17:20:04.577000,8.024096385542169,1.710843373493976,-5.63855421686747,1.8467198038013488,8.68853464132434,-5.027590435315757,2.0,2.2776556776556776,439.04792537793503,0.013635569022783902,0.31641512732358196,-0.25616222830837365,1798.5347985347985,-1.0,68.11293954616318,2.2805779519288194,
2023-08-10 17:20:04.585000,8.0,1.6987951807228916,-5.626506024096386,1.8736971183323115,8.649294911097487,-5.061925199264254,2.0,2.279120879120879,438.76567020250724,-0.13985198997727452,0.3601188741914807,-0.4838878853213681,1868.131868131868,-1.0,68.11293954616318,2.2805465410191297,
2023-08-10 17:20:04.593000,8.012048192771084,1.7228915662650603,-5.578313253012048,1.9227467811158798,8.664009809932557,-5.012875536480687,2.0,2.2776556776556776,439.04792537793503,0.04451955014276631,0.24916962880950913,-0.34391935201911317,1928.2051282051282,-1.0,68.11293954616318,2.280515070573491,
2023-08-10 17:20:04.600000,8.024096385542169,1.6987951807228916,-5.614457831325302,1.854077253218884,8.690987124463518,-5.066830165542612,2.0,2.279120879120879,438.76567020250724,0.3350620593205522,0.2612901346075404,-0.31303537089913164,1974.3589743589741,-1.0,68.11293954616318,2.2804835593470774,
2023-08-10 17:20:04.608000,8.012048192771084,1.6987951807228916,-5.590361445783133,1.8933169834457386,8.664009809932557,-5.044757817290006,2.0,2.2776556776556776,439.04792537793503,0.3014975817260071,0.17889400384592938,-0.4490414311520307,2002.197802197802,-1.0,68.11293954616318,2.280452025811039,
2023-08-10 17:20:04.616000,7.987951807228916,1.710843373493976,-5.626506024096386,1.8736971183323115,8.644389944819128,-5.093807480073575,2.0,2.2776556776556776,439.04792537793503,0.026455334770700212,-0.08764058038575911,-0.0032632130994699297,2013.9194139194137,-1.0,68.11293954616318,2.280420489087602,
2023-08-10 17:20:04.623000,7.975903614457832,1.6987951807228916,-5.602409638554217,1.9006744328632739,8.639484978540771,-5.076640098099325,2.0,2.2776556776556776,439.04792537793503,0.10395664588310746,-0.15150632247538073,-0.2776062001048888,2007.3260073260071,-1.0,68.11293954616318,2.2803889683049983,
2023-08-10 17:20:04.631000,8.012048192771084,1.710843373493976,-5.626506024096386,1.8761496014714898,8.6591048436542,-5.130594727161251,2.0,2.2776556776556776,439.04792537793503,0.0417225103432193,-0.3774838296136583,2.3308664996210684E-4,1985.3479853479853,-1.0,68.11293954616318,2.280357482513971,
2023-08-10 17:20:04.639000,8.0,1.7349397590361446,-5.650602409638554,1.8442673206621703,8.617412630288166,-5.047210300429184,2.0,2.279120879120879,438.76567020250724,0.18099178369558963,-0.31303537089913247,-0.10407318920808831,1949.4505494505493,-1.0,68.11293954616318,2.2803260506383434,
2023-08-10 17:20:04.646000,8.024096385542169,1.7228915662650603,-5.626506024096386,1.8221949724095645,8.639484978540771,-5.049662783568363,2.0,2.2776556776556776,439.04792537793503,0.28599731950352464,-0.11234776528174331,-0.3137346308490179,1901.8315018315018,-1.0,68.11293954616318,2.2802946919177023,
2023-08-10 17:20:04.654000,8.0,1.6987951807228916,-5.614457831325302,1.8761496014714898,8.698344573881053,-5.010423053341508,2.0,2.279120879120879,438.76567020250724,0.0867082337859107,-0.0018646931996968547,-0.43330808227958745,1846.8864468864467,-1.0,68.11293954616318,2.2802634254365772,
2023-08-10 17:20:04.662000,8.012048192771084,1.6867469879518073,-5.614457831325302,1.8442673206621703,8.651747394236665,-5.061925199264254,2.0,2.279120879120879,438.76567020250724,-0.17458190082162975,0.3806304993881478,0.10453936250801252,1786.080586080586,-1.0,68.11293954616318,2.2802322700421755,
2023-08-10 17:20:04.669000,8.024096385542169,1.6867469879518073,-5.626506024096386,1.9031269160024524,8.695892090741875,-5.0324954015941135,2.0,2.279120879120879,438.76567020250724,0.09917836955888276,0.5585921566342288,0.13484062700308858,1723.8095238095236,-1.0,68.11293954616318,2.2802012443668045,
2023-08-10 17:20:04.677000,8.012048192771084,1.6987951807228916,-5.590361445783133,1.8320049049662783,8.676272225628448,-5.064377682403433,2.0,2.279120879120879,438.76567020250724,0.06829438843890208,0.6589359594429234,0.2271429403880894,1660.07326007326,-1.0,68.11293954616318,2.28017036685124,
2023-08-10 17:20:04.685000,8.024096385542169,1.710843373493976,-5.614457831325302,1.7952176578786019,8.646842427958306,-5.027590435315757,2.0,2.2776556776556776,439.04792537793503,0.1287803741040725,0.726298001281977,0.19206339956878948,1599.2673992673992,-1.0,68.11293954616318,2.280139655665164,
2023-08-10 17:20:04.692000,8.0,1.6987951807228916,-5.578313253012048,1.8908645003065603,8.68853464132434,-5.030042918454935,2.0,2.2776556776556776,439.04792537793503,0.036944234018996325,0.3672280170153256,0.12749839752928155,1543.5897435897434,-1.0,68.11293954616318,2.280109128206128,
2023-08-10 17:20:04.700000,8.0,1.674698795180723,-5.590361445783133,1.8957694665849172,8.70570202329859,-5.017780502759043,2.0,2.279120879120879,438.76567020250724,0.020278538546705464,0.33086649962123343,0.01643260882232962,1491.5750915750914,-1.0,68.11293954616318,2.280078801409116,
2023-08-10 17:20:04.708000,7.987951807228916,1.6867469879518073,-5.590361445783133,1.9104843654199877,8.676272225628448,-5.049662783568363,2.0,2.279120879120879,438.76567020250724,-0.01083852922323862,0.4012586679097958,-0.19789056581784303,1444.6886446886447,-1.0,68.11293954616318,2.280048692161795,
2023-08-10 17:20:04.715000,8.012048192771084,1.710843373493976,-5.614457831325302,1.854077253218884,8.693439607602697,-5.0030656039239725,2.0,2.2776556776556776,439.04792537793503,0.006060252899015646,0.2746926169803627,0.13787075345259597,1402.9304029304028,-1.0,68.11293954616318,2.2800188173352662,
2023-08-10 17:20:04.723000,8.012048192771084,1.710843373493976,-5.614457831325302,1.9006744328632739,8.683629675045983,-5.015328019619865,2.0,2.2776556776556776,439.04792537793503,0.05209486626653457,0.27236175048074074,0.029019287920284256,1367.032967032967,-1.0,68.11293954616318,2.279989192799027,
2023-08-10 17:20:04.730000,7.975903614457832,1.6867469879518073,-5.614457831325302,1.854077253218884,8.722869405272839,-5.044757817290006,2.0,2.2776556776556776,439.04792537793503,-0.2234135539886957,0.057572402540644295,-0.17015325447235016,1336.263736263736,-1.0,68.11293954616318,2.2799598333164233,
2023-08-10 17:20:04.738000,8.012048192771084,1.6987951807228916,-5.590361445783133,1.9006744328632739,8.70324954015941,-5.061925199264254,2.0,2.2776556776556776,439.04792537793503,0.0079249460987125,0.23856418623623393,-0.09393391993473557,1310.6227106227104,-1.0,68.11293954616318,2.2799307525089993,
2023-08-10 17:20:04.746000,7.987951807228916,1.710843373493976,-5.590361445783133,1.8761496014714898,8.668914776210913,-5.015328019619865,2.0,2.2776556776556776,439.04792537793503,0.43715401200396287,-0.28751238272827895,0.07423809801293602,1287.9120879120878,-1.0,68.11293954616318,2.279901963347771,
2023-08-10 17:20:04.753000,7.975903614457832,1.710843373493976,-5.614457831325302,1.8614347026364193,8.6591048436542,-5.061925199264254,2.0,2.279120879120879,438.76567020250724,0.11502826175630776,0.09113688013518942,0.16479226152322127,1269.5970695970695,-1.0,68.11293954616318,2.2798734785424317,
2023-08-10 17:20:04.761000,7.987951807228916,1.6987951807228916,-5.602409638554217,1.888412017167382,8.742489270386265,-5.015328019619865,2.0,2.2761904761904765,439.3305439330544,0.09696404638424339,-0.4347066021793601,-0.08088106753685671,1256.4102564102564,-1.0,68.11293954616318,2.279845310512128,
2023-08-10 17:20:04.769000,8.012048192771084,1.710843373493976,-5.614457831325302,1.8712446351931329,8.725321888412017,-5.057020232985898,2.0,2.2776556776556776,439.04792537793503,-0.013519025697803066,-0.1602470718489591,-0.29287337567740784,1247.6190476190475,-1.0,68.11293954616318,2.279817470903181,
2023-08-10 17:20:04.776000,8.012048192771084,1.6987951807228916,-5.626506024096386,1.9202942979767013,8.61250766400981,-5.08399754751686,2.0,2.2776556776556776,439.04792537793503,0.39752928151040207,0.2971854787017075,0.06025289901520874,1243.2234432234432,-1.0,68.11293954616318,2.2797899699352207,
2023-08-10 17:20:04.784000,8.0,1.6987951807228916,-5.63855421686747,1.858982219497241,8.683629675045983,-5.098712446351931,2.0,2.2776556776556776,439.04792537793503,-0.10838529223238792,-0.2235300973136765,0.060952158965095066,1243.956043956044,-1.0,68.11293954616318,2.279762816940738,
2023-08-10 17:20:04.792000,8.0,1.674698795180723,-5.626506024096386,1.854077253218884,8.710606989576947,-5.044757817290006,2.0,2.2776556776556776,439.04792537793503,0.19858982576772893,-0.20569896859157383,0.29217411572752156,1249.084249084249,-1.0,68.11293954616318,2.2797360203793935,
2023-08-10 17:20:04.799000,8.012048192771084,1.6867469879518073,-5.626506024096386,1.8344573881054567,8.664009809932557,-5.030042918454935,2.0,2.2776556776556776,439.04792537793503,0.043936833517860395,0.3769011129887541,-0.061418332265019714,1260.07326007326,-1.0,68.11293954616318,2.2797095878201263,
2023-08-10 17:20:04.807000,8.012048192771084,1.674698795180723,-5.614457831325302,1.9006744328632739,8.624770079705701,-5.10116492949111,2.0,2.2776556776556776,439.04792537793503,-0.03309830429462177,0.038808927218693175,0.04568498339257598,1273.260073260073,-1.0,68.11293954616318,2.279683525925923,
2023-08-10 17:20:04.815000,8.036144578313253,1.6867469879518073,-5.602409638554217,1.812385039852851,8.656652360515022,-5.037400367872471,2.0,2.2761904761904765,439.3305439330544,-0.18507080006992585,0.05279412621642132,-0.13728803682769047,1289.3772893772893,-1.0,68.11293954616318,2.2796578404413497,
2023-08-10 17:20:04.822000,8.048192771084338,1.6987951807228916,-5.602409638554217,1.888412017167382,8.654199877375843,-5.034947884733292,2.0,2.2776556776556776,439.04792537793503,-0.20080414894237003,-0.04067362041839003,-0.029135831245265524,1306.9597069597069,-1.0,68.11293954616318,2.279632535690211,
2023-08-10 17:20:04.830000,8.036144578313253,1.6987951807228916,-5.614457831325302,1.8933169834457386,8.649294911097487,-5.042305334150828,2.0,2.2776556776556776,439.04792537793503,-0.4285298059553636,0.7202377483829614,-0.3512615814929202,1328.2051282051282,-1.0,68.11293954616318,2.2796076149892563,
2023-08-10 17:20:04.838000,8.024096385542169,1.6987951807228916,-5.626506024096386,1.8270999386879214,8.686082158185162,-5.020232985898222,2.0,2.2776556776556776,439.04792537793503,0.01666569547229259,0.8044985723442692,-0.3485810850183557,1350.9157509157508,-1.0,68.11293954616318,2.2795830811687905,
2023-08-10 17:20:04.845000,8.012048192771084,1.6987951807228916,-5.614457831325302,1.8810545677498467,8.70570202329859,-5.0030656039239725,2.0,2.2776556776556776,439.04792537793503,0.014801002272594002,0.7943593030709174,-0.34729910844356393,1372.8937728937728,-1.0,68.11293954616318,2.2795589361132826,
2023-08-10 17:20:04.853000,8.0,1.6987951807228916,-5.602409638554217,1.8320049049662783,8.686082158185162,-5.010423053341508,2.0,2.2776556776556776,439.04792537793503,-0.0779674844123306,0.28098595652934,-0.04020744711846625,1393.4065934065934,-1.0,68.11293954616318,2.279535180762832,
2023-08-10 17:20:04.861000,8.012048192771084,1.6987951807228916,-5.578313253012048,1.8442673206621703,8.681177191906805,-5.059472716125076,2.0,2.2776556776556776,439.04792537793503,-0.13915273002738776,0.48901579162053577,-0.40731892080881055,1411.7216117216117,-1.0,68.11293954616318,2.2795118151176634,
2023-08-10 17:20:04.868000,8.0,1.6987951807228916,-5.590361445783133,1.854077253218884,8.668914776210913,-5.0324954015941135,2.0,2.2776556776556776,439.04792537793503,-0.2760911368801344,-0.0071091428238449095,-0.4958918477944177,1428.5714285714284,-1.0,68.11293954616318,2.27948883824565,
2023-08-10 17:20:04.876000,8.012048192771084,1.710843373493976,-5.590361445783133,1.8810545677498467,8.70570202329859,-5.034947884733292,2.0,2.2776556776556776,439.04792537793503,-0.08985490356039848,-0.04358720354291789,-0.2772565701299458,1442.4908424908424,-1.0,68.11293954616318,2.279466248292858,
2023-08-10 17:20:04.884000,7.987951807228916,1.6987951807228916,-5.614457831325302,1.8638871857755976,8.656652360515022,-4.993255671367259,2.0,2.2776556776556776,439.04792537793503,-0.05908746576539864,0.10442281918303081,-0.30476079482547663,1452.7472527472526,-1.0,68.11293954616318,2.27944404249708,
2023-08-10 17:20:04.891000,7.975903614457832,1.6987951807228916,-5.614457831325302,1.8467198038013488,8.70570202329859,-5.034947884733292,2.0,2.2776556776556776,439.04792537793503,-0.3453178719188867,0.23914690286113813,-0.5583590699842667,1457.8754578754579,-1.0,68.11293954616318,2.279422217204361,
2023-08-10 17:20:04.899000,8.024096385542169,1.7228915662650603,-5.614457831325302,1.888412017167382,8.695892090741875,-5.027590435315757,2.0,2.2776556776556776,439.04792537793503,-0.14393100635161074,0.2815686731542459,-0.675718198240196,1460.07326007326,-1.0,68.11293954616318,2.279400767888438,
2023-08-10 17:20:04.907000,8.012048192771084,1.7349397590361446,-5.578313253012048,1.8859595340282034,8.646842427958306,-4.941753525444512,2.0,2.279120879120879,438.76567020250724,-0.21793601771458596,0.09754676300914931,0.15418681894994432,1460.07326007326,-1.0,68.11293954616318,2.2793796891730604,
2023-08-10 17:20:04.914000,7.987951807228916,1.7228915662650603,-5.614457831325302,1.8344573881054567,8.67381974248927,-5.044757817290006,2.0,2.2761904761904765,439.3305439330544,-0.18588660334479346,0.3232911834974652,-0.24357554921041902,1457.142857142857,-1.0,68.11293954616318,2.2793589753497776,
2023-08-10 17:20:04.922000,8.012048192771084,1.710843373493976,-5.614457831325302,1.8687921520539545,8.61250766400981,-5.037400367872471,2.0,2.2761904761904765,439.3305439330544,-0.1846046267700025,0.34893071499329953,-0.3013810384010254,1452.014652014652,-1.0,68.11293954616318,2.2793386199505203,
2023-08-10 17:20:04.930000,8.0,1.7228915662650603,-5.626506024096386,1.930104230533415,8.72041692213366,-5.044757817290006,2.0,2.2776556776556776,439.04792537793503,-0.09253540003496293,0.31524969407377185,-0.20791329176621406,1442.4908424908424,-1.0,68.11293954616318,2.2793186146562774,
2023-08-10 17:20:04.937000,8.024096385542169,1.7228915662650603,-5.614457831325302,1.888412017167382,8.695892090741875,-5.034947884733292,2.0,2.2776556776556776,439.04792537793503,0.1361226035778808,0.47771108909737203,-0.09754676300914844,1430.03663003663,-1.0,68.11293954616318,2.279298950312449,
2023-08-10 17:20:04.945000,8.036144578313253,1.7228915662650603,-5.602409638554217,1.8663396689147762,8.700797057020232,-4.990803188228081,2.0,2.2776556776556776,439.04792537793503,-0.13950236000233027,0.6394732241710854,0.1314608705786378,1413.9194139194137,-1.0,68.11293954616318,2.2792796175229055,
2023-08-10 17:20:04.953000,8.0,1.7228915662650603,-5.590361445783133,1.8467198038013488,8.656652360515022,-4.985898221949724,2.0,2.2776556776556776,439.04792537793503,0.08787366703572079,0.6775828914398919,0.42258609638132966,1394.139194139194,-1.0,68.11293954616318,2.2792606062285694,
2023-08-10 17:20:04.960000,8.0,1.7349397590361446,-5.566265060240964,1.9055793991416308,8.67381974248927,-4.988350705088902,2.0,2.2776556776556776,439.04792537793503,0.05430918944117393,0.7640580385758409,-0.02645533477070108,1375.091575091575,-1.0,68.11293954616318,2.2792419057460607,
2023-08-10 17:20:04.968000,8.0,1.7228915662650603,-5.590361445783133,1.8786020846106681,8.676272225628448,-5.057020232985898,2.0,2.2776556776556776,439.04792537793503,0.23774838296136636,0.7731484179243635,0.09708058970922423,1359.7069597069597,-1.0,68.11293954616318,2.279223504808422,
2023-08-10 17:20:04.976000,8.012048192771084,1.7228915662650603,-5.55421686746988,1.8736971183323115,8.58062538320049,-5.015328019619865,2.0,2.2776556776556776,439.04792537793503,0.1576831186993772,0.3211934036478067,0.4335411689295495,1347.2527472527472,-1.0,68.11293954616318,2.2792053916077744,
2023-08-10 17:20:04.983000,8.012048192771084,1.7349397590361446,-5.590361445783133,1.8736971183323115,8.68853464132434,-5.020232985898222,2.0,2.2761904761904765,439.3305439330544,0.18611968999475512,0.1927626595186767,0.33739292582017333,1336.263736263736,-1.0,68.11293954616318,2.2791875538397655,
2023-08-10 17:20:04.991000,8.012048192771084,1.7228915662650603,-5.602409638554217,1.8957694665849172,8.62722256284488,-5.020232985898222,2.0,2.2776556776556776,439.04792537793503,0.3984616281102505,0.35499096789231344,0.366412213740458,1326.007326007326,-1.0,68.11293954616318,2.2791699782569896,
2023-08-10 17:20:04.999000,8.0,1.710843373493976,-5.590361445783133,1.8712446351931329,8.644389944819128,-5.047210300429184,2.0,2.2776556776556776,439.04792537793503,0.19590932929316449,-0.03158324106986743,0.4851698618961599,1315.7509157509157,-1.0,68.11293954616318,2.2791526511370326,
2023-08-10 17:20:05.006000,8.0,1.7228915662650603,-5.590361445783133,1.8172900061312078,8.690987124463518,-5.052115266707541,2.0,2.2776556776556776,439.04792537793503,-0.02086125517160965,0.012353592447992964,0.4354058621292464,1306.227106227106,-1.0,68.11293954616318,2.2791355588558435,
2023-08-10 17:20:05.014000,8.012048192771084,1.710843373493976,-5.614457831325302,1.8099325567136726,8.666462293071735,-4.9957081545064375,2.0,2.2776556776556776,439.04792537793503,0.39123594196142475,-0.03904201386865485,0.7221024415826582,1295.2380952380952,-1.0,68.11293954616318,2.279118687479276,
2023-08-10 17:20:05.022000,8.012048192771084,1.710843373493976,-5.590361445783133,1.8565297363580624,8.654199877375843,-5.086450030656039,2.0,2.2776556776556776,439.04792537793503,0.26618495425674427,-0.376434939688829,0.3369267525202495,1284.2490842490843,-1.0,68.11293954616318,2.279102022813476,
2023-08-10 17:20:05.029000,8.024096385542169,1.7228915662650603,-5.614457831325302,1.8712446351931329,8.690987124463518,-5.0324954015941135,2.0,2.2776556776556776,439.04792537793503,0.15733348872443298,-0.4364547520540761,0.7027562496358021,1272.5274725274724,-1.0,68.11293954616318,2.2790855504561107,
2023-08-10 17:20:05.037000,8.012048192771084,1.6867469879518073,-5.578313253012048,1.8614347026364193,8.72041692213366,-5.017780502759043,2.0,2.2776556776556776,439.04792537793503,0.2644368043820282,-0.29939980187634685,0.5291066954140203,1264.4688644688645,-1.0,68.11293954616318,2.2790692558482113,
2023-08-10 17:20:05.045000,8.024096385542169,1.6987951807228916,-5.602409638554217,1.854077253218884,8.67381974248927,-5.079092581238504,2.0,2.2776556776556776,439.04792537793503,0.12435172775479203,0.019812365246780383,0.35767146436687836,1261.5384615384614,-1.0,68.11293954616318,2.2790531247843466,
2023-08-10 17:20:05.052000,8.012048192771084,1.6626506024096386,-5.566265060240964,1.8687921520539545,8.637032495401593,-5.042305334150828,2.0,2.2776556776556776,439.04792537793503,0.0170153254472351,0.014567915622632328,0.2643202610570478,1261.5384615384614,-1.0,68.11293954616318,2.2790371429400804,
2023-08-10 17:20:05.060000,8.024096385542169,1.6987951807228916,-5.578313253012048,1.841814837522992,8.661557326793378,-5.000613120784794,2.0,2.2776556776556776,439.04792537793503,0.24765456558475654,0.17959326379581614,0.27574150690519195,1262.2710622710622,-1.0,68.11293954616318,2.27902129550349,
2023-08-10 17:20:05.068000,8.012048192771084,1.674698795180723,-5.578313253012048,1.858982219497241,8.639484978540771,-4.980993255671367,2.0,2.2761904761904765,439.3305439330544,0.10687022900763359,0.10244158265835313,0.5497348639356683,1257.8754578754579,-1.0,68.11293954616318,2.279005567719734,
2023-08-10 17:20:05.075000,8.024096385542169,1.674698795180723,-5.55421686746988,1.8221949724095645,8.70570202329859,-5.030042918454935,2.0,2.2761904761904765,439.3305439330544,-0.03041780782005733,-0.15733348872443298,0.5309713886137172,1253.4798534798533,-1.0,68.11293954616318,2.2789899449078517,
2023-08-10 17:20:05.083000,8.036144578313253,1.6987951807228916,-5.590361445783133,1.8320049049662783,8.70570202329859,-5.057020232985898,2.0,2.2761904761904765,439.3305439330544,0.10617096905774683,-0.17434881417166806,0.5717615523570889,1248.3516483516482,-1.0,68.11293954616318,2.2789744123724462,
2023-08-10 17:20:05.091000,8.024096385542169,1.6626506024096386,-5.590361445783133,1.812385039852851,8.732679337829552,-5.08399754751686,2.0,2.2776556776556776,439.04792537793503,0.1343744537031648,0.07167414486335329,0.4313268457549093,1243.2234432234432,-1.0,68.11293954616318,2.278958954960206,
2023-08-10 17:20:05.098000,8.012048192771084,1.6987951807228916,-5.590361445783133,1.8467198038013488,8.747394236664622,-5.037400367872471,2.0,2.2776556776556776,439.04792537793503,0.05710622924072095,0.43598857875415103,0.38167938931297707,1241.7582417582416,-1.0,68.11293954616318,2.278943557666934,
2023-08-10 17:20:05.106000,8.012048192771084,1.6867469879518073,-5.590361445783133,1.8736971183323115,8.686082158185162,-5.074187614960147,2.0,2.2761904761904765,439.3305439330544,0.08682477711089152,0.20255229881708603,0.36384826059087483,1243.2234432234432,-1.0,68.11293954616318,2.2789282062429823,
2023-08-10 17:20:05.113000,8.0,1.674698795180723,-5.602409638554217,1.8295524218270998,8.7498467198038,-5.020232985898222,2.0,2.2776556776556776,439.04792537793503,0.011537789173125373,0.21362391469028633,0.3644309772157799,1245.4212454212454,-1.0,68.11293954616318,2.278912886287141,
2023-08-10 17:20:05.121000,8.012048192771084,1.6506024096385543,-5.626506024096386,1.8663396689147762,8.681177191906805,-5.020232985898222,2.0,2.2761904761904765,439.3305439330544,0.014101742322708983,0.20872909504108078,0.36303245731600725,1246.153846153846,-1.0,68.11293954616318,2.278897583710357,
2023-08-10 17:20:05.129000,8.012048192771084,1.6626506024096386,-5.578313253012048,1.8516247700797055,8.725321888412017,-5.093807480073575,2.0,2.2761904761904765,439.3305439330544,-0.01736495542217761,0.3723559233144928,0.19299574616863835,1246.8864468864467,-1.0,68.11293954616318,2.2788822852673234,
2023-08-10 17:20:05.136000,8.012048192771084,1.6626506024096386,-5.626506024096386,1.8516247700797055,8.686082158185162,-4.9957081545064375,2.0,2.2761904761904765,439.3305439330544,-0.09393391993473643,-0.1650253481731838,0.26793310413146115,1246.8864468864467,-1.0,68.11293954616318,2.2788669775411314,
2023-08-10 17:20:05.144000,7.987951807228916,1.6626506024096386,-5.602409638554217,1.8025751072961373,8.649294911097487,-5.037400367872471,2.0,2.2761904761904765,439.3305439330544,-0.03426373754443188,0.06456500203950837,0.0375269506439018,1248.3516483516482,-1.0,68.11293954616318,2.2788516470127456,
2023-08-10 17:20:05.152000,8.0,1.674698795180723,-5.626506024096386,1.836909871244635,8.6591048436542,-5.017780502759043,2.0,2.2761904761904765,439.3305439330544,-0.003263213099470364,-0.06176796223996309,-0.08379465066138327,1249.084249084249,-1.0,68.11293954616318,2.278836281041374,
2023-08-10 17:20:05.159000,8.012048192771084,1.6867469879518073,-5.626506024096386,1.7976701410177804,8.651747394236665,-5.079092581238504,2.0,2.2776556776556776,439.04792537793503,-0.04859856651710253,-0.049297826466989284,-0.2781889167297943,1251.2820512820513,-1.0,68.11293954616318,2.278820867366855,
2023-08-10 17:20:05.167000,8.036144578313253,1.710843373493976,-5.578313253012048,1.841814837522992,8.671367259350092,-5.025137952176578,2.0,2.2761904761904765,439.3305439330544,-0.24718839228483144,-0.08076452421187588,-0.5827166249053083,1252.7472527472526,-1.0,68.11293954616318,2.278805394664209,
2023-08-10 17:20:05.175000,8.024096385542169,1.710843373493976,-5.614457831325302,1.8761496014714898,8.651747394236665,-5.059472716125076,2.0,2.2776556776556776,439.04792537793503,-0.2746926169803627,0.40685274750888634,-0.10395664588310703,1254.212454212454,-1.0,68.11293954616318,2.2787898521127907,
2023-08-10 17:20:05.182000,8.012048192771084,1.6987951807228916,-5.602409638554217,1.8442673206621703,8.67381974248927,-5.057020232985898,2.0,2.2761904761904765,439.3305439330544,0.14113396655206545,0.2819183031291884,0.18705203659460398,1257.142857142857,-1.0,68.11293954616318,2.2787742294208755,
2023-08-10 17:20:05.190000,8.036144578313253,1.6987951807228916,-5.602409638554217,1.8516247700797055,8.678724708767627,-5.047210300429184,2.0,2.2761904761904765,439.3305439330544,0.1386865567274627,0.35289318804265496,0.04813239321717832,1262.2710622710622,-1.0,68.11293954616318,2.2787585168477826,
2023-08-10 17:20:05.198000,8.0,1.6987951807228916,-5.602409638554217,1.8393623543838136,8.68853464132434,-5.017780502759043,2.0,2.2776556776556776,439.04792537793503,-0.3195617970980715,0.8389953965386628,0.4302779558300796,1264.4688644688645,-1.0,68.11293954616318,2.2787427042730046,
2023-08-10 17:20:05.205000,8.0,1.6867469879518073,-5.614457831325302,1.8344573881054567,8.686082158185162,-5.005518087063151,2.0,2.2776556776556776,439.04792537793503,4.661732999250815E-4,0.6017131868772215,-0.2739933570304759,1266.6666666666665,-1.0,68.11293954616318,2.2787267826516975,
2023-08-10 17:20:05.213000,8.0,1.6867469879518073,-5.590361445783133,1.8957694665849172,8.715511955855304,-5.012875536480687,2.0,2.2776556776556776,439.04792537793503,-0.09171959676009533,0.24509061243517294,0.1713186877221607,1265.9340659340658,-1.0,68.11293954616318,2.2787107440967347,
2023-08-10 17:20:05.221000,8.024096385542169,1.6867469879518073,-5.614457831325302,1.8810545677498467,8.713059472716125,-4.985898221949724,2.0,2.2761904761904765,439.3305439330544,-0.030650894470019004,-0.016082978847386676,-0.1489423693257967,1263.003663003663,-1.0,68.11293954616318,2.278694581433891,
2023-08-10 17:20:05.228000,8.012048192771084,1.6987951807228916,-5.578313253012048,1.8687921520539545,8.600245248313918,-5.049662783568363,2.0,2.2761904761904765,439.3305439330544,-0.18343919352019067,0.10279121263329563,-0.2387972728861956,1259.3406593406592,-1.0,68.11293954616318,2.278678288636268,
2023-08-10 17:20:05.236000,8.012048192771084,1.6867469879518073,-5.578313253012048,1.8687921520539545,8.713059472716125,-5.042305334150828,2.0,2.2761904761904765,439.3305439330544,-0.25849309480799515,0.23937998951110154,-0.17248412097197122,1256.4102564102564,-1.0,68.11293954616318,2.278661860169399,
2023-08-10 17:20:05.244000,8.024096385542169,1.6987951807228916,-5.578313253012048,1.854077253218884,8.637032495401593,-4.998160637645616,2.0,2.2761904761904765,439.3305439330544,-0.18017598042072205,0.06689586853912857,-0.26047433133267284,1255.6776556776556,-1.0,68.11293954616318,2.2786452905421086,
2023-08-10 17:20:05.251000,8.036144578313253,1.710843373493976,-5.590361445783133,1.8908645003065603,8.698344573881053,-5.012875536480687,2.0,2.2761904761904765,439.3305439330544,-0.30044869180117784,0.03507954081929947,-0.19672513256803206,1256.4102564102564,-1.0,68.11293954616318,2.2786285748024406,
2023-08-10 17:20:05.259000,8.048192771084338,1.6987951807228916,-5.590361445783133,1.858982219497241,8.666462293071735,-5.0226854690374,2.0,2.2776556776556776,439.04792537793503,-0.17563079074646074,-0.16514189149816463,-0.2696812540061767,1256.4102564102564,-1.0,68.11293954616318,2.2786117080802732,
2023-08-10 17:20:05.267000,8.048192771084338,1.6987951807228916,-5.590361445783133,1.883507050889025,8.681177191906805,-5.066830165542612,2.0,2.2776556776556776,439.04792537793503,0.024707184895985928,0.20033797564244493,0.007342229473807017,1257.8754578754579,-1.0,68.11293954616318,2.27859468614504,
2023-08-10 17:20:05.274000,8.024096385542169,1.710843373493976,-5.590361445783133,1.8221949724095645,8.710606989576947,-5.057020232985898,2.0,2.2761904761904765,439.3305439330544,-0.34007342229473864,0.3650136938406845,0.12959617737894052,1260.8058608058607,-1.0,68.11293954616318,2.278577505961529,
2023-08-10 17:20:05.282000,8.024096385542169,1.6987951807228916,-5.566265060240964,1.854077253218884,8.70324954015941,-4.9957081545064375,2.0,2.2761904761904765,439.3305439330544,-0.21397354466522883,-0.1576831186993772,0.2523162985839987,1263.003663003663,-1.0,68.11293954616318,2.278560164734039,
2023-08-10 17:20:05.290000,8.024096385542169,1.7228915662650603,-5.566265060240964,1.8320049049662783,8.676272225628448,-5.005518087063151,2.0,2.2761904761904765,439.3305439330544,0.15523570887477445,-0.5238622457898718,0.23553405978672567,1267.3992673992673,-1.0,68.11293954616318,2.2785426598278513,
2023-08-10 17:20:05.297000,8.024096385542169,1.710843373493976,-5.578313253012048,1.836909871244635,8.717964438994482,-5.081545064377682,2.0,2.2776556776556776,439.04792537793503,-0.3961307616106286,-0.5958860206281693,-0.3933337218110833,1271.7948717948716,-1.0,68.11293954616318,2.2785249892142314,
2023-08-10 17:20:05.305000,8.012048192771084,1.710843373493976,-5.566265060240964,1.841814837522992,8.757204169221335,-4.993255671367259,2.0,2.2776556776556776,439.04792537793503,-0.08833984033564414,-0.6673270788415592,-0.2387972728861956,1273.260073260073,-1.0,68.11293954616318,2.2785071524066685,
2023-08-10 17:20:05.313000,8.024096385542169,1.710843373493976,-5.566265060240964,1.8270999386879214,8.666462293071735,-4.97608828939301,2.0,2.2761904761904765,439.3305439330544,-0.1333255637783338,-0.2988170852514427,-0.5751413087815397,1271.062271062271,-1.0,68.11293954616318,2.2784891504502096,
2023-08-10 17:20:05.320000,8.012048192771084,1.6867469879518073,-5.578313253012048,1.8786020846106681,8.759656652360514,-5.047210300429184,2.0,2.2761904761904765,439.3305439330544,-0.19544315599324114,-0.6628984324922788,-0.17504807412155482,1268.131868131868,-1.0,68.11293954616318,2.2784709844712925,
2023-08-10 17:20:05.328000,8.024096385542169,1.6987951807228916,-5.578313253012048,1.942366646229307,8.64193746167995,-4.971183323114653,2.0,2.2761904761904765,439.3305439330544,-0.13379173707825887,-0.4898315948954016,-0.311636850999359,1265.2014652014652,-1.0,68.11293954616318,2.2784526555975386,
2023-08-10 17:20:05.336000,7.987951807228916,1.710843373493976,-5.590361445783133,1.8393623543838136,8.651747394236665,-5.081545064377682,2.0,2.2761904761904765,439.3305439330544,0.033914107569489364,-0.38144630266301544,-0.09568206980945158,1264.4688644688645,-1.0,68.11293954616318,2.278434165401042,
2023-08-10 17:20:05.343000,7.975903614457832,1.6987951807228916,-5.602409638554217,1.8614347026364193,8.634580012262415,-5.066830165542612,2.0,2.2761904761904765,439.3305439330544,-0.2713128605559115,-0.30476079482547574,-0.10920109550725465,1268.131868131868,-1.0,68.11293954616318,2.278415515424424,
2023-08-10 17:20:05.351000,7.987951807228916,1.710843373493976,-5.590361445783133,1.836909871244635,8.67381974248927,-5.025137952176578,2.0,2.2761904761904765,439.3305439330544,-0.11561097838121367,-0.32107686032282584,-0.47433133267292127,1276.1904761904761,-1.0,68.11293954616318,2.2783967076885356,
2023-08-10 17:20:05.359000,8.0,1.6987951807228916,-5.590361445783133,1.8638871857755976,8.656652360515022,-5.042305334150828,2.0,2.2761904761904765,439.3305439330544,0.05372647281626975,-0.061068702290076333,0.18705203659460398,1289.3772893772893,-1.0,68.11293954616318,2.278377745094927,
2023-08-10 17:20:05.366000,8.012048192771084,1.6867469879518073,-5.626506024096386,1.8491722869405272,8.683629675045983,-5.039852851011649,2.0,2.2776556776556776,439.04792537793503,0.12854728745411081,-0.016082978847386676,0.12726531087931944,1309.89010989011,-1.0,68.11293954616318,2.2783586309141066,
2023-08-10 17:20:05.374000,8.0,1.7228915662650603,-5.602409638554217,1.8687921520539545,8.67381974248927,-5.0324954015941135,2.0,2.2747252747252746,439.61352657004835,-0.03904201386865485,0.2421770293106468,0.32585513664704835,1336.9963369963368,-1.0,68.11293954616318,2.2783393692582092,
2023-08-10 17:20:05.382000,8.0,1.674698795180723,-5.602409638554217,1.8467198038013488,8.72041692213366,-5.044757817290006,2.0,2.2761904761904765,439.3305439330544,0.221432317464018,0.330983042946216,0.04988054309189434,1372.8937728937728,-1.0,68.11293954616318,2.2783199646049006,
2023-08-10 17:20:05.389000,7.987951807228916,1.6867469879518073,-5.578313253012048,1.908031882280809,8.72041692213366,-5.049662783568363,2.0,2.2761904761904765,439.3305439330544,0.23588368976166948,0.45102266767670846,0.13868655672746355,1419.047619047619,-1.0,68.11293954616318,2.278300421604658,
2023-08-10 17:20:05.397000,8.0,1.674698795180723,-5.566265060240964,1.8908645003065603,8.656652360515022,-4.988350705088902,2.0,2.2761904761904765,439.3305439330544,0.23390245323699005,0.44601130470252376,0.13740458015267176,1476.923076923077,903.86962890625,66.38125464244716,2.2782807450955262,
2023-08-10 17:20:05.405000,8.012048192771084,1.710843373493976,-5.614457831325302,1.858982219497241,8.710606989576947,-5.0324954015941135,2.0,2.2761904761904765,439.3305439330544,-0.07283957811316338,0.4554513140259889,0.1687547345725775,1546.5201465201465,-1.0,66.38125464244716,2.2782609396937636,
2023-08-10 17:20:05.412000,8.0,1.6867469879518073,-5.578313253012048,1.8344573881054567,8.656652360515022,-5.0226854690374,2.0,2.2761904761904765,439.3305439330544,-0.10325738593322072,0.1752811607715165,0.07691859448750046,1623.4432234432234,-1.0,66.38125464244716,2.278241010262599,
2023-08-10 17:20:05.420000,8.048192771084338,1.6987951807228916,-5.566265060240964,1.9031269160024524,8.70324954015941,-5.007970570202329,2.0,2.2761904761904765,439.3305439330544,0.02074471184662881,0.2793543499796048,0.07435464133791729,1705.4945054945053,-1.0,66.38125464244716,2.278220961888233,
2023-08-10 17:20:05.428000,8.048192771084338,1.6867469879518073,-5.530120481927711,1.9055793991416308,8.710606989576947,-4.980993255671367,2.0,2.2761904761904765,439.3305439330544,-0.17994289377075864,-0.07330575141308847,-0.047899306567216644,1788.278388278388,-1.0,66.38125464244716,2.2782007998558815,
2023-08-10 17:20:05.435000,8.048192771084338,1.710843373493976,-5.566265060240964,1.9153893316983446,8.6591048436542,-5.007970570202329,2.0,2.2761904761904765,439.3305439330544,0.1426490297768198,-0.026105704795757703,-0.46092885030009906,1871.7948717948716,-1.0,66.38125464244716,2.278180529626055,
2023-08-10 17:20:05.443000,8.036144578313253,1.6867469879518073,-5.578313253012048,1.8712446351931329,8.70570202329859,-5.015328019619865,2.0,2.2761904761904765,439.3305439330544,0.26094050463259794,-0.13542334362799405,-0.060952158965095066,1952.3809523809523,-1.0,66.38125464244716,2.278160157269031,
2023-08-10 17:20:05.451000,8.036144578313253,1.6867469879518073,-5.578313253012048,1.8148375229920293,8.742489270386265,-5.007970570202329,2.0,2.2761904761904765,439.3305439330544,0.02960200454518974,-0.3647806071907228,-0.07656896451255753,2021.9780219780218,-1.0,66.38125464244716,2.2781396889168364,
2023-08-10 17:20:05.458000,8.024096385542169,1.6987951807228916,-5.602409638554217,1.8859595340282034,8.67381974248927,-4.971183323114653,2.0,2.2761904761904765,439.3305439330544,0.2720121205057982,-0.3780665462385642,-0.07761785443738722,2075.457875457875,-1.0,66.38125464244716,2.278119130319823,
2023-08-10 17:20:05.466000,8.036144578313253,1.6867469879518073,-5.590361445783133,1.8491722869405272,8.70324954015941,-4.9294911097486205,2.0,2.2761904761904765,439.3305439330544,0.36256628401608343,-0.5595245032340772,-0.09171959676009576,2109.157509157509,-1.0,66.38125464244716,2.278098487775018,
2023-08-10 17:20:05.474000,8.036144578313253,1.710843373493976,-5.55421686746988,1.917841814837523,8.698344573881053,-5.057020232985898,2.0,2.2761904761904765,439.3305439330544,0.00827457607365501,-0.11258085193170499,-8.15803274867591E-4,2123.076923076923,-1.0,66.38125464244716,2.278077768037512,
2023-08-10 17:20:05.481000,8.036144578313253,1.6987951807228916,-5.55421686746988,1.8344573881054567,8.681177191906805,-5.017780502759043,2.0,2.2761904761904765,439.3305439330544,0.29765165200163085,-0.19078142299399725,-0.09323465998484924,2118.6813186813183,-1.0,66.38125464244716,2.2780569773538315,
2023-08-10 17:20:05.489000,8.048192771084338,1.6867469879518073,-5.590361445783133,1.912936848559166,8.661557326793378,-5.034947884733292,2.0,2.2761904761904765,439.3305439330544,-0.04160596701823846,-0.6788648680146846,-0.003030126449507823,2095.238095238095,-1.0,66.38125464244716,2.2780361219713874,
2023-08-10 17:20:05.496000,8.0,1.674698795180723,-5.566265060240964,1.836909871244635,8.747394236664622,-5.030042918454935,2.0,2.2761904761904765,439.3305439330544,0.05127906299166698,-0.2795874366295665,0.24042887943593036,2057.875457875458,-1.0,66.38125464244716,2.2780152085444314,
2023-08-10 17:20:05.504000,7.987951807228916,1.674698795180723,-5.566265060240964,1.858982219497241,8.700797057020232,-5.030042918454935,2.0,2.2761904761904765,439.3305439330544,0.23098887011246394,-0.32562204999708716,0.25208321193403654,2009.5238095238094,-1.0,66.38125464244716,2.277994243627495,
2023-08-10 17:20:05.512000,8.024096385542169,1.6867469879518073,-5.590361445783133,1.912936848559166,8.686082158185162,-4.9957081545064375,2.0,2.2761904761904765,439.3305439330544,-0.36629567041547717,-0.5538138803100058,-0.11677641163102377,1955.311355311355,-1.0,66.38125464244716,2.2779732336621556,
2023-08-10 17:20:05.519000,8.024096385542169,1.6867469879518073,-5.55421686746988,1.8614347026364193,8.713059472716125,-5.017780502759043,2.0,2.2761904761904765,439.3305439330544,0.35324281801759744,-0.6895868539129424,0.2808694132043587,1893.7728937728937,-1.0,66.38125464244716,2.277952184964599,
2023-08-10 17:20:05.527000,8.036144578313253,1.674698795180723,-5.578313253012048,1.9055793991416308,8.737584304107909,-5.044757817290006,2.0,2.2747252747252746,439.61352657004835,0.2600081580327495,-0.05547462269098577,0.03356447759454599,1827.8388278388277,-1.0,66.38125464244716,2.2779311032561376,
2023-08-10 17:20:05.535000,8.024096385542169,1.6867469879518073,-5.578313253012048,1.8614347026364193,8.747394236664622,-5.0226854690374,2.0,2.2747252747252746,439.61352657004835,0.013519025697803066,0.17633005069634577,0.09300157333488714,1760.4395604395604,-1.0,66.38125464244716,2.277909993684961,
2023-08-10 17:20:05.542000,8.048192771084338,1.674698795180723,-5.602409638554217,1.8148375229920293,8.708154506437769,-4.949110974862047,2.0,2.2761904761904765,439.3305439330544,-0.1252840743546422,0.6073072664763122,0.13670532020278542,1694.5054945054944,-1.0,66.38125464244716,2.2778888611653416,
2023-08-10 17:20:05.550000,8.036144578313253,1.6867469879518073,-5.55421686746988,1.8687921520539545,8.68853464132434,-4.988350705088902,2.0,2.2761904761904765,439.3305439330544,-0.18402191014509658,0.2688654507313087,0.1816910436454751,1632.9670329670328,-1.0,66.38125464244716,2.2778677108218774,
2023-08-10 17:20:05.558000,8.024096385542169,1.674698795180723,-5.55421686746988,1.8663396689147762,8.715511955855304,-5.000613120784794,2.0,2.2761904761904765,439.3305439330544,-0.04521881009265133,0.17994289377075864,0.24136122603577878,1575.091575091575,-1.0,66.38125464244716,2.2778465475906495,
2023-08-10 17:20:05.565000,8.036144578313253,1.674698795180723,-5.566265060240964,1.8638871857755976,8.695892090741875,-4.949110974862047,2.0,2.2761904761904765,439.3305439330544,-0.19660858924305122,-0.01654915214731002,-0.17423227084668724,1521.6117216117216,-1.0,66.38125464244716,2.27782537582155,
2023-08-10 17:20:05.573000,8.024096385542169,1.674698795180723,-5.566265060240964,1.8172900061312078,8.7498467198038,-5.074187614960147,2.0,2.2761904761904765,439.3305439330544,-0.13379173707825887,-0.18227376027038059,-0.08006526426198957,1473.260073260073,-1.0,66.38125464244716,2.2778042002186623,
2023-08-10 17:20:05.581000,8.024096385542169,1.6867469879518073,-5.566265060240964,1.8295524218270998,8.656652360515022,-5.0324954015941135,2.0,2.2761904761904765,439.3305439330544,-0.07144105821339161,-0.08717440708583403,-0.10873492220733044,1429.3040293040292,-1.0,66.38125464244716,2.277783025764767,
2023-08-10 17:20:05.588000,8.024096385542169,1.6867469879518073,-5.566265060240964,1.8638871857755976,8.754751686082157,-4.9442060085836905,2.0,2.2761904761904765,439.3305439330544,-0.23891381621117644,-0.6358603810966726,-0.44566167472757995,1389.0109890109889,-1.0,66.38125464244716,2.27776185722663,
2023-08-10 17:20:05.596000,8.024096385542169,1.6626506024096386,-5.602409638554217,1.8295524218270998,8.664009809932557,-5.030042918454935,2.0,2.2761904761904765,439.3305439330544,-0.23833109958627052,-0.8135889516927919,-0.5680321659576948,1353.113553113553,-1.0,66.38125464244716,2.2777406991542524,
2023-08-10 17:20:05.604000,8.036144578313253,1.6867469879518073,-5.578313253012048,1.8786020846106681,8.752299202942979,-5.0226854690374,2.0,2.2761904761904765,439.3305439330544,0.023192121671231584,-0.39531495833576097,-0.3220092069226734,1323.076923076923,-1.0,66.38125464244716,2.2777195558814105,
2023-08-10 17:20:05.611000,8.024096385542169,1.6987951807228916,-5.590361445783133,1.8491722869405272,8.70324954015941,-4.980993255671367,2.0,2.2747252747252746,439.61352657004835,0.1628110249985427,-0.10220849600839145,-0.4592972437503643,1303.2967032967033,-1.0,66.38125464244716,2.277698431069588,
2023-08-10 17:20:05.619000,8.012048192771084,1.6987951807228916,-5.590361445783133,1.8148375229920293,8.700797057020232,-4.978540772532188,2.0,2.2761904761904765,439.3305439330544,-0.23320319328710504,-0.3920517452362924,-0.4897150515704212,1287.179487179487,-1.0,66.38125464244716,2.2776773277435054,
2023-08-10 17:20:05.627000,8.012048192771084,1.6867469879518073,-5.566265060240964,1.8491722869405272,8.693439607602697,-4.993255671367259,2.0,2.2761904761904765,439.3305439330544,-0.06339956878969827,-0.6053260299516344,-0.31804673387331756,1277.6556776556777,-1.0,66.38125464244716,2.277656249137047,
2023-08-10 17:20:05.634000,8.060240963855422,1.6626506024096386,-5.578313253012048,1.8565297363580624,8.634580012262415,-5.044757817290006,2.0,2.2761904761904765,439.3305439330544,-0.03169978439484827,-0.4662898432492275,-0.287162752753336,1273.260073260073,-1.0,66.38125464244716,2.277635198731251,
2023-08-10 17:20:05.642000,8.036144578313253,1.6867469879518073,-5.55421686746988,1.8687921520539545,8.742489270386265,-5.049662783568363,2.0,2.2761904761904765,439.3305439330544,-0.06176796223996309,-0.28424916962881036,-0.08647514713594771,1273.260073260073,-1.0,66.38125464244716,2.2776141798031846,
2023-08-10 17:20:05.650000,8.024096385542169,1.6987951807228916,-5.578313253012048,1.9055793991416308,8.717964438994482,-4.9662783568362965,2.0,2.2747252747252746,439.61352657004835,0.04685041664238651,-0.1642095448983162,-0.13239321717848623,1276.923076923077,-1.0,66.38125464244716,2.2775931954338176,
2023-08-10 17:20:05.657000,8.012048192771084,1.6867469879518073,-5.578313253012048,1.8859595340282034,8.67381974248927,-5.020232985898222,2.0,2.2761904761904765,439.3305439330544,-0.10407318920808831,-0.5626711730085667,0.04941436979197012,1284.2490842490843,-1.0,66.38125464244716,2.2775722480243554,
2023-08-10 17:20:05.665000,8.012048192771084,1.6987951807228916,-5.578313253012048,1.8638871857755976,8.607602697731453,-5.039852851011649,2.0,2.2761904761904765,439.3305439330544,0.06526426198939513,-0.28553114620360126,0.060952158965095066,1296.7032967032967,-1.0,66.38125464244716,2.277551339726738,
2023-08-10 17:20:05.673000,8.024096385542169,1.6987951807228916,-5.578313253012048,1.888412017167382,8.727774371551195,-4.990803188228081,2.0,2.2761904761904765,439.3305439330544,0.06339956878969827,-0.28238447642911174,0.0611852456150576,1312.087912087912,-1.0,66.38125464244716,2.2775304729791457,
2023-08-10 17:20:05.680000,8.048192771084338,1.6987951807228916,-5.602409638554217,1.9031269160024524,8.72041692213366,-5.042305334150828,2.0,2.2747252747252746,439.61352657004835,0.15523570887477445,0.1343744537031648,-0.10628751238272853,1327.4725274725274,-1.0,66.38125464244716,2.2775096500594425,
2023-08-10 17:20:05.688000,8.048192771084338,1.6987951807228916,-5.578313253012048,1.8687921520539545,8.747394236664622,-4.980993255671367,2.0,2.2747252747252746,439.61352657004835,-0.2576772915331276,0.12132160130528508,-0.2717790338558357,1344.3223443223442,-1.0,66.38125464244716,2.277488873062552,
2023-08-10 17:20:05.696000,8.036144578313253,1.6987951807228916,-5.566265060240964,1.8442673206621703,8.747394236664622,-5.025137952176578,2.0,2.2747252747252746,439.61352657004835,-0.25476370840860146,-0.028436571295379638,-0.31408426082396135,1362.6373626373625,-1.0,66.38125464244716,2.277468143316122,
2023-08-10 17:20:05.703000,8.024096385542169,1.674698795180723,-5.55421686746988,1.8516247700797055,8.727774371551195,-4.998160637645616,2.0,2.2747252747252746,439.61352657004835,-0.16094633179884585,-0.02703805139560613,0.025173358195909275,1379.4871794871794,-1.0,66.38125464244716,2.277447461425396,
2023-08-10 17:20:05.711000,8.048192771084338,1.710843373493976,-5.55421686746988,1.917841814837523,8.681177191906805,-4.963825873697118,2.0,2.2761904761904765,439.3305439330544,-0.34275391876930306,0.035196084144280305,0.025173358195909275,1394.8717948717947,-1.0,66.38125464244716,2.277426827773393,
2023-08-10 17:20:05.719000,8.024096385542169,1.6867469879518073,-5.590361445783133,1.8148375229920293,8.683629675045983,-4.978540772532188,2.0,2.2761904761904765,439.3305439330544,0.04148942369325762,-0.22306392401375144,-0.20546588194161172,1409.5238095238094,-1.0,66.38125464244716,2.2774062430210633,
2023-08-10 17:20:05.726000,8.036144578313253,1.6987951807228916,-5.542168674698796,1.9006744328632739,8.67381974248927,-5.047210300429184,2.0,2.2747252747252746,439.61352657004835,-0.0045451896742613,-0.4497406911019175,-0.1875182098945282,1421.9780219780218,-1.0,66.38125464244716,2.2773857081869022,
2023-08-10 17:20:05.734000,8.024096385542169,1.710843373493976,-5.55421686746988,1.9006744328632739,8.715511955855304,-4.988350705088902,2.0,2.2747252747252746,439.61352657004835,0.2554629683584865,-0.354058621292465,-0.2621059378824076,1435.164835164835,-1.0,66.38125464244716,2.277365223709298,
2023-08-10 17:20:05.742000,8.024096385542169,1.7349397590361446,-5.578313253012048,1.836909871244635,8.70324954015941,-5.015328019619865,2.0,2.2761904761904765,439.3305439330544,0.14497989627644,-0.23017306683759636,-0.09335120330983052,1447.6190476190475,-1.0,66.38125464244716,2.2773447893877132,
2023-08-10 17:20:05.749000,8.024096385542169,1.6987951807228916,-5.578313253012048,1.883507050889025,8.747394236664622,-5.000613120784794,2.0,2.2761904761904765,439.3305439330544,0.14393100635161074,-0.7012411864110486,-0.15430336227492558,1458.6080586080584,-1.0,66.38125464244716,2.2773244053414383,
2023-08-10 17:20:05.757000,8.024096385542169,1.6987951807228916,-5.55421686746988,1.8565297363580624,8.67381974248927,-5.034947884733292,2.0,2.2747252747252746,439.61352657004835,-0.11339665520657258,-0.745178019928909,-0.0913699667851524,1465.201465201465,-1.0,66.38125464244716,2.2773040720897524,
2023-08-10 17:20:05.765000,8.036144578313253,1.6987951807228916,-5.578313253012048,1.8687921520539545,8.700797057020232,-4.9736358062538315,2.0,2.2761904761904765,439.3305439330544,0.05629042596585336,-0.7247829380572227,-0.012936309072898016,1468.131868131868,-1.0,66.38125464244716,2.2772837896146334,
2023-08-10 17:20:05.772000,8.036144578313253,1.6987951807228916,-5.578313253012048,1.8933169834457386,8.676272225628448,-5.0030656039239725,2.0,2.2747252747252746,439.61352657004835,0.1329759338033913,-0.6168638191247598,0.047782763242235377,1469.5970695970695,-1.0,66.38125464244716,2.2772635577947713,
2023-08-10 17:20:05.780000,8.024096385542169,1.710843373493976,-5.566265060240964,1.888412017167382,8.671367259350092,-4.9957081545064375,2.0,2.2761904761904765,439.3305439330544,0.08612551716100478,-0.47712837247246614,0.2590758114329002,1465.9340659340658,-1.0,66.38125464244716,2.277243376451198,
2023-08-10 17:20:05.788000,8.024096385542169,1.6987951807228916,-5.590361445783133,1.8957694665849172,8.683629675045983,-5.007970570202329,2.0,2.2747252747252746,439.61352657004835,-0.07936600431210238,-0.7929607831711439,0.6088223297010665,1459.3406593406592,-1.0,66.38125464244716,2.27722324532326,
2023-08-10 17:20:05.795000,8.024096385542169,1.674698795180723,-5.578313253012048,1.8442673206621703,8.68853464132434,-5.034947884733292,2.0,2.2747252747252746,439.61352657004835,0.3021968416758921,-0.7286288677815972,0.4978730843190958,1449.8168498168498,-1.0,66.38125464244716,2.2772031641139923,
2023-08-10 17:20:05.803000,8.024096385542169,1.6987951807228916,-5.566265060240964,1.8516247700797055,8.671367259350092,-5.015328019619865,2.0,2.2747252747252746,439.61352657004835,-0.2481207388846799,-0.6951809335120329,0.26735038750655565,1440.2930402930401,-1.0,66.38125464244716,2.2771831319731013,
2023-08-10 17:20:05.811000,8.012048192771084,1.710843373493976,-5.566265060240964,1.8491722869405272,8.722869405272839,-4.9957081545064375,2.0,2.2747252747252746,439.61352657004835,0.05955363906532199,-0.3674611036652873,0.47864343569722045,1431.5018315018315,-1.0,66.38125464244716,2.277163147962417,
2023-08-10 17:20:05.818000,8.0,1.6987951807228916,-5.55421686746988,1.8491722869405272,8.676272225628448,-5.052115266707541,2.0,2.2747252747252746,439.61352657004835,0.08950527358545597,-0.2126915680904379,0.29217411572752156,1421.9780219780218,-1.0,66.38125464244716,2.2771432110629295,
2023-08-10 17:20:05.826000,8.024096385542169,1.6867469879518073,-5.566265060240964,1.8712446351931329,8.668914776210913,-5.030042918454935,2.0,2.2747252747252746,439.61352657004835,0.08752403706077655,-0.5475205407610285,0.3347124293456093,1410.2564102564102,-1.0,66.38125464244716,2.277123320181239,
2023-08-10 17:20:05.834000,8.012048192771084,1.674698795180723,-5.590361445783133,1.7952176578786019,8.690987124463518,-5.044757817290006,2.0,2.273260073260073,439.8968739929101,0.29916671522638516,-0.5598741332090197,0.14870928267583458,1393.4065934065934,-1.0,66.38125464244716,2.2771034741554472,
2023-08-10 17:20:05.841000,8.036144578313253,1.6626506024096386,-5.590361445783133,1.8148375229920293,8.664009809932557,-5.012875536480687,2.0,2.2747252747252746,439.61352657004835,0.20208612551716096,-0.6426198939455751,0.0532602995163451,1375.8241758241757,-1.0,66.38125464244716,2.277083671725652,
2023-08-10 17:20:05.849000,8.024096385542169,1.674698795180723,-5.590361445783133,1.8565297363580624,8.72041692213366,-5.052115266707541,2.0,2.2747252747252746,439.61352657004835,0.12435172775479203,-0.6323640813472405,0.019579278596818277,1358.974358974359,-1.0,66.38125464244716,2.2770639118919207,
2023-08-10 17:20:05.856000,8.048192771084338,1.674698795180723,-5.590361445783133,1.8197424892703862,8.67381974248927,-5.034947884733292,2.0,2.2747252747252746,439.61352657004835,0.21513897791504066,0.034380280869412715,0.4136122603577879,1344.3223443223442,-1.0,66.38125464244716,2.2770441934966876,
2023-08-10 17:20:05.864000,8.036144578313253,1.6987951807228916,-5.602409638554217,1.7927651747394235,8.639484978540771,-5.044757817290006,2.0,2.2747252747252746,439.61352657004835,-0.10768603228250118,-0.2237631839636382,-0.2159547811899074,1332.6007326007325,-1.0,66.38125464244716,2.277024514840796,
2023-08-10 17:20:05.872000,8.036144578313253,1.6626506024096386,-5.614457831325302,1.8197424892703862,8.690987124463518,-5.06928264868179,2.0,2.2747252747252746,439.61352657004835,-0.07738476778742467,-0.661499912592507,0.011421245848144104,1323.076923076923,-1.0,66.38125464244716,2.2770048741773805,
2023-08-10 17:20:05.879000,8.024096385542169,1.674698795180723,-5.602409638554217,1.78295524218271,8.661557326793378,-5.057020232985898,2.0,2.2761904761904765,439.3305439330544,-0.0941670065846981,0.04545189674261474,-0.3132684575490937,1312.087912087912,-1.0,66.38125464244716,2.2769852697126334,
2023-08-10 17:20:05.887000,8.012048192771084,1.674698795180723,-5.578313253012048,1.858982219497241,8.671367259350092,-5.049662783568363,2.0,2.2747252747252746,439.61352657004835,-0.12470135772973627,-0.01654915214731002,-0.38960433541168915,1300.3663003663003,-1.0,66.38125464244716,2.276965700098851,
2023-08-10 17:20:05.895000,8.012048192771084,1.6987951807228916,-5.578313253012048,1.8810545677498467,8.67381974248927,-5.025137952176578,2.0,2.2747252747252746,439.61352657004835,-0.3379756424450784,0.029951634520132248,-0.09917836955888362,1285.7142857142856,-1.0,66.38125464244716,2.2769461640139887,
2023-08-10 17:20:05.902000,8.036144578313253,1.6867469879518073,-5.590361445783133,1.824647455548743,8.686082158185162,-5.0324954015941135,2.0,2.2747252747252746,439.61352657004835,-0.18542043004486836,0.10768603228250118,-0.34729910844356393,1273.9926739926739,-1.0,66.38125464244716,2.2769266596369455,
2023-08-10 17:20:05.910000,8.036144578313253,1.674698795180723,-5.614457831325302,1.8614347026364193,8.737584304107909,-5.010423053341508,2.0,2.2747252747252746,439.61352657004835,-0.06304993881475403,0.23098887011246394,-0.38074704271312865,1265.2014652014652,-1.0,66.38125464244716,2.2769071851056037,
2023-08-10 17:20:05.918000,8.036144578313253,1.6867469879518073,-5.578313253012048,1.8687921520539545,8.717964438994482,-5.017780502759043,2.0,2.2747252747252746,439.61352657004835,-0.5376143581376382,0.3519608414428065,-0.4534700775013112,1257.8754578754579,-1.0,66.38125464244716,2.2768877385168538,
2023-08-10 17:20:05.925000,8.036144578313253,1.710843373493976,-5.578313253012048,1.8712446351931329,8.664009809932557,-5.0324954015941135,2.0,2.2747252747252746,439.61352657004835,-0.15337101567507758,-0.060602528990151255,-0.19276265951867583,1252.7472527472526,-1.0,66.38125464244716,2.2768683179265006,
2023-08-10 17:20:05.933000,8.012048192771084,1.6987951807228916,-5.602409638554217,1.8221949724095645,8.649294911097487,-4.954015941140405,2.0,2.2747252747252746,439.61352657004835,-0.2605908746576537,0.23250393333721828,-0.3314492162461394,1246.8864468864467,-1.0,66.38125464244716,2.276848921349158,
2023-08-10 17:20:05.941000,8.024096385542169,1.6867469879518073,-5.590361445783133,1.8663396689147762,8.713059472716125,-5.020232985898222,2.0,2.2747252747252746,439.61352657004835,-0.03041780782005733,0.049880543091895206,-0.20884563836606249,1240.2930402930401,-1.0,66.38125464244716,2.2768295467581563,
2023-08-10 17:20:05.948000,8.048192771084338,1.6987951807228916,-5.55421686746988,1.8467198038013488,8.614960147148988,-5.0226854690374,2.0,2.2747252747252746,439.61352657004835,-0.02925237457024723,0.053143756191363835,-0.20849600839111954,1238.095238095238,-1.0,66.38125464244716,2.276810192085578,
2023-08-10 17:20:05.956000,8.012048192771084,1.6867469879518073,-5.55421686746988,1.8786020846106681,8.72041692213366,-5.030042918454935,2.0,2.2747252747252746,439.61352657004835,-0.5492686906357445,-0.018646931996970283,0.23634986306159328,1236.6300366300366,-1.0,66.38125464244716,2.2767908552224325,
2023-08-10 17:20:05.964000,8.048192771084338,1.6626506024096386,-5.578313253012048,1.7903126916002452,8.713059472716125,-5.0030656039239725,2.0,2.2747252747252746,439.61352657004835,-0.39181865858632897,-0.22690985373812772,0.1304119806538081,1238.8278388278388,-1.0,66.38125464244716,2.276771534019096,
2023-08-10 17:20:05.971000,8.036144578313253,1.6867469879518073,-5.578313253012048,1.8516247700797055,8.698344573881053,-5.079092581238504,2.0,2.2747252747252746,439.61352657004835,-0.296835848726765,-0.32597167997202964,-0.20709748849134646,1241.0256410256409,-1.0,66.38125464244716,2.2767522262860354,
2023-08-10 17:20:05.979000,8.036144578313253,1.6626506024096386,-5.578313253012048,1.8025751072961373,8.676272225628448,-4.990803188228081,2.0,2.2761904761904765,439.3305439330544,0.012586679097954637,-0.14929199930073964,0.17644659402132748,1243.2234432234432,-1.0,66.38125464244716,2.276732929794895,
2023-08-10 17:20:05.987000,8.024096385542169,1.710843373493976,-5.55421686746988,1.8467198038013488,8.64193746167995,-4.998160637645616,2.0,2.273260073260073,439.8968739929101,-0.1389196433774261,-0.2368160363615179,-0.44799254122720106,1242.4908424908424,-1.0,66.38125464244716,2.2767136427726906,
2023-08-10 17:20:05.994000,8.0,1.6987951807228916,-5.566265060240964,1.8614347026364193,8.725321888412017,-4.9662783568362965,2.0,2.273260073260073,439.8968739929101,0.04685041664238651,-0.3245731600722561,-0.18285647689528606,1240.2930402930401,-1.0,66.38125464244716,2.2766943634485206,
2023-08-10 17:20:06.002000,8.0,1.6987951807228916,-5.590361445783133,1.8908645003065603,8.671367259350092,-5.039852851011649,2.0,2.2747252747252746,439.61352657004835,0.034380280869412715,-0.6088223297010665,-0.31641512732358285,1238.8278388278388,-1.0,66.38125464244716,2.2766750889342964,
2023-08-10 17:20:06.010000,8.024096385542169,1.6987951807228916,-5.614457831325302,1.8810545677498467,8.693439607602697,-5.034947884733292,2.0,2.2747252747252746,439.61352657004835,-0.040557077093409194,-0.5273585455393038,-0.2953207855020102,1242.4908424908424,-1.0,66.38125464244716,2.276655816668052,
2023-08-10 17:20:06.017000,8.048192771084338,1.6867469879518073,-5.602409638554217,1.8614347026364193,8.713059472716125,-5.015328019619865,2.0,2.2747252747252746,439.61352657004835,0.28040323990443405,-0.7667385350504053,-0.3968300215605149,1246.153846153846,-1.0,66.38125464244716,2.2766365444511805,
2023-08-10 17:20:06.025000,8.012048192771084,1.710843373493976,-5.626506024096386,1.8908645003065603,8.710606989576947,-5.0324954015941135,2.0,2.2747252747252746,439.61352657004835,0.17458190082162975,-0.6076568964512564,-0.3121030242992832,1248.3516483516482,-1.0,66.38125464244716,2.276617269572544,
2023-08-10 17:20:06.033000,8.024096385542169,1.7228915662650603,-5.614457831325302,1.9104843654199877,8.666462293071735,-5.0226854690374,2.0,2.2747252747252746,439.61352657004835,0.29765165200163085,-0.31490006409882937,-0.16980362449740677,1250.5494505494505,-1.0,66.38125464244716,2.27659798976221,
2023-08-10 17:20:06.040000,8.024096385542169,1.7349397590361446,-5.578313253012048,1.8614347026364193,8.695892090741875,-5.042305334150828,2.0,2.2747252747252746,439.61352657004835,0.1899656197191314,-0.1774954839461576,-0.010488899248295241,1252.7472527472526,-1.0,66.38125464244716,2.2765787026703004,
2023-08-10 17:20:06.048000,8.048192771084338,1.6867469879518073,-5.578313253012048,1.858982219497241,8.715511955855304,-5.017780502759043,2.0,2.2747252747252746,439.61352657004835,-0.31303537089913247,0.0057106229240714,-0.09789639298409182,1256.4102564102564,-1.0,66.38125464244716,2.276559405450639,
2023-08-10 17:20:06.056000,8.024096385542169,1.6867469879518073,-5.578313253012048,1.9227467811158798,8.710606989576947,-5.025137952176578,2.0,2.273260073260073,439.8968739929101,0.0417225103432193,-0.20698094516636475,-0.07901637433715986,1263.003663003663,-1.0,66.38125464244716,2.276540095258425,
2023-08-10 17:20:06.063000,8.0,1.710843373493976,-5.578313253012048,1.8786020846106681,8.68853464132434,-4.990803188228081,2.0,2.2747252747252746,439.61352657004835,0.13344210710331636,-0.02109434182157132,0.0611852456150576,1269.5970695970695,-1.0,66.38125464244716,2.276520768763418,
