Shimmer_F5D4_Timestamp_FormattedUnix_CAL,Shimmer_F5D4_Accel_LN_X_CAL,Shimmer_F5D4_Accel_LN_Y_CAL,Shimmer_F5D4_Accel_LN_Z_CAL,Shimmer_F5D4_Accel_WR_X_CAL,Shimmer_F5D4_Accel_WR_Y_CAL,Shimmer_F5D4_Accel_WR_Z_CAL,Shimmer_F5D4_GSR_Range_CAL,Shimmer_F5D4_GSR_Skin_Conductance_CAL,Shimmer_F5D4_GSR_Skin_Resistance_CAL,Shimmer_F5D4_Gyro_X_CAL,Shimmer_F5D4_Gyro_Y_CAL,Shimmer_F5D4_Gyro_Z_CAL,Shimmer_F5D4_PPG_A13_CAL,Shimmer_F5D4_PPG_IBI_CAL,Shimmer_F5D4_PPGtoHR_CAL,Shimmer_F5D4_GSR_Skin_Conductance_LPF_CAL,Shimmer_F5D4_GSR_Skin_Resistance_LPF_CAL,
yyyy/mm/dd hh:mm:ss.000,m/(s^2),m/(s^2),m/(s^2),m/(s^2),m/(s^2),m/(s^2),no_units,uS,kOhms,deg/s,deg/s,deg/s,mV,ms,BPM,uS,kOhms,
2023-12-20 14:07:21.614000,-24.3855421686747,-2.0843373493975905,9.987951807228916,-1.3341508277130594,-8.564684242795831,5.0324954015941135,3.0,1.226995226995227,814.9990953500995,0.11596060835615618,-0.34578404521881,-0.16677349804789918,971.4285714285713,-1.0,107.30120613436664,1.22655862792109,815.2894433392111,
2023-12-20 14:07:21.621000,-24.3855421686747,-2.0843373493975905,10.0,-1.3415082771305946,-8.552421827099938,5.015328019619865,3.0,1.226995226995227,814.9990953500995,0.02214323174640232,-0.18448808344501993,-0.33832527242002197,1013.1868131868131,-1.0,107.30120613436664,1.226578390776016,815.2763066016967,
2023-12-20 14:07:21.629000,-24.3855421686747,-2.072289156626506,10.0,-1.3439607602697732,-8.56713672593501,4.9736358062538315,3.0,1.226995226995227,814.9990953500995,-0.011188159198181129,-0.42270263970631133,0.04125633704329595,1056.4102564102564,-1.0,107.30120613436664,1.226598112192126,815.2631975801258,
2023-12-20 14:07:21.637000,-24.3855421686747,-2.072289156626506,10.012048192771084,-1.3071735131820967,-8.59656652360515,4.988350705088902,3.0,1.226995226995227,814.9990953500995,-0.16712312802284232,-0.6081230697511797,-0.0226094050463261,1100.3663003663003,559.173583984375,107.30120613436664,1.2266177730595826,815.250128976859,
2023-12-20 14:07:21.644000,-24.3855421686747,-2.072289156626506,10.024096385542169,-1.2998160637645615,-8.540159411404046,4.985898221949724,3.0,1.226995226995227,814.9990953500995,-0.12097197133034257,-0.644368043820291,-0.05698968591573925,1145.7875457875457,-1.0,107.30120613436664,1.2266373544260407,815.2371133888707,
2023-12-20 14:07:21.652000,-24.3855421686747,-2.0843373493975905,10.060240963855422,-1.3635806253832004,-8.530349478847333,5.010423053341508,3.0,1.2274392274392272,814.7042864894195,-0.2918244857525786,0.06934327836373134,-0.21210885146553243,1192.6739926739926,-1.0,107.30120613436664,1.226656837521855,815.2241632909987,
2023-12-20 14:07:21.660000,-24.3855421686747,-2.072289156626506,10.060240963855422,-1.4420600858369097,-8.547516860821581,5.010423053341508,3.0,1.2274392274392272,814.7042864894195,-0.12400209777984952,-0.26222248120738884,0.09183614008507682,1233.6996336996335,-1.0,107.30120613436664,1.226676203934444,815.2112909201575,
2023-12-20 14:07:21.667000,-24.397590361445783,-2.060240963855422,10.0,-1.331698344573881,-8.559779276517473,4.9294911097486205,3.0,1.2274392274392272,814.7042864894195,-0.20208612551716096,0.15616805547462287,-0.0344968241943942,1270.3296703296703,-1.0,107.30120613436664,1.2266954357938396,815.1985081519947,
2023-12-20 14:07:21.675000,-24.397590361445783,-2.060240963855422,10.0,-1.3243408951563458,-8.532801961986511,4.985898221949724,3.0,1.226995226995227,814.9990953500995,-0.18751820989452864,-0.20721403181632816,0.254763708408601,1298.9010989010987,-1.0,107.30120613436664,1.2267145155012622,815.1858266812578,
2023-12-20 14:07:21.683000,-24.397590361445783,-2.0843373493975905,10.0,-1.437155119558553,-8.532801961986511,4.968730839975475,3.0,1.226995226995227,814.9990953500995,-0.5857467513548157,0.04020744711846669,0.03741040731892097,1320.14652014652,-1.0,107.30120613436664,1.2267334257561933,815.173258003607,
2023-12-20 14:07:21.690000,-24.3855421686747,-2.060240963855422,10.012048192771084,-1.2434089515634579,-8.498467198038012,4.949110974862047,3.0,1.2274392274392272,814.7042864894195,-0.12656605092943313,-0.0029135831245261186,0.07959909096206534,1329.6703296703297,-1.0,107.30120613436664,1.2267521496693006,815.1608133405358,
2023-12-20 14:07:21.698000,-24.3855421686747,-2.060240963855422,10.012048192771084,-1.3537706928264868,-8.547516860821581,4.9442060085836905,3.0,1.227883227883228,814.4096908334841,-0.2619893945574272,-0.030534351145038167,-0.01631606549734878,1331.135531135531,-1.0,107.30120613436664,1.2267706706403114,815.1485037210264,
2023-12-20 14:07:21.706000,-24.3855421686747,-2.0843373493975905,9.987951807228916,-1.356223175965665,-8.562231759656651,4.9736358062538315,3.0,1.227883227883228,814.4096908334841,-0.20080414894237003,0.07843365771225394,0.31594895402365797,1323.8095238095236,-1.0,107.30120613436664,1.2267889725760726,815.1363398367973,
2023-12-20 14:07:21.713000,-24.3855421686747,-2.072289156626506,10.024096385542169,-1.3341508277130594,-8.54996934396076,4.9515634580012255,3.0,1.227883227883228,814.4096908334841,-0.24602295903502136,-0.22434590058854412,-0.2386807295612141,1309.1575091575091,-1.0,107.30120613436664,1.2268070399492117,815.1243320031639,
2023-12-20 14:07:21.721000,-24.3855421686747,-2.072289156626506,10.012048192771084,-1.314530962599632,-8.53525444512569,4.985898221949724,3.0,1.227883227883228,814.4096908334841,-0.19835673911776724,-0.19008216304411224,-0.1793601771458538,1292.3076923076922,-1.0,107.30120613436664,1.226824857687001,815.1124902327699,
2023-12-20 14:07:21.729000,-24.3855421686747,-2.072289156626506,10.012048192771084,-1.280196198651134,-8.518087063151441,4.941753525444512,3.0,1.227883227883228,814.4096908334841,-0.106054425732766,-0.09323465998484969,0.12446827107977396,1273.9926739926739,-1.0,107.30120613436664,1.2268424111988125,815.1008242173726,
2023-12-20 14:07:21.736000,-24.3855421686747,-2.072289156626506,10.0,-1.3733905579399142,-8.599019006744328,4.946658491722869,3.0,1.227883227883228,814.4096908334841,0.04859856651710253,0.0033797564244512,-0.002447409824602122,1253.4798534798533,-1.0,107.30120613436664,1.2268596864033714,815.0893433097598,
2023-12-20 14:07:21.744000,-24.3855421686747,-2.060240963855422,10.0,-1.3169834457388105,-8.569589209074188,5.007970570202329,3.0,1.227883227883228,814.4096908334841,0.1715517743721228,-0.0533768428413255,-0.14369791970164908,1230.7692307692307,-1.0,107.30120613436664,1.2268766697557558,815.0780565058458,
2023-12-20 14:07:21.752000,-24.3855421686747,-2.060240963855422,9.987951807228916,-1.3194359288779889,-8.557326793378294,5.010423053341508,3.0,1.2283272283272282,814.1153081510935,-0.05745585921566346,0.0,-0.07039216828856126,1205.8608058608058,-1.0,107.30120613436664,1.2268933482740823,815.0669724269677,
2023-12-20 14:07:21.759000,-24.397590361445783,-2.072289156626506,10.012048192771084,-1.3243408951563458,-8.584304107909258,4.9589209074187615,3.0,1.2283272283272282,814.1153081510935,-0.2997494318512911,0.005360992949128891,0.1517394091253424,1180.2197802197802,-1.0,107.30120613436664,1.2269097097151125,815.0560992034538,
2023-12-20 14:07:21.767000,-24.3855421686747,-2.072289156626506,10.012048192771084,-1.3292458614347025,-8.496014714898834,4.978540772532188,3.0,1.2283272283272282,814.1153081510935,0.14591224287628843,-0.049880543091895206,-0.2794708933045863,1157.5091575091574,-1.0,107.30120613436664,1.2269257426219982,815.0454444429639,
2023-12-20 14:07:21.775000,-24.3855421686747,-2.0843373493975905,10.036144578313253,-1.3194359288779889,-8.564684242795831,4.9736358062538315,3.0,1.2283272283272282,814.1153081510935,0.03484645416933779,-0.10582133908280432,-0.03647806071907211,1136.9963369963368,-1.0,107.30120613436664,1.226941436212579,815.035015304556,
2023-12-20 14:07:21.782000,-24.3855421686747,-2.060240963855422,10.024096385542169,-1.3930104230533413,-8.446965052115265,5.020232985898222,3.0,1.2287712287712287,813.8211382113822,-0.024357554921041684,-0.34566750189382917,-0.1142124584814406,1117.9487179487178,-1.0,107.30120613436664,1.2269567804060113,815.0248184810292,
2023-12-20 14:07:21.790000,-24.397590361445783,-2.060240963855422,9.975903614457831,-1.3464132434089515,-8.52053954629062,5.020232985898222,3.0,1.2287712287712287,813.8211382113822,0.12808111415418746,-0.07924946098712153,-0.3144338907989047,1101.8315018315018,-1.0,107.30120613436664,1.2269717661369424,815.0148599903654,
2023-12-20 14:07:21.798000,-24.3855421686747,-2.0481927710843375,10.0,-1.3267933782955241,-8.537706928264868,5.0324954015941135,3.0,1.2287712287712287,813.8211382113822,0.3252724200221429,-0.27329409708058916,-0.5594079599090961,1092.3076923076922,-1.0,107.30120613436664,1.2269863853825356,815.0051451578764,
2023-12-20 14:07:21.805000,-24.3855421686747,-2.072289156626506,10.0,-1.3366033108522377,-8.623543838136113,4.978540772532188,3.0,1.2287712287712287,813.8211382113822,0.046500786667444005,0.049880543091895206,-0.2506846920342639,1090.10989010989,-1.0,107.30120613436664,1.2270006307634846,814.9956788813739,
2023-12-20 14:07:21.813000,-24.3855421686747,-2.0481927710843375,10.024096385542169,-1.3243408951563458,-8.540159411404046,5.015328019619865,3.0,1.2287712287712287,813.8211382113822,0.16630732474797474,-0.19637550259308956,-0.6492628634694948,1090.10989010989,-1.0,107.30120613436664,1.2270144957301194,814.9864655074034,
2023-12-20 14:07:21.821000,-24.397590361445783,-2.0843373493975905,10.024096385542169,-1.3513182096873084,-8.576946658491723,4.968730839975475,3.0,1.2292152292152292,813.527180783818,0.2699143406561397,0.04720004661733076,0.07342229473806865,1090.8424908424909,-1.0,107.30120613436664,1.227027974577286,814.977508821416,
2023-12-20 14:07:21.828000,-24.397590361445783,-2.060240963855422,10.024096385542169,-1.3709380748007356,-8.527896995708154,4.946658491722869,3.0,1.2287712287712287,813.8211382113822,-0.08426082396130792,0.10430627585804997,-0.3364605792203249,1091.5750915750914,-1.0,107.30120613436664,1.2270410626285997,814.968811925737,
2023-12-20 14:07:21.836000,-24.3855421686747,-2.0481927710843375,10.036144578313253,-1.3341508277130594,-8.545064377682403,5.000613120784794,3.0,1.2287712287712287,813.8211382113822,-0.08426082396130792,0.10057688945865627,-0.33203193287104443,1091.5750915750914,-1.0,107.30120613436664,1.22705375612179,814.9603773155021,
2023-12-20 14:07:21.844000,-24.3855421686747,-2.072289156626506,10.036144578313253,-1.3267933782955241,-8.50091968117719,4.985898221949724,3.0,1.2292152292152292,813.527180783818,-0.17737894062117676,0.3100052444496238,-0.4181574500320492,1087.9120879120878,-1.0,107.30120613436664,1.227066051943587,814.9522070546107,
2023-12-20 14:07:21.851000,-24.3855421686747,-2.0481927710843375,10.012048192771084,-1.290006131207848,-8.552421827099938,5.000613120784794,3.0,1.2292152292152292,813.527180783818,0.06712895518909198,0.15208903910028493,-0.1842549967950587,1082.051282051282,-1.0,107.30120613436664,1.2270779480871736,814.9443024723645,
2023-12-20 14:07:21.859000,-24.3855421686747,-2.0481927710843375,10.012048192771084,-1.3047210300429184,-8.493562231759656,4.983445738810546,3.0,1.2296592296592297,813.2334356382019,0.2172367577646992,0.05535807936600493,-0.379348522813356,1074.7252747252746,-1.0,107.30120613436664,1.2270894436927013,814.9366641366425,
2023-12-20 14:07:21.867000,-24.3855421686747,-2.060240963855422,9.975903614457831,-1.2998160637645615,-8.537706928264868,4.954015941140405,3.0,1.2296592296592297,813.2334356382019,0.1687547345725775,0.26746693083153694,-0.05174523629159119,1067.3992673992673,-1.0,107.30120613436664,1.2271005392153207,814.9292917422713,
2023-12-20 14:07:21.874000,-24.3855421686747,-2.060240963855422,9.987951807228916,-1.30226854690374,-8.522992029429798,4.954015941140405,3.0,1.23010323010323,812.9399025446671,0.31909562379814643,0.022259775071383155,-0.3070916613250977,1061.5384615384614,-1.0,107.30120613436664,1.2271112363050687,814.9221841911018,
2023-12-20 14:07:21.882000,-24.3855421686747,-2.060240963855422,10.0,-1.3194359288779889,-8.594114040465971,4.946658491722869,3.0,1.23010323010323,812.9399025446671,0.2259775071382793,0.32806945982168817,-0.26956471068119586,1058.6080586080586,-1.0,107.30120613436664,1.2271215377068974,814.9153396587136,
2023-12-20 14:07:21.889000,-24.3855421686747,-2.0481927710843375,10.024096385542169,-1.314530962599632,-8.594114040465971,4.941753525444512,3.0,1.23010323010323,812.9399025446671,0.6658120156168048,0.4310937591049472,-0.1251675310296605,1063.003663003663,-1.0,107.30120613436664,1.2271314475857789,814.9087553782499,
2023-12-20 14:07:21.897000,-24.3855421686747,-2.060240963855422,10.012048192771084,-1.2998160637645615,-8.540159411404046,5.007970570202329,3.0,1.23010323010323,812.9399025446671,0.0949828098595657,0.38214556261290217,-0.12015616805547433,1078.3882783882784,-1.0,107.30120613436664,1.2271409713825592,814.9024277358056,
2023-12-20 14:07:21.905000,-24.397590361445783,-2.0481927710843375,10.012048192771084,-1.290006131207848,-8.591661557326793,4.97608828939301,3.0,1.2305472305472307,812.6465812736785,0.215605151214964,0.0023308664996219363,-0.3615173940912538,1110.6227106227107,-1.0,107.30120613436664,1.227150115679073,814.8963523602577,
2023-12-20 14:07:21.912000,-24.3855421686747,-2.024096385542169,10.0,-1.3267933782955241,-8.532801961986511,5.010423053341508,3.0,1.2305472305472307,812.6465812736785,0.3513781248179006,0.18926635976924464,-0.03577880076918579,1170.6959706959706,-1.0,107.30120613436664,1.2271588883595943,814.8905240166084,
2023-12-20 14:07:21.920000,-24.3855421686747,-2.036144578313253,10.024096385542169,-1.3169834457388105,-8.608828939301041,5.027590435315757,3.0,1.2305472305472307,812.6465812736785,-0.04848202319212169,-0.03682769069401549,-0.0011654332498109681,1263.003663003663,-1.0,107.30120613436664,1.227167298642434,814.8849365851326,
2023-12-20 14:07:21.928000,-24.3855421686747,-2.0481927710843375,10.036144578313253,-1.2998160637645615,-8.574494175352545,5.000613120784794,3.0,1.230991230991231,812.3534715960325,0.08915564361051173,-0.12749839752928155,-0.18204067362041804,1392.6739926739926,-1.0,107.30120613436664,1.2271753569499824,814.8795831472522,
2023-12-20 14:07:21.935000,-24.3855421686747,-2.036144578313253,10.012048192771084,-1.3096259963212753,-8.513182096873084,4.9589209074187615,3.0,1.230991230991231,812.3534715960325,-0.051395606316647816,-0.646815453644892,0.3859914923372761,1554.5787545787546,-1.0,107.30120613436664,1.2271830750641872,814.8744558829271,
2023-12-20 14:07:21.943000,-24.3855421686747,-2.024096385542169,10.0,-1.2973635806253832,-8.493562231759656,5.0324954015941135,3.0,1.230991230991231,812.3534715960325,-0.14113396655206545,-0.5533477070100807,0.12446827107977396,1742.124542124542,-1.0,107.30120613436664,1.2271904661518225,814.8695460540106,
2023-12-20 14:07:21.951000,-24.3855421686747,-2.036144578313253,10.036144578313253,-1.3047210300429184,-8.513182096873084,5.007970570202329,3.0,1.2314352314352313,812.0605732828557,-0.29089213915273016,0.10465590583299422,-0.040673620418390684,1941.3919413919414,-1.0,107.30120613436664,1.227197544766612,814.8648440021033,
2023-12-20 14:07:21.958000,-24.397590361445783,-2.024096385542169,10.012048192771084,-1.2875536480686696,-8.545064377682403,5.000613120784794,3.0,1.2314352314352313,812.0605732828557,-0.13693840685274666,-0.09929491288386533,-0.18938290309422504,2136.996336996337,-1.0,107.30120613436664,1.227204326838553,814.8603391566426,
2023-12-20 14:07:21.966000,-24.3855421686747,-2.036144578313253,10.024096385542169,-1.2924586143470262,-8.554874310239116,5.025137952176578,3.0,1.2314352314352313,812.0605732828557,-0.14987471592564555,0.08111415418681839,0.22516170386341106,2317.2161172161173,-1.0,107.30120613436664,1.227210829564217,814.8560201081389,
2023-12-20 14:07:21.974000,-24.397590361445783,-2.036144578313253,10.024096385542169,-1.3169834457388105,-8.522992029429798,5.0226854690374,3.0,1.2314352314352313,812.0605732828557,-0.08647514713594728,-0.30790746459996526,-0.14101742322708463,2469.5970695970695,-1.0,107.30120613436664,1.2272170714115336,814.8518746041759,
2023-12-20 14:07:21.981000,-24.3855421686747,-2.024096385542169,10.048192771084338,-1.2949110974862048,-8.530349478847333,5.017780502759043,3.0,1.230991230991231,812.3534715960325,0.21886836431443438,-0.08146378416176263,0.09218577006001999,2580.21978021978,-1.0,107.30120613436664,1.2272230721107555,814.8478895554701,
2023-12-20 14:07:21.989000,-24.3855421686747,-2.0481927710843375,10.060240963855422,-1.2924586143470262,-8.518087063151441,5.042305334150828,3.0,1.2314352314352313,812.0605732828557,0.06642969523920522,0.11444554513140184,-0.05827166249053062,2644.6886446886447,-1.0,107.30120613436664,1.2272288527702078,814.84405095783,
2023-12-20 14:07:21.997000,-24.3855421686747,-2.0481927710843375,10.048192771084338,-1.2483139178418148,-8.510729613733906,5.007970570202329,3.0,1.2318792318792318,811.7678861056047,0.0510459763417053,0.01736495542217761,0.21956762426432028,2663.7362637362635,-1.0,107.30120613436664,1.2272344358081606,814.8403439384167,
2023-12-20 14:07:22.004000,-24.3855421686747,-2.0481927710843375,10.048192771084338,-1.2679337829552422,-8.52053954629062,4.998160637645616,3.0,1.2318792318792318,811.7678861056047,-0.00967309597342852,-0.049880543091895206,-0.14661150282617583,2637.362637362637,-1.0,107.30120613436664,1.2272398449657158,814.8367527492361,
2023-12-20 14:07:22.012000,-24.3855421686747,-2.0481927710843375,10.060240963855422,-1.3267933782955241,-8.52053954629062,5.071735131820969,3.0,1.2323232323232323,811.4754098360656,0.09976108618378868,-0.08379465066138284,0.012120505798030423,2570.6959706959706,-1.0,107.30120613436664,1.2272451053163524,814.8332607599901,
2023-12-20 14:07:22.020000,-24.3855421686747,-2.036144578313253,10.072289156626507,-1.2924586143470262,-8.54996934396076,5.007970570202329,3.0,1.2323232323232323,811.4754098360656,0.34578404521881,0.17260066429695206,0.07808402773731143,2472.5274725274726,-1.0,107.30120613436664,1.2272502431124,814.8298505604654,
2023-12-20 14:07:22.027000,-24.3855421686747,-2.036144578313253,10.036144578313253,-1.2654812998160636,-8.52053954629062,5.007970570202329,3.0,1.2327672327672328,811.1831442463533,0.09882873958394024,-0.07552007458772783,-0.07260649146320128,2349.4505494505493,-1.0,107.30120613436664,1.227255285797903,814.8265039521096,
2023-12-20 14:07:22.035000,-24.397590361445783,-2.036144578313253,10.036144578313253,-1.2949110974862048,-8.515634580012263,4.985898221949724,3.0,1.2327672327672328,811.1831442463533,-0.02214323174640232,0.07633587786259542,0.14684458947613774,2206.5934065934066,-1.0,107.30120613436664,1.2272602621353208,814.8232018638096,
2023-12-20 14:07:22.043000,-24.3855421686747,-2.036144578313253,10.036144578313253,-1.2826486817903127,-8.498467198038012,4.988350705088902,3.0,1.2332112332112333,810.8910891089109,-0.14323174640172398,0.33343045277081707,-0.004428646349280247,2052.747252747253,-1.0,107.30120613436664,1.2272652021904171,814.8199243620994,
2023-12-20 14:07:22.050000,-24.3855421686747,-2.036144578313253,10.036144578313253,-1.3218884120171672,-8.532801961986511,5.000613120784794,3.0,1.2327672327672328,811.1831442463533,0.13239321717848537,0.2835499096789236,-0.09486626653458444,1893.7728937728937,-1.0,107.30120613436664,1.2272701373036177,814.816650670372,
2023-12-20 14:07:22.058000,-24.397590361445783,-2.036144578313253,10.0,-1.3267933782955241,-8.562231759656651,5.015328019619865,3.0,1.2332112332112333,810.8910891089109,-0.09649787308431831,0.5062642037177325,-0.3222422935726355,1737.7289377289376,-1.0,107.30120613436664,1.227275099919632,814.8133592812749,
2023-12-20 14:07:22.066000,-24.3855421686747,-2.0481927710843375,10.048192771084338,-1.2973635806253832,-8.564684242795831,5.037400367872471,3.0,1.2332112332112333,810.8910891089109,-0.03274867431967753,0.2061651418914989,-0.08764058038575846,1587.5457875457873,-1.0,107.30120613436664,1.2272801235310424,814.8100279941584,
2023-12-20 14:07:22.073000,-24.397590361445783,-2.060240963855422,10.0,-1.2973635806253832,-8.569589209074188,5.044757817290006,3.0,1.2336552336552336,810.599244196509,0.04416992016782207,0.031117067769944086,-0.45183847095157625,1448.3516483516482,-1.0,107.30120613436664,1.2272852427885097,814.8066338429502,
2023-12-20 14:07:22.081000,-24.3855421686747,-2.036144578313253,10.036144578313253,-1.2973635806253832,-8.522992029429798,5.027590435315757,3.0,1.2336552336552336,810.599244196509,0.0451022667676705,0.22213157741390302,0.21082687489074062,1323.076923076923,-1.0,107.30120613436664,1.2272904934587028,814.8031531242729,
2023-12-20 14:07:22.089000,-24.3855421686747,-2.036144578313253,10.012048192771084,-1.3071735131820967,-8.572041692213366,5.071735131820969,3.0,1.2336552336552336,810.599244196509,-0.24439135248528618,-0.27410990035545674,-0.3371598391702114,1211.7216117216117,-1.0,107.30120613436664,1.227295912389887,814.7995614204937,
2023-12-20 14:07:22.096000,-24.3855421686747,-2.0120481927710845,10.036144578313253,-1.2826486817903127,-8.527896995708154,4.990803188228081,3.0,1.234099234099234,810.307609282245,0.12132160130528508,-0.1687547345725775,-0.07237340481323938,1112.8205128205127,-1.0,107.30120613436664,1.2273015373148777,814.7958337296864,
2023-12-20 14:07:22.104000,-24.3855421686747,-2.024096385542169,10.024096385542169,-1.2924586143470262,-8.54996934396076,4.9662783568362965,3.0,1.234099234099234,810.307609282245,-0.42806363265544023,-0.1256337043295847,0.05162869296661036,1027.106227106227,-1.0,107.30120613436664,1.2273074069385497,814.7919444086388,
2023-12-20 14:07:22.112000,-24.3855421686747,-2.0120481927710845,10.036144578313253,-1.3586756591048437,-8.54996934396076,5.039852851011649,3.0,1.234099234099234,810.307609282245,-0.42386807295612144,-0.12609987762950806,0.054658819416117964,955.3113553113552,-1.0,107.30120613436664,1.227313560894471,814.7878672018512,
2023-12-20 14:07:22.119000,-24.3855421686747,-2.0120481927710845,10.036144578313253,-1.2875536480686696,-8.493562231759656,5.0226854690374,3.0,1.234099234099234,810.307609282245,-0.08530971388613719,-0.26432026105704737,0.17551424742147884,898.9010989010989,-1.0,107.30120613436664,1.2273200395391635,814.7835753771965,
2023-12-20 14:07:22.127000,-24.397590361445783,-2.0120481927710845,10.048192771084338,-1.2630288166768853,-8.559779276517473,5.052115266707541,3.0,1.2345432345432346,810.0161841395433,-0.08181341413670515,-0.5992657770526187,0.130178894003846,858.6080586080585,-1.0,107.30120613436664,1.2273268838819185,814.7790417725608,
2023-12-20 14:07:22.135000,-24.3855421686747,-2.0120481927710845,10.072289156626507,-1.2630288166768853,-8.56713672593501,5.042305334150828,3.0,1.2336552336552336,810.599244196509,0.30184721170094964,-0.5214148359652707,-0.13052852397878917,832.9670329670329,-1.0,107.30120613436664,1.2273341356607672,814.7742387465707,
2023-12-20 14:07:22.142000,-24.3855421686747,-2.0,10.060240963855422,-1.1747394236664623,-8.540159411404046,5.034947884733292,3.0,1.2345432345432346,810.0161841395433,0.06992599498863726,-0.3507954081929964,0.1482431093759106,818.3150183150183,-1.0,107.30120613436664,1.227341837128125,814.7691383186416,
2023-12-20 14:07:22.150000,-24.3855421686747,-2.0120481927710845,10.072289156626507,-1.2654812998160636,-8.547516860821581,5.039852851011649,3.0,1.2345432345432346,810.0161841395433,0.19404463609346762,-0.517219276265952,-0.29438843890216176,813.9194139194138,-1.0,107.30120613436664,1.2273500310687961,814.7637121579135,
2023-12-20 14:07:22.158000,-24.3855421686747,-1.9879518072289157,10.072289156626507,-1.2728387492335989,-8.547516860821581,5.057020232985898,3.0,1.2349872349872348,809.7249685421535,0.3002156051512144,-0.054891906066079854,-0.2773731134549269,820.5128205128204,-1.0,107.30120613436664,1.2273587607506944,814.7579316188857,
2023-12-20 14:07:22.165000,-24.3855421686747,-2.0,10.060240963855422,-1.2630288166768853,-8.527896995708154,5.030042918454935,3.0,1.2354312354312353,809.433962264151,-0.053493386166308075,0.15989744187401658,-0.321193403647806,836.6300366300366,-1.0,107.30120613436664,1.2273680697347262,814.751767866778,
2023-12-20 14:07:22.173000,-24.3855421686747,-1.9879518072289157,10.060240963855422,-1.260576333537707,-8.498467198038012,5.010423053341508,3.0,1.2349872349872348,809.7249685421535,0.4969407377192465,0.08262921741157274,-0.28809509935318445,861.5384615384614,-1.0,107.30120613436664,1.227378002108986,814.7451917231901,
2023-12-20 14:07:22.181000,-24.3855421686747,-1.9879518072289157,10.036144578313253,-1.30226854690374,-8.537706928264868,5.030042918454935,3.0,1.2354312354312353,809.433962264151,-0.026455334770700212,0.631548278072373,-0.8035662257444204,892.3076923076923,-1.0,107.30120613436664,1.2273886021356473,814.7381738983406,
2023-12-20 14:07:22.188000,-24.3855421686747,-1.9879518072289157,10.024096385542169,-1.285101164929491,-8.54996934396076,5.030042918454935,3.0,1.2354312354312353,809.433962264151,0.21770293106462255,0.5328360818134136,-0.6726880717906881,933.3333333333333,-1.0,107.30120613436664,1.2273999141523597,814.730685056443,
2023-12-20 14:07:22.196000,-24.3855421686747,-2.0,10.060240963855422,-1.2654812998160636,-8.508277130594728,5.057020232985898,3.0,1.2358752358752358,809.1431650799354,-0.07109142823844736,0.5268923722393805,-0.7100984791096089,978.7545787545787,559.173583984375,107.30120613436664,1.227411982642222,814.7226957705917,
2023-12-20 14:07:22.204000,-24.3855421686747,-2.024096385542169,10.036144578313253,-1.2581238503985284,-8.532801961986511,4.96137339055794,3.0,1.2358752358752358,809.1431650799354,-0.023075578346250746,0.629800128197657,-0.2605908746576541,1030.03663003663,-1.0,107.30120613436664,1.2274248520148887,814.7141766684426,
2023-12-20 14:07:22.211000,-24.3855421686747,-2.024096385542169,10.024096385542169,-1.3684855916615573,-8.508277130594728,4.990803188228081,3.0,1.2363192363192361,808.8525767642307,0.11456208845638441,0.45743255055066656,-0.7324747975059729,1084.2490842490843,-1.0,107.30120613436664,1.2274385665567553,814.7050984654167,
2023-12-20 14:07:22.219000,-24.3855421686747,-2.024096385542169,10.036144578313253,-1.3366033108522377,-8.52053954629062,4.985898221949724,3.0,1.2363192363192361,808.8525767642307,-0.19089796631897982,0.19392809276848677,-0.3601188741914807,1138.4615384615383,-1.0,107.30120613436664,1.22745317049791,814.6954319201639,
2023-12-20 14:07:22.227000,-24.3855421686747,-2.024096385542169,10.024096385542169,-1.2949110974862048,-8.513182096873084,5.027590435315757,3.0,1.2367632367632366,808.562197092084,0.04079016374337087,-0.05197832294155373,-0.6912184604626771,1188.278388278388,-1.0,107.30120613436664,1.2274687079404607,814.6851478823127,
2023-12-20 14:07:22.234000,-24.3855421686747,-2.024096385542169,10.012048192771084,-1.285101164929491,-8.54996934396076,4.9957081545064375,3.0,1.2363192363192361,808.8525767642307,0.1764465940213266,-0.1117650486568374,-0.27201212050579776,1232.2344322344322,-1.0,107.30120613436664,1.2274852227767379,814.6742173469031,
2023-12-20 14:07:22.242000,-24.3855421686747,-2.024096385542169,10.036144578313253,-1.3218884120171672,-8.527896995708154,4.9957081545064375,3.0,1.2367632367632366,808.562197092084,0.037993123943825584,-0.07750131111240552,-0.3164151273235824,1268.131868131868,-1.0,107.30120613436664,1.227502758469415,814.6626115990583,
2023-12-20 14:07:22.250000,-24.3855421686747,-2.036144578313253,10.060240963855422,-1.2385039852851012,-8.579399141630901,5.005518087063151,3.0,1.2367632367632366,808.562197092084,0.06899364838878884,-0.5510168405104605,-0.33040032632130967,1295.970695970696,-1.0,107.30120613436664,1.2275213579494368,814.6503022815837,
2023-12-20 14:07:22.257000,-24.3855421686747,-2.024096385542169,10.072289156626507,-1.314530962599632,-8.525444512568976,4.998160637645616,3.0,1.2372072372072371,808.272025838866,-0.390536682011538,-0.13204358720354287,-0.28261756307907454,1312.8205128205127,-1.0,107.30120613436664,1.2275410636846198,814.6372613509335,
2023-12-20 14:07:22.265000,-24.3855421686747,-2.0120481927710845,10.048192771084338,-1.3415082771305946,-8.542611894543224,5.012875536480687,3.0,1.2372072372072371,808.272025838866,-0.2044169920167829,-0.3312161295961777,-0.5845813181050055,1320.8791208791208,-1.0,107.30120613436664,1.2275619176002193,814.6234611300367,
2023-12-20 14:07:22.272000,-24.3855421686747,-2.024096385542169,10.072289156626507,-1.25567136725935,-8.542611894543224,5.061925199264254,3.0,1.2372072372072371,808.272025838866,-0.11048307208204645,-0.22026688421420615,-0.5789872385059144,1321.6117216117216,-1.0,107.30120613436664,1.2275839610115595,814.6088743531591,
2023-12-20 14:07:22.280000,-24.397590361445783,-2.024096385542169,10.072289156626507,-1.2458614347026364,-8.579399141630901,5.030042918454935,3.0,1.2376512376512376,807.9820627802691,-0.06444845871452753,0.04347066021793532,-0.16292756832352398,1318.6813186813185,-1.0,107.30120613436664,1.227607234398582,814.5934743140429,
2023-12-20 14:07:22.288000,-24.397590361445783,-2.024096385542169,10.084337349397591,-1.3071735131820967,-8.53525444512569,5.0226854690374,3.0,1.2372072372072371,808.272025838866,0.08775712371073996,0.27527533360526857,-0.37491987646407554,1311.3553113553112,-1.0,107.30120613436664,1.2276317773309138,814.577234917304,
2023-12-20 14:07:22.295000,-24.3855421686747,-2.036144578313253,10.084337349397591,-1.3169834457388105,-8.562231759656651,5.047210300429184,3.0,1.2376512376512376,807.9820627802691,0.19299574616863835,0.33739292582017416,-0.6921508070625251,1301.098901098901,-1.0,107.30120613436664,1.2276576285541925,814.5601306192332,
2023-12-20 14:07:22.303000,-24.3855421686747,-2.024096385542169,10.072289156626507,-1.3194359288779889,-8.557326793378294,5.025137952176578,3.0,1.2376512376512376,807.9820627802691,-0.12843074412913,0.6578870695180941,-0.33634403589534406,1287.179487179487,-1.0,107.30120613436664,1.2276848258662716,814.5421365098409,
2023-12-20 14:07:22.311000,-24.3855421686747,-2.024096385542169,10.048192771084338,-1.25567136725935,-8.545064377682403,5.005518087063151,3.0,1.238095238095238,807.6923076923077,-0.037060777343977155,0.5344676883631487,-0.3970631082104774,1268.131868131868,-1.0,107.30120613436664,1.2277134059202908,814.5232284455219,
2023-12-20 14:07:22.318000,-24.3855421686747,-2.024096385542169,10.012048192771084,-1.20907418761496,-8.530349478847333,5.007970570202329,3.0,1.238095238095238,807.6923076923077,0.010372355923315273,0.5042829671930549,-0.3299341530213857,1246.8864468864467,-1.0,107.30120613436664,1.2277434041683604,814.5033830863782,
2023-12-20 14:07:22.326000,-24.3855421686747,-2.0120481927710845,10.048192771084338,-1.2360515021459226,-8.449417535254444,5.005518087063151,3.0,1.2385392385392384,807.4027603513175,0.1630441116485061,0.5682652526076573,-0.31268574092418866,1224.1758241758241,-1.0,107.30120613436664,1.2277748548284402,814.4825779182489,
2023-12-20 14:07:22.334000,-24.3855421686747,-2.0120481927710845,10.048192771084338,-1.3415082771305946,-8.559779276517473,5.025137952176578,3.0,1.2385392385392384,807.4027603513175,0.10244158265835313,0.21712021443971838,-0.49402715459472085,1200.7326007326008,-1.0,107.30120613436664,1.2278077909713412,814.4607911947921,
2023-12-20 14:07:22.341000,-24.3855421686747,-2.0120481927710845,10.048192771084338,-1.3390557939914163,-8.547516860821581,4.963825873697118,3.0,1.2385392385392384,807.4027603513175,0.33168230289610107,0.4030068177845118,-0.2583765514830135,1177.2893772893772,-1.0,107.30120613436664,1.2278422444723875,814.438001969633,
2023-12-20 14:07:22.349000,-24.3855421686747,-2.0120481927710845,10.060240963855422,-1.25567136725935,-8.569589209074188,4.988350705088902,3.0,1.2385392385392384,807.4027603513175,0.024124468271080012,0.2961365887768782,-0.2825010197540937,1154.5787545787546,-1.0,107.30120613436664,1.2278782458068611,814.4141902303261,
2023-12-20 14:07:22.357000,-24.3855421686747,-2.024096385542169,10.060240963855422,-1.2434089515634579,-8.52053954629062,5.042305334150828,3.0,1.238983238983239,807.1134205339546,0.08321193403647865,0.4338907989044925,-0.6437853271953847,1134.065934065934,-1.0,107.30120613436664,1.2279158239871573,814.3893369398565,
2023-12-20 14:07:22.364000,-24.3855421686747,-2.024096385542169,10.072289156626507,-1.2924586143470262,-8.510729613733906,5.039852851011649,3.0,1.238983238983239,807.1134205339546,-0.01200396247304872,0.29252374570246537,-0.3308664996212341,1117.2161172161173,-1.0,107.30120613436664,1.2279550066522635,814.3634239788139,
2023-12-20 14:07:22.372000,-24.397590361445783,-2.0120481927710845,10.072289156626507,-1.3047210300429184,-8.564684242795831,5.020232985898222,3.0,1.238983238983239,807.1134205339546,-0.028902744595302985,0.7161587320086235,-0.23285356331216167,1103.2967032967033,-1.0,107.30120613436664,1.2279958200328893,814.3364341685483,
2023-12-20 14:07:22.380000,-24.3855421686747,-2.024096385542169,10.036144578313253,-1.2654812998160636,-8.518087063151441,5.000613120784794,3.0,1.2394272394272392,806.8242880171952,-0.013985198997728147,0.7554338325272417,-0.5946040440533771,1093.040293040293,-1.0,107.30120613436664,1.2280382886220012,814.3083514880171,
2023-12-20 14:07:22.387000,-24.3855421686747,-2.024096385542169,10.036144578313253,-1.2752912323727774,-8.562231759656651,5.0324954015941135,3.0,1.2394272394272392,806.8242880171952,-0.015150632247538248,0.7492570363032451,-0.5871452712545886,1083.5164835164835,-1.0,107.30120613436664,1.2280824354345854,814.2791609028498,
2023-12-20 14:07:22.395000,-24.3855421686747,-2.0120481927710845,10.072289156626507,-1.2654812998160636,-8.576946658491723,5.037400367872471,3.0,1.2394272394272392,806.8242880171952,-0.3048773381504566,0.053959559466231426,-0.5329526251383955,1076.923076923077,-1.0,107.30120613436664,1.2281282821117796,814.2488482961139,
2023-12-20 14:07:22.403000,-24.3855421686747,-2.0120481927710845,10.060240963855422,-1.3292458614347025,-8.579399141630901,5.037400367872471,3.0,1.2394272394272392,806.8242880171952,-0.08997144688537932,0.6341122312219566,-0.2962531321018586,1071.7948717948718,-1.0,107.30120613436664,1.2281758484538943,814.2174007764407,
2023-12-20 14:07:22.410000,-24.3855421686747,-2.0120481927710845,10.060240963855422,-1.2949110974862048,-8.557326793378294,5.000613120784794,3.0,1.2398712398712397,806.5353625783349,-0.36513023716566706,0.3070916613250977,-0.4756133092477129,1068.131868131868,-1.0,107.30120613436664,1.228225152404067,814.1848066885382,
2023-12-20 14:07:22.418000,-24.3855421686747,-2.0120481927710845,10.048192771084338,-1.2703862660944205,-8.513182096873084,5.037400367872471,3.0,1.2398712398712397,806.5353625783349,-0.3020802983509113,0.4095332439834508,-0.7303770176563139,1065.9340659340658,-1.0,107.30120613436664,1.2282762103122238,814.1510554394847,
2023-12-20 14:07:22.426000,-24.3855421686747,-2.024096385542169,10.048192771084338,-1.2654812998160636,-8.50091968117719,5.025137952176578,3.0,1.2398712398712397,806.5353625783349,0.11339665520657258,0.49495950119456883,-0.6154652992249869,1068.131868131868,-1.0,107.30120613436664,1.2283290369258855,814.1161375047576,
2023-12-20 14:07:22.433000,-24.397590361445783,-2.0120481927710845,10.060240963855422,-1.2409564684242795,-8.540159411404046,5.0030656039239725,3.0,1.2398712398712397,806.5353625783349,0.18880018646931956,0.5803857584056868,-1.0649729036769418,1068.131868131868,-1.0,107.30120613436664,1.2283836452255266,814.0800445353491,
2023-12-20 14:07:22.441000,-24.3855421686747,-2.0120481927710845,10.012048192771084,-1.3243408951563458,-8.515634580012263,4.983445738810546,3.0,1.2394272394272392,806.8242880171952,0.10931763883223636,0.7435464133791738,-0.5943709574034145,1068.8644688644688,-1.0,107.30120613436664,1.228440046402258,814.0427693721952,
2023-12-20 14:07:22.449000,-24.3855421686747,-2.0120481927710845,10.0,-1.260576333537707,-8.59656652360515,5.030042918454935,3.0,1.2398712398712397,806.5353625783349,0.03333139094458345,0.9068236116776416,-0.5123244566167475,1069.5970695970695,-1.0,107.30120613436664,1.2284982499672297,814.0043059709554,
2023-12-20 14:07:22.456000,-24.3855421686747,-2.0,10.060240963855422,-1.3096259963212753,-8.50091968117719,5.000613120784794,3.0,1.2403152403152402,806.2466439949884,0.24695530563486978,0.7324747975059734,-0.5075461802925239,1070.3296703296703,-1.0,107.30120613436664,1.2285582636841088,813.9646494482722,
2023-12-20 14:07:22.464000,-24.3855421686747,-2.024096385542169,10.048192771084338,-1.2654812998160636,-8.515634580012263,5.047210300429184,3.0,1.2403152403152402,806.2466439949884,0.018646931996970283,0.8046151156692501,-0.6698910319911426,1073.9926739926739,-1.0,107.30120613436664,1.228620093450792,813.9237961642807,
2023-12-20 14:07:22.472000,-24.3855421686747,-2.0120481927710845,10.048192771084338,-1.2434089515634579,-8.52053954629062,4.9957081545064375,3.0,1.2403152403152402,806.2466439949884,0.30930598449973706,0.8609055416351035,-0.7090495891847791,1081.3186813186812,-1.0,107.30120613436664,1.228683743482654,813.8817435987115,
2023-12-20 14:07:22.479000,-24.3855421686747,-2.024096385542169,10.084337349397591,-1.2581238503985284,-8.579399141630901,5.039852851011649,3.0,1.2407592407592405,805.9581320450886,0.20045451896742578,0.6591690460928851,-0.7632422353009729,1099.6336996336995,-1.0,107.30120613436664,1.228749216158857,813.8384904505743,
2023-12-20 14:07:22.487000,-24.397590361445783,-2.024096385542169,10.060240963855422,-1.3071735131820967,-8.483752299202942,5.0030656039239725,3.0,1.2407592407592405,805.9581320450886,-0.5357496649379414,0.9591515645941379,-0.7568323524270143,1137.7289377289376,-1.0,107.30120613436664,1.2288165120419836,813.7940366268181,
2023-12-20 14:07:22.495000,-24.3855421686747,-2.0,10.072289156626507,-1.3439607602697732,-8.491109748620477,5.08399754751686,3.0,1.2407592407592405,805.9581320450886,-0.16549152147310714,0.7413320902045327,-0.29054250917778723,1208.7912087912086,-1.0,107.30120613436664,1.2288856300498703,813.7483831279769,
2023-12-20 14:07:22.502000,-24.3855421686747,-2.0,10.060240963855422,-1.314530962599632,-8.522992029429798,5.088902513795217,3.0,1.2407592407592405,805.9581320450886,-0.23937998951110154,0.692850067012411,-0.528873608764058,1316.4835164835165,-1.0,107.30120613436664,1.2289565673219733,813.7015321344395,
2023-12-20 14:07:22.510000,-24.3855421686747,-2.0,10.060240963855422,-1.2654812998160636,-8.515634580012263,5.044757817290006,3.0,1.2407592407592405,805.9581320450886,-0.16257793834858103,0.7966901695705376,-0.6906357438377716,1458.6080586080584,-1.0,107.30120613436664,1.2290293192272557,813.6534870007014,
2023-12-20 14:07:22.518000,-24.3855421686747,-2.0120481927710845,10.072289156626507,-1.290006131207848,-8.508277130594728,5.0030656039239725,3.0,1.2412032412032412,805.6698265068861,-0.3745702464891322,0.6866732707884162,-0.4567332906007805,1625.6410256410256,-1.0,107.30120613436664,1.2291038793747049,813.6042522478596,
2023-12-20 14:07:22.525000,-24.397590361445783,-2.0120481927710845,10.048192771084338,-1.2335990190067443,-8.50091968117719,5.039852851011649,3.0,1.2412032412032412,805.6698265068861,-0.4622108268748913,1.295495600489481,-0.8793193869821108,1810.2564102564102,-1.0,107.30120613436664,1.229180239775574,813.5538334575352,
2023-12-20 14:07:22.533000,-24.3855421686747,-2.0120481927710845,10.036144578313253,-1.2434089515634579,-8.50091968117719,5.0226854690374,3.0,1.2412032412032412,805.6698265068861,-0.48785035837072394,1.1331507487908634,-0.8584581318105002,1996.3369963369962,-1.0,107.30120613436664,1.2292583908804808,813.5022372470069,
2023-12-20 14:07:22.541000,-24.397590361445783,-2.0,10.048192771084338,-1.2777437155119558,-8.491109748620477,5.086450030656039,3.0,1.2412032412032412,805.6698265068861,-0.1968416758930129,1.2931647339898609,-0.9274517801992889,2175.091575091575,-1.0,107.30120613436664,1.2293383214596547,813.4494713461512,
2023-12-20 14:07:22.548000,-24.3855421686747,-2.024096385542169,10.048192771084338,-1.2335990190067443,-8.552421827099938,5.042305334150828,3.0,1.2416472416472415,805.3817271589487,-0.01281976574791631,1.2212575024765457,-1.0887477419730787,2332.6007326007325,-1.0,107.30120613436664,1.2294200186240294,813.395544582881,
2023-12-20 14:07:22.556000,-24.3855421686747,-2.024096385542169,10.048192771084338,-1.3096259963212753,-8.552421827099938,5.020232985898222,3.0,1.2416472416472415,805.3817271589487,-0.13484062700308813,1.2255696055008454,-1.0659052502767905,2460.07326007326,-1.0,107.30120613436664,1.2295034679975443,813.340466770439,
2023-12-20 14:07:22.564000,-24.3855421686747,-2.036144578313253,10.012048192771084,-1.3267933782955241,-8.572041692213366,5.061925199264254,3.0,1.2416472416472415,805.3817271589487,0.17341646757181964,0.7871336169220899,-0.646698910319911,2550.915750915751,-1.0,107.30120613436664,1.2295886537637541,813.2842486761996,
2023-12-20 14:07:22.571000,-24.3855421686747,-2.036144578313253,10.048192771084338,-1.2532188841201717,-8.513182096873084,5.057020232985898,3.0,1.2416472416472415,805.3817271589487,-0.009206922673503438,0.7641745819008218,-0.9329293164733988,2601.4652014652015,-1.0,107.30120613436664,1.2296755585550372,813.2269020925802,
2023-12-20 14:07:22.579000,-24.3855421686747,-2.036144578313253,10.036144578313253,-1.285101164929491,-8.493562231759656,5.017780502759043,3.0,1.2416472416472415,805.3817271589487,-0.17598042072140324,0.7258318279820519,-0.8811840801818078,2611.7216117216117,-1.0,107.30120613436664,1.2297641633433658,813.1684399090054,
2023-12-20 14:07:22.587000,-24.397590361445783,-2.036144578313253,10.048192771084338,-1.3292458614347025,-8.513182096873084,5.061925199264254,3.0,1.2420912420912418,805.0938337801609,0.28203484645416926,0.7959909096206509,-0.7374861604801581,2584.6153846153843,-1.0,107.30120613436664,1.2298544476303066,813.1088759851791,
2023-12-20 14:07:22.594000,-24.397590361445783,-2.0481927710843375,10.012048192771084,-1.3218884120171672,-8.56713672593501,4.9957081545064375,3.0,1.2416472416472415,805.3817271589487,-0.24031233611094996,1.0941087349222067,-0.5034671639181868,2517.948717948718,-1.0,107.30120613436664,1.229946389617232,813.048225039816,
2023-12-20 14:07:22.602000,-24.3855421686747,-2.060240963855422,10.036144578313253,-1.2924586143470262,-8.525444512568976,4.990803188228081,3.0,1.2416472416472415,805.3817271589487,-0.011304702523163701,0.8088106753685689,-0.7578812423518448,2420.5128205128203,-1.0,107.30120613436664,1.2300399662597525,812.9865026118728,
2023-12-20 14:07:22.610000,-24.3855421686747,-2.024096385542169,10.036144578313253,-1.280196198651134,-8.547516860821581,5.091354996934395,3.0,1.2416472416472415,805.3817271589487,-0.05547462269098577,0.7412155468795536,-0.7205873783579043,2297.4358974358975,-1.0,107.30120613436664,1.2301351531113498,812.9237251613895,
2023-12-20 14:07:22.617000,-24.3855421686747,-2.0120481927710845,10.024096385542169,-1.3218884120171672,-8.530349478847333,4.990803188228081,3.0,1.2420912420912418,805.0938337801609,-0.34566750189382917,0.7478585164034735,-0.5606899364838875,2158.241758241758,-1.0,107.30120613436664,1.2302319242203519,812.8599101395357,
2023-12-20 14:07:22.625000,-24.3855421686747,-2.0120481927710845,10.072289156626507,-1.30226854690374,-8.527896995708154,5.000613120784794,3.0,1.2420912420912418,805.0938337801609,-0.06736204183905366,0.6007808402773731,-0.7225686148825828,2006.5934065934064,-1.0,107.30120613436664,1.2303302523252122,812.7950758606204,
2023-12-20 14:07:22.633000,-24.3855421686747,-2.0120481927710845,10.060240963855422,-1.3071735131820967,-8.508277130594728,5.015328019619865,3.0,1.2420912420912418,805.0938337801609,-0.1582658353242814,0.9902686323640819,-0.8844472932812771,1849.084249084249,-1.0,107.30120613436664,1.2304301089325311,812.7292414500399,
2023-12-20 14:07:22.640000,-24.3855421686747,-2.024096385542169,10.024096385542169,-1.3341508277130594,-8.557326793378294,4.993255671367259,3.0,1.2425352425352425,804.8061461497232,-0.23343627993706673,0.7336402307557836,-0.7062525493852343,1692.3076923076922,-1.0,107.30120613436664,1.2305314643639578,812.6624268104164,
2023-12-20 14:07:22.648000,-24.3855421686747,-2.0120481927710845,10.036144578313253,-1.2973635806253832,-8.540159411404046,5.037400367872471,3.0,1.2420912420912418,805.0938337801609,-0.2939222656022371,1.2254530621758646,-1.2626303828448227,1545.054945054945,-1.0,107.30120613436664,1.2306342879422836,812.5946524998736,
2023-12-20 14:07:22.655000,-24.3855421686747,-2.0120481927710845,10.012048192771084,-1.3194359288779889,-8.473942366646229,5.0324954015941135,3.0,1.2420912420912418,805.0938337801609,-0.048248936542160024,1.2092535400034954,-1.097371948021677,1408.7912087912086,-1.0,107.30120613436664,1.23073854790113,812.5259397894089,
2023-12-20 14:07:22.663000,-24.3855421686747,-2.0120481927710845,10.024096385542169,-1.3390557939914163,-8.56713672593501,4.993255671367259,3.0,1.2425352425352425,804.8061461497232,-0.049997086416876044,1.1984150107802585,-1.0871161354233443,1288.6446886446886,-1.0,107.30120613436664,1.2308442112633045,812.4563107405637,
2023-12-20 14:07:22.671000,-24.3855421686747,-2.024096385542169,10.024096385542169,-1.2654812998160636,-8.564684242795831,4.97608828939301,3.0,1.2425352425352425,804.8061461497232,-0.08099761086183756,1.4445545131402606,-1.0134607540353133,1183.150183150183,-1.0,107.30120613436664,1.2309512441663975,812.3857879933208,
2023-12-20 14:07:22.678000,-24.3855421686747,-2.036144578313253,10.024096385542169,-1.290006131207848,-8.599019006744328,4.97608828939301,3.0,1.2425352425352425,804.8061461497232,-0.35662257444204865,1.1575083037119052,-1.2007458772798787,1092.3076923076922,-1.0,107.30120613436664,1.2310596119221513,812.3143947265016,
2023-12-20 14:07:22.686000,-24.3855421686747,-2.036144578313253,10.012048192771084,-1.3635806253832004,-8.569589209074188,4.9662783568362965,3.0,1.2425352425352425,804.8061461497232,-0.0651477186644143,0.9613658877687772,-1.140026804964745,1016.8498168498168,-1.0,107.30120613436664,1.2311692789167576,812.2421547212508,
2023-12-20 14:07:22.694000,-24.3855421686747,-2.036144578313253,10.0,-1.3267933782955241,-8.589209074187615,4.983445738810546,3.0,1.2429792429792428,804.5186640471513,-0.05372647281626975,0.8448225627877168,-1.004953091311695,953.113553113553,-1.0,107.30120613436664,1.23128020864983,812.1690923346772,
2023-12-20 14:07:22.701000,-24.397590361445783,-2.036144578313253,10.0,-1.3071735131820967,-8.586756591048436,5.020232985898222,3.0,1.2429792429792428,804.5186640471513,0.052677582891440485,1.0188217469844407,-1.0384010255812601,902.5641025641025,-1.0,107.30120613436664,1.2313923639225266,812.0952323769353,
2023-12-20 14:07:22.709000,-24.3855421686747,-2.0120481927710845,9.987951807228916,-1.2434089515634579,-8.559779276517473,4.9515634580012255,3.0,1.2429792429792428,804.5186640471513,-0.010721985898257782,0.9469145154711257,-0.9653283608181339,865.2014652014651,-1.0,107.30120613436664,1.2315057068980255,812.0206000709809,
2023-12-20 14:07:22.717000,-24.3855421686747,-2.024096385542169,10.012048192771084,-1.2949110974862048,-8.586756591048436,4.949110974862047,3.0,1.2429792429792428,804.5186640471513,-0.07318920808810589,0.7388846803799299,-1.1955014276557305,842.4908424908424,-1.0,107.30120613436664,1.2316201988639925,811.945221207518,
2023-12-20 14:07:22.724000,-24.3855421686747,-2.0481927710843375,10.012048192771084,-1.2752912323727774,-8.54996934396076,4.97608828939301,3.0,1.2429792429792428,804.5186640471513,0.01713186877221594,0.49950469086883015,-1.1379290251150855,832.9670329670329,-1.0,107.30120613436664,1.231735800292743,811.8691221046711,
2023-12-20 14:07:22.732000,-24.3855421686747,-2.024096385542169,10.024096385542169,-1.2728387492335989,-8.591661557326793,5.042305334150828,3.0,1.2429792429792428,804.5186640471513,-0.44251500495309176,0.6285181516228661,-1.0955072548219795,836.6300366300366,-1.0,107.30120613436664,1.2318524710287493,811.792329483179,
2023-12-20 14:07:22.740000,-24.397590361445783,-2.036144578313253,10.024096385542169,-1.3218884120171672,-8.557326793378294,5.027590435315757,3.0,1.2434232434232433,804.2313872522765,-0.012470135772973802,0.5281743488141715,-1.4173999184196728,852.0146520146519,-1.0,107.30120613436664,1.2319701703267352,811.7148704407518,
2023-12-20 14:07:22.747000,-24.3855421686747,-2.024096385542169,9.987951807228916,-1.2949110974862048,-8.518087063151441,5.027590435315757,3.0,1.2425352425352425,804.8061461497232,-0.01200396247304872,0.6277023483480002,-0.989569372414196,875.4578754578754,-1.0,107.30120613436664,1.2320888570388768,811.6367723299678,
2023-12-20 14:07:22.755000,-24.397590361445783,-2.036144578313253,10.048192771084338,-1.3537706928264868,-8.554874310239116,4.983445738810546,3.0,1.2429792429792428,804.5186640471513,-0.19381154944350595,0.619078142299401,-1.1460870578637614,909.1575091575091,-1.0,107.30120613436664,1.2322084896532703,811.5580627278662,
2023-12-20 14:07:22.763000,-24.3855421686747,-2.036144578313253,10.048192771084338,-1.3120784794604536,-8.530349478847333,4.97608828939301,3.0,1.2434232434232433,804.2313872522765,-0.3301672396713484,0.4733989860730742,-1.102266767670881,948.7179487179486,-1.0,107.30120613436664,1.2323290261203017,811.4787695503438,
2023-12-20 14:07:22.770000,-24.397590361445783,-2.036144578313253,10.024096385542169,-1.3366033108522377,-8.557326793378294,5.012875536480687,3.0,1.2434232434232433,804.2313872522765,-0.05512499271604152,0.4967076510692831,-1.0263970631082107,992.6739926739926,559.173583984375,107.30120613436664,1.23245042406128,811.3989209207962,
2023-12-20 14:07:22.778000,-24.3855421686747,-2.036144578313253,10.024096385542169,-1.3807480073574494,-8.540159411404046,5.0324954015941135,3.0,1.2434232434232433,804.2313872522765,-0.17574733407144158,0.5803857584056868,-1.3664704854029492,1041.0256410256409,-1.0,107.30120613436664,1.2325726408384747,811.3185451214633,
2023-12-20 14:07:22.786000,-24.3855421686747,-2.060240963855422,10.036144578313253,-1.361128142244022,-8.589209074187615,5.074187614960147,3.0,1.2434232434232433,804.2313872522765,-0.06724549851407281,0.3728220966144162,-0.694365130237165,1090.8424908424909,-1.0,107.30120613436664,1.2326956333163182,811.2376707493698,
2023-12-20 14:07:22.793000,-24.3855421686747,-2.072289156626506,10.024096385542169,-1.3684855916615573,-8.493562231759656,4.990803188228081,3.0,1.2434232434232433,804.2313872522765,-0.34170502884447207,0.6534584231688119,-0.9438843890216188,1141.3919413919414,-1.0,107.30120613436664,1.232819358058807,811.1563265851713,
2023-12-20 14:07:22.801000,-24.397590361445783,-2.0481927710843375,10.048192771084338,-1.3267933782955241,-8.579399141630901,4.971183323114653,3.0,1.2438672438672438,803.9443155452437,-0.18542043004486836,0.7964570829205759,-1.4524794592389723,1190.4761904761904,-1.0,107.30120613436664,1.2329437713561688,811.0745415753081,
2023-12-20 14:07:22.809000,-24.397590361445783,-2.0481927710843375,10.048192771084338,-1.361128142244022,-8.542611894543224,4.998160637645616,3.0,1.2438672438672438,803.9443155452437,-0.08985490356039848,0.29555387215197404,-1.1040149175455978,1234.4322344322343,-1.0,107.30120613436664,1.2330688294215095,810.992344703934,
2023-12-20 14:07:22.816000,-24.397590361445783,-2.0843373493975905,10.0,-1.3194359288779889,-8.542611894543224,4.971183323114653,3.0,1.2438672438672438,803.9443155452437,-0.5161703863411227,0.38098012936309206,-1.030592622807529,1273.260073260073,-1.0,107.30120613436664,1.2331944884385555,810.9097649615118,
2023-12-20 14:07:22.824000,-24.397590361445783,-2.072289156626506,10.012048192771084,-1.3169834457388105,-8.515634580012263,4.931943592887799,3.0,1.2438672438672438,803.9443155452437,0.11514480508128859,0.37223937998951023,-0.7316589942311064,1306.227106227106,-1.0,107.30120613436664,1.2333207043323504,810.8268314945664,
2023-12-20 14:07:22.832000,-24.3855421686747,-2.072289156626506,10.024096385542169,-1.3586756591048437,-8.62844880441447,4.983445738810546,3.0,1.2438672438672438,803.9443155452437,-0.18880018646931956,0.8233785909912013,-0.9332789464483413,1332.6007326007325,-1.0,107.30120613436664,1.2334474330939968,810.7435733902057,
2023-12-20 14:07:22.839000,-24.397590361445783,-2.072289156626506,10.036144578313253,-1.3832004904966277,-8.594114040465971,4.963825873697118,3.0,1.2438672438672438,803.9443155452437,-0.08088106753685671,0.6455334770701011,-0.7700017481498753,1350.9157509157508,-1.0,107.30120613436664,1.2335746307967819,810.6600196654431,
2023-12-20 14:07:22.847000,-24.3855421686747,-2.060240963855422,10.036144578313253,-1.3709380748007356,-8.545064377682403,4.968730839975475,3.0,1.2438672438672438,803.9443155452437,-0.004312103024299628,0.6674436221665401,-0.9590350212691579,1364.8351648351647,-1.0,107.30120613436664,1.2337022534844808,810.5761993413594,
2023-12-20 14:07:22.855000,-24.3855421686747,-2.0843373493975905,10.024096385542169,-1.3218884120171672,-8.525444512568976,5.005518087063151,3.0,1.2438672438672438,803.9443155452437,-0.28017015325447236,0.33960724899481354,-0.7961074529456326,1370.6959706959706,-1.0,107.30120613436664,1.233830257208511,810.4921414185303,
2023-12-20 14:07:22.862000,-24.397590361445783,-2.072289156626506,10.024096385542169,-1.385652973635806,-8.562231759656651,4.980993255671367,3.0,1.244311244311244,803.6574487065121,0.10442281918303081,0.3947322417108551,-0.46465823669949363,1370.6959706959706,-1.0,107.30120613436664,1.2339585980646257,810.4078748527918,
2023-12-20 14:07:22.870000,-24.397590361445783,-2.072289156626506,10.036144578313253,-1.366033108522379,-8.518087063151441,4.978540772532188,3.0,1.244311244311244,803.6574487065121,-0.33715983917021075,0.08227958743663023,-0.4119806538080536,1363.3699633699632,-1.0,107.30120613436664,1.2340872323783985,810.3234284349036,
2023-12-20 14:07:22.878000,-24.3855421686747,-2.060240963855422,9.987951807228916,-1.3243408951563458,-8.589209074187615,4.9736358062538315,3.0,1.244311244311244,803.6574487065121,-0.08868947031058838,0.5676825359827513,-0.3724724666394732,1350.18315018315,-1.0,107.30120613436664,1.2342161167627805,810.2388307529093,
2023-12-20 14:07:22.885000,-24.397590361445783,-2.060240963855422,10.012048192771084,-1.2875536480686696,-8.591661557326793,5.025137952176578,3.0,1.244311244311244,803.6574487065121,-0.4210710331565762,0.5436746110366522,-0.9000640988287392,1331.8681318681317,-1.0,107.30120613436664,1.2343452080161563,810.1541102575816,
2023-12-20 14:07:22.893000,-24.397590361445783,-2.072289156626506,10.0,-1.3071735131820967,-8.616186388718576,4.9589209074187615,3.0,1.244311244311244,803.6574487065121,-0.2172367577646992,0.3694423401899667,-0.7363207272303485,1308.4249084249084,-1.0,107.30120613436664,1.234474463158768,810.0692952385054,
2023-12-20 14:07:22.901000,-24.3855421686747,-2.0481927710843375,10.036144578313253,-1.314530962599632,-8.613733905579398,5.012875536480687,3.0,1.2438672438672438,803.9443155452437,0.0953324398345082,0.5637200629333959,-0.7864343569722041,1283.5164835164835,-1.0,107.30120613436664,1.234603839468699,809.9844138004828,
2023-12-20 14:07:22.908000,-24.397590361445783,-2.060240963855422,10.024096385542169,-1.366033108522379,-8.576946658491723,5.005518087063151,3.0,1.2438672438672438,803.9443155452437,-0.19416117941844846,0.43552240545422766,-0.7597459355515426,1257.142857142857,-1.0,107.30120613436664,1.2347332946455947,809.8994937524061,
2023-12-20 14:07:22.916000,-24.3855421686747,-2.072289156626506,9.987951807228916,-1.30226854690374,-8.569589209074188,5.012875536480687,3.0,1.244311244311244,803.6574487065121,-0.236233319736612,0.549618320610687,-0.7961074529456326,1232.967032967033,-1.0,107.30120613436664,1.2348627866442863,809.8145627177631,
2023-12-20 14:07:22.924000,-24.397590361445783,-2.072289156626506,9.987951807228916,-1.3292458614347025,-8.522992029429798,5.027590435315757,3.0,1.244311244311244,803.6574487065121,0.04370374686789872,0.7405162869296651,-0.79913757939514,1209.5238095238094,-1.0,107.30120613436664,1.2349922737199859,809.7296481101836,
2023-12-20 14:07:22.931000,-24.397590361445783,-2.072289156626506,10.012048192771084,-1.437155119558553,-8.552421827099938,5.020232985898222,3.0,1.2447552447552446,803.370786516854,-0.09370083328477302,0.5159372996911611,-0.9544898315948961,1186.8131868131868,-1.0,107.30120613436664,1.2351217146323332,809.6447769986335,
2023-12-20 14:07:22.939000,-24.3855421686747,-2.072289156626506,10.024096385542169,-1.3635806253832004,-8.59656652360515,4.9589209074187615,3.0,1.2447552447552446,803.370786516854,-0.0916030534351145,0.5060311170677708,-0.9420196958219219,1166.3003663003662,-1.0,107.30120613436664,1.235251068550727,809.5599761709357,
2023-12-20 14:07:22.947000,-24.3855421686747,-2.096385542168675,9.987951807228916,-1.385652973635806,-8.559779276517473,4.963825873697118,3.0,1.2447552447552446,803.370786516854,0.04685041664238651,0.7669716217003653,-0.8947031058796107,1149.4505494505493,-1.0,107.30120613436664,1.2353802952679924,809.4752719927269,
2023-12-20 14:07:22.954000,-24.3855421686747,-2.060240963855422,10.012048192771084,-1.3635806253832004,-8.58185162477008,4.985898221949724,3.0,1.2447552447552446,803.370786516854,-0.06071907231513382,0.17155177437212105,-0.9412038925470543,1134.7985347985348,-1.0,107.30120613436664,1.2355093552226737,809.3906903905851,
2023-12-20 14:07:22.962000,-24.397590361445783,-2.072289156626506,10.012048192771084,-1.3733905579399142,-8.574494175352545,4.971183323114653,3.0,1.245199245199245,803.0843287573543,0.06036944234018958,0.16572460812306883,-0.5763067420313502,1120.14652014652,-1.0,107.30120613436664,1.2356382092438412,809.3062570219661,
2023-12-20 14:07:22.970000,-24.3855421686747,-2.0843373493975905,9.975903614457831,-1.3881054567749846,-8.540159411404046,4.9515634580012255,3.0,1.245199245199245,803.0843287573543,0.029019287920283823,0.32632130994697217,-0.30685857467513555,1105.4945054945053,-1.0,107.30120613436664,1.2357668188915323,809.2219970524702,
2023-12-20 14:07:22.977000,-24.397590361445783,-2.096385542168675,10.024096385542169,-1.39546290619252,-8.56713672593501,5.030042918454935,3.0,1.245199245199245,803.0843287573543,-0.03274867431967753,0.1816910436454764,-0.7538022259775065,1094.5054945054944,-1.0,107.30120613436664,1.2358951464986336,809.1379351289764,
2023-12-20 14:07:22.985000,-24.397590361445783,-2.0843373493975905,9.975903614457831,-1.385652973635806,-8.547516860821581,5.017780502759043,3.0,1.2456432456432456,802.7980752094102,-0.3073247479750594,0.05046325971680112,-0.6809626478643436,1085.7142857142856,-1.0,107.30120613436664,1.2360231549353067,809.054095534021,
2023-12-20 14:07:22.993000,-24.3855421686747,-2.0843373493975905,10.012048192771084,-1.3366033108522377,-8.525444512568976,4.96137339055794,3.0,1.245199245199245,803.0843287573543,-0.058388205815511886,-0.2612901346075404,-0.40836781073364026,1076.923076923077,-1.0,107.30120613436664,1.2361508080762902,808.9705018789723,
2023-12-20 14:07:23,-24.397590361445783,-2.072289156626506,10.0,-1.385652973635806,-8.547516860821581,4.990803188228081,3.0,1.2456432456432456,802.7980752094102,-0.19416117941844846,0.11782530155585304,-0.2915913991026165,1072.5274725274724,-1.0,107.30120613436664,1.2362780706823961,808.8871771808647,
2023-12-20 14:07:23.008000,-24.3855421686747,-2.0843373493975905,10.012048192771084,-1.3390557939914163,-8.498467198038012,4.9442060085836905,3.0,1.2456432456432456,802.7980752094102,0.20534933861663132,-0.13262630382844878,-0.5094108734922207,1068.8644688644688,-1.0,107.30120613436664,1.2364049082714001,808.804143948545,
2023-12-20 14:07:23.015000,-24.3855421686747,-2.0843373493975905,10.012048192771084,-1.3218884120171672,-8.547516860821581,4.968730839975475,3.0,1.2460872460872459,802.5120256547302,-0.11619369500611786,0.15267175572519084,-0.3618670240661967,1068.131868131868,-1.0,107.30120613436664,1.2365312873076442,808.7214240604924,
2023-12-20 14:07:23.023000,-24.3855421686747,-2.0843373493975905,9.987951807228916,-1.3513182096873084,-8.574494175352545,4.985898221949724,3.0,1.2460872460872459,802.5120256547302,-0.1596643552240549,-0.06829438843890208,-0.21420663131519224,1067.3992673992673,-1.0,107.30120613436664,1.2366571752421252,808.639038739134,
2023-12-20 14:07:23.031000,-24.397590361445783,-2.0843373493975905,10.0,-1.407725321888412,-8.527896995708154,4.934396076026977,3.0,1.2460872460872459,802.5120256547302,0.07388846803799265,0.7219858982576773,-0.4030068177845118,1068.8644688644688,-1.0,107.30120613436664,1.236782540562879,808.5570085184796,
2023-12-20 14:07:23.038000,-24.397590361445783,-2.096385542168675,9.987951807228916,-1.361128142244022,-8.56713672593501,4.983445738810546,3.0,1.2460872460872459,802.5120256547302,0.04428646349280291,0.2677000174814986,-0.5914573742788876,1073.260073260073,-1.0,107.30120613436664,1.2369073526853058,808.475353314914,
2023-12-20 14:07:23.046000,-24.397590361445783,-2.0843373493975905,9.987951807228916,-1.3464132434089515,-8.542611894543224,4.963825873697118,3.0,1.2465312465312466,802.226179875334,0.04451955014276631,0.8866616164559169,-0.4256162228308375,1082.051282051282,-1.0,107.30120613436664,1.237031581980198,808.3940924092827,
2023-12-20 14:07:23.054000,-24.3855421686747,-2.096385542168675,9.987951807228916,-1.4028203556100551,-8.52053954629062,5.034947884733292,3.0,1.2456432456432456,802.7980752094102,-0.017248412097196776,1.0142765573101793,-0.5979838004778283,1098.168498168498,-1.0,107.30120613436664,1.2371551999499133,808.3132443336453,
2023-12-20 14:07:23.061000,-24.3855421686747,-2.108433734939759,10.024096385542169,-1.3684855916615573,-8.594114040465971,4.96137339055794,3.0,1.2460872460872459,802.5120256547302,0.25942544140784357,0.6672105355165784,-0.3879727288619553,1127.4725274725274,-1.0,107.30120613436664,1.2372781792547705,808.232826848731,
2023-12-20 14:07:23.069000,-24.3855421686747,-2.096385542168675,10.012048192771084,-1.366033108522379,-8.61128142244022,4.998160637645616,3.0,1.2460872460872459,802.5120256547302,0.18110832702057048,0.40079249460987243,-0.39496532836081893,1175.8241758241757,-1.0,107.30120613436664,1.2374004935262464,808.152857068144,
2023-12-20 14:07:23.077000,-24.3855421686747,-2.0843373493975905,9.987951807228916,-1.3488657265481299,-8.574494175352545,4.963825873697118,3.0,1.2465312465312466,802.226179875334,-0.07936600431210238,0.36314900064098765,-0.6596352193928101,1252.014652014652,-1.0,107.30120613436664,1.2375221174119497,808.0733514353259,
2023-12-20 14:07:23.084000,-24.397590361445783,-2.072289156626506,9.975903614457831,-1.4028203556100551,-8.54996934396076,4.96137339055794,3.0,1.2465312465312466,802.226179875334,-0.15407027562496434,0.14125050987704804,-0.207447118466289,1358.2417582417581,-1.0,107.30120613436664,1.237643026618701,807.9943256958381,
2023-12-20 14:07:23.092000,-24.3855421686747,-2.072289156626506,9.987951807228916,-1.3979153893316982,-8.530349478847333,4.924586143470264,3.0,1.2465312465312466,802.226179875334,-0.15185595245032324,-0.10803566225744368,-0.4253831361808749,1493.040293040293,-1.0,107.30120613436664,1.2377631979748154,807.9157948571042,
2023-12-20 14:07:23.100000,-24.3855421686747,-2.0843373493975905,9.975903614457831,-1.3390557939914163,-8.547516860821581,4.993255671367259,3.0,1.2469752469752469,801.9405376535518,-0.15185595245032324,-0.2523162985839987,-0.11141541868189489,1649.8168498168498,-1.0,107.30120613436664,1.2378826094589963,807.8377731670389,
2023-12-20 14:07:23.107000,-24.3855421686747,-2.108433734939759,10.0,-1.3979153893316982,-8.419987737584304,4.983445738810546,3.0,1.2469752469752469,801.9405376535518,-0.05745585921566346,-0.13519025697803064,-0.2558125983334303,1821.245421245421,-1.0,107.30120613436664,1.2380012405049352,807.760273915487,
2023-12-20 14:07:23.115000,-24.397590361445783,-2.108433734939759,10.036144578313253,-1.3341508277130594,-8.491109748620477,4.954015941140405,3.0,1.2469752469752469,801.9405376535518,-0.25802692150807005,-0.2934560923023138,-0.1843715401200391,1997.8021978021977,-1.0,107.30120613436664,1.2381190718786839,807.6833095168251,
2023-12-20 14:07:23.123000,-24.397590361445783,-2.1204819277108435,10.0,-1.4101778050275904,-8.525444512568976,5.005518087063151,3.0,1.2469752469752469,801.9405376535518,-0.441815745003205,-0.11467863178136525,0.11561097838121367,2161.904761904762,-1.0,107.30120613436664,1.238236085426575,807.6068916752013,
2023-12-20 14:07:23.130000,-24.3855421686747,-2.108433734939759,10.024096385542169,-1.3513182096873084,-8.493562231759656,4.985898221949724,3.0,1.2469752469752469,801.9405376535518,-0.2552298817085248,-0.2894936192529567,-0.22690985373812686,2309.157509157509,-1.0,107.30120613436664,1.2383522642366294,807.5310312779314,
2023-12-20 14:07:23.138000,-24.3855421686747,-2.096385542168675,10.012048192771084,-1.407725321888412,-8.53525444512569,5.020232985898222,3.0,1.2469752469752469,801.9405376535518,-0.4364547520540761,-0.43505623215430433,-0.03274867431967753,2429.304029304029,-1.0,107.30120613436664,1.2384675926485829,807.4557383894653,
2023-12-20 14:07:23.146000,-24.397590361445783,-2.096385542168675,10.024096385542169,-1.4101778050275904,-8.559779276517473,4.978540772532188,3.0,1.2469752469752469,801.9405376535518,-0.18588660334479346,-0.1820406736204189,0.1580327486743197,2513.5531135531132,-1.0,107.30120613436664,1.2385820562616918,807.3810222467899,
2023-12-20 14:07:23.153000,-24.397590361445783,-2.096385542168675,10.024096385542169,-1.4322501532801961,-8.601471489883506,4.96137339055794,3.0,1.2469752469752469,801.9405376535518,-0.04580152671755725,0.20768020511625152,-0.13903618670240606,2560.4395604395604,-1.0,107.30120613436664,1.2386956419402215,807.3068912563475,
2023-12-20 14:07:23.161000,-24.397590361445783,-2.108433734939759,10.0,-1.3218884120171672,-8.522992029429798,4.968730839975475,3.0,1.2474192474192471,801.6550987720236,-0.0737719247130118,0.2572111182332042,-0.07074179826350399,2565.5677655677655,-1.0,107.30120613436664,1.2388083378164843,807.2333529925457,
2023-12-20 14:07:23.169000,-24.3855421686747,-2.096385542168675,10.012048192771084,-1.419987737584304,-8.579399141630901,4.949110974862047,3.0,1.2474192474192471,801.6550987720236,-0.11596060835615618,0.7219858982576773,0.08880601363556966,2534.065934065934,-1.0,107.30120613436664,1.238920133440627,807.1604141019425,
2023-12-20 14:07:23.176000,-24.3855421686747,-2.108433734939759,10.0,-1.3586756591048437,-8.603923973022685,4.922133660331085,3.0,1.2474192474192471,801.6550987720236,-0.09941145620884616,0.6504282967193049,0.06363265543965994,2467.399267399267,-1.0,107.30120613436664,1.2390310198003416,807.0880802910685,
2023-12-20 14:07:23.184000,-24.3855421686747,-2.096385542168675,10.0,-1.3488657265481299,-8.518087063151441,4.96137339055794,3.0,1.2474192474192471,801.6550987720236,-0.09405046325971728,0.5940213274284707,-0.1900821630441118,2371.428571428571,-1.0,107.30120613436664,1.2391409891788812,807.0163564182182,
2023-12-20 14:07:23.192000,-24.397590361445783,-2.108433734939759,10.012048192771084,-1.3635806253832004,-8.562231759656651,4.941753525444512,3.0,1.2474192474192471,801.6550987720236,-0.35219392809276817,0.8169687081172431,0.11910727813064528,2249.0842490842488,-1.0,107.30120613436664,1.2392500350104347,806.9452465898869,
2023-12-20 14:07:23.199000,-24.397590361445783,-2.108433734939759,9.951807228915664,-1.390557939914163,-8.498467198038012,4.934396076026977,3.0,1.2474192474192471,801.6550987720236,-0.11794184488083388,0.7168579919585102,-0.16852164792261498,2109.8901098901097,-1.0,107.30120613436664,1.2393581518918593,806.8747541533335,
2023-12-20 14:07:23.207000,-24.397590361445783,-2.108433734939759,9.987951807228916,-1.3709380748007356,-8.518087063151441,4.946658491722869,3.0,1.2469752469752469,801.9405376535518,-0.13192704387856202,0.8769885204824902,-0.1336751937532776,1956.7765567765566,-1.0,107.30120613436664,1.2394653357192131,806.8048816062467,
2023-12-20 14:07:23.215000,-24.3855421686747,-2.096385542168675,9.963855421686748,-1.3488657265481299,-8.542611894543224,4.949110974862047,3.0,1.2474192474192471,801.6550987720236,-0.130178894003846,0.8687139444088334,-0.12621642095448932,1802.197802197802,-1.0,107.30120613436664,1.2395715836617343,806.7356306111341,
2023-12-20 14:07:23.222000,-24.3855421686747,-2.0843373493975905,9.987951807228916,-1.4347026364193745,-8.505824647455547,4.931943592887799,3.0,1.2474192474192471,801.6550987720236,0.055824252665928276,0.416409300157334,-0.5193170561156114,1652.7472527472526,-1.0,107.30120613436664,1.2396768942506255,806.6670019392784,
2023-12-20 14:07:23.230000,-24.3855421686747,-2.096385542168675,9.93975903614458,-1.3586756591048437,-8.576946658491723,4.971183323114653,3.0,1.2474192474192471,801.6550987720236,-0.31152030767437816,0.45405279412621713,-0.17376609754676345,1511.3553113553112,-1.0,107.30120613436664,1.2397812672301625,806.5989955731177,
2023-12-20 14:07:23.238000,-24.397590361445783,-2.096385542168675,9.951807228915664,-1.3709380748007356,-8.530349478847333,4.9294911097486205,3.0,1.2478632478632479,801.3698630136987,-0.07889983101217903,0.15360410232503927,-0.2150224345900594,1379.4871794871794,-1.0,107.30120613436664,1.2398847032775278,806.5316108893868,
2023-12-20 14:07:23.245000,-24.3855421686747,-2.096385542168675,9.975903614457831,-1.4028203556100551,-8.56713672593501,4.887798896382587,3.0,1.2478632478632479,801.3698630136987,-0.3355282326204773,0.11444554513140184,-0.1764465940213279,1260.07326007326,-1.0,107.30120613436664,1.2399872042943083,806.4648464688437,
2023-12-20 14:07:23.253000,-24.397590361445783,-2.108433734939759,9.975903614457831,-1.4052728387492335,-8.557326793378294,4.927038626609442,3.0,1.2474192474192471,801.6550987720236,-0.3011479517510629,0.19789056581784217,-0.3369267525202495,1152.3809523809523,-1.0,107.30120613436664,1.2400887735459631,806.3987000042101,
2023-12-20 14:07:23.261000,-24.3855421686747,-2.132530120481928,9.963855421686748,-1.361128142244022,-8.59656652360515,4.946658491722869,3.0,1.2478632478632479,801.3698630136987,0.17598042072140324,-0.1199230814055133,-0.34356972204417024,1061.5384615384614,-1.0,107.30120613436664,1.2401894153410071,806.3331685069522,
2023-12-20 14:07:23.268000,-24.3855421686747,-2.1204819277108435,9.963855421686748,-1.390557939914163,-8.618638871857755,4.983445738810546,3.0,1.2478632478632479,801.3698630136987,-0.39216828856127317,-0.4322591923547573,-0.2886778159780904,985.3479853479853,-1.0,107.30120613436664,1.2402891351230858,806.2682482488138,
2023-12-20 14:07:23.276000,-24.3855421686747,-2.096385542168675,9.987951807228916,-1.3758430410790925,-8.579399141630901,4.988350705088902,3.0,1.2478632478632479,801.3698630136987,0.053027212866383,0.17225103432200956,-0.3891381621117654,923.076923076923,-1.0,107.30120613436664,1.2403879395919948,806.2039346847519,
2023-12-20 14:07:23.284000,-24.3855421686747,-2.108433734939759,9.963855421686748,-1.331698344573881,-8.574494175352545,4.9147762109135495,3.0,1.2478632478632479,801.3698630136987,-0.13041198065380769,-0.020977798496590483,0.19824019579278554,877.6556776556776,-1.0,107.30120613436664,1.2404858365242744,806.1402225688836,
2023-12-20 14:07:23.291000,-24.3855421686747,-2.096385542168675,10.012048192771084,-1.3758430410790925,-8.515634580012263,4.9589209074187615,3.0,1.2478632478632479,801.3698630136987,-0.2510343220092077,0.23192121671231236,-0.19276265951867624,849.8168498168498,-1.0,107.30120613436664,1.240582834591263,806.077106074909,
2023-12-20 14:07:23.299000,-24.3855421686747,-2.1204819277108435,10.0,-1.3832004904966277,-8.488657265481299,4.9368485591661555,3.0,1.2478632478632479,801.3698630136987,-0.003146669774489527,0.42351844298117897,0.0893887302604747,837.3626373626373,-1.0,107.30120613436664,1.2406789433337784,806.0145788126483,
2023-12-20 14:07:23.307000,-24.3855421686747,-2.108433734939759,9.963855421686748,-1.3733905579399142,-8.554874310239116,4.978540772532188,3.0,1.2478632478632479,801.3698630136987,-0.22959035021269217,0.018646931996970283,0.09218577006001955,840.2930402930402,-1.0,107.30120613436664,1.2407741732619433,805.9526337615425,
2023-12-20 14:07:23.314000,-24.397590361445783,-2.108433734939759,9.963855421686748,-1.4052728387492335,-8.562231759656651,4.990803188228081,3.0,1.2478632478632479,801.3698630136987,0.01654915214731002,0.13833692675252018,0.021327428471534297,854.9450549450548,-1.0,107.30120613436664,1.2408685358035023,805.8912633045561,
2023-12-20 14:07:23.322000,-24.3855421686747,-2.108433734939759,9.963855421686748,-1.3881054567749846,-8.530349478847333,4.9368485591661555,3.0,1.2478632478632479,801.3698630136987,-0.4560340306508948,0.10349047258318238,-0.18681894994464188,882.051282051282,-1.0,107.30120613436664,1.2409620431112405,805.8304593553925,
2023-12-20 14:07:23.330000,-24.3855421686747,-2.1204819277108435,9.951807228915664,-1.3930104230533413,-8.545064377682403,4.978540772532188,3.0,1.2483072483072482,801.0848301618354,-0.17656313734630918,0.2671173008565927,0.03461336751937482,917.9487179487179,-1.0,107.30120613436664,1.2410547080274328,805.7702133816055,
2023-12-20 14:07:23.337000,-24.397590361445783,-2.1204819277108435,9.963855421686748,-1.4028203556100551,-8.557326793378294,4.971183323114653,3.0,1.2478632478632479,801.3698630136987,-0.3713070333896618,-0.04335411689295448,-0.1576831186993768,961.172161172161,-1.0,107.30120613436664,1.2411465443232101,805.7105162486017,
2023-12-20 14:07:23.345000,-24.397590361445783,-2.1204819277108435,9.975903614457831,-1.3782955242182708,-8.56713672593501,4.9294911097486205,3.0,1.2483072483072482,801.0848301618354,-0.45813181050055335,0.531321018588661,0.23028961016257807,1005.8608058608058,-1.0,107.30120613436664,1.2412375665101913,805.6513583412902,
2023-12-20 14:07:23.353000,-24.397590361445783,-2.108433734939759,9.963855421686748,-1.419987737584304,-8.53525444512569,4.873083997547517,3.0,1.2483072483072482,801.0848301618354,-0.2829671930540177,0.23273701998717997,-0.23786492628634676,1052.7472527472528,574.493408203125,104.4398406374502,1.2413277897682775,805.5927296111468,
2023-12-20 14:07:23.360000,-24.3855421686747,-2.108433734939759,9.975903614457831,-1.361128142244022,-8.513182096873084,4.956468424279583,3.0,1.2474192474192471,801.6550987720236,-0.11141541868189489,0.16455917487325872,-0.13775421012761468,1104.029304029304,-1.0,104.4398406374502,1.2414172299036346,805.5346196066788,
2023-12-20 14:07:23.368000,-24.397590361445783,-2.1204819277108435,9.975903614457831,-1.3684855916615573,-8.572041692213366,4.985898221949724,3.0,1.2478632478632479,801.3698630136987,-0.1086183788823496,-0.08530971388613719,-0.025872618145795594,1159.7069597069597,-1.0,104.4398406374502,1.2415059030068754,805.4770176904149,
2023-12-20 14:07:23.376000,-24.3855421686747,-2.132530120481928,9.975903614457831,-1.3684855916615573,-8.537706928264868,4.968730839975475,3.0,1.2483072483072482,801.0848301618354,-0.3507954081929964,-0.1358895169279174,-0.004079016374337087,1216.117216117216,-1.0,104.4398406374502,1.241593825621507,805.419912928823,
2023-12-20 14:07:23.383000,-24.397590361445783,-2.144578313253012,9.987951807228916,-1.39546290619252,-8.554874310239116,4.980993255671367,3.0,1.2483072483072482,801.0848301618354,-0.1637433715983911,-0.09125342346017198,0.07936600431210324,1266.6666666666665,-1.0,104.4398406374502,1.2416810148356818,805.3632940397792,
2023-12-20 14:07:23.391000,-24.3855421686747,-2.132530120481928,10.012048192771084,-1.4543225015328018,-8.552421827099938,4.993255671367259,3.0,1.2483072483072482,801.0848301618354,-0.023774838296135765,0.014451372297651493,-0.11537789173125114,1313.5531135531135,-1.0,104.4398406374502,1.2417674881173013,805.307149498726,
2023-12-20 14:07:23.398000,-24.3855421686747,-2.144578313253012,9.963855421686748,-1.4003678724708768,-8.557326793378294,4.993255671367259,3.0,1.2483072483072482,801.0848301618354,0.11514480508128859,0.1956762426432028,0.24101159606083583,1354.5787545787546,-1.0,104.4398406374502,1.2418532631168946,805.2514676655958,
2023-12-20 14:07:23.406000,-24.3855421686747,-2.1204819277108435,9.951807228915664,-1.4101778050275904,-8.564684242795831,4.949110974862047,3.0,1.2483072483072482,801.0848301618354,-0.1003438028086946,0.26338791445719895,-0.13775421012761468,1387.5457875457876,-1.0,104.4398406374502,1.241938357618722,805.1962368164387,
2023-12-20 14:07:23.414000,-24.3855421686747,-2.132530120481928,9.927710843373495,-1.4126302881667687,-8.56713672593501,4.946658491722869,3.0,1.2483072483072482,801.0848301618354,-0.35837072431676464,-0.04673387331740568,-0.313385000874075,1410.989010989011,-1.0,104.4398406374502,1.2420227894805234,805.141445182476,
2023-12-20 14:07:23.421000,-24.397590361445783,-2.1204819277108435,9.93975903614458,-1.4101778050275904,-8.540159411404046,4.941753525444512,3.0,1.2483072483072482,801.0848301618354,-0.20430044869180033,0.11631023833110044,-0.09206922673503871,1423.4432234432234,-1.0,104.4398406374502,1.2421065765832309,805.0870809826134,
2023-12-20 14:07:23.429000,-24.397590361445783,-2.1204819277108435,9.975903614457831,-1.4248927038626609,-8.522992029429798,4.939301042305334,3.0,1.2483072483072482,801.0848301618354,-0.1119981353068008,0.3399568789697578,0.049297826466989284,1430.03663003663,-1.0,104.4398406374502,1.2421897369085861,805.0331323713868,
2023-12-20 14:07:23.437000,-24.3855421686747,-2.1566265060240966,9.93975903614458,-1.4003678724708768,-8.569589209074188,4.941753525444512,3.0,1.2483072483072482,801.0848301618354,-0.15465299224986853,0.30301264495075975,0.1446302663014975,1427.8388278388277,-1.0,104.4398406374502,1.2422722884680937,804.9795874851709,
2023-12-20 14:07:23.444000,-24.3855421686747,-2.1566265060240966,9.93975903614458,-1.4420600858369097,-8.564684242795831,4.887798896382587,3.0,1.2483072483072482,801.0848301618354,0.032632130994696695,0.29753510867665,-0.00850766272361755,1416.117216117216,-1.0,104.4398406374502,1.2423542490940092,804.9264345795226,
2023-12-20 14:07:23.452000,-24.397590361445783,-2.144578313253012,9.93975903614458,-1.3979153893316982,-8.545064377682403,4.9294911097486205,3.0,1.2483072483072482,801.0848301618354,-0.13320902045335295,0.4154769535574856,0.026222248120738974,1398.5347985347985,-1.0,104.4398406374502,1.242435636390409,804.8736620607665,
2023-12-20 14:07:23.460000,-24.3855421686747,-2.1566265060240966,9.93975903614458,-1.4322501532801961,-8.623543838136113,4.919681177191906,3.0,1.2483072483072482,801.0848301618354,-0.13041198065380769,0.1826233902453231,0.12237049123011477,1376.5567765567764,-1.0,104.4398406374502,1.2425164678129381,804.8212584325503,
2023-12-20 14:07:23.467000,-24.3855421686747,-2.168674698795181,9.951807228915664,-1.4028203556100551,-8.586756591048436,4.924586143470264,3.0,1.2487512487512487,800.8000000000001,-0.3244566167472753,-0.03449682419439355,0.20255229881708517,1350.18315018315,-1.0,104.4398406374502,1.2425967604619808,804.7692124316817,
2023-12-20 14:07:23.475000,-24.397590361445783,-2.144578313253012,9.93975903614458,-1.4150827713059473,-8.606376456161863,4.904966278356836,3.0,1.2483072483072482,801.0848301618354,-0.12178777460521016,0.31548278072373354,0.4946098712196259,1320.8791208791208,-1.0,104.4398406374502,1.2426765311858023,804.7175129620922,
2023-12-20 14:07:23.483000,-24.397590361445783,-2.1566265060240966,9.951807228915664,-1.4567749846719804,-8.586756591048436,4.909871244635193,3.0,1.2487512487512487,800.8000000000001,-0.17796165724608096,0.0983625662840169,0.44822562787716314,1294.5054945054944,-1.0,104.4398406374502,1.2427557965363174,804.6661491209487,
2023-12-20 14:07:23.490000,-24.3855421686747,-2.144578313253012,9.93975903614458,-1.385652973635806,-8.586756591048436,4.956468424279583,3.0,1.2483072483072482,801.0848301618354,-0.2802866965794532,-0.36291591399102596,0.6918011770875822,1268.131868131868,-1.0,104.4398406374502,1.2428345725566456,804.6151103379507,
2023-12-20 14:07:23.498000,-24.3855421686747,-2.132530120481928,9.891566265060241,-1.3733905579399142,-8.518087063151441,4.922133660331085,3.0,1.2483072483072482,801.0848301618354,-0.2805197832294149,-0.36035196084144233,0.689237223937999,1244.6886446886447,-1.0,104.4398406374502,1.242912874751113,804.5643863946524,
2023-12-20 14:07:23.506000,-24.397590361445783,-2.144578313253012,9.93975903614458,-1.419987737584304,-8.584304107909258,4.954015941140405,3.0,1.2487512487512487,800.8000000000001,-0.18635277664471853,-0.6189615989744184,0.4000932346599848,1224.1758241758241,-1.0,104.4398406374502,1.2429907180149002,804.513967467334,
2023-12-20 14:07:23.513000,-24.3855421686747,-2.132530120481928,9.951807228915664,-1.4445125689760883,-8.574494175352545,4.9662783568362965,3.0,1.2474192474192471,801.6550987720236,-0.1392692733523686,-0.478993065672163,0.6914515471126392,1203.6630036630036,-1.0,104.4398406374502,1.2430681168641424,804.4638439797997,
2023-12-20 14:07:23.521000,-24.397590361445783,-2.1204819277108435,9.951807228915664,-1.4322501532801961,-8.542611894543224,4.8779889638258735,3.0,1.2478632478632479,801.3698630136987,-0.07668550783753793,-0.6446011304702527,0.9029776819532661,1185.3479853479853,-1.0,104.4398406374502,1.2431450850934391,804.4140068211635,
2023-12-20 14:07:23.529000,-24.3855421686747,-2.132530120481928,9.93975903614458,-1.3733905579399142,-8.493562231759656,4.941753525444512,3.0,1.2483072483072482,801.0848301618354,-0.15360410232503927,-0.42806363265544023,0.7787424975234545,1170.6959706959706,-1.0,104.4398406374502,1.2432216355108519,804.3644475189786,
2023-12-20 14:07:23.536000,-24.3855421686747,-2.132530120481928,9.987951807228916,-1.4788473329245861,-8.537706928264868,4.956468424279583,3.0,1.2483072483072482,801.0848301618354,-0.0779674844123306,-0.45277081755142445,0.9269856068993649,1158.974358974359,-1.0,104.4398406374502,1.2432977802061635,804.3151580719687,
2023-12-20 14:07:23.544000,-24.397590361445783,-2.1566265060240966,9.963855421686748,-1.4347026364193745,-8.473942366646229,4.963825873697118,3.0,1.2483072483072482,801.0848301618354,-0.003146669774489527,-0.8448225627877168,0.8757065439076975,1148.7179487179487,-1.0,104.4398406374502,1.2433735305549287,804.2661309447716,
2023-12-20 14:07:23.552000,-24.397590361445783,-2.1566265060240966,9.963855421686748,-1.4175352544451256,-8.56713672593501,4.9736358062538315,3.0,1.2483072483072482,801.0848301618354,0.012237049123012128,-0.6982110599615399,1.0837363789988923,1141.3919413919414,-1.0,104.4398406374502,1.2434488970447155,804.2173591795066,
2023-12-20 14:07:23.559000,-24.3855421686747,-2.132530120481928,9.963855421686748,-1.4273451870018392,-8.505824647455547,4.954015941140405,3.0,1.2483072483072482,801.0848301618354,-0.10850183555736877,-0.904259658528058,0.9682419439426608,1136.9963369963368,-1.0,104.4398406374502,1.2435238892532037,804.1688364097371,
2023-12-20 14:07:23.567000,-24.3855421686747,-2.144578313253012,9.987951807228916,-1.3513182096873084,-8.505824647455547,4.9147762109135495,3.0,1.2483072483072482,801.0848301618354,-0.10710331565759526,-0.696346366761843,0.96055008449391,1133.3333333333333,-1.0,104.4398406374502,1.243598515818452,804.1205568795486,
2023-12-20 14:07:23.575000,-24.3855421686747,-2.132530120481928,9.975903614457831,-1.331698344573881,-8.579399141630901,4.917228694052728,3.0,1.2483072483072482,801.0848301618354,-0.057572402540644295,-0.8596235650603108,0.9712720703921678,1127.4725274725274,-1.0,104.4398406374502,1.243672784422574,804.0725154539082,
2023-12-20 14:07:23.582000,-24.3855421686747,-2.132530120481928,9.93975903614458,-1.3930104230533413,-8.58185162477008,4.897608828939301,3.0,1.2483072483072482,801.0848301618354,0.11234776528174331,-0.3041780782005716,1.0865334187984381,1124.5421245421244,-1.0,104.4398406374502,1.24374670176784,804.0247076339703,
2023-12-20 14:07:23.590000,-24.397590361445783,-2.132530120481928,9.93975903614458,-1.4101778050275904,-8.606376456161863,4.875536480686695,3.0,1.2483072483072482,801.0848301618354,0.15756657537439464,-0.3791154361633935,1.0027387681370552,1120.8791208791208,-1.0,104.4398406374502,1.2438202737051705,803.9771294722403,
2023-12-20 14:07:23.598000,-24.3855421686747,-2.144578313253012,9.93975903614458,-1.3930104230533413,-8.554874310239116,4.917228694052728,3.0,1.2483072483072482,801.0848301618354,0.37387098653924544,-0.6208262921741152,0.8289726705902918,1118.6813186813185,-1.0,104.4398406374502,1.243893505196167,803.929777597274,
2023-12-20 14:07:23.605000,-24.3855421686747,-2.132530120481928,9.91566265060241,-1.4224402207234825,-8.569589209074188,4.887798896382587,3.0,1.2483072483072482,801.0848301618354,0.29450498222714305,-0.5071965503175809,0.8261756307907465,1118.6813186813185,-1.0,104.4398406374502,1.2439664001613404,803.8826493132601,
2023-12-20 14:07:23.613000,-24.397590361445783,-2.132530120481928,9.927710843373495,-1.3635806253832004,-8.579399141630901,4.909871244635193,3.0,1.2478632478632479,801.3698630136987,0.44647747800244714,-0.2132742847153421,0.8366645300390417,1118.6813186813185,-1.0,104.4398406374502,1.244038961470278,803.8357426062162,
2023-12-20 14:07:23.621000,-24.397590361445783,-2.1204819277108435,9.903614457831326,-1.3684855916615573,-8.625996321275291,4.9147762109135495,3.0,1.2483072483072482,801.0848301618354,0.2152555212400215,-0.05943709574034115,0.5877279878794934,1119.4139194139193,-1.0,104.4398406374502,1.2441111907962672,803.7890562370856,
2023-12-20 14:07:23.628000,-24.397590361445783,-2.1204819277108435,9.93975903614458,-1.390557939914163,-8.562231759656651,4.96137339055794,3.0,1.2478632478632479,801.3698630136987,0.3499796049181288,-0.08985490356039848,0.5250276790396824,1124.5421245421244,-1.0,104.4398406374502,1.2441830888791159,803.7425895708095,
2023-12-20 14:07:23.636000,-24.3855421686747,-2.1204819277108435,9.927710843373495,-1.385652973635806,-8.594114040465971,4.873083997547517,3.0,1.2478632478632479,801.3698630136987,0.39414952508595086,-0.6554396596934913,0.36990851348989,1137.7289377289376,-1.0,104.4398406374502,1.2442546553861724,803.6963426676658,
2023-12-20 14:07:23.644000,-24.397590361445783,-2.1204819277108435,9.93975903614458,-1.4763948497854076,-8.606376456161863,4.954015941140405,3.0,1.2478632478632479,801.3698630136987,0.2540644484587147,-0.40452188100926445,0.8711613542334362,1165.5677655677655,-1.0,104.4398406374502,1.24432588876594,803.6503163769778,
2023-12-20 14:07:23.651000,-24.3855421686747,-2.108433734939759,9.891566265060241,-1.39546290619252,-8.594114040465971,4.96137339055794,3.0,1.2478632478632479,801.3698630136987,0.328186003146669,-0.6306159314725246,0.5912242876289259,1215.3846153846152,-1.0,104.4398406374502,1.2443967865308374,803.6045121533991,
2023-12-20 14:07:23.659000,-24.397590361445783,-2.132530120481928,9.951807228915664,-1.4567749846719804,-8.572041692213366,4.904966278356836,3.0,1.2478632478632479,801.3698630136987,0.37072431676475764,-0.8663830779092132,0.5380805314375621,1294.5054945054944,-1.0,104.4398406374502,1.2444673452556798,803.558932057907,
2023-12-20 14:07:23.667000,-24.3855421686747,-2.132530120481928,9.963855421686748,-1.3930104230533413,-8.493562231759656,4.922133660331085,3.0,1.2469752469752469,801.9405376535518,0.35370899131752254,-0.8560107219858979,0.8986655789289665,1404.3956043956043,-1.0,104.4398406374502,1.2445375604410434,803.5135788474964,
2023-12-20 14:07:23.674000,-24.3855421686747,-2.144578313253012,9.963855421686748,-1.385652973635806,-8.52053954629062,4.902513795217658,3.0,1.2469752469752469,801.9405376535518,0.12306975118000109,-0.9983101217877752,0.8289726705902918,1544.3223443223442,-1.0,104.4398406374502,1.2446074265182139,803.4684559678361,
2023-12-20 14:07:23.682000,-24.3855421686747,-2.144578313253012,9.951807228915664,-1.4150827713059473,-8.574494175352545,4.941753525444512,3.0,1.2474192474192471,801.6550987720236,0.10768603228250118,-0.938989569372415,0.9281510401491746,1712.087912087912,-1.0,104.4398406374502,1.2446769366442159,803.423567687359,
2023-12-20 14:07:23.690000,-24.3855421686747,-2.144578313253012,9.975903614457831,-1.407725321888412,-8.518087063151441,4.924586143470264,3.0,1.2474192474192471,801.6550987720236,0.02925237457024723,-0.8363149000640984,0.9791970164908808,1894.5054945054944,-1.0,104.4398406374502,1.244746082881212,803.3789189854643,
2023-12-20 14:07:23.697000,-24.397590361445783,-2.1566265060240966,9.963855421686748,-1.4126302881667687,-8.503372164316369,4.983445738810546,3.0,1.2474192474192471,801.6550987720236,0.1826233902453231,-0.9342112930481902,0.9232562204999708,2080.5860805860802,-1.0,104.4398406374502,1.2448148563886037,803.3345154266921,
2023-12-20 14:07:23.705000,-24.397590361445783,-2.1566265060240966,10.0,-1.4592274678111588,-8.530349478847333,5.0030656039239725,3.0,1.2474192474192471,801.6550987720236,0.12120505798030425,-0.8947031058796103,1.509818775129655,2256.4102564102564,-1.0,104.4398406374502,1.2448832471807847,803.290363317885,
2023-12-20 14:07:23.713000,-24.3855421686747,-2.1566265060240966,9.975903614457831,-1.4101778050275904,-8.537706928264868,4.97608828939301,3.0,1.2474192474192471,801.6550987720236,0.0,-1.1135714701940447,1.175455975758989,2408.058608058608,-1.0,104.4398406374502,1.2449512444519952,803.2464694953696,
2023-12-20 14:07:23.720000,-24.3855421686747,-2.1566265060240966,9.975903614457831,-1.39546290619252,-8.54996934396076,4.946658491722869,3.0,1.2469752469752469,801.9405376535518,-0.19707476254297457,-1.0105471709107856,1.4546937824136117,2525.274725274725,-1.0,104.4398406374502,1.245018836584515,803.2028413197824,
2023-12-20 14:07:23.728000,-24.3855421686747,-2.144578313253012,10.024096385542169,-1.5058246474555486,-8.589209074187615,4.9515634580012255,3.0,1.2474192474192471,801.6550987720236,-0.3472991084435644,-0.787599790222015,1.5161121146786314,2603.6630036630036,-1.0,104.4398406374502,1.2450860108927297,803.1594868421588,
2023-12-20 14:07:23.736000,-24.3855421686747,-2.1566265060240966,10.012048192771084,-1.4273451870018392,-8.59656652360515,4.9662783568362965,3.0,1.2474192474192471,801.6550987720236,-0.08344502068644033,-0.6901695705378466,1.3330225511333842,2641.7582417582416,-1.0,104.4398406374502,1.2451527537846656,803.1164146998493,
2023-12-20 14:07:23.743000,-24.397590361445783,-2.144578313253012,10.012048192771084,-1.4052728387492335,-8.594114040465971,4.946658491722869,3.0,1.2474192474192471,801.6550987720236,0.358137637666803,-0.4702523162985846,1.2430511042480044,2636.6300366300366,-1.0,104.4398406374502,1.2452190509674943,803.0736339841013,
2023-12-20 14:07:23.751000,-24.3855421686747,-2.132530120481928,9.975903614457831,-1.3881054567749846,-8.564684242795831,4.927038626609442,3.0,1.2469752469752469,801.9405376535518,-0.009556552648447682,-0.26793310413146026,1.166365596410466,2590.4761904761904,-1.0,104.4398406374502,1.2452848873464901,803.0311543047853,
2023-12-20 14:07:23.759000,-24.397590361445783,-2.1204819277108435,9.963855421686748,-1.4126302881667687,-8.569589209074188,4.919681177191906,3.0,1.2469752469752469,801.9405376535518,0.08356156401142116,0.010022725948371029,1.3223005652351267,2507.6923076923076,-1.0,104.4398406374502,1.2453502469257736,802.9889858539248,
2023-12-20 14:07:23.766000,-24.397590361445783,-2.108433734939759,9.975903614457831,-1.3733905579399142,-8.572041692213366,4.934396076026977,3.0,1.2469752469752469,801.9405376535518,0.44939106112697325,0.3011479517510629,1.1245265427422637,2400.0,-1.0,104.4398406374502,1.2454151128276496,802.9471393930402,
2023-12-20 14:07:23.774000,-24.3855421686747,-2.096385542168675,9.951807228915664,-1.3390557939914163,-8.625996321275291,4.968730839975475,3.0,1.2469752469752469,801.9405376535518,0.44496241477769277,0.2989336285764235,1.1115902336693662,2271.7948717948716,-1.0,104.4398406374502,1.245479467621813,802.9056260396991,
2023-12-20 14:07:23.781000,-24.3855421686747,-2.1204819277108435,9.975903614457831,-1.4248927038626609,-8.589209074187615,4.922133660331085,3.0,1.2469752469752469,801.9405376535518,-1.1654332498083647E-4,0.43435697220441755,1.0227842200337982,2131.8681318681315,-1.0,104.4398406374502,1.245543293347519,802.8644572533497,
2023-12-20 14:07:23.789000,-24.3855421686747,-2.108433734939759,9.927710843373495,-1.3488657265481299,-8.52053954629062,4.9515634580012255,3.0,1.2469752469752469,801.9405376535518,0.3053435114503817,0.03507954081929947,1.069285006701241,1983.8827838827838,-1.0,104.4398406374502,1.245606571419961,802.8236448968888,
2023-12-20 14:07:23.797000,-24.397590361445783,-2.096385542168675,9.93975903614458,-1.3832004904966277,-8.576946658491723,4.909871244635193,3.0,1.2465312465312466,802.226179875334,0.2581434648330509,-0.22527824718839254,0.7081172425849318,1836.6300366300366,-1.0,104.4398406374502,1.2456692826764502,802.783201206769,
2023-12-20 14:07:23.804000,-24.3855421686747,-2.096385542168675,9.93975903614458,-1.3366033108522377,-8.569589209074188,4.919681177191906,3.0,1.2465312465312466,802.226179875334,0.3618670240661967,0.1139793718314785,0.5308548452887358,1693.040293040293,-1.0,104.4398406374502,1.2457314072847674,802.7431388517333,
2023-12-20 14:07:23.812000,-24.397590361445783,-2.0843373493975905,9.93975903614458,-1.4003678724708768,-8.557326793378294,4.919681177191906,3.0,1.2465312465312466,802.226179875334,0.5728104422819186,0.054891906066079854,0.7173241652584343,1556.0439560439559,-1.0,104.4398406374502,1.2457929249080135,802.703470825235,
2023-12-20 14:07:23.820000,-24.3855421686747,-2.0843373493975905,9.927710843373495,-1.2777437155119558,-8.601471489883506,4.892703862660944,3.0,1.2460872460872459,802.5120256547302,0.5232795291649677,0.2368160363615179,0.1414835965270084,1426.3736263736262,-1.0,104.4398406374502,1.245853814741851,802.6642104228307,
2023-12-20 14:07:23.827000,-24.3855421686747,-2.096385542168675,9.927710843373495,-1.3513182096873084,-8.58185162477008,4.8779889638258735,3.0,1.2460872460872459,802.5120256547302,0.5777052619311224,0.326437853271953,0.02843657129537877,1309.1575091575091,-1.0,104.4398406374502,1.245914055562698,802.6253712096931,
2023-12-20 14:07:23.835000,-24.3855421686747,-2.0843373493975905,9.927710843373495,-1.4248927038626609,-8.61128142244022,4.863274064990803,3.0,1.2460872460872459,802.5120256547302,0.42270263970631133,0.14055124992715953,-0.03577880076918666,1205.8608058608058,-1.0,104.4398406374502,1.2459736257340415,802.5869670166727,
2023-12-20 14:07:23.843000,-24.397590361445783,-2.108433734939759,9.91566265060241,-1.4126302881667687,-8.621091354996935,4.865726548129981,3.0,1.2460872460872459,802.5120256547302,0.3886719888118412,0.21910145096439607,-0.3301672396713484,1117.2161172161173,-1.0,104.4398406374502,1.2460325032548925,802.5490119103177,
2023-12-20 14:07:23.850000,-24.3855421686747,-2.108433734939759,9.93975903614458,-1.4224402207234825,-8.579399141630901,4.902513795217658,3.0,1.2460872460872459,802.5120256547302,0.20301847211700938,0.11258085193170499,-0.04102325039333341,1042.4908424908424,-1.0,104.4398406374502,1.24609066580811,802.5115201616426,
2023-12-20 14:07:23.858000,-24.3855421686747,-2.144578313253012,9.93975903614458,-1.3930104230533413,-8.591661557326793,4.946658491722869,3.0,1.2460872460872459,802.5120256547302,0.20255229881708603,-0.22189849076394133,0.32072723034788114,984.6153846153845,-1.0,104.4398406374502,1.24614809081904,802.474506208236,
2023-12-20 14:07:23.866000,-24.3855421686747,-2.132530120481928,9.93975903614458,-1.4420600858369097,-8.537706928264868,4.9000613120784795,3.0,1.2460872460872459,802.5120256547302,0.4137288036827696,-0.29671930540178243,0.268632364081347,940.6593406593406,-1.0,104.4398406374502,1.246204755503385,802.4379846233438,
2023-12-20 14:07:23.873000,-24.397590361445783,-2.144578313253012,9.93975903614458,-1.3488657265481299,-8.594114040465971,4.922133660331085,3.0,1.2456432456432456,802.7980752094102,0.06130178894003801,0.17912709049589104,0.4178078200571067,907.6923076923076,-1.0,104.4398406374502,1.2462606369253115,802.401970078349,
2023-12-20 14:07:23.881000,-24.3855421686747,-2.108433734939759,9.975903614457831,-1.4297976701410178,-8.552421827099938,4.946658491722869,3.0,1.2460872460872459,802.5120256547302,0.08985490356039848,-0.037993123943825584,0.5814346483305174,887.1794871794871,-1.0,104.4398406374502,1.2463157120341728,802.3664773180344,
2023-12-20 14:07:23.889000,-24.3855421686747,-2.1204819277108435,9.951807228915664,-1.4347026364193745,-8.554874310239116,4.895156345800122,3.0,1.2456432456432456,802.7980752094102,-0.10896800885729212,-0.18868364314433872,0.9730202202668847,881.3186813186812,-1.0,104.4398406374502,1.2463699578289915,802.3315210547003,
2023-12-20 14:07:23.896000,-24.3855421686747,-2.144578313253012,9.987951807228916,-1.366033108522379,-8.530349478847333,4.956468424279583,3.0,1.2456432456432456,802.7980752094102,-0.40044286463492823,-0.49099702814521345,1.0674203135015436,887.9120879120878,-1.0,104.4398406374502,1.246423351266672,802.2971160284334,
2023-12-20 14:07:23.904000,-24.3855421686747,-2.132530120481928,9.93975903614458,-1.4273451870018392,-8.58185162477008,4.931943592887799,3.0,1.2456432456432456,802.7980752094102,-0.21490589126507728,-0.4563836606258373,1.0400326321309945,909.1575091575091,-1.0,104.4398406374502,1.2464758691589937,802.2632770734137,
2023-12-20 14:07:23.912000,-24.3855421686747,-2.132530120481928,9.963855421686748,-1.3807480073574494,-8.545064377682403,4.934396076026977,3.0,1.2456432456432456,802.7980752094102,-0.6238564186236238,-0.2067478585164031,1.53137929025115,942.8571428571428,-1.0,104.4398406374502,1.2465274884949376,802.2300189092679,
2023-12-20 14:07:23.919000,-24.3855421686747,-2.132530120481928,9.951807228915664,-1.4297976701410178,-8.59656652360515,4.998160637645616,3.0,1.2456432456432456,802.7980752094102,-0.6807295612143814,-0.7080006992599492,1.6373171726589362,986.080586080586,-1.0,104.4398406374502,1.2465781863361396,802.197356209503,
2023-12-20 14:07:23.927000,-24.397590361445783,-2.108433734939759,9.987951807228916,-1.3464132434089515,-8.503372164316369,4.9589209074187615,3.0,1.245199245199245,803.0843287573543,-0.4779441757473337,-0.4563836606258373,1.4671639181865863,1038.8278388278388,-1.0,104.4398406374502,1.2466279398713143,802.1653035664233,
2023-12-20 14:07:23.935000,-24.3855421686747,-2.1204819277108435,9.963855421686748,-1.4297976701410178,-8.530349478847333,4.922133660331085,3.0,1.245199245199245,803.0843287573543,-0.503583707243168,-0.586795641279645,1.6034030650894462,1097.4358974358975,582.1533203125,103.06563220801006,1.246676726448748,802.1338754693625,
2023-12-20 14:07:23.942000,-24.3855421686747,-2.108433734939759,9.975903614457831,-1.4126302881667687,-8.559779276517473,4.990803188228081,3.0,1.245199245199245,803.0843287573543,-0.468970339723792,-0.27504224695530516,1.8135306800303015,1156.7765567765566,-1.0,103.06563220801006,1.246724523586793,802.1030862980684,
2023-12-20 14:07:23.950000,-24.3855421686747,-2.1204819277108435,9.963855421686748,-1.3488657265481299,-8.540159411404046,4.939301042305334,3.0,1.245199245199245,803.0843287573543,-0.2971854787017075,-0.14882582600081629,1.5180933512033103,1213.9194139194137,-1.0,103.06563220801006,1.2467713090043417,802.0729503040441,
2023-12-20 14:07:23.958000,-24.397590361445783,-2.1204819277108435,9.927710843373495,-1.356223175965665,-8.53525444512569,4.922133660331085,3.0,1.245199245199245,803.0843287573543,-0.5378474447875999,-0.4794592389720881,1.7746052094866256,1268.131868131868,-1.0,103.06563220801006,1.2468170606712297,802.0434815780827,
2023-12-20 14:07:23.965000,-24.397590361445783,-2.132530120481928,9.91566265060241,-1.3832004904966277,-8.525444512568976,4.875536480686695,3.0,1.245199245199245,803.0843287573543,-0.2736437270555334,-0.5218810092651941,1.6316065497348642,1319.4139194139193,-1.0,103.06563220801006,1.246861756985734,802.0146939350994,
2023-12-20 14:07:23.973000,-24.3855421686747,-2.132530120481928,9.93975903614458,-1.4150827713059473,-8.613733905579398,4.934396076026977,3.0,1.244311244311244,803.6574487065121,-0.544840044286464,-0.5028844472932813,1.4769535574849948,1364.102564102564,-1.0,103.06563220801006,1.2469053768024232,801.9866008963436,
2023-12-20 14:07:23.981000,-24.3855421686747,-2.132530120481928,9.951807228915664,-1.4224402207234825,-8.576946658491723,4.8706315144083385,3.0,1.244311244311244,803.6574487065121,-0.2645533477070108,-0.7117300856593447,1.7833459588602059,1400.0,-1.0,103.06563220801006,1.2469478992997456,801.9592157743004,
2023-12-20 14:07:23.988000,-24.3855421686747,-2.1204819277108435,9.91566265060241,-1.385652973635806,-8.599019006744328,4.8706315144083385,3.0,1.2447552447552446,803.370786516854,-0.07843365771225394,-0.7978556028203477,1.8547870170735974,1424.9084249084249,-1.0,103.06563220801006,1.2469893038041386,801.9325517872501,
2023-12-20 14:07:23.996000,-24.3855421686747,-2.1204819277108435,9.927710843373495,-1.4297976701410178,-8.53525444512569,4.904966278356836,3.0,1.2447552447552446,803.370786516854,-0.3080240079249461,-0.899481382203835,1.3916438435988576,1440.2930402930401,-1.0,103.06563220801006,1.2470295699735858,801.906621942304,
2023-12-20 14:07:24.004000,-24.3855421686747,-2.1204819277108435,9.927710843373495,-1.361128142244022,-8.59656652360515,4.865726548129981,3.0,1.2447552447552446,803.370786516854,-0.22865800361284375,-0.6514771866441342,1.5292815104014923,1443.956043956044,-1.0,103.06563220801006,1.2470686780112081,801.881438896842,
2023-12-20 14:07:24.011000,-24.397590361445783,-2.1204819277108435,9.903614457831326,-1.3733905579399142,-8.572041692213366,4.897608828939301,3.0,1.2447552447552446,803.370786516854,0.23075578346250228,-1.0894470019229647,1.4070275624963575,1439.5604395604394,-1.0,103.06563220801006,1.2471066086973466,801.857014937306,
2023-12-20 14:07:24.019000,-24.3855421686747,-2.132530120481928,9.879518072289157,-1.3709380748007356,-8.594114040465971,4.858369098712446,3.0,1.244311244311244,803.6574487065121,-0.058388205815511886,-1.2968941203892546,1.4975817260066433,1429.3040293040292,-1.0,103.06563220801006,1.2471433432718404,801.8333620559836,
2023-12-20 14:07:24.027000,-24.3855421686747,-2.132530120481928,9.91566265060241,-1.3586756591048437,-8.64316370324954,4.8779889638258735,3.0,1.244311244311244,803.6574487065121,0.32399044344735195,-1.4852281335586508,2.0005827166249057,1413.9194139194137,-1.0,103.06563220801006,1.2471788633256242,801.8104920211073,
2023-12-20 14:07:24.034000,-24.3855421686747,-2.108433734939759,9.903614457831326,-1.4003678724708768,-8.61128142244022,4.8412017167381975,3.0,1.244311244311244,803.6574487065121,0.10768603228250118,-1.6126099877629514,1.7678456966377254,1394.139194139194,-1.0,103.06563220801006,1.2472131509468518,801.7884162820894,
2023-12-20 14:07:24.042000,-24.3855421686747,-2.108433734939759,9.903614457831326,-1.3537706928264868,-8.618638871857755,4.865726548129981,3.0,1.244311244311244,803.6574487065121,0.0779674844123306,-2.0229590350212683,1.5352252199755254,1367.032967032967,-1.0,103.06563220801006,1.2472461888763595,801.7671458693515,
2023-12-20 14:07:24.050000,-24.3855421686747,-2.1204819277108435,9.903614457831326,-1.4003678724708768,-8.606376456161863,4.919681177191906,3.0,1.244311244311244,803.6574487065121,0.0787832876871982,-2.005943709574035,1.5164617446535755,1337.7289377289376,-1.0,103.06563220801006,1.2472779605238962,801.7466913840383,
2023-12-20 14:07:24.057000,-24.3855421686747,-2.0843373493975905,9.91566265060241,-1.3341508277130594,-8.547516860821581,4.954015941140405,3.0,1.244311244311244,803.6574487065121,0.18646931996969937,-2.0604859856651703,1.8500087407493722,1306.227106227106,-1.0,103.06563220801006,1.2473084498451383,801.7270630781275,
2023-12-20 14:07:24.065000,-24.3855421686747,-2.096385542168675,9.927710843373495,-1.3807480073574494,-8.618638871857755,4.931943592887799,3.0,1.2438672438672438,803.9443155452437,0.0027970397995452823,-2.1897325330691677,1.7367286288677815,1273.9926739926739,-1.0,103.06563220801006,1.2473376413773922,801.7082708314908,
2023-12-20 14:07:24.073000,-24.3855421686747,-2.072289156626506,9.91566265060241,-1.3881054567749846,-8.586756591048436,4.9368485591661555,3.0,1.2438672438672438,803.9443155452437,0.14323174640172398,-2.3509119515179773,1.9462735271837297,1244.6886446886447,-1.0,103.06563220801006,1.2473655202531853,801.6903241428257,
2023-12-20 14:07:24.080000,-24.3855421686747,-2.0843373493975905,9.951807228915664,-1.3390557939914163,-8.625996321275291,4.931943592887799,3.0,1.2438672438672438,803.9443155452437,0.3278363731717265,-2.2378649262863473,1.6959384651244105,1218.3150183150183,-1.0,103.06563220801006,1.2473920721917828,801.6732321353268,
2023-12-20 14:07:24.088000,-24.397590361445783,-2.072289156626506,9.951807228915664,-1.3635806253832004,-8.58185162477008,4.919681177191906,3.0,1.2438672438672438,803.9443155452437,0.3411223122195679,-2.2478876522347164,1.7658644601130455,1197.8021978021977,-1.0,103.06563220801006,1.2474172835106965,801.6570035498177,
2023-12-20 14:07:24.096000,-24.3855421686747,-2.072289156626506,9.963855421686748,-1.3194359288779889,-8.552421827099938,4.9515634580012255,3.0,1.2438672438672438,803.9443155452437,0.445312044752637,-2.2287745469378244,1.3651885088281552,1182.4175824175823,-1.0,103.06563220801006,1.2474411411572353,801.6416467244923,
2023-12-20 14:07:24.103000,-24.3855421686747,-2.060240963855422,10.0,-1.3267933782955241,-8.569589209074188,4.919681177191906,3.0,1.2438672438672438,803.9443155452437,0.5181516228658004,-2.2725948371307023,1.3473573801060552,1169.230769230769,-1.0,103.06563220801006,1.2474636328673447,801.627169492051,
2023-12-20 14:07:24.111000,-24.3855421686747,-2.060240963855422,9.975903614457831,-1.3537706928264868,-8.586756591048436,4.9589209074187615,3.0,1.2434232434232433,804.2313872522765,0.4835382553464243,-2.5307383019637566,1.3318571178835719,1158.2417582417581,-1.0,103.06563220801006,1.2474847471750479,801.6135791737676,
2023-12-20 14:07:24.119000,-24.397590361445783,-2.060240963855422,9.987951807228916,-1.2998160637645615,-8.613733905579398,4.931943592887799,3.0,1.2438672438672438,803.9443155452437,0.8315366237398754,-2.0224928617213447,1.2846570712662444,1147.2527472527472,-1.0,103.06563220801006,1.2475044732725302,801.6008826701247,
2023-12-20 14:07:24.126000,-24.3855421686747,-2.072289156626506,9.93975903614458,-1.3415082771305946,-8.576946658491723,5.0030656039239725,3.0,1.2425352425352425,804.8061461497232,0.488316531670649,-1.7176155235708865,1.4366295670415465,1137.7289377289376,-1.0,103.06563220801006,1.2475228010081256,801.5890864625253,
2023-12-20 14:07:24.134000,-24.3855421686747,-2.072289156626506,10.0,-1.3979153893316982,-8.574494175352545,4.971183323114653,3.0,1.2429792429792428,804.5186640471513,0.25313210185886625,-2.0547753627410974,1.3605267758289157,1129.6703296703297,-1.0,103.06563220801006,1.2475397207657994,801.5781966912834,
2023-12-20 14:07:24.142000,-24.3855421686747,-2.060240963855422,10.024096385542169,-1.331698344573881,-8.579399141630901,4.998160637645616,3.0,1.2429792429792428,804.5186640471513,0.5859798380047774,-2.1462618728512326,1.205873783579047,1124.5421245421244,-1.0,103.06563220801006,1.2475552235467642,801.5682191026503,
2023-12-20 14:07:24.149000,-24.3855421686747,-2.096385542168675,10.0,-1.3390557939914163,-8.547516860821581,4.971183323114653,3.0,1.2434232434232433,804.2313872522765,0.6247887652234723,-2.2379814696113263,1.3895460637491972,1123.076923076923,-1.0,103.06563220801006,1.24756930126254,801.559158859539,
2023-12-20 14:07:24.157000,-24.397590361445783,-2.072289156626506,10.012048192771084,-1.356223175965665,-8.498467198038012,5.017780502759043,3.0,1.2429792429792428,804.5186640471513,0.7109142823844771,-2.0978963929840937,1.1914224112813954,1120.14652014652,-1.0,103.06563220801006,1.2475819466121223,801.5510206213804,
2023-12-20 14:07:24.164000,-24.397590361445783,-2.072289156626506,10.024096385542169,-1.3415082771305946,-8.422440220723482,5.005518087063151,3.0,1.2434232434232433,804.2313872522765,0.8584581318105007,-2.276324223530096,1.0534351145038168,1117.9487179487178,-1.0,103.06563220801006,1.2475931529799869,801.5438086102089,
2023-12-20 14:07:24.172000,-24.397590361445783,-2.072289156626506,10.0,-1.2998160637645615,-8.522992029429798,4.97608828939301,3.0,1.2429792429792428,804.5186640471513,0.7297943010314091,-2.0252899015208916,1.222189849076394,1115.7509157509157,-1.0,103.06563220801006,1.2476029145791696,801.5375265179925,
2023-12-20 14:07:24.180000,-24.3855421686747,-2.060240963855422,10.0,-1.3341508277130594,-8.525444512568976,4.9368485591661555,3.0,1.2434232434232433,804.2313872522765,0.5406444845871452,-1.8639939397470981,1.3907114969990104,1112.8205128205127,-1.0,103.06563220801006,1.2476112263273837,801.5321775870195,
2023-12-20 14:07:24.187000,-24.3855421686747,-2.060240963855422,9.951807228915664,-1.4028203556100551,-8.613733905579398,4.971183323114653,3.0,1.2429792429792428,804.5186640471513,1.0552998077035136,-1.7500145679156232,1.2980595536390644,1110.6227106227107,-1.0,103.06563220801006,1.2476180839999509,801.5277645108923,
2023-12-20 14:07:24.195000,-24.3855421686747,-2.0481927710843375,9.951807228915664,-1.3390557939914163,-8.613733905579398,4.954015941140405,3.0,1.2429792429792428,804.5186640471513,0.9247712837247251,-1.9729619486043954,1.6620243575549205,1106.227106227106,-1.0,103.06563220801006,1.2476234843723155,801.5242893422817,
2023-12-20 14:07:24.203000,-24.3855421686747,-2.0481927710843375,9.987951807228916,-1.3930104230533413,-8.601471489883506,4.924586143470264,3.0,1.2429792429792428,804.5186640471513,0.7321251675310293,-2.0854262572111177,1.6284598799603736,1104.029304029304,-1.0,103.06563220801006,1.2476274247767698,801.5217537800721,
2023-12-20 14:07:24.210000,-24.3855421686747,-2.060240963855422,9.987951807228916,-1.361128142244022,-8.564684242795831,4.922133660331085,3.0,1.2429792429792428,804.5186640471513,0.5120913699667847,-2.1212050579803026,1.6538663248062473,1109.89010989011,-1.0,103.06563220801006,1.24762990326542,801.5201590639623,
2023-12-20 14:07:24.218000,-24.3855421686747,-2.060240963855422,10.0,-1.2973635806253832,-8.601471489883506,4.946658491722869,3.0,1.2429792429792428,804.5186640471513,0.7210535516578289,-1.9720296020045471,1.908163859914925,1123.8095238095236,-1.0,103.06563220801006,1.247630918761938,801.5195058761877,
2023-12-20 14:07:24.226000,-24.3855421686747,-2.024096385542169,10.048192771084338,-1.3488657265481299,-8.589209074187615,5.037400367872471,3.0,1.2425352425352425,804.8061461497232,0.7299108443563899,-2.419206339956879,2.0840277373113443,1153.113553113553,-1.0,103.06563220801006,1.247630471064159,801.519794339884,
2023-12-20 14:07:24.233000,-24.397590361445783,-2.036144578313253,10.036144578313253,-1.2115266707541386,-8.542611894543224,4.954015941140405,3.0,1.2425352425352425,804.8061461497232,0.48050812889691735,-2.2096614416409293,1.9347357380106045,1208.7912087912086,-1.0,103.06563220801006,1.2476285605587383,801.5210242038646,
2023-12-20 14:07:24.241000,-24.3855421686747,-2.036144578313253,9.987951807228916,-1.2409564684242795,-8.603923973022685,4.956468424279583,3.0,1.2425352425352425,804.8061461497232,0.47444787599790167,-2.9324631431734742,1.9263446186119668,1298.168498168498,-1.0,103.06563220801006,1.2476251882224665,801.5231948417901,
2023-12-20 14:07:24.249000,-24.3855421686747,-2.0120481927710845,10.012048192771084,-1.290006131207848,-8.508277130594728,5.0030656039239725,3.0,1.2425352425352425,804.8061461497232,0.5159372996911593,-2.76627236175048,2.1312277839286757,1420.5128205128203,-1.0,103.06563220801006,1.2476203559102017,801.5263050657425,
2023-12-20 14:07:24.256000,-24.3855421686747,-2.0120481927710845,10.012048192771084,-1.2458614347026364,-8.48620478234212,5.0324954015941135,3.0,1.2425352425352425,804.8061461497232,0.15814929199930056,-2.69296661033739,1.9987180234252078,1576.5567765567764,-1.0,103.06563220801006,1.2476140663548296,801.5303531262423,
2023-12-20 14:07:24.264000,-24.3855421686747,-2.0,10.060240963855422,-1.290006131207848,-8.48620478234212,4.97608828939301,3.0,1.2425352425352425,804.8061461497232,0.07808402773731143,-2.5887768778043245,1.8657420896218155,1758.2417582417581,-1.0,103.06563220801006,1.2476063231672636,801.5353367122315,
2023-12-20 14:07:24.272000,-24.397590361445783,-2.0,10.036144578313253,-1.2949110974862048,-8.481299816063764,5.034947884733292,3.0,1.2425352425352425,804.8061461497232,0.017481498747158448,-2.7317755375560884,1.8403356447759456,1952.3809523809523,-1.0,103.06563220801006,1.2475971308364608,801.5412529510327,
2023-12-20 14:07:24.279000,-24.3855421686747,-2.0,10.036144578313253,-1.2998160637645615,-8.542611894543224,5.106069895769466,3.0,1.2416472416472415,805.3817271589487,0.33471242934560974,-2.356739117767028,1.95268341005769,2142.8571428571427,-1.0,103.06563220801006,1.2475864945906592,801.5480984980895,
2023-12-20 14:07:24.287000,-24.3855421686747,-2.0,10.060240963855422,-1.3366033108522377,-8.513182096873084,5.061925199264254,3.0,1.2420912420912418,805.0938337801609,-0.11048307208204645,-1.8881184080181799,1.941029077559583,2320.879120879121,-1.0,103.06563220801006,1.2475744203965997,801.5558695376924,
2023-12-20 14:07:24.295000,-24.3855421686747,-1.9879518072289157,10.084337349397591,-1.2360515021459226,-8.52053954629062,5.0324954015941135,3.0,1.2420912420912418,805.0938337801609,0.08752403706077655,-2.30977215779966,1.964221199230815,2473.260073260073,-1.0,103.06563220801006,1.24756091503339,801.5645617350428,
2023-12-20 14:07:24.302000,-24.397590361445783,-1.9879518072289157,10.10843373493976,-1.30226854690374,-8.564684242795831,5.103617412630288,3.0,1.2420912420912418,805.0938337801609,0.3899539653866321,-2.771866441349569,1.5412854728745422,2592.6739926739924,-1.0,103.06563220801006,1.247545985972722,801.5741703133845,
2023-12-20 14:07:24.310000,-24.3855421686747,-1.9879518072289157,10.132530120481928,-1.260576333537707,-8.545064377682403,5.130594727161251,3.0,1.2420912420912418,805.0938337801609,0.6155818425499672,-2.6943651302371654,1.8563020802983494,2671.7948717948716,-1.0,103.06563220801006,1.2475296414072252,801.5846900356927,
2023-12-20 14:07:24.318000,-24.3855421686747,-1.9879518072289157,10.120481927710843,-1.2434089515634579,-8.476394849785407,5.10116492949111,3.0,1.2420912420912418,805.0938337801609,0.1964920459180704,-2.7423809801293637,1.573334887244333,2708.424908424908,-1.0,103.06563220801006,1.2475118903954683,801.596115110754,
2023-12-20 14:07:24.325000,-24.3855421686747,-1.9879518072289157,10.096385542168676,-1.285101164929491,-8.572041692213366,5.152667075413857,3.0,1.2420912420912418,805.0938337801609,0.19462735271837353,-2.7125458889342107,1.5513081988229107,2701.8315018315016,-1.0,103.06563220801006,1.2474927428574087,801.6084391960018,
2023-12-20 14:07:24.333000,-24.3855421686747,-1.9759036144578315,10.120481927710843,-1.2654812998160636,-8.496014714898834,5.037400367872471,3.0,1.2420912420912418,805.0938337801609,0.4792261523221264,-2.224928617213448,1.5581842549967964,2654.212454212454,-1.0,103.06563220801006,1.2474722095695185,801.6216554005415,
2023-12-20 14:07:24.341000,-24.3855421686747,-1.9879518072289157,10.120481927710843,-1.2998160637645615,-8.542611894543224,5.106069895769466,3.0,1.2420912420912418,805.0938337801609,0.5194335994405913,-1.6326554396596917,1.3374511974826655,2573.6263736263736,-1.0,103.06563220801006,1.2474503020208334,801.6357563780967,
2023-12-20 14:07:24.348000,-24.3855421686747,-1.9879518072289157,10.10843373493976,-1.2777437155119558,-8.503372164316369,5.071735131820969,3.0,1.2420912420912418,805.0938337801609,0.542509177786842,-1.3523687430802385,1.498397529281512,2463.7362637362635,-1.0,103.06563220801006,1.2474270324277072,801.6507343173163,
2023-12-20 14:07:24.356000,-24.3855421686747,-1.9879518072289157,10.10843373493976,-1.2409564684242795,-8.522992029429798,5.118332311465358,3.0,1.2416472416472415,805.3817271589487,0.5951867606782826,-0.6116193695006135,1.4318512907173249,2331.135531135531,-1.0,103.06563220801006,1.2474024138757553,801.6665808498536,
2023-12-20 14:07:24.364000,-24.3855421686747,-1.9759036144578315,10.096385542168676,-1.30226854690374,-8.464132434089516,5.039852851011649,3.0,1.2420912420912418,805.0938337801609,0.4960083911193981,-0.21443971796515218,1.468912068061301,2182.4175824175823,-1.0,103.06563220801006,1.2473764601629032,801.6832871519499,
2023-12-20 14:07:24.371000,-24.3855421686747,-1.9879518072289157,10.060240963855422,-1.2654812998160636,-8.469037400367872,5.007970570202329,3.0,1.2420912420912418,805.0938337801609,0.45987996037526935,-0.2633879144572007,1.0329234893071508,2024.1758241758241,-1.0,103.06563220801006,1.2473491859188115,801.700843866813,
2023-12-20 14:07:24.379000,-24.3855421686747,-1.9879518072289157,10.048192771084338,-1.226241569589209,-8.532801961986511,5.030042918454935,3.0,1.2416472416472415,805.3817271589487,0.30184721170094964,-0.31373463084901926,0.8451721927626604,1864.4688644688642,-1.0,103.06563220801006,1.2473206067554148,801.7192410068014,
2023-12-20 14:07:24.387000,-24.3855421686747,-1.9879518072289157,10.036144578313253,-1.2434089515634579,-8.481299816063764,4.985898221949724,3.0,1.2416472416472415,805.3817271589487,0.3873900122370485,-0.4250335062059333,0.8572926985606887,1709.8901098901097,-1.0,103.06563220801006,1.2472907389698569,801.7384681458324,
2023-12-20 14:07:24.394000,-24.3855421686747,-1.9879518072289157,9.987951807228916,-1.2213366033108521,-8.540159411404046,4.941753525444512,3.0,1.2416472416472415,805.3817271589487,0.25989161470776695,-0.5197832294155339,0.5186177961657238,1566.3003663003662,-1.0,103.06563220801006,1.2472595995131033,801.7585144395156,
2023-12-20 14:07:24.402000,-24.3855421686747,-1.963855421686747,9.975903614457831,-1.2581238503985284,-8.559779276517473,5.076640098099325,3.0,1.2416472416472415,805.3817271589487,0.4091836140085083,-0.9640463842433433,0.547287454111067,1432.9670329670328,-1.0,103.06563220801006,1.2472272059781961,801.7793686322132,
2023-12-20 14:07:24.410000,-24.3855421686747,-1.9518072289156627,10.060240963855422,-1.2360515021459226,-8.562231759656651,5.037400367872471,3.0,1.2416472416472415,805.3817271589487,0.39042013868655717,-1.3576131927043884,0.7309597342812209,1312.087912087912,-1.0,103.06563220801006,1.2471935766081073,801.8010190517551,
2023-12-20 14:07:24.417000,-24.3855421686747,-1.963855421686747,10.048192771084338,-1.179644389944819,-8.564684242795831,5.071735131820969,3.0,1.2416472416472415,805.3817271589487,0.2785385467047372,-1.4421071033156596,0.7117300856593431,1205.8608058608058,-1.0,103.06563220801006,1.247158730430393,801.8234535222172,
2023-12-20 14:07:24.425000,-24.397590361445783,-1.9518072289156627,10.10843373493976,-1.1820968730839976,-8.53525444512569,5.071735131820969,3.0,1.2416472416472415,805.3817271589487,0.37923197948837434,-1.848726764174579,0.6758347415651761,1114.2857142857142,-1.0,103.06563220801006,1.247122687241892,801.8466593735857,
2023-12-20 14:07:24.433000,-24.3855421686747,-1.9036144578313254,10.120481927710843,-1.1673819742489269,-8.569589209074188,5.091354996934395,3.0,1.2403152403152402,806.2466439949884,0.23600023308665033,-2.4798088689470306,0.8401608297884746,1036.6300366300366,-1.0,103.06563220801006,1.2470854675927219,801.8706234518621,
2023-12-20 14:07:24.440000,-24.3855421686747,-1.927710843373494,10.144578313253012,-1.1575720416922133,-8.584304107909258,5.125689760882894,3.0,1.2407592407592405,805.9581320450886,0.5067303770176559,-2.7529864227026386,0.9125342346017115,975.091575091575,-1.0,103.06563220801006,1.2470470924604213,801.895332330811,
2023-12-20 14:07:24.448000,-24.3855421686747,-1.9156626506024097,10.156626506024097,-1.1870018393623543,-8.557326793378294,5.167381974248927,3.0,1.2407592407592405,805.9581320450886,0.2559291416584115,-2.8866616164559167,0.9085717615523567,925.2747252747253,-1.0,103.06563220801006,1.2470075832957437,801.9207722817885,
2023-12-20 14:07:24.456000,-24.397590361445783,-1.8915662650602412,10.204819277108435,-1.155119558553035,-8.527896995708154,5.187001839362354,3.0,1.2407592407592405,805.9581320450886,0.46640638657420835,-2.927451780199288,0.5521822737602715,892.3076923076923,-1.0,103.06563220801006,1.2469669621507016,801.9469291893525,
2023-12-20 14:07:24.463000,-24.3855421686747,-1.8795180722891567,10.216867469879519,-1.1600245248313916,-8.478847332924586,5.206621704475782,3.0,1.2407592407592405,805.9581320450886,0.5670998193578471,-2.2339024532369898,0.3665287570654397,872.5274725274725,-1.0,103.06563220801006,1.2469252515382756,801.9737886421739,
2023-12-20 14:07:24.471000,-24.3855421686747,-1.9156626506024097,10.19277108433735,-1.1673819742489269,-8.53525444512569,5.199264255058246,3.0,1.2407592407592405,805.9581320450886,0.14789347940096786,-1.7455859215663445,0.10652059903269118,867.3992673992674,-1.0,103.06563220801006,1.2468824744183715,802.0013359418073,
