Shimmer_F5D4_Timestamp_FormattedUnix_CAL,Shimmer_F5D4_Accel_LN_X_CAL,Shimmer_F5D4_Accel_LN_Y_CAL,Shimmer_F5D4_Accel_LN_Z_CAL,Shimmer_F5D4_Accel_WR_X_CAL,Shimmer_F5D4_Accel_WR_Y_CAL,Shimmer_F5D4_Accel_WR_Z_CAL,Shimmer_F5D4_GSR_Range_CAL,Shimmer_F5D4_GSR_Skin_Conductance_CAL,Shimmer_F5D4_GSR_Skin_Resistance_CAL,Shimmer_F5D4_Gyro_X_CAL,Shimmer_F5D4_Gyro_Y_CAL,Shimmer_F5D4_Gyro_Z_CAL,Shimmer_F5D4_PPG_A13_CAL,Shimmer_F5D4_PPG_IBI_CAL,Shimmer_F5D4_PPGtoHR_CAL,Shimmer_F5D4_GSR_Skin_Conductance_LPF_CAL,
yyyy/mm/dd hh:mm:ss.000,m/(s^2),m/(s^2),m/(s^2),m/(s^2),m/(s^2),m/(s^2),no_units,uS,kOhms,deg/s,deg/s,deg/s,mV,ms,BPM,uS,
2023-08-12 10:12:32.964000,-8.674698795180724,-0.14457831325301207,-4.626506024096386,-0.03188228080931944,-8.56713672593501,-4.350705088902513,3.0,0.2626262626262626,3807.6923076923076,0.08064798088689504,0.146028786201271,-0.21409008799021054,2261.5384615384614,-1.0,68.11293954616318,0.2625204012934335,
2023-08-12 10:12:32.972000,-8.674698795180724,-0.16867469879518074,-4.650602409638554,-0.0956468424279583,-8.491109748620477,-4.35561005518087,3.0,0.2626262626262626,3807.6923076923076,-0.4095332439834508,0.12866383077909166,-0.3495134316182042,2333.333333333333,-1.0,68.11293954616318,0.26252021672178016,
2023-08-12 10:12:32.980000,-8.674698795180724,-0.1566265060240964,-4.674698795180723,-0.11771919068056406,-8.513182096873084,-4.331085223789086,3.0,0.2626262626262626,3807.6923076923076,-0.422935726356273,-0.2706136006060247,-0.25627877163335494,2379.487179487179,-1.0,68.11293954616318,0.2625199902371706,
2023-08-12 10:12:32.987000,-8.650602409638555,-0.1566265060240964,-4.662650602409639,-0.07357449417535254,-8.537706928264868,-4.335990190067443,3.0,0.2626262626262626,3807.6923076923076,-0.4220033797564246,-0.2685158207563662,-0.2563953149583358,2400.0,-1.0,68.11293954616318,0.2625197215325574,
2023-08-12 10:12:32.995000,-8.66265060240964,-0.1566265060240964,-4.63855421686747,-0.06621704475781728,-8.564684242795831,-4.274678111587982,3.0,0.2626262626262626,3807.6923076923076,-0.48050812889691735,-0.7424975234543445,-0.04067362041839047,2397.069597069597,-1.0,68.11293954616318,0.2625194105662925,
2023-08-12 10:12:33.003000,-8.66265060240964,-0.16867469879518074,-4.626506024096386,-0.09809932556713671,-8.56713672593501,-4.301655426118945,3.0,0.2626262626262626,3807.6923076923076,-0.4451955014276562,-0.1744653574966489,0.11223122195676248,2370.6959706959706,-1.0,68.11293954616318,0.2625190574056653,
2023-08-12 10:12:33.010000,-8.650602409638555,-0.1566265060240964,-4.626506024096386,-0.0956468424279583,-8.540159411404046,-4.284488044144696,3.0,0.2626262626262626,3807.6923076923076,-0.4206048598566511,-0.22329701066371485,-0.01083852922323862,2323.809523809524,-1.0,68.11293954616318,0.2625186621016965,
2023-08-12 10:12:33.018000,-8.650602409638555,-0.14457831325301207,-4.578313253012048,-0.02452483139178418,-8.518087063151441,-4.284488044144696,3.0,0.2626262626262626,3807.6923076923076,-0.6261872851232441,0.17003671114736846,0.21921799428937688,2260.07326007326,-1.0,68.11293954616318,0.26251822484036347,
2023-08-12 10:12:33.026000,-8.650602409638555,-0.14457831325301207,-4.626506024096386,-0.06866952789699571,-8.540159411404046,-4.220723482526058,3.0,0.2626262626262626,3807.6923076923076,-0.3717732066895869,0.16665695472291897,0.15919818192413027,2185.3479853479853,-1.0,68.11293954616318,0.26251774594423344,
2023-08-12 10:12:33.033000,-8.650602409638555,-0.14457831325301207,-4.602409638554217,-0.07357449417535254,-8.515634580012263,-4.29429797670141,3.0,0.2626262626262626,3807.6923076923076,-0.3933337218110833,0.2097779849659118,0.018996561971913226,2105.4945054945056,-1.0,68.11293954616318,0.26251722601253674,
2023-08-12 10:12:33.041000,-8.63855421686747,-0.13253012048192772,-4.614457831325302,-0.07847946045370938,-8.513182096873084,-4.291845493562231,3.0,0.2626262626262626,3807.6923076923076,-0.6177961657246083,0.4193228832818602,0.018180758697045635,2021.9780219780218,-1.0,68.11293954616318,0.26251666576303323,
2023-08-12 10:12:33.049000,-8.614457831325302,-0.14457831325301207,-4.63855421686747,-0.08338442673206621,-8.50091968117719,-4.284488044144696,3.0,0.2626262626262626,3807.6923076923076,-0.6239729619486047,0.3709574034147193,-0.05687314259075798,1934.065934065934,-1.0,68.11293954616318,0.26251606590505544,
2023-08-12 10:12:33.056000,-8.626506024096386,-0.1566265060240964,-4.63855421686747,-0.09074187614960147,-8.47148988350705,-4.282035561005518,3.0,0.2626262626262626,3807.6923076923076,-0.6902861138628291,0.19975525901753902,-0.037760037293863916,1851.2820512820513,-1.0,68.11293954616318,0.26251542742765654,
2023-08-12 10:12:33.064000,-8.590361445783133,-0.1566265060240964,-4.626506024096386,-0.09319435928877988,-8.45677498467198,-4.3408951563458,3.0,0.2626262626262626,3807.6923076923076,-0.9374745061476606,-0.04533535341763217,-0.2174698444146613,1775.8241758241757,-1.0,68.11293954616318,0.26251475157896986,
2023-08-12 10:12:33.072000,-8.578313253012048,-0.16867469879518074,-4.63855421686747,-0.13979153893316984,-8.481299816063764,-4.335990190067443,3.0,0.2626262626262626,3807.6923076923076,-0.4178078200571058,-0.5202494027154589,-0.15383718897500137,1706.227106227106,-1.0,68.11293954616318,0.2625140395788298,
2023-08-12 10:12:33.079000,-8.590361445783133,-0.16867469879518074,-4.626506024096386,-0.07112201103617412,-8.419987737584304,-4.331085223789086,3.0,0.2626262626262626,3807.6923076923076,-0.31641512732358196,-0.3348289726705906,-0.0745877279878794,1643.2234432234432,-1.0,68.11293954616318,0.26251329263923556,
2023-08-12 10:12:33.087000,-8.602409638554217,-0.16867469879518074,-4.63855421686747,-0.06621704475781728,-8.518087063151441,-4.313917841814837,3.0,0.2626262626262626,3807.6923076923076,-0.29333954897733294,-0.34659984849367764,0.2501019754093584,1583.150183150183,-1.0,68.11293954616318,0.2625125122505879,
2023-08-12 10:12:33.095000,-8.602409638554217,-0.1566265060240964,-4.63855421686747,-0.07357449417535254,-8.496014714898834,-4.304107909258124,3.0,0.2626262626262626,3807.6923076923076,-0.08973836023541765,-0.1309946972787136,0.0961482431093758,1526.7399267399267,-1.0,68.11293954616318,0.2625117000203605,
2023-08-12 10:12:33.102000,-8.578313253012048,-0.1566265060240964,-4.63855421686747,-0.08338442673206621,-8.432250153280195,-4.377682403433476,3.0,0.2626262626262626,3807.6923076923076,-0.08565934386107969,0.31326845754909416,-0.19183031291882738,1476.923076923077,-1.0,68.11293954616318,0.26251085768164045,
2023-08-12 10:12:33.110000,-8.614457831325302,-0.18072289156626506,-4.626506024096386,-0.07112201103617412,-8.476394849785407,-4.255058246474555,3.0,0.2626262626262626,3807.6923076923076,-0.31350154419905585,0.09673095973428172,-0.08181341413670515,1432.2344322344322,-1.0,68.11293954616318,0.26250998708010626,
2023-08-12 10:12:33.117000,-8.63855421686747,-0.16867469879518074,-4.626506024096386,-0.06376456161863887,-8.545064377682403,-4.284488044144696,3.0,0.2626262626262626,3807.6923076923076,-0.15779966202435805,0.3886719888118412,0.057922032515587675,1393.4065934065934,-1.0,68.11293954616318,0.26250909004283496,
2023-08-12 10:12:33.125000,-8.66265060240964,-0.18072289156626506,-4.578313253012048,-0.134886572654813,-8.53525444512569,-4.296750459840588,3.0,0.2626262626262626,3807.6923076923076,0.2407785094108733,0.38494260241244743,-0.04941436979197012,1356.7765567765566,-1.0,68.11293954616318,0.26250816852343234,
2023-08-12 10:12:33.133000,-8.66265060240964,-0.16867469879518074,-4.602409638554217,-0.056407112201103615,-8.532801961986511,-4.264868179031269,3.0,0.2626262626262626,3807.6923076923076,0.1794767204708353,0.5963521939280927,-0.15383718897500137,1320.14652014652,-1.0,68.11293954616318,0.26250722459748865,
2023-08-12 10:12:33.140000,-8.686746987951807,-0.1566265060240964,-4.626506024096386,-0.13733905579399142,-8.606376456161863,-4.318822808093194,3.0,0.2626262626262626,3807.6923076923076,0.2695647106811954,0.10150923605850469,-0.09195268341005788,1284.9816849816848,-1.0,68.11293954616318,0.2625062605964136,
2023-08-12 10:12:33.148000,-8.686746987951807,-0.1566265060240964,-4.602409638554217,-0.08583690987124463,-8.584304107909258,-4.301655426118945,3.0,0.2626262626262626,3807.6923076923076,0.2225977507138281,0.2371656663364604,0.09253540003496293,1250.5494505494505,-1.0,68.11293954616318,0.26250527894303405,
2023-08-12 10:12:33.156000,-8.66265060240964,-0.13253012048192772,-4.614457831325302,-0.009809932556713672,-8.58185162477008,-4.318822808093194,3.0,0.2626262626262626,3807.6923076923076,0.6494959501194565,0.3270205698968589,-0.058621292465474,1220.5128205128203,-1.0,68.11293954616318,0.26250428201836085,
2023-08-12 10:12:33.163000,-8.674698795180724,-0.12048192771084337,-4.614457831325302,-0.03188228080931944,-8.562231759656651,-4.306560392397302,3.0,0.2626262626262626,3807.6923076923076,0.5693141425324866,0.049763999766912634,-0.22387972728861946,1194.8717948717947,-1.0,68.11293954616318,0.2625032723047306,
2023-08-12 10:12:33.171000,-8.698795180722891,-0.13253012048192772,-4.626506024096386,-0.11526670754138564,-8.513182096873084,-4.345800122624157,3.0,0.2626262626262626,3807.6923076923076,0.44309772157799593,-0.13705495017772923,0.08507662723617508,1172.161172161172,-1.0,68.11293954616318,0.26250225237933716,
2023-08-12 10:12:33.179000,-8.674698795180724,-0.13253012048192772,-4.650602409638554,-0.06866952789699571,-8.530349478847333,-4.360515021459228,3.0,0.2626262626262626,3807.6923076923076,0.34928034496824206,0.01596643552240584,0.2527824718839229,1157.5091575091574,-1.0,68.11293954616318,0.26250122490745975,
2023-08-12 10:12:33.186000,-8.63855421686747,-0.14457831325301207,-4.63855421686747,0.017167381974248927,-8.569589209074188,-4.338442673206622,3.0,0.2621822621822622,3814.1405588484336,0.1495250859507013,-0.307557834625021,0.32538896334712414,1149.4505494505493,-1.0,68.11293954616318,0.26250019263541174,
2023-08-12 10:12:33.194000,-8.66265060240964,-0.14457831325301207,-4.662650602409639,-0.10055180870631514,-8.537706928264868,-4.333537706928265,3.0,0.2626262626262626,3807.6923076923076,0.16560806479808798,-0.1537206456500201,0.4153604102325039,1150.9157509157508,-1.0,68.11293954616318,0.262499158233932,
2023-08-12 10:12:33.202000,-8.650602409638555,-0.13253012048192772,-4.662650602409639,-0.02452483139178418,-8.493562231759656,-4.372777437155119,3.0,0.2621822621822622,3814.1405588484336,0.08880601363556921,0.0451022667676705,0.21420663131519138,1159.7069597069597,-1.0,68.11293954616318,0.26249812441804654,
2023-08-12 10:12:33.209000,-8.626506024096386,-0.14457831325301207,-4.650602409638554,-0.11281422440220723,-8.451870018393624,-4.35561005518087,3.0,0.2621822621822622,3814.1405588484336,-0.3386749023949651,0.42305226968125387,0.25837655148301386,1172.161172161172,-1.0,68.11293954616318,0.2624970940876864,
2023-08-12 10:12:33.217000,-8.626506024096386,-0.1566265060240964,-4.662650602409639,-0.056407112201103615,-8.483752299202942,-4.333537706928265,3.0,0.2621822621822622,3814.1405588484336,-0.3060427714002684,0.020628168521647974,0.18075869704562667,1189.0109890109889,-1.0,68.11293954616318,0.2624960701385246,
2023-08-12 10:12:33.225000,-8.602409638554217,-0.1566265060240964,-4.686746987951808,-0.08338442673206621,-8.530349478847333,-4.29429797670141,3.0,0.2626262626262626,3807.6923076923076,-0.39683002156051533,0.15896509527416816,0.16455917487325916,1209.5238095238094,-1.0,68.11293954616318,0.2624950554427208,
2023-08-12 10:12:33.232000,-8.590361445783133,-0.18072289156626506,-4.662650602409639,-0.1520539546290619,-8.478847332924586,-4.343347639484978,3.0,0.2626262626262626,3807.6923076923076,-0.5037002505681489,-0.284482256278772,0.33273119282093117,1229.3040293040292,-1.0,68.11293954616318,0.262494052988981,
2023-08-12 10:12:33.240000,-8.590361445783133,-0.18072289156626506,-4.650602409638554,-0.08338442673206621,-8.481299816063764,-4.375229920294298,3.0,0.2626262626262626,3807.6923076923076,-0.4872676417458197,-0.17458190082162975,-0.09684750305926212,1245.4212454212454,-1.0,68.11293954616318,0.2624930657559655,
2023-08-12 10:12:33.248000,-8.578313253012048,-0.1927710843373494,-4.662650602409639,-0.0956468424279583,-8.444512568976087,-4.316370324954016,3.0,0.2621822621822622,3814.1405588484336,-0.2132742847153421,0.22469553056348662,-0.3871569255870868,1256.4102564102564,-1.0,68.11293954616318,0.2624920965854372,
2023-08-12 10:12:33.255000,-8.602409638554217,-0.18072289156626506,-4.698795180722891,-0.10545677498467197,-8.444512568976087,-4.382587369711833,3.0,0.2626262626262626,3807.6923076923076,-0.3983450847852697,-0.0692267350387505,-0.18518734339490714,1264.4688644688645,-1.0,68.11293954616318,0.2624911481722658,
2023-08-12 10:12:33.263000,-8.626506024096386,-0.16867469879518074,-4.674698795180723,-0.08338442673206621,-8.442060085836909,-4.345800122624157,3.0,0.2621822621822622,3814.1405588484336,-0.3961307616106286,-0.06945982168871218,-0.1844880834450208,1271.7948717948716,-1.0,68.11293954616318,0.2624902231818676,
2023-08-12 10:12:33.271000,-8.63855421686747,-0.1566265060240964,-4.650602409638554,-0.09809932556713671,-8.469037400367872,-4.367872470876763,3.0,0.2626262626262626,3807.6923076923076,-0.6062583765514828,0.0374104073189214,0.0010488899248296977,1278.3882783882782,-1.0,68.11293954616318,0.26248932424993643,
2023-08-12 10:12:33.278000,-8.650602409638555,-0.1566265060240964,-4.63855421686747,-0.08828939301042305,-8.47148988350705,-4.318822808093194,3.0,0.2621822621822622,3814.1405588484336,-0.5105763067420321,-0.07062525493852402,0.0924188567099821,1284.2490842490843,-1.0,68.11293954616318,0.2624884539611187,
2023-08-12 10:12:33.286000,-8.66265060240964,-0.1566265060240964,-4.674698795180723,-0.05885959534028203,-8.540159411404046,-4.331085223789086,3.0,0.2626262626262626,3807.6923076923076,-0.5045160538430165,0.21712021443971838,0.07831711438727354,1287.9120879120878,-1.0,68.11293954616318,0.26248761498756773,
2023-08-12 10:12:33.294000,-8.66265060240964,-0.16867469879518074,-4.662650602409639,-0.1103617412630288,-8.545064377682403,-4.264868179031269,3.0,0.2626262626262626,3807.6923076923076,-0.40801818075869645,0.13950236000233027,-0.16654041139793727,1288.6446886446886,-1.0,68.11293954616318,0.26248681004740654,
2023-08-12 10:12:33.301000,-8.63855421686747,-0.16867469879518074,-4.63855421686747,-0.034334763948497854,-8.559779276517473,-4.333537706928265,3.0,0.2626262626262626,3807.6923076923076,-0.5691975992075057,-0.1848377134199642,-0.07423809801293646,1285.7142857142856,-1.0,68.11293954616318,0.26248604176734436,
2023-08-12 10:12:33.309000,-8.63855421686747,-0.18072289156626506,-4.614457831325302,-0.07357449417535254,-8.530349478847333,-4.267320662170447,3.0,0.2626262626262626,3807.6923076923076,-0.5916904609288506,-0.24578987238505967,-0.058388205815511886,1277.6556776556777,-1.0,68.11293954616318,0.26248531255593543,
2023-08-12 10:12:33.317000,-8.650602409638555,-0.16867469879518074,-4.626506024096386,-0.041692213366033105,-8.545064377682403,-4.343347639484978,3.0,0.2626262626262626,3807.6923076923076,-0.46104539362507946,-0.1086183788823496,0.13985198997727408,1265.2014652014652,-1.0,68.11293954616318,0.2624846247433421,
2023-08-12 10:12:33.324000,-8.66265060240964,-0.1566265060240964,-4.626506024096386,-0.06621704475781728,-8.527896995708154,-4.348252605763335,3.0,0.2626262626262626,3807.6923076923076,-0.40720237748382887,0.029135831245264657,0.3659460404405338,1250.5494505494505,-1.0,68.11293954616318,0.2624839805721856,
2023-08-12 10:12:33.332000,-8.63855421686747,-0.16867469879518074,-4.626506024096386,-0.08828939301042305,-8.48620478234212,-4.296750459840588,3.0,0.2626262626262626,3807.6923076923076,-0.446594021327428,0.22807528698793783,0.3910028553114622,1231.5018315018315,-1.0,68.11293954616318,0.2624833823275711,
2023-08-12 10:12:33.340000,-8.650602409638555,-0.16867469879518074,-4.626506024096386,-0.06376456161863887,-8.493562231759656,-4.338442673206622,3.0,0.2626262626262626,3807.6923076923076,-0.4101159606083567,-0.04603461336751892,-0.07353883806305013,1210.2564102564102,-1.0,68.11293954616318,0.2624828321697012,
2023-08-12 10:12:33.347000,-8.650602409638555,-0.1566265060240964,-4.614457831325302,-0.004904966278356836,-8.572041692213366,-4.311465358675659,3.0,0.2626262626262626,3807.6923076923076,-0.8797855602820355,-0.3053435114503817,0.0791329176621407,1190.4761904761904,-1.0,68.11293954616318,0.26248233213725575,
2023-08-12 10:12:33.355000,-8.650602409638555,-0.14457831325301207,-4.614457831325302,-0.06376456161863887,-8.540159411404046,-4.301655426118945,3.0,0.2621822621822622,3814.1405588484336,-0.43039449915506045,-0.027970397995454557,0.4319095623798148,1172.161172161172,-1.0,68.11293954616318,0.2624818841301438,
2023-08-12 10:12:33.363000,-8.614457831325302,-0.13253012048192772,-4.626506024096386,-0.04904966278356836,-8.50091968117719,-4.2624156958920905,3.0,0.2621822621822622,3814.1405588484336,-0.454169337451198,0.033914107569489364,0.21420663131519138,1157.5091575091574,-1.0,68.11293954616318,0.26248148976450364,
2023-08-12 10:12:33.370000,-8.602409638554217,-0.14457831325301207,-4.626506024096386,-0.09319435928877988,-8.505824647455547,-4.301655426118945,3.0,0.2626262626262626,3807.6923076923076,-0.06479808868947004,-0.03146669774488659,0.09218577006001999,1144.3223443223442,-1.0,68.11293954616318,0.26248115047330345,
2023-08-12 10:12:33.378000,-8.602409638554217,-0.1566265060240964,-4.590361445783133,-0.04414469650521152,-8.454322501532802,-4.301655426118945,3.0,0.2626262626262626,3807.6923076923076,-0.6563720062933397,-0.11071615873200813,-0.12097197133034213,1135.5311355311355,-1.0,68.11293954616318,0.2624808675001481,
2023-08-12 10:12:33.386000,-8.590361445783133,-0.16867469879518074,-4.590361445783133,-0.05150214592274678,-8.427345187001839,-4.284488044144696,3.0,0.2626262626262626,3807.6923076923076,-0.1899656197191314,-0.036011887419147896,-0.10267466930831523,1126.7399267399267,-1.0,68.11293954616318,0.2624806419356182,
2023-08-12 10:12:33.393000,-8.626506024096386,-0.1566265060240964,-4.602409638554217,-0.08338442673206621,-8.461679950950337,-4.331085223789086,3.0,0.2626262626262626,3807.6923076923076,-0.0510459763417053,-0.18845055649437706,-0.11502826175630776,1118.6813186813185,-1.0,68.11293954616318,0.2624804747225898,
2023-08-12 10:12:33.401000,-8.626506024096386,-0.16867469879518074,-4.626506024096386,-0.03188228080931944,-8.422440220723482,-4.301655426118945,3.0,0.2626262626262626,3807.6923076923076,-0.3270205698968589,0.12015616805547498,0.03904201386865572,1113.5531135531135,-1.0,68.11293954616318,0.26248036665173485,
2023-08-12 10:12:33.409000,-8.614457831325302,-0.16867469879518074,-4.602409638554217,-0.056407112201103615,-8.451870018393624,-4.321275291232372,3.0,0.2626262626262626,3807.6923076923076,-0.1559349688246612,0.1636268282734103,0.0372938639939397,1109.1575091575091,-1.0,68.11293954616318,0.26248031835776686,
2023-08-12 10:12:33.416000,-8.626506024096386,-0.18072289156626506,-4.602409638554217,-0.05885959534028203,-8.545064377682403,-4.259963212752912,3.0,0.2626262626262626,3807.6923076923076,-0.41337917370782534,0.3095390711497005,0.11153196200687615,1108.4249084249084,-1.0,68.11293954616318,0.2624803303164544,
2023-08-12 10:12:33.424000,-8.63855421686747,-0.16867469879518074,-4.602409638554217,-0.12752912323727775,-8.47148988350705,-4.252605763335377,3.0,0.2626262626262626,3807.6923076923076,0.09405046325971728,0.4264320261057051,0.005943709574033941,1110.6227106227107,-1.0,68.11293954616318,0.2624804028424162,
2023-08-12 10:12:33.432000,-8.650602409638555,-0.18072289156626506,-4.614457831325302,-0.12507664009809932,-8.532801961986511,-4.289393010423053,3.0,0.2626262626262626,3807.6923076923076,-0.20837946506613828,0.6163976458248347,-0.054891906066079854,1111.3553113553112,-1.0,68.11293954616318,0.26248053608771105,
2023-08-12 10:12:33.439000,-8.66265060240964,-0.18072289156626506,-4.614457831325302,-0.1079092581238504,-8.56713672593501,-4.350705088902513,3.0,0.2626262626262626,3807.6923076923076,0.1786609171959677,0.3209603169978433,-0.3250393333721812,1111.3553113553112,-1.0,68.11293954616318,0.26248073004122713,
2023-08-12 10:12:33.447000,-8.686746987951807,-0.1566265060240964,-4.63855421686747,-0.03923973022685469,-8.594114040465971,-4.311465358675659,3.0,0.2621822621822622,3814.1405588484336,0.30324573160072316,0.39414952508595086,-0.10453936250801252,1110.6227106227107,-1.0,68.11293954616318,0.2624809845288742,
2023-08-12 10:12:33.455000,-8.72289156626506,-0.1566265060240964,-4.63855421686747,-0.12507664009809932,-8.586756591048436,-4.309012875536481,3.0,0.2621822621822622,3814.1405588484336,0.6999592098362559,0.01083852922323862,0.019113105296894063,1109.1575091575091,-1.0,68.11293954616318,0.2624812990652824,
2023-08-12 10:12:33.462000,-8.698795180722891,-0.1566265060240964,-4.686746987951808,-0.03923973022685469,-8.603923973022685,-4.331085223789086,3.0,0.2626262626262626,3807.6923076923076,0.8754734572577358,-0.46349280344968224,-0.02470718489598506,1107.6923076923076,-1.0,68.11293954616318,0.26248167283371326,
2023-08-12 10:12:33.470000,-8.698795180722891,-0.13253012048192772,-4.63855421686747,-0.06131207847946045,-8.586756591048436,-4.40220723482526,3.0,0.2626262626262626,3807.6923076923076,0.638074704271312,-0.7032224229357262,-0.1474273061010432,1107.6923076923076,-1.0,68.11293954616318,0.262482104974983,
2023-08-12 10:12:33.478000,-8.63855421686747,-0.13253012048192772,-4.686746987951808,-0.08583690987124463,-8.442060085836909,-4.29429797670141,3.0,0.2626262626262626,3807.6923076923076,0.6306159314725246,-0.7438960433541163,0.18949944641920632,1108.4249084249084,-1.0,68.11293954616318,0.26248259461080303,
2023-08-12 10:12:33.485000,-8.602409638554217,-0.14457831325301207,-4.662650602409639,-0.04904966278356836,-8.496014714898834,-4.392397302268547,3.0,0.2626262626262626,3807.6923076923076,0.48715109842083715,-0.29473806887710474,0.2786550900297185,1111.3553113553112,-1.0,68.11293954616318,0.26248314070875084,
2023-08-12 10:12:33.493000,-8.55421686746988,-0.12048192771084337,-4.650602409638554,-0.03188228080931944,-8.39546290619252,-4.35561005518087,3.0,0.2626262626262626,3807.6923076923076,0.8496008391119397,-0.23110541343744478,0.32364081347240814,1117.2161172161173,-1.0,68.11293954616318,0.26248374222548454,
2023-08-12 10:12:33.500000,-8.55421686746988,-0.14457831325301207,-4.662650602409639,0.009809932556713672,-8.488657265481299,-4.348252605763335,3.0,0.2626262626262626,3807.6923076923076,0.3854087757123708,0.0882232970106633,0.13833692675252018,1124.5421245421244,-1.0,68.11293954616318,0.26248439795279654,
2023-08-12 10:12:33.508000,-8.578313253012048,-0.13253012048192772,-4.63855421686747,-0.014714898835070508,-8.42489270386266,-4.323727774371551,3.0,0.2621822621822622,3814.1405588484336,0.13787075345259683,0.3158324106986778,0.1816910436454751,1132.6007326007325,-1.0,68.11293954616318,0.2624851065346233,
2023-08-12 10:12:33.516000,-8.602409638554217,-0.13253012048192772,-4.63855421686747,-0.019619865113427344,-8.442060085836909,-4.385039852851011,3.0,0.2621822621822622,3814.1405588484336,-0.18448808344501993,0.4960083911193981,-0.10990035545714097,1141.3919413919414,-1.0,68.11293954616318,0.2624858664530015,
2023-08-12 10:12:33.523000,-8.614457831325302,-0.12048192771084337,-4.674698795180723,-0.04659717964438994,-8.48620478234212,-4.370324954015941,3.0,0.2621822621822622,3814.1405588484336,-0.41046559058329923,0.8262921741157273,0.10325738593322072,1150.9157509157508,-1.0,68.11293954616318,0.2624866758651576,
2023-08-12 10:12:33.531000,-8.626506024096386,-0.14457831325301207,-4.63855421686747,-0.03678724708767627,-8.466584917228694,-4.311465358675659,3.0,0.2626262626262626,3807.6923076923076,-0.6522929899190018,0.6202435755492111,-0.06666278188916733,1158.974358974359,-1.0,68.11293954616318,0.26248753274922104,
2023-08-12 10:12:33.539000,-8.63855421686747,-0.14457831325301207,-4.662650602409639,-0.06621704475781728,-8.532801961986511,-4.318822808093194,3.0,0.2626262626262626,3807.6923076923076,-0.6469319969698729,0.6146494959501188,-0.06328302546471656,1166.3003663003662,-1.0,68.11293954616318,0.26248843506064384,
2023-08-12 10:12:33.546000,-8.650602409638555,-0.14457831325301207,-4.614457831325302,-0.0809319435928878,-8.542611894543224,-4.296750459840588,3.0,0.2621822621822622,3814.1405588484336,-0.7194219451080938,0.3974127381854212,-0.27748965677990794,1168.4981684981685,-1.0,68.11293954616318,0.2624893806225916,
2023-08-12 10:12:33.554000,-8.674698795180724,-0.1566265060240964,-4.626506024096386,-0.09074187614960147,-8.562231759656651,-4.267320662170447,3.0,0.2626262626262626,3807.6923076923076,-0.42351844298117897,0.37876580618845096,0.12202086125517139,1167.7655677655678,-1.0,68.11293954616318,0.2624903670060813,
2023-08-12 10:12:33.562000,-8.686746987951807,-0.18072289156626506,-4.63855421686747,-0.09319435928877988,-8.537706928264868,-4.343347639484978,3.0,0.2621822621822622,3814.1405588484336,-0.03682769069401549,-0.5098770467921454,-0.047782763242235377,1167.032967032967,-1.0,68.11293954616318,0.2624913916555785,
2023-08-12 10:12:33.569000,-8.66265060240964,-0.16867469879518074,-4.650602409638554,-0.14469650521152666,-8.50091968117719,-4.350705088902513,3.0,0.2626262626262626,3807.6923076923076,-0.12540061767962304,-0.49356098129479703,-0.1073364023075578,1164.102564102564,-1.0,68.11293954616318,0.2624924517794655,
2023-08-12 10:12:33.577000,-8.63855421686747,-0.13253012048192772,-4.662650602409639,-0.06376456161863887,-8.53525444512569,-4.358062538320048,3.0,0.2626262626262626,3807.6923076923076,0.04207214031816354,-0.4940271545947204,-0.30464425150049534,1161.1721611721612,-1.0,68.11293954616318,0.26249354463519564,
2023-08-12 10:12:33.585000,-8.63855421686747,-0.14457831325301207,-4.63855421686747,-0.04414469650521152,-8.557326793378294,-4.365419987737584,3.0,0.2626262626262626,3807.6923076923076,-0.29403880892721795,-0.43354116892954997,-0.42386807295612144,1161.1721611721612,-1.0,68.11293954616318,0.2624946676766536,
2023-08-12 10:12:33.592000,-8.626506024096386,-0.13253012048192772,-4.63855421686747,-0.0269773145309626,-8.518087063151441,-4.318822808093194,3.0,0.2621822621822622,3814.1405588484336,0.014684458947613166,-0.01911310529689363,-0.2826175630790747,1160.4395604395604,-1.0,68.11293954616318,0.2624958181376056,
2023-08-12 10:12:33.600000,-8.650602409638555,-0.13253012048192772,-4.63855421686747,-0.03188228080931944,-8.491109748620477,-4.309012875536481,3.0,0.2621822621822622,3814.1405588484336,-0.01538371889749992,-0.20243575549210346,-0.3871569255870868,1159.7069597069597,-1.0,68.11293954616318,0.26249699291312467,
2023-08-12 10:12:33.608000,-8.626506024096386,-0.12048192771084337,-4.662650602409639,-0.007357449417535254,-8.50091968117719,-4.338442673206622,3.0,0.2626262626262626,3807.6923076923076,-0.029019287920283823,-0.03193287104481168,-0.13833692675252018,1154.5787545787546,-1.0,68.11293954616318,0.2624981886961089,
2023-08-12 10:12:33.615000,-8.63855421686747,-0.13253012048192772,-4.650602409638554,-0.04414469650521152,-8.518087063151441,-4.358062538320048,3.0,0.2621822621822622,3814.1405588484336,-0.027737311345492885,-0.09148651011013366,0.41198065380805315,1148.7179487179487,-1.0,68.11293954616318,0.26249940227296,
2023-08-12 10:12:33.623000,-8.626506024096386,-0.1566265060240964,-4.614457831325302,-0.04904966278356836,-8.503372164316369,-4.264868179031269,3.0,0.2626262626262626,3807.6923076923076,-0.14731076277606195,0.3542917079424284,-0.12679913757939523,1143.5897435897434,-1.0,68.11293954616318,0.26250063040380167,
2023-08-12 10:12:33.631000,-8.63855421686747,-0.14457831325301207,-4.614457831325302,-0.09809932556713671,-8.483752299202942,-4.306560392397302,3.0,0.2621822621822622,3814.1405588484336,-0.5095274168172012,0.06293339548977318,0.14859273935085374,1139.194139194139,-1.0,68.11293954616318,0.26250186982044704,
2023-08-12 10:12:33.638000,-8.650602409638555,-0.14457831325301207,-4.626506024096386,-0.02207234825260576,-8.488657265481299,-4.333537706928265,3.0,0.2621822621822622,3814.1405588484336,-0.5490356039857811,0.31105413437445306,-0.03554571411922368,1134.7985347985348,-1.0,68.11293954616318,0.26250311724547115,
2023-08-12 10:12:33.646000,-8.650602409638555,-0.18072289156626506,-4.614457831325302,-0.08583690987124463,-8.52053954629062,-4.264868179031269,3.0,0.2621822621822622,3814.1405588484336,-0.2530155585338854,0.41769127673212497,0.23844764291125223,1131.8681318681317,-1.0,68.11293954616318,0.26250436924092774,
2023-08-12 10:12:33.654000,-8.674698795180724,-0.1566265060240964,-4.602409638554217,-0.0809319435928878,-8.545064377682403,-4.306560392397302,3.0,0.2621822621822622,3814.1405588484336,-0.23495134316182106,-0.11700949828098545,0.09894528290892152,1130.4029304029302,-1.0,68.11293954616318,0.26250562235482094,
2023-08-12 10:12:33.661000,-8.686746987951807,-0.1566265060240964,-4.590361445783133,-0.03188228080931944,-8.532801961986511,-4.2992029429797665,3.0,0.2621822621822622,3814.1405588484336,0.17877746052094853,-0.07272303478818254,0.004312103024299194,1128.937728937729,-1.0,68.11293954616318,0.2625068731286778,
2023-08-12 10:12:33.669000,-8.686746987951807,-0.1566265060240964,-4.614457831325302,-0.0956468424279583,-8.532801961986511,-4.331085223789086,3.0,0.2621822621822622,3814.1405588484336,-0.034729910844356955,0.07785094108734976,0.15745003204941424,1126.007326007326,-1.0,68.11293954616318,0.2625081182436957,
2023-08-12 10:12:33.677000,-8.650602409638555,-0.1566265060240964,-4.626506024096386,-0.06376456161863887,-8.505824647455547,-4.306560392397302,3.0,0.2621822621822622,3814.1405588484336,0.028553114620360476,-0.3998601480100223,-0.13332556377833465,1127.4725274725274,-1.0,68.11293954616318,0.26250935436880807,
2023-08-12 10:12:33.684000,-8.626506024096386,-0.1566265060240964,-4.614457831325302,-0.05885959534028203,-8.446965052115265,-4.2697731453096255,3.0,0.2621822621822622,3814.1405588484336,0.44496241477769277,-0.7829380572227729,-0.2707301439310064,1134.7985347985348,-1.0,68.11293954616318,0.2625105780400447,
2023-08-12 10:12:33.692000,-8.614457831325302,-0.13253012048192772,-4.614457831325302,-0.06376456161863887,-8.522992029429798,-4.2992029429797665,3.0,0.2621822621822622,3814.1405588484336,0.20045451896742578,-0.6266534584231692,-0.29823436862653674,1153.8461538461538,-1.0,68.11293954616318,0.2625117858163568,
2023-08-12 10:12:33.700000,-8.578313253012048,-0.1566265060240964,-4.63855421686747,-0.04904966278356836,-8.464132434089516,-4.282035561005518,3.0,0.2626262626262626,3807.6923076923076,0.4324922790047207,-0.3446186119689999,-0.03554571411922368,1190.4761904761904,-1.0,68.11293954616318,0.2625129742858847,
2023-08-12 10:12:33.707000,-8.590361445783133,-0.1566265060240964,-4.63855421686747,-0.0539546290619252,-8.417535254445125,-4.306560392397302,3.0,0.2621822621822622,3814.1405588484336,0.8295553872151977,-0.0363615173940904,-0.21828564768952846,1249.084249084249,-1.0,68.11293954616318,0.26251414022124386,
2023-08-12 10:12:33.715000,-8.590361445783133,-0.14457831325301207,-4.626506024096386,-0.12017167381974249,-8.434702636419374,-4.392397302268547,3.0,0.2621822621822622,3814.1405588484336,0.16630732474797474,-0.06677932521414773,0.28762892605326024,1330.4029304029302,-1.0,68.11293954616318,0.26251528045780875,
2023-08-12 10:12:33.723000,-8.578313253012048,-0.1566265060240964,-4.650602409638554,-0.0539546290619252,-8.491109748620477,-4.380134886572654,3.0,0.2621822621822622,3814.1405588484336,0.1798263504457778,0.13204358720354287,-0.18740166656954735,1434.4322344322343,-1.0,68.11293954616318,0.2625163917401775,
2023-08-12 10:12:33.730000,-8.590361445783133,-0.16867469879518074,-4.63855421686747,-0.08338442673206621,-8.505824647455547,-4.348252605763335,3.0,0.2626262626262626,3807.6923076923076,0.01048889924829611,0.53027212866383,0.14952508595070219,1558.2417582417581,-1.0,68.11293954616318,0.26251747086620136,
2023-08-12 10:12:33.738000,-8.626506024096386,-0.1566265060240964,-4.614457831325302,-0.029429797670141016,-8.473942366646229,-4.343347639484978,3.0,0.2626262626262626,3807.6923076923076,-0.5393625080123543,0.772332614649496,-0.032632130994697126,1694.5054945054944,-1.0,68.11293954616318,0.2625185148412352,
2023-08-12 10:12:33.746000,-8.650602409638555,-0.18072289156626506,-4.614457831325302,-0.1103617412630288,-8.488657265481299,-4.291845493562231,3.0,0.2626262626262626,3807.6923076923076,-0.2918244857525786,0.8879435930307096,-0.09020453353534186,1839.5604395604394,-1.0,68.11293954616318,0.2625195209046436,
2023-08-12 10:12:33.753000,-8.686746987951807,-0.20481927710843376,-4.63855421686747,-0.06131207847946045,-8.58185162477008,-4.289393010423053,3.0,0.2626262626262626,3807.6923076923076,-0.35102849484295806,0.7865509002971858,-0.04323757356797407,1985.3479853479853,-1.0,68.11293954616318,0.26252048639703457,
2023-08-12 10:12:33.761000,-8.686746987951807,-0.1927710843373494,-4.63855421686747,-0.10055180870631514,-8.537706928264868,-4.24770079705702,3.0,0.2626262626262626,3807.6923076923076,-0.18134141367053214,0.15092360585047482,0.07901637433715986,2123.076923076923,-1.0,68.11293954616318,0.2625214087660956,
2023-08-12 10:12:33.769000,-8.72289156626506,-0.18072289156626506,-4.63855421686747,-0.06621704475781728,-8.530349478847333,-4.323727774371551,3.0,0.2626262626262626,3807.6923076923076,0.12272012120505858,0.4991550608938876,0.030767437795000272,2241.7582417582416,-1.0,68.11293954616318,0.2625222855722707,
2023-08-12 10:12:33.776000,-8.72289156626506,-0.18072289156626506,-4.626506024096386,-0.07847946045370938,-8.574494175352545,-4.353157572041692,3.0,0.2626262626262626,3807.6923076923076,0.0924188567099821,-0.052561039566459654,-0.0010488899248296977,2338.461538461538,888.5498046875,67.52575903283417,0.26252311449427007,
2023-08-12 10:12:33.784000,-8.698795180722891,-0.1566265060240964,-4.650602409638554,-0.06866952789699571,-8.52053954629062,-4.309012875536481,3.0,0.2626262626262626,3807.6923076923076,0.24357554921041857,-0.08204650078666682,0.013052852397878852,2408.7912087912086,-1.0,67.52575903283417,0.26252389333440523,
2023-08-12 10:12:33.792000,-8.63855421686747,-0.1566265060240964,-4.614457831325302,-0.014714898835070508,-8.48620478234212,-4.277130594727161,3.0,0.2626262626262626,3807.6923076923076,0.43995105180350813,-0.47771108909737203,-0.048715109842083805,2454.212454212454,-1.0,67.52575903283417,0.2625246200237382,
2023-08-12 10:12:33.799000,-8.626506024096386,-0.13253012048192772,-4.674698795180723,-0.0809319435928878,-8.53525444512569,-4.328632740649907,3.0,0.2626262626262626,3807.6923076923076,0.31326845754909416,-0.9020453353534169,-0.41384534700775,2474.7252747252746,-1.0,67.52575903283417,0.2625252926270362,
2023-08-12 10:12:33.807000,-8.626506024096386,-0.1566265060240964,-4.674698795180723,-0.0539546290619252,-8.481299816063764,-4.421827099938688,3.0,0.2626262626262626,3807.6923076923076,0.5429753510867672,-0.8159198181924138,-0.07866674436221649,2471.7948717948716,-1.0,67.52575903283417,0.26252590934752185,
2023-08-12 10:12:33.815000,-8.63855421686747,-0.13253012048192772,-4.674698795180723,-0.1226241569589209,-8.422440220723482,-4.394849785407725,3.0,0.2626262626262626,3807.6923076923076,0.5409941145620878,-0.8103257385933215,-0.07901637433715986,2441.7582417582416,-1.0,67.52575903283417,0.262526468531409,
2023-08-12 10:12:33.822000,-8.626506024096386,-0.12048192771084337,-4.662650602409639,-0.056407112201103615,-8.454322501532802,-4.370324954015941,3.0,0.2626262626262626,3807.6923076923076,0.4331915389546057,-0.22213157741390302,0.14835965270089163,2393.4065934065934,-1.0,67.52575903283417,0.26252696881096216,
2023-08-12 10:12:33.830000,-8.602409638554217,-0.13253012048192772,-4.662650602409639,-0.0809319435928878,-8.466584917228694,-4.333537706928265,3.0,0.2626262626262626,3807.6923076923076,0.3688596235650608,0.4364547520540761,0.11362974185653511,2331.135531135531,-1.0,67.52575903283417,0.26252740908819217,
2023-08-12 10:12:33.838000,-8.626506024096386,-0.13253012048192772,-4.650602409638554,-0.017167381974248927,-8.537706928264868,-4.343347639484978,3.0,0.2626262626262626,3807.6923076923076,-0.4884330749956298,0.44962414777693666,-0.1200396247304937,2255.6776556776554,-1.0,67.52575903283417,0.2625277883906916,
2023-08-12 10:12:33.845000,-8.626506024096386,-0.13253012048192772,-4.626506024096386,-0.0809319435928878,-8.525444512568976,-4.333537706928265,3.0,0.2626262626262626,3807.6923076923076,-0.5299224986888874,0.4160596701823898,-0.2894936192529571,2173.6263736263736,-1.0,67.52575903283417,0.26252810573755847,
2023-08-12 10:12:33.853000,-8.626506024096386,-0.12048192771084337,-4.590361445783133,-0.13243408951563457,-8.496014714898834,-4.358062538320048,3.0,0.2626262626262626,3807.6923076923076,-0.6004312103024306,0.2130411980653804,-0.18204067362041845,2088.6446886446884,-1.0,67.52575903283417,0.26252836016398395,
2023-08-12 10:12:33.860000,-8.626506024096386,-0.13253012048192772,-4.614457831325302,-0.1226241569589209,-8.542611894543224,-4.360515021459228,3.0,0.2626262626262626,3807.6923076923076,-0.43936833517860224,0.13250976050346794,-0.15267175572519084,2003.6630036630036,-1.0,67.52575903283417,0.26252855087297805,
2023-08-12 10:12:33.868000,-8.63855421686747,-0.1566265060240964,-4.63855421686747,-0.08583690987124463,-8.491109748620477,-4.365419987737584,3.0,0.2626262626262626,3807.6923076923076,-0.20115377891731254,0.38902161878678365,0.17085251442223648,1918.6813186813185,-1.0,67.52575903283417,0.262528677237515,
2023-08-12 10:12:33.876000,-8.66265060240964,-0.1566265060240964,-4.662650602409639,-0.08828939301042305,-8.446965052115265,-4.333537706928265,3.0,0.2626262626262626,3807.6923076923076,0.10955072548219803,0.3527766447176741,-0.043587203542917015,1837.3626373626373,-1.0,67.52575903283417,0.26252873880239214,
2023-08-12 10:12:33.883000,-8.650602409638555,-0.14457831325301207,-4.650602409638554,-0.04659717964438994,-8.496014714898834,-4.338442673206622,3.0,0.2626262626262626,3807.6923076923076,-0.26618495425674427,0.25686148825826,0.08192995746168641,1761.9047619047617,-1.0,67.52575903283417,0.26252873528579107,
2023-08-12 10:12:33.891000,-8.63855421686747,-0.14457831325301207,-4.63855421686747,-0.041692213366033105,-8.496014714898834,-4.338442673206622,3.0,0.2626262626262626,3807.6923076923076,-0.3511450381679389,-0.03589534409416706,-0.06852747508886418,1696.7032967032967,-1.0,67.52575903283417,0.26252866658054075,
2023-08-12 10:12:33.899000,-8.63855421686747,-0.18072289156626506,-4.614457831325302,-0.04414469650521152,-8.498467198038012,-4.286940527283875,3.0,0.2626262626262626,3807.6923076923076,-0.09859565293397857,0.0734222947380693,-0.1450964396014217,1641.7582417582416,-1.0,67.52575903283417,0.262528532755073,
2023-08-12 10:12:33.906000,-8.614457831325302,-0.1566265060240964,-4.590361445783133,-0.05885959534028203,-8.518087063151441,-4.2992029429797665,3.0,0.2621822621822622,3814.1405588484336,-0.24404172251034367,-0.3091894411747562,-0.14474680962647876,1593.4065934065934,-1.0,67.52575903283417,0.26252833405406756,
2023-08-12 10:12:33.914000,-8.650602409638555,-0.1566265060240964,-4.63855421686747,-0.11771919068056406,-8.498467198038012,-4.304107909258124,3.0,0.2626262626262626,3807.6923076923076,0.3572052910669546,-0.22609405046326014,0.11665986830604294,1550.18315018315,-1.0,67.52575903283417,0.2625280707494868,
2023-08-12 10:12:33.922000,-8.650602409638555,-0.1566265060240964,-4.602409638554217,-0.08583690987124463,-8.540159411404046,-4.382587369711833,3.0,0.2626262626262626,3807.6923076923076,0.4933278946448336,-0.26560223763184004,-0.18786783986947156,1507.6923076923076,-1.0,67.52575903283417,0.2625277434067451,
2023-08-12 10:12:33.929000,-8.626506024096386,-0.14457831325301207,-4.650602409638554,-0.11771919068056406,-8.508277130594728,-4.311465358675659,3.0,0.2626262626262626,3807.6923076923076,0.5037002505681489,-0.028436571295379638,0.2563953149583358,1463.7362637362637,-1.0,67.52575903283417,0.26252735288419365,
2023-08-12 10:12:33.937000,-8.63855421686747,-0.1566265060240964,-4.662650602409639,-0.0539546290619252,-8.491109748620477,-4.348252605763335,3.0,0.2626262626262626,3807.6923076923076,0.3751529631140381,0.008041489423693338,0.1339082804032397,1419.7802197802198,-1.0,67.52575903283417,0.26252690006591106,
2023-08-12 10:12:33.945000,-8.63855421686747,-0.14457831325301207,-4.674698795180723,-0.08828939301042305,-8.525444512568976,-4.367872470876763,3.0,0.2626262626262626,3807.6923076923076,-0.07167414486335329,0.37678456966377327,-0.05221140959151584,1375.091575091575,-1.0,67.52575903283417,0.26252638600962075,
2023-08-12 10:12:33.952000,-8.614457831325302,-0.1566265060240964,-4.626506024096386,-0.10055180870631514,-8.432250153280195,-4.318822808093194,3.0,0.2626262626262626,3807.6923076923076,-0.024823728220966765,0.26723384418157525,0.009789639298409356,1332.6007326007325,-1.0,67.52575903283417,0.262525812083729,
2023-08-12 10:12:33.960000,-8.614457831325302,-0.16867469879518074,-4.626506024096386,-0.10300429184549356,-8.454322501532802,-4.375229920294298,3.0,0.2626262626262626,3807.6923076923076,0.541343744537032,0.09719713303420506,-0.03577880076918579,1293.7728937728937,-1.0,67.52575903283417,0.26252517994489377,
2023-08-12 10:12:33.968000,-8.614457831325302,-0.14457831325301207,-4.614457831325302,-0.05150214592274678,-8.469037400367872,-4.306560392397302,3.0,0.2621822621822622,3814.1405588484336,0.43260882232970155,0.1420663131519139,-0.12947963405395968,1257.142857142857,-1.0,67.52575903283417,0.26252449124889343,
2023-08-12 10:12:33.975000,-8.63855421686747,-0.16867469879518074,-4.590361445783133,-0.12507664009809932,-8.532801961986511,-4.264868179031269,3.0,0.2626262626262626,3807.6923076923076,0.53901287803741,0.2787716333546989,-0.19089796631897896,1224.9084249084249,-1.0,67.52575903283417,0.26252374765883496,
2023-08-12 10:12:33.983000,-8.650602409638555,-0.1566265060240964,-4.590361445783133,-0.0539546290619252,-8.510729613733906,-4.343347639484978,3.0,0.2626262626262626,3807.6923076923076,0.45766563720062997,0.6891206806130172,0.02191014509643978,1197.069597069597,-1.0,67.52575903283417,0.26252295109802043,
2023-08-12 10:12:33.991000,-8.650602409638555,-0.14457831325301207,-4.63855421686747,-0.05885959534028203,-8.52053954629062,-4.350705088902513,3.0,0.2626262626262626,3807.6923076923076,0.6821280811141549,0.5284074354641332,0.14218285647689516,1176.5567765567764,-1.0,67.52575903283417,0.26252210361833606,
2023-08-12 10:12:33.998000,-8.686746987951807,-0.13253012048192772,-4.650602409638554,-0.0809319435928878,-8.547516860821581,-4.394849785407725,3.0,0.2626262626262626,3807.6923076923076,0.4315599324048723,0.29252374570246537,0.07831711438727354,1166.3003663003662,-1.0,67.52575903283417,0.26252120727866113,
2023-08-12 10:12:34.006000,-8.686746987951807,-0.10843373493975904,-4.662650602409639,-0.03923973022685469,-8.54996934396076,-4.296750459840588,3.0,0.2626262626262626,3807.6923076923076,0.13658877687780416,0.4059204009090379,-0.013985198997727278,1165.5677655677655,-1.0,67.52575903283417,0.26252026428911995,
2023-08-12 10:12:34.014000,-8.674698795180724,-0.13253012048192772,-4.674698795180723,-0.029429797670141016,-8.586756591048436,-4.41937461679951,3.0,0.2626262626262626,3807.6923076923076,0.01200396247304872,-0.01165433249810621,-0.19602587261814575,1173.6263736263736,-1.0,67.52575903283417,0.2625192770057275,
2023-08-12 10:12:34.021000,-8.686746987951807,-0.14457831325301207,-4.686746987951808,-0.05150214592274678,-8.564684242795831,-4.407112201103617,3.0,0.2626262626262626,3807.6923076923076,0.04113979371831512,-0.18215721694539974,0.11094924538197067,1186.8131868131868,-1.0,67.52575903283417,0.262518248063484,
2023-08-12 10:12:34.029000,-8.674698795180724,-0.14457831325301207,-4.650602409638554,-0.002452483139178418,-8.493562231759656,-4.296750459840588,3.0,0.2626262626262626,3807.6923076923076,-0.06899364838878884,-0.4857525785210654,-0.08647514713594771,1204.3956043956043,-1.0,67.52575903283417,0.26251718035005095,
2023-08-12 10:12:34.037000,-8.63855421686747,-0.1566265060240964,-4.650602409638554,-0.05885959534028203,-8.48620478234212,-4.370324954015941,3.0,0.2621822621822622,3814.1405588484336,0.2815686731542459,-0.25266592855894116,0.2973020220266883,1226.3736263736264,-1.0,67.52575903283417,0.26251607671278937,
2023-08-12 10:12:34.044000,-8.626506024096386,-0.1566265060240964,-4.686746987951808,-0.10300429184549356,-8.461679950950337,-4.345800122624157,3.0,0.2621822621822622,3814.1405588484336,0.5376143581376382,-0.662199172542392,0.3717732066895869,1248.3516483516482,-1.0,67.52575903283417,0.26251493982446217,
2023-08-12 10:12:34.052000,-8.602409638554217,-0.16867469879518074,-4.710843373493976,-0.08828939301042305,-8.513182096873084,-4.350705088902513,3.0,0.2626262626262626,3807.6923076923076,0.19451080939339271,-0.30359536157566563,0.4761960258726181,1265.2014652014652,-1.0,67.52575903283417,0.262513772303522,
2023-08-12 10:12:34.060000,-8.602409638554217,-0.1566265060240964,-4.686746987951808,-0.03188228080931944,-8.437155119558552,-4.40220723482526,3.0,0.2626262626262626,3807.6923076923076,0.021793601771458074,-0.039624730493560766,0.22807528698793783,1280.5860805860805,-1.0,67.52575903283417,0.26251257699309666,
2023-08-12 10:12:34.067000,-8.602409638554217,-0.1566265060240964,-4.662650602409639,-0.10545677498467197,-8.478847332924586,-4.338442673206622,3.0,0.2626262626262626,3807.6923076923076,-0.27236175048074074,-0.23693257968649875,-0.0027970397995452823,1293.7728937728937,-1.0,67.52575903283417,0.26251135697340594,
2023-08-12 10:12:34.075000,-8.602409638554217,-0.18072289156626506,-4.63855421686747,-0.10300429184549356,-8.442060085836909,-4.304107909258124,3.0,0.2626262626262626,3807.6923076923076,-0.3372763824951933,0.160829788473865,0.14835965270089163,1301.8315018315018,-1.0,67.52575903283417,0.2625101155536113,
2023-08-12 10:12:34.083000,-8.590361445783133,-0.18072289156626506,-4.614457831325302,-0.11526670754138564,-8.400367872470877,-4.331085223789086,3.0,0.2626262626262626,3807.6923076923076,-0.47421478934794004,0.3992774313851181,0.3751529631140377,1303.2967032967033,-1.0,67.52575903283417,0.26250885610437136,
2023-08-12 10:12:34.090000,-8.602409638554217,-0.18072289156626506,-4.626506024096386,-0.07357449417535254,-8.459227467811159,-4.326180257510729,3.0,0.2626262626262626,3807.6923076923076,-0.47200046617330066,0.3929840918361408,0.3717732066895869,1300.3663003663003,-1.0,67.52575903283417,0.2625075819217715,
2023-08-12 10:12:34.098000,-8.614457831325302,-0.1566265060240964,-4.63855421686747,-0.1226241569589209,-8.45677498467198,-4.301655426118945,3.0,0.2626262626262626,3807.6923076923076,-0.22539479051337338,0.3713070333896618,0.03496299749431863,1294.5054945054944,-1.0,67.52575903283417,0.2625062963678413,
2023-08-12 10:12:34.106000,-8.63855421686747,-0.18072289156626506,-4.626506024096386,-0.08828939301042305,-8.513182096873084,-4.358062538320048,3.0,0.2626262626262626,3807.6923076923076,0.12773148417924324,0.1529048423751525,-0.26991434065613884,1289.3772893772893,-1.0,67.52575903283417,0.2625050030004296,
2023-08-12 10:12:34.113000,-8.614457831325302,-0.1566265060240964,-4.674698795180723,-0.10055180870631514,-8.510729613733906,-4.377682403433476,3.0,0.2626262626262626,3807.6923076923076,-0.010372355923315273,-0.029951634520132248,0.15814929199930056,1282.051282051282,-1.0,67.52575903283417,0.26250370540512447,
2023-08-12 10:12:34.121000,-8.626506024096386,-0.14457831325301207,-4.674698795180723,-0.06131207847946045,-8.508277130594728,-4.301655426118945,3.0,0.2621822621822622,3814.1405588484336,-0.37818308956354507,0.07703513781248217,0.03414719421945104,1271.062271062271,-1.0,67.52575903283417,0.2625024070586379,
2023-08-12 10:12:34.129000,-8.63855421686747,-0.1566265060240964,-4.63855421686747,-0.04659717964438994,-8.518087063151441,-4.343347639484978,3.0,0.2621822621822622,3814.1405588484336,0.06712895518909198,-0.028320027970398804,-0.17947672047083485,1263.003663003663,-1.0,67.52575903283417,0.2625011114583263,
2023-08-12 10:12:34.136000,-8.650602409638555,-0.1566265060240964,-4.602409638554217,-0.06866952789699571,-8.53525444512569,-4.289393010423053,3.0,0.2626262626262626,3807.6923076923076,-0.05279412621642132,-0.1633937416234486,0.1573334887244334,1252.7472527472526,-1.0,67.52575903283417,0.2624998219319501,
2023-08-12 10:12:34.144000,-8.626506024096386,-0.16867469879518074,-4.650602409638554,-0.1079092581238504,-8.530349478847333,-4.2109135499693435,3.0,0.2626262626262626,3807.6923076923076,-0.050113629741856874,-0.020977798496590483,0.04801584989219748,1241.7582417582416,-1.0,67.52575903283417,0.2624985419259498,
2023-08-12 10:12:34.152000,-8.602409638554217,-0.1566265060240964,-4.63855421686747,-0.06131207847946045,-8.45677498467198,-4.259963212752912,3.0,0.2621822621822622,3814.1405588484336,0.060136355690227905,-0.11234776528174331,0.0926519433599442,1232.967032967033,-1.0,67.52575903283417,0.26249727500624337,
2023-08-12 10:12:34.159000,-8.63855421686747,-0.16867469879518074,-4.650602409638554,-0.07112201103617412,-8.52053954629062,-4.309012875536481,3.0,0.2621822621822622,3814.1405588484336,0.047083503292348186,0.19497698269331604,-0.12120505798030425,1224.1758241758241,-1.0,67.52575903283417,0.2624960244329047,
2023-08-12 10:12:34.167000,-8.63855421686747,-0.16867469879518074,-4.650602409638554,-0.12017167381974249,-8.52053954629062,-4.326180257510729,3.0,0.2626262626262626,3807.6923076923076,0.144280636326555,-0.1100168987821231,-0.04451955014276544,1213.9194139194137,-1.0,67.52575903283417,0.2624947932778307,
2023-08-12 10:12:34.175000,-8.674698795180724,-0.18072289156626506,-4.650602409638554,-0.019619865113427344,-8.508277130594728,-4.328632740649907,3.0,0.2626262626262626,3807.6923076923076,0.34706602179360097,-0.0025639531495836093,0.22877454693782415,1204.3956043956043,-1.0,67.52575903283417,0.26249358470148804,
2023-08-12 10:12:34.182000,-8.66265060240964,-0.1566265060240964,-4.626506024096386,-0.11281422440220723,-8.562231759656651,-4.358062538320048,3.0,0.2626262626262626,3807.6923076923076,0.37946506613833775,-0.12633296427947147,0.1816910436454751,1194.8717948717947,-1.0,67.52575903283417,0.262492402102228,
2023-08-12 10:12:34.190000,-8.63855421686747,-0.16867469879518074,-4.626506024096386,-0.06621704475781728,-8.476394849785407,-4.375229920294298,3.0,0.2626262626262626,3807.6923076923076,0.41093176388322433,0.11840801818075895,0.16677349804789937,1183.8827838827838,-1.0,67.52575903283417,0.262491248947559,
2023-08-12 10:12:34.198000,-8.650602409638555,-0.13253012048192772,-4.614457831325302,-0.0539546290619252,-8.469037400367872,-4.301655426118945,3.0,0.2626262626262626,3807.6923076923076,0.3185129071732422,-0.0533768428413255,0.24415826583532407,1173.6263736263736,-1.0,67.52575903283417,0.26249012861680515,
2023-08-12 10:12:34.205000,-8.66265060240964,-0.1566265060240964,-4.63855421686747,-0.0269773145309626,-8.545064377682403,-4.316370324954016,3.0,0.2626262626262626,3807.6923076923076,0.18110832702057048,-0.2532486451838471,0.1689878212225396,1161.904761904762,-1.0,67.52575903283417,0.26248904425438857,
2023-08-12 10:12:34.213000,-8.626506024096386,-0.1566265060240964,-4.650602409638554,-0.04414469650521152,-8.510729613733906,-4.313917841814837,3.0,0.2621822621822622,3814.1405588484336,0.4105821339082801,-0.053143756191363835,-0.0750539012878036,1147.985347985348,-1.0,67.52575903283417,0.2624879987823564,
2023-08-12 10:12:34.221000,-8.626506024096386,-0.1566265060240964,-4.626506024096386,-0.04904966278356836,-8.542611894543224,-4.365419987737584,3.0,0.2626262626262626,3807.6923076923076,0.29916671522638516,-0.26385408775712405,0.1411339665520659,1135.5311355311355,-1.0,67.52575903283417,0.2624869950301165,
2023-08-12 10:12:34.228000,-8.590361445783133,-0.1566265060240964,-4.662650602409639,-0.06866952789699571,-8.481299816063764,-4.291845493562231,3.0,0.2626262626262626,3807.6923076923076,0.18880018646931956,0.012586679097954637,0.40090903793485244,1130.4029304029302,-1.0,67.52575903283417,0.2624860358328361,
2023-08-12 10:12:34.236000,-8.626506024096386,-0.16867469879518074,-4.686746987951808,-0.007357449417535254,-8.510729613733906,-4.35561005518087,3.0,0.2621822621822622,3814.1405588484336,0.002214323174639364,-0.10896800885729212,0.21583823786492612,1127.4725274725274,-1.0,67.52575903283417,0.26248512389539874,
2023-08-12 10:12:34.243000,-8.63855421686747,-0.14457831325301207,-4.650602409638554,-0.10055180870631514,-8.473942366646229,-4.338442673206622,3.0,0.2621822621822622,3814.1405588484336,0.24369209253539942,-0.20243575549210346,-0.10395664588310703,1126.007326007326,-1.0,67.52575903283417,0.2624842616566033,
2023-08-12 10:12:34.251000,-8.63855421686747,-0.14457831325301207,-4.650602409638554,-0.04659717964438994,-8.508277130594728,-4.316370324954016,3.0,0.2626262626262626,3807.6923076923076,0.13227667385350453,-0.01957927859681871,0.20138686556727464,1128.2051282051282,-1.0,67.52575903283417,0.26248345138828577,
2023-08-12 10:12:34.259000,-8.578313253012048,-0.13253012048192772,-4.650602409638554,-0.09809932556713671,-8.483752299202942,-4.301655426118945,3.0,0.2621822621822622,3814.1405588484336,0.11537789173125026,-0.0030301264495069553,-0.2611735912825592,1131.8681318681317,-1.0,67.52575903283417,0.26248269518751366,
2023-08-12 10:12:34.266000,-8.602409638554217,-0.14457831325301207,-4.614457831325302,-0.04414469650521152,-8.488657265481299,-4.333537706928265,3.0,0.2621822621822622,3814.1405588484336,0.265136064331915,-0.27888817667968147,0.04463609346774672,1137.7289377289376,-1.0,67.52575903283417,0.262481995000638,
2023-08-12 10:12:34.274000,-8.614457831325302,-0.13253012048192772,-4.650602409638554,-0.10545677498467197,-8.530349478847333,-4.296750459840588,3.0,0.2621822621822622,3814.1405588484336,0.4747975059728459,-0.384709515762484,-0.10990035545714097,1142.857142857143,-1.0,67.52575903283417,0.2624813524457403,
2023-08-12 10:12:34.282000,-8.590361445783133,-0.12048192771084337,-4.614457831325302,-0.0809319435928878,-8.50091968117719,-4.331085223789086,3.0,0.2621822621822622,3814.1405588484336,0.223180467338734,-3.496299749425094E-4,0.08927218693549344,1147.985347985348,-1.0,67.52575903283417,0.2624807689543388,
2023-08-12 10:12:34.289000,-8.602409638554217,-0.1566265060240964,-4.63855421686747,-0.07847946045370938,-8.459227467811159,-4.272225628448804,3.0,0.2621822621822622,3814.1405588484336,0.4626770001748146,0.15127323582541732,-0.24672221898490768,1152.3809523809523,-1.0,67.52575903283417,0.2624802458923724,
2023-08-12 10:12:34.297000,-8.614457831325302,-0.10843373493975904,-4.63855421686747,-0.029429797670141016,-8.513182096873084,-4.311465358675659,3.0,0.2626262626262626,3807.6923076923076,0.15069051920051313,0.4260823961307608,-0.030650894470019438,1153.8461538461538,-1.0,67.52575903283417,0.2624797842660088,
2023-08-12 10:12:34.305000,-8.63855421686747,-0.13253012048192772,-4.650602409638554,-0.034334763948497854,-8.493562231759656,-4.318822808093194,3.0,0.2626262626262626,3807.6923076923076,0.10127614940854301,0.34706602179360097,-0.07761785443738722,1153.8461538461538,-1.0,67.52575903283417,0.26247938488549055,
2023-08-12 10:12:34.312000,-8.66265060240964,-0.14457831325301207,-4.674698795180723,-0.12017167381974249,-8.454322501532802,-4.380134886572654,3.0,0.2626262626262626,3807.6923076923076,0.035662257444205384,0.35778800769185876,-0.15407027562496348,1151.6483516483515,-1.0,67.52575903283417,0.2624790485295316,
2023-08-12 10:12:34.320000,-8.66265060240964,-0.1566265060240964,-4.674698795180723,-0.041692213366033105,-8.48620478234212,-4.380134886572654,3.0,0.2621822621822622,3814.1405588484336,0.07715168113746301,0.10838529223238792,-0.016082978847386676,1152.3809523809523,-1.0,67.52575903283417,0.26247877594082214,
2023-08-12 10:12:34.328000,-8.686746987951807,-0.13253012048192772,-4.662650602409639,-0.09809932556713671,-8.564684242795831,-4.301655426118945,3.0,0.2626262626262626,3807.6923076923076,-0.2624555678573505,-0.10756948895752033,-0.0913699667851524,1153.8461538461538,-1.0,67.52575903283417,0.26247856751392146,
2023-08-12 10:12:34.335000,-8.650602409638555,-0.14457831325301207,-4.650602409638554,-0.034334763948497854,-8.547516860821581,-4.331085223789086,3.0,0.2626262626262626,3807.6923076923076,0.026804964745644456,-0.12237049123011434,-0.01165433249810621,1158.974358974359,-1.0,67.52575903283417,0.26247842329221266,
2023-08-12 10:12:34.343000,-8.650602409638555,-0.1566265060240964,-4.63855421686747,-0.06866952789699571,-8.52053954629062,-4.311465358675659,3.0,0.2621822621822622,3814.1405588484336,0.2524328419089795,-0.2729444671056466,0.22038342753918785,1167.7655677655678,-1.0,67.52575903283417,0.2624783432739468,
2023-08-12 10:12:34.351000,-8.66265060240964,-0.1566265060240964,-4.614457831325302,-0.009809932556713672,-8.547516860821581,-4.350705088902513,3.0,0.2626262626262626,3807.6923076923076,0.35440825126740927,-0.34811491171843195,0.1571004020744713,1178.021978021978,-1.0,67.52575903283417,0.26247832712269736,
2023-08-12 10:12:34.358000,-8.626506024096386,-0.14457831325301207,-4.63855421686747,-0.04414469650521152,-8.496014714898834,-4.348252605763335,3.0,0.2626262626262626,3807.6923076923076,0.17714585397121335,-0.5162869296661036,-0.05722277256570135,1186.080586080586,-1.0,67.52575903283417,0.26247837443292454,
2023-08-12 10:12:34.366000,-8.614457831325302,-0.14457831325301207,-4.662650602409639,-0.07112201103617412,-8.469037400367872,-4.272225628448804,3.0,0.2621822621822622,3814.1405588484336,0.17248412097197122,-0.513140259891614,-0.05349338616630721,1189.0109890109889,-1.0,67.52575903283417,0.26247848486883535,
2023-08-12 10:12:34.374000,-8.614457831325302,-0.13253012048192772,-4.662650602409639,-0.07112201103617412,-8.505824647455547,-4.335990190067443,3.0,0.2626262626262626,3807.6923076923076,0.39659693491055364,-0.3721228366645294,0.04020744711846625,1189.7435897435896,-1.0,67.52575903283417,0.2624786577293785,
2023-08-12 10:12:34.381000,-8.614457831325302,-0.13253012048192772,-4.662650602409639,0.009809932556713672,-8.429797670141017,-4.316370324954016,3.0,0.2626262626262626,3807.6923076923076,0.33179884622108186,0.042188683643144376,-0.14253248645183852,1189.7435897435896,-1.0,67.52575903283417,0.2624788919399704,
2023-08-12 10:12:34.389000,-8.602409638554217,-0.13253012048192772,-4.650602409638554,-0.08583690987124463,-8.483752299202942,-4.353157572041692,3.0,0.2626262626262626,3807.6923076923076,-0.05768894586562513,-0.26478643435697247,0.010372355923314406,1186.8131868131868,-1.0,67.52575903283417,0.2624791862355929,
2023-08-12 10:12:34.397000,-8.614457831325302,-0.14457831325301207,-4.650602409638554,-0.034334763948497854,-8.388105456774984,-4.333537706928265,3.0,0.2626262626262626,3807.6923076923076,-0.2880950993531849,-0.2635044577821798,-0.14311520307674358,1184.6153846153845,-1.0,67.52575903283417,0.2624795391743523,
2023-08-12 10:12:34.404000,-8.626506024096386,-0.16867469879518074,-4.63855421686747,-0.08583690987124463,-8.429797670141017,-4.29429797670141,3.0,0.2626262626262626,3807.6923076923076,-0.24089505273585413,0.16409300157333537,0.025056814870928437,1183.150183150183,-1.0,67.52575903283417,0.2624799491414111,
2023-08-12 10:12:34.412000,-8.602409638554217,-0.1927710843373494,-4.662650602409639,-0.04659717964438994,-8.43960760269773,-4.286940527283875,3.0,0.2626262626262626,3807.6923076923076,-0.28774546937824064,0.36175048074121585,0.055707709340947445,1180.2197802197802,-1.0,67.52575903283417,0.26248041449257786,
2023-08-12 10:12:34.420000,-8.602409638554217,-0.18072289156626506,-4.650602409638554,-0.08828939301042305,-8.454322501532802,-4.2697731453096255,3.0,0.2626262626262626,3807.6923076923076,-0.33296427947089374,0.4361051220791336,-0.08181341413670515,1176.5567765567764,-1.0,67.52575903283417,0.26248093340091466,
2023-08-12 10:12:34.427000,-8.614457831325302,-0.1566265060240964,-4.650602409638554,-0.05885959534028203,-8.464132434089516,-4.331085223789086,3.0,0.2621822621822622,3814.1405588484336,-0.013402482372822228,0.2515004953091311,-0.0497639997669135,1172.8937728937728,-1.0,67.52575903283417,0.2624815037357331,
2023-08-12 10:12:34.435000,-8.63855421686747,-0.16867469879518074,-4.662650602409639,-0.08583690987124463,-8.530349478847333,-4.389944819129369,3.0,0.2621822621822622,3814.1405588484336,0.18542043004486836,0.46617329992424666,-0.29357263562729463,1167.7655677655678,-1.0,67.52575903283417,0.26248212320860936,
2023-08-12 10:12:34.443000,-8.674698795180724,-0.14457831325301207,-4.662650602409639,-0.02452483139178418,-8.52053954629062,-4.362967504598406,3.0,0.2626262626262626,3807.6923076923076,-0.07761785443738635,0.2685158207563662,-0.12376901112988742,1164.102564102564,-1.0,67.52575903283417,0.26248278933921293,
2023-08-12 10:12:34.450000,-8.686746987951807,-0.14457831325301207,-4.650602409638554,-0.06866952789699571,-8.545064377682403,-4.318822808093194,3.0,0.2621822621822622,3814.1405588484336,-0.15255521240021,0.11596060835615618,0.2258609638132976,1159.7069597069597,-1.0,67.52575903283417,0.26248349960254425,
2023-08-12 10:12:34.458000,-8.66265060240964,-0.13253012048192772,-4.650602409638554,-0.017167381974248927,-8.461679950950337,-4.286940527283875,3.0,0.2626262626262626,3807.6923076923076,-0.30231338500087473,0.20942835499096754,-0.06677932521414817,1156.7765567765566,-1.0,67.52575903283417,0.26248425117162366,
2023-08-12 10:12:34.466000,-8.66265060240964,-0.14457831325301207,-4.63855421686747,-0.14469650521152666,-8.525444512568976,-4.289393010423053,3.0,0.2626262626262626,3807.6923076923076,-0.2952042421770298,-0.11293048190664923,-0.1883340131693958,1155.3113553113553,-1.0,67.52575903283417,0.26248504093742014,
2023-08-12 10:12:34.473000,-8.66265060240964,-0.1566265060240964,-4.626506024096386,-0.09074187614960147,-8.451870018393624,-4.3408951563458,3.0,0.2626262626262626,3807.6923076923076,0.12551716100460386,-0.03950818716857993,-0.15663422877454708,1153.113553113553,-1.0,67.52575903283417,0.26248586582715083,
2023-08-12 10:12:34.481000,-8.63855421686747,-0.1927710843373494,-4.63855421686747,-0.1103617412630288,-8.527896995708154,-4.348252605763335,3.0,0.2626262626262626,3807.6923076923076,0.37340481323932206,-0.22807528698793783,-0.00396247304935625,1147.985347985348,-1.0,67.52575903283417,0.2624867226760579,
2023-08-12 10:12:34.489000,-8.66265060240964,-0.1927710843373494,-4.650602409638554,-0.0269773145309626,-8.483752299202942,-4.311465358675659,3.0,0.2626262626262626,3807.6923076923076,0.5583590699842671,-0.6446011304702527,0.16537497814812674,1144.3223443223442,-1.0,67.52575903283417,0.26248760823854483,
2023-08-12 10:12:34.496000,-8.66265060240964,-0.18072289156626506,-4.602409638554217,-0.0809319435928878,-8.530349478847333,-4.2624156958920905,3.0,0.2626262626262626,3807.6923076923076,0.6645300390420139,-0.33704329584522996,0.13565643027795574,1144.3223443223442,-1.0,67.52575903283417,0.2624885191998746,
2023-08-12 10:12:34.504000,-8.650602409638555,-0.14457831325301207,-4.614457831325302,-0.09074187614960147,-8.488657265481299,-4.311465358675659,3.0,0.2626262626262626,3807.6923076923076,0.6810791911893239,-0.1687547345725775,0.04545189674261387,1154.5787545787546,-1.0,67.52575903283417,0.26248945218838116,
2023-08-12 10:12:34.512000,-8.626506024096386,-0.14457831325301207,-4.63855421686747,-0.07112201103617412,-8.496014714898834,-4.2697731453096255,3.0,0.2626262626262626,3807.6923076923076,0.5871452712545893,-0.3504457782180522,-0.014917545597575707,1183.150183150183,-1.0,67.52575903283417,0.26249040378814253,
2023-08-12 10:12:34.519000,-8.63855421686747,-0.14457831325301207,-4.63855421686747,-0.06131207847946045,-8.518087063151441,-4.331085223789086,3.0,0.2626262626262626,3807.6923076923076,0.5989161470776763,0.11223122195676248,0.1392692733523686,1230.03663003663,-1.0,67.52575903283417,0.2624913705520544,
2023-08-12 10:12:34.527000,-8.626506024096386,-0.13253012048192772,-4.63855421686747,-0.06866952789699571,-8.522992029429798,-4.304107909258124,3.0,0.2626262626262626,3807.6923076923076,0.6233902453236988,-0.2821513897791501,0.22900763358778625,1301.098901098901,-1.0,67.52575903283417,0.2624923490152501,
2023-08-12 10:12:34.535000,-8.63855421686747,-0.13253012048192772,-4.662650602409639,-0.08338442673206621,-8.476394849785407,-4.3408951563458,3.0,0.2626262626262626,3807.6923076923076,0.3252724200221429,-0.014451372297651493,0.014334828972670657,1393.4065934065934,-1.0,67.52575903283417,0.2624933357088002,
2023-08-12 10:12:34.542000,-8.63855421686747,-0.13253012048192772,-4.63855421686747,-0.05885959534028203,-8.513182096873084,-4.335990190067443,3.0,0.2626262626262626,3807.6923076923076,-0.17096905774721688,0.06654623856418607,0.2732940970805896,1504.7619047619046,-1.0,67.52575903283417,0.2624943271736286,
2023-08-12 10:12:34.550000,-8.614457831325302,-0.13253012048192772,-4.614457831325302,-0.04659717964438994,-8.532801961986511,-4.291845493562231,3.0,0.2626262626262626,3807.6923076923076,0.23728220966144126,0.40650311753394386,0.07225686148825833,1632.9670329670328,-1.0,67.52575903283417,0.26249531997457815,
2023-08-12 10:12:34.558000,-8.602409638554217,-0.14457831325301207,-4.650602409638554,-0.06866952789699571,-8.478847332924586,-4.360515021459228,3.0,0.2626262626262626,3807.6923076923076,-0.19789056581784217,0.20791329176621492,0.08484354058621296,1769.230769230769,-1.0,67.52575903283417,0.26249631071455676,
2023-08-12 10:12:34.565000,-8.626506024096386,-0.1566265060240964,-4.63855421686747,-0.11281422440220723,-8.481299816063764,-4.328632740649907,3.0,0.2626262626262626,3807.6923076923076,-0.2611735912825596,-0.23355282326204754,0.2377483829613659,1909.1575091575091,-1.0,67.52575903283417,0.26249729604869354,
2023-08-12 10:12:34.573000,-8.63855421686747,-0.1566265060240964,-4.63855421686747,-0.13243408951563457,-8.493562231759656,-4.348252605763335,3.0,0.2626262626262626,3807.6923076923076,-0.04626770001748233,-0.15931472524911067,0.17446535749664935,2045.4212454212452,-1.0,67.52575903283417,0.26249827269843623,
2023-08-12 10:12:34.581000,-8.63855421686747,-0.18072289156626506,-4.662650602409639,-0.03188228080931944,-8.540159411404046,-4.35561005518087,3.0,0.2626262626262626,3807.6923076923076,0.2731775537556083,-0.32981760969640417,0.004312103024299194,2173.6263736263736,-1.0,67.52575903283417,0.2624992374655149,
2023-08-12 10:12:34.588000,-8.650602409638555,-0.18072289156626506,-4.662650602409639,-0.07357449417535254,-8.518087063151441,-4.35561005518087,3.0,0.2621822621822622,3814.1405588484336,-0.1719014043470653,-0.2700308839811205,0.27667385350504037,2284.2490842490843,827.2705078125,72.52766710934041,0.26250018724570534,
2023-08-12 10:12:34.596000,-8.63855421686747,-0.18072289156626506,-4.650602409638554,-0.09319435928877988,-8.498467198038012,-4.289393010423053,3.0,0.2626262626262626,3807.6923076923076,-0.17341646757181964,-0.2865800361284305,0.43913524852864055,2376.556776556776,-1.0,72.52766710934041,0.26250111889302097,
2023-08-12 10:12:34.604000,-8.63855421686747,-0.16867469879518074,-4.626506024096386,-0.10055180870631514,-8.515634580012263,-4.274678111587982,3.0,0.2626262626262626,3807.6923076923076,-0.20313501544199022,-0.10139269273352386,0.11281393858166752,2443.223443223443,-1.0,72.52766710934041,0.26250202936027534,
2023-08-12 10:12:34.611000,-8.650602409638555,-0.20481927710843376,-4.590361445783133,-0.08583690987124463,-8.469037400367872,-4.264868179031269,3.0,0.2626262626262626,3807.6923076923076,0.19462735271837353,0.2642037177320666,-0.013402482372822228,2485.7142857142853,-1.0,72.52766710934041,0.26250291587074714,
2023-08-12 10:12:34.619000,-8.602409638554217,-0.20481927710843376,-4.602409638554217,-0.10300429184549356,-8.505824647455547,-4.2697731453096255,3.0,0.2626262626262626,3807.6923076923076,0.25336518850882794,-0.07400501136297348,-0.09102033681020902,2502.5641025641025,-1.0,72.52766710934041,0.2625037757914946,
2023-08-12 10:12:34.626000,-8.626506024096386,-0.16867469879518074,-4.63855421686747,-0.08338442673206621,-8.449417535254444,-4.367872470876763,3.0,0.2626262626262626,3807.6923076923076,0.5253773090146262,0.0020977798496585277,0.15675077209952792,2492.307692307692,-1.0,72.52766710934041,0.2625046066448783,
2023-08-12 10:12:34.634000,-8.66265060240964,-0.1566265060240964,-4.650602409638554,-0.06131207847946045,-8.496014714898834,-4.328632740649907,3.0,0.2626262626262626,3807.6923076923076,0.3974127381854212,-0.28541460287862047,0.12376901112988742,2460.8058608058604,-1.0,72.52766710934041,0.2625054061194859,
2023-08-12 10:12:34.642000,-8.674698795180724,-0.13253012048192772,-4.63855421686747,-0.04659717964438994,-8.532801961986511,-4.358062538320048,3.0,0.26307026307026304,3801.26582278481,0.38972087873667044,-0.28285064972903684,0.12365246780490657,2409.523809523809,-1.0,72.52766710934041,0.26250617208039606,
2023-08-12 10:12:34.649000,-8.66265060240964,-0.10843373493975904,-4.626506024096386,-0.06131207847946045,-8.496014714898834,-4.301655426118945,3.0,0.2626262626262626,3807.6923076923076,0.549618320610687,-0.27842200337975637,-0.24427480916030533,2342.124542124542,-1.0,72.52766710934041,0.2625069027280237,
2023-08-12 10:12:34.657000,-8.63855421686747,-0.12048192771084337,-4.650602409638554,-0.03188228080931944,-8.481299816063764,-4.316370324954016,3.0,0.2626262626262626,3807.6923076923076,0.023425208321193255,0.1848377134199642,0.049181283142008016,2264.4688644688645,-1.0,72.52766710934041,0.26250759647948524,
2023-08-12 10:12:34.665000,-8.614457831325302,-0.12048192771084337,-4.662650602409639,0.03188228080931944,-8.45677498467198,-4.328632740649907,3.0,0.2626262626262626,3807.6923076923076,0.050929433016724465,-0.046500786667444005,-0.057572402540644295,2181.6849816849817,-1.0,72.52766710934041,0.26250825181763,
2023-08-12 10:12:34.672000,-8.590361445783133,-0.13253012048192772,-4.662650602409639,0.019619865113427344,-8.466584917228694,-4.333537706928265,3.0,0.2626262626262626,3807.6923076923076,-0.22399627061359986,-0.06200104888992476,-0.05733931589068219,2097.4358974358975,-1.0,72.52766710934041,0.2625088674370806,
2023-08-12 10:12:34.680000,-8.602409638554217,-0.14457831325301207,-4.662650602409639,-0.03678724708767627,-8.451870018393624,-4.301655426118945,3.0,0.2626262626262626,3807.6923076923076,-0.16257793834858103,0.18332265019520982,-0.17807820057106222,2015.3846153846152,-1.0,72.52766710934041,0.26250944225061845,
2023-08-12 10:12:34.688000,-8.614457831325302,-0.1566265060240964,-4.662650602409639,-0.034334763948497854,-8.47148988350705,-4.380134886572654,3.0,0.2626262626262626,3807.6923076923076,-0.3301672396713484,0.48423751529631104,-0.0710914282384478,1935.5311355311353,-1.0,72.52766710934041,0.26250997539461557,
2023-08-12 10:12:34.695000,-8.626506024096386,-0.14457831325301207,-4.650602409638554,-0.07357449417535254,-8.505824647455547,-4.380134886572654,3.0,0.2626262626262626,3807.6923076923076,0.13262630382844878,0.2760911368801344,0.06456500203950837,1861.5384615384614,-1.0,72.52766710934041,0.26251046623349056,
2023-08-12 10:12:34.703000,-8.602409638554217,-0.13253012048192772,-4.662650602409639,0.009809932556713672,-8.545064377682403,-4.296750459840588,3.0,0.2626262626262626,3807.6923076923076,0.08624206048598561,0.40650311753394386,-0.01480100227259487,1792.6739926739926,-1.0,72.52766710934041,0.26251091436314894,
2023-08-12 10:12:34.711000,-8.650602409638555,-0.14457831325301207,-4.650602409638554,-0.1103617412630288,-8.505824647455547,-4.338442673206622,3.0,0.2626262626262626,3807.6923076923076,-0.3397237923197944,0.9959792552881533,0.12213740458015267,1728.937728937729,-1.0,72.52766710934041,0.26251131961339425,
2023-08-12 10:12:34.718000,-8.674698795180724,-0.14457831325301207,-4.650602409638554,-0.05150214592274678,-8.493562231759656,-4.272225628448804,3.0,0.2626262626262626,3807.6923076923076,-0.6677932521414843,0.97255404696696,-0.2319212167123128,1671.0622710622708,-1.0,72.52766710934041,0.26251168204928454,
2023-08-12 10:12:34.726000,-8.674698795180724,-0.1566265060240964,-4.626506024096386,-0.12017167381974249,-8.586756591048436,-4.343347639484978,3.0,0.2626262626262626,3807.6923076923076,-0.4792261523221264,0.49099702814521345,6.992599498863206E-4,1621.245421245421,-1.0,72.52766710934041,0.2625120021101759,
2023-08-12 10:12:34.734000,-8.650602409638555,-0.16867469879518074,-4.650602409638554,-0.06866952789699571,-8.554874310239116,-4.350705088902513,3.0,0.2621822621822622,3814.1405588484336,-0.398811258085193,-0.15337101567507758,-0.15372064565002053,1575.091575091575,-1.0,72.52766710934041,0.2625122804498128,
2023-08-12 10:12:34.741000,-8.674698795180724,-0.16867469879518074,-4.650602409638554,-0.07602697731453095,-8.530349478847333,-4.35561005518087,3.0,0.2626262626262626,3807.6923076923076,-0.12178777460521016,-0.4844706019462727,0.12306975118000109,1534.065934065934,-1.0,72.52766710934041,0.26251251779631957,
2023-08-12 10:12:34.749000,-8.66265060240964,-0.1927710843373494,-4.662650602409639,-0.08338442673206621,-8.515634580012263,-4.365419987737584,3.0,0.2626262626262626,3807.6923076923076,0.30161412505098795,-0.6584697861429982,0.3505623215430334,1496.7032967032967,-1.0,72.52766710934041,0.2625127152054118,
2023-08-12 10:12:34.757000,-8.63855421686747,-0.1927710843373494,-4.650602409638554,-0.08828939301042305,-8.493562231759656,-4.331085223789086,3.0,0.2626262626262626,3807.6923076923076,0.3572052910669546,-0.9522755084202545,0.4537031641512733,1458.6080586080584,-1.0,72.52766710934041,0.26251287406716234,
2023-08-12 10:12:34.764000,-8.63855421686747,-0.1927710843373494,-4.614457831325302,-0.07112201103617412,-8.515634580012263,-4.328632740649907,3.0,0.2626262626262626,3807.6923076923076,0.45766563720062997,-0.7559000058271668,0.3426373754443214,1421.9780219780218,-1.0,72.52766710934041,0.26251299582419807,
2023-08-12 10:12:34.772000,-8.626506024096386,-0.21686746987951808,-4.614457831325302,-0.14469650521152666,-8.481299816063764,-4.304107909258124,3.0,0.2626262626262626,3807.6923076923076,0.6501952100693432,0.014451372297651493,0.6302663014975816,1387.5457875457876,-1.0,72.52766710934041,0.2625130819865692,
2023-08-12 10:12:34.780000,-8.590361445783133,-0.20481927710843376,-4.63855421686747,-0.1103617412630288,-8.427345187001839,-4.250153280196199,3.0,0.2626262626262626,3807.6923076923076,0.3244566167472753,0.18623623331973596,0.6405221140959152,1353.113553113553,-1.0,72.52766710934041,0.26251313427305384,
2023-08-12 10:12:34.787000,-8.614457831325302,-0.1927710843373494,-4.63855421686747,-0.05885959534028203,-8.45677498467198,-4.358062538320048,3.0,0.2626262626262626,3807.6923076923076,0.7337567740807645,0.6731542450906132,0.589359594429229,1319.4139194139193,-1.0,72.52766710934041,0.26251315474098247,
2023-08-12 10:12:34.795000,-8.614457831325302,-0.1566265060240964,-4.662650602409639,-0.06131207847946045,-8.442060085836909,-4.318822808093194,3.0,0.2626262626262626,3807.6923076923076,0.7135947788590415,0.68282734106404,0.4623273701998717,1288.6446886446886,-1.0,72.52766710934041,0.262513145617292,
2023-08-12 10:12:34.803000,-8.626506024096386,-0.13253012048192772,-4.662650602409639,-0.05885959534028203,-8.552421827099938,-4.316370324954016,3.0,0.2626262626262626,3807.6923076923076,0.38972087873667044,0.7962239962706142,0.4578987238505912,1262.2710622710622,-1.0,72.52766710934041,0.26251310929900584,
2023-08-12 10:12:34.810000,-8.650602409638555,-0.10843373493975904,-4.650602409638554,0.002452483139178418,-8.488657265481299,-4.316370324954016,3.0,0.2626262626262626,3807.6923076923076,-0.07004253831361809,0.7374861604801581,0.6033447934269563,1239.5604395604396,-1.0,72.52766710934041,0.26251304833176103,
2023-08-12 10:12:34.818000,-8.66265060240964,-0.12048192771084337,-4.63855421686747,-0.017167381974248927,-8.45677498467198,-4.35561005518087,3.0,0.2626262626262626,3807.6923076923076,0.34566750189382917,0.9239554804498575,0.44484587145271237,1223.4432234432234,-1.0,72.52766710934041,0.26251296540858327,
2023-08-12 10:12:34.826000,-8.66265060240964,-0.10843373493975904,-4.63855421686747,-0.03923973022685469,-8.45677498467198,-4.345800122624157,3.0,0.2626262626262626,3807.6923076923076,0.26968125400617626,0.17761202727113842,0.3485810850183557,1216.117216117216,-1.0,72.52766710934041,0.2625128633468338,
2023-08-12 10:12:34.833000,-8.626506024096386,-0.10843373493975904,-4.63855421686747,0.007357449417535254,-8.510729613733906,-4.338442673206622,3.0,0.2626262626262626,3807.6923076923076,0.2850649729036762,-0.5281743488141715,0.2242293572635624,1215.3846153846152,-1.0,72.52766710934041,0.2625127449467897,
2023-08-12 10:12:34.841000,-8.614457831325302,-0.13253012048192772,-4.674698795180723,-0.0269773145309626,-8.478847332924586,-4.313917841814837,3.0,0.2626262626262626,3807.6923076923076,0.5594079599090963,-0.8113746285181508,0.1616455917487326,1219.7802197802198,-1.0,72.52766710934041,0.2625126131264152,
2023-08-12 10:12:34.849000,-8.602409638554217,-0.13253012048192772,-4.674698795180723,-0.041692213366033105,-8.415082771305947,-4.286940527283875,3.0,0.2626262626262626,3807.6923076923076,0.3976458248353829,-1.0159081638599146,0.25045160538430183,1227.8388278388277,-1.0,72.52766710934041,0.2625124709064012,
2023-08-12 10:12:34.856000,-8.590361445783133,-0.14457831325301207,-4.698795180722891,-0.002452483139178418,-8.464132434089516,-4.367872470876763,3.0,0.2626262626262626,3807.6923076923076,0.3283025464716516,-0.9747683701415994,0.16933745119748256,1240.2930402930401,-1.0,72.52766710934041,0.2625123213948426,
2023-08-12 10:12:34.864000,-8.590361445783133,-0.14457831325301207,-4.710843373493976,-0.06376456161863887,-8.469037400367872,-4.375229920294298,3.0,0.2626262626262626,3807.6923076923076,0.18250684692034225,-0.18728512324456695,0.4102325039333371,1252.014652014652,-1.0,72.52766710934041,0.26251216777163877,
2023-08-12 10:12:34.872000,-8.590361445783133,-0.1566265060240964,-4.710843373493976,-0.1103617412630288,-8.444512568976087,-4.362967504598406,3.0,0.2626262626262626,3807.6923076923076,0.573276615581842,0.914282384476429,0.20674785851640354,1265.2014652014652,-1.0,72.52766710934041,0.2625120132726957,
2023-08-12 10:12:34.879000,-8.602409638554217,-0.13253012048192772,-4.662650602409639,-0.04414469650521152,-8.532801961986511,-4.370324954015941,3.0,0.2626262626262626,3807.6923076923076,0.06200104888992476,0.6811957345143065,-0.02330866499621242,1278.3882783882782,-1.0,72.52766710934041,0.26251186117401326,
2023-08-12 10:12:34.887000,-8.590361445783133,-0.12048192771084337,-4.698795180722891,-0.04904966278356836,-8.483752299202942,-4.429184549356223,3.0,0.2621822621822622,3814.1405588484336,-0.7637084086008967,0.7855020103723565,-0.1769127673212517,1289.3772893772893,-1.0,72.52766710934041,0.26251171477574387,
2023-08-12 10:12:34.895000,-8.602409638554217,-0.10843373493975904,-4.662650602409639,-0.05150214592274678,-8.405272838749234,-4.377682403433476,3.0,0.2626262626262626,3807.6923076923076,-1.0058854379115434,1.4989802459064154,0.05326029951634554,1298.168498168498,-1.0,72.52766710934041,0.2625115773757533,
2023-08-12 10:12:34.902000,-8.590361445783133,-0.14457831325301207,-4.662650602409639,-0.029429797670141016,-8.493562231759656,-4.365419987737584,3.0,0.2626262626262626,3807.6923076923076,-1.002622224812073,2.189499446419206,0.23471825651185851,1305.4945054945053,-1.0,72.52766710934041,0.2625114523608982,
2023-08-12 10:12:34.910000,-8.614457831325302,-0.14457831325301207,-4.650602409638554,-0.05885959534028203,-8.569589209074188,-4.2992029429797665,3.0,0.2626262626262626,3807.6923076923076,-1.1043645475205413,1.8067711671814,0.06304993881475446,1309.89010989011,-1.0,72.52766710934041,0.2625113430636704,
2023-08-12 10:12:34.918000,-8.66265060240964,-0.16867469879518074,-4.63855421686747,-0.0956468424279583,-8.569589209074188,-4.335990190067443,3.0,0.2626262626262626,3807.6923076923076,-1.0232503933337211,0.7521706194277731,0.4575490938756483,1309.1575091575091,-1.0,72.52766710934041,0.26251125262948366,
2023-08-12 10:12:34.925000,-8.710843373493976,-0.16867469879518074,-4.662650602409639,-0.08583690987124463,-8.562231759656651,-4.40220723482526,3.0,0.2626262626262626,3807.6923076923076,-1.0145096439601426,0.7442456733290606,0.45405279412621624,1303.2967032967033,-1.0,72.52766710934041,0.26251118415049834,
2023-08-12 10:12:34.933000,-8.686746987951807,-0.1566265060240964,-4.662650602409639,-0.07357449417535254,-8.569589209074188,-4.345800122624157,3.0,0.2626262626262626,3807.6923076923076,-0.8215138977915044,-0.08845638366062497,0.18868364314433872,1294.5054945054944,-1.0,72.52766710934041,0.26251114065060155,
2023-08-12 10:12:34.941000,-8.710843373493976,-0.1566265060240964,-4.686746987951808,-0.01226241569589209,-8.608828939301041,-4.350705088902513,3.0,0.2626262626262626,3807.6923076923076,-0.5229298991900234,-0.31769710389837463,0.35615640114212443,1283.5164835164835,-1.0,72.52766710934041,0.26251112507091584,
2023-08-12 10:12:34.948000,-8.698795180722891,-0.16867469879518074,-4.662650602409639,-0.041692213366033105,-8.545064377682403,-4.313917841814837,3.0,0.2626262626262626,3807.6923076923076,-0.16642386807295556,-1.2625138395198419,0.18553697336985006,1273.9926739926739,-1.0,72.52766710934041,0.26251114025590405,
2023-08-12 10:12:34.956000,-8.63855421686747,-0.13253012048192772,-4.63855421686747,-0.019619865113427344,-8.527896995708154,-4.289393010423053,3.0,0.2626262626262626,3807.6923076923076,0.4740982460229592,-1.6934910552998081,-0.09206922673503871,1264.4688644688645,-1.0,72.52766710934041,0.2625111889401432,
2023-08-12 10:12:34.964000,-8.578313253012048,-0.12048192771084337,-4.662650602409639,-0.029429797670141016,-8.461679950950337,-4.27958307786634,3.0,0.2626262626262626,3807.6923076923076,0.34671639181865843,-1.9234310354874429,0.07563661791270931,1257.142857142857,-1.0,72.52766710934041,0.262511273735828,
2023-08-12 10:12:34.971000,-8.542168674698795,-0.12048192771084337,-4.63855421686747,-0.0539546290619252,-8.361128142244022,-4.343347639484978,3.0,0.2626262626262626,3807.6923076923076,0.6978614299865974,-1.7405745585921564,0.3485810850183557,1247.6190476190475,-1.0,72.52766710934041,0.2625113971210646,
2023-08-12 10:12:34.979000,-8.530120481927712,-0.10843373493975904,-4.662650602409639,-0.0269773145309626,-8.37829552421827,-4.380134886572654,3.0,0.2626262626262626,3807.6923076923076,0.5264261989394554,-1.1464366878387047,0.14544606957636508,1237.3626373626373,-1.0,72.52766710934041,0.2625115614290093,
2023-08-12 10:12:34.987000,-8.530120481927712,-0.12048192771084337,-4.662650602409639,-0.05150214592274678,-8.415082771305947,-4.323727774371551,3.0,0.2626262626262626,3807.6923076923076,0.17388264087174474,-0.6778159780898553,-0.05664005594079609,1227.106227106227,-1.0,72.52766710934041,0.2625117689766478,
2023-08-12 10:12:34.994000,-8.55421686746988,-0.10843373493975904,-4.650602409638554,-0.056407112201103615,-8.402820355610055,-4.362967504598406,3.0,0.2626262626262626,3807.6923076923076,-0.5429753510867672,0.416409300157334,-0.2555795116834684,1220.5128205128203,-1.0,72.52766710934041,0.2625120220353821,
2023-08-12 10:12:35.002000,-8.566265060240964,-0.12048192771084337,-4.63855421686747,-0.017167381974248927,-8.449417535254444,-4.313917841814837,3.0,0.2626262626262626,3807.6923076923076,-0.77932521414836,0.9210418973253314,-0.2993998018763475,1216.117216117216,-1.0,72.52766710934041,0.2625123225362251,
2023-08-12 10:12:35.009000,-8.614457831325302,-0.14457831325301207,-4.614457831325302,-0.04659717964438994,-8.478847332924586,-4.333537706928265,3.0,0.2626262626262626,3807.6923076923076,-0.7255987413320902,1.1147369034438548,-0.0685274750888644,1210.2564102564102,-1.0,72.52766710934041,0.2625126720842261,
2023-08-12 10:12:35.017000,-8.66265060240964,-0.14457831325301207,-4.662650602409639,-0.04414469650521152,-8.469037400367872,-4.267320662170447,3.0,0.2626262626262626,3807.6923076923076,-0.7965736262455568,0.9872385059145732,-0.14544606957636508,1202.197802197802,-1.0,72.52766710934041,0.2625130721013397,
2023-08-12 10:12:35.025000,-8.698795180722891,-0.14457831325301207,-4.650602409638554,-0.10545677498467197,-8.594114040465971,-4.301655426118945,3.0,0.2626262626262626,3807.6923076923076,-0.2572111182332025,0.7964570829205759,0.2959035021269157,1192.6739926739926,-1.0,72.52766710934041,0.2625135238210504,
2023-08-12 10:12:35.032000,-8.698795180722891,-0.1566265060240964,-4.63855421686747,-0.06621704475781728,-8.601471489883506,-4.338442673206622,3.0,0.2626262626262626,3807.6923076923076,-0.19497698269331604,0.6668609055416359,-0.011887419148068535,1183.150183150183,-1.0,72.52766710934041,0.26251402828406656,
2023-08-12 10:12:35.040000,-8.710843373493976,-0.14457831325301207,-4.650602409638554,-0.07112201103617412,-8.54996934396076,-4.367872470876763,3.0,0.2621822621822622,3814.1405588484336,0.2018530388671993,-0.31909562379814643,-0.12038925470543665,1172.161172161172,-1.0,72.52766710934041,0.26251458633508684,
2023-08-12 10:12:35.048000,-8.698795180722891,-0.16867469879518074,-4.662650602409639,-0.09809932556713671,-8.56713672593501,-4.335990190067443,3.0,0.2626262626262626,3807.6923076923076,-0.10395664588310746,-0.6240895052735855,0.11071615873200878,1163.3699633699632,-1.0,72.52766710934041,0.26251519861010875,
2023-08-12 10:12:35.055000,-8.66265060240964,-0.1566265060240964,-4.650602409638554,-0.029429797670141016,-8.532801961986511,-4.335990190067443,3.0,0.2626262626262626,3807.6923076923076,0.2510343220092077,-0.9451663655964097,-0.254763708408601,1157.5091575091574,-1.0,72.52766710934041,0.2625158656423947,
2023-08-12 10:12:35.063000,-8.686746987951807,-0.13253012048192772,-4.686746987951808,-0.03923973022685469,-8.564684242795831,-4.385039852851011,3.0,0.2621822621822622,3814.1405588484336,0.2954373288269915,-1.0168405104597629,0.03985781714352309,1157.5091575091574,-1.0,72.52766710934041,0.2625165878734173,
2023-08-12 10:12:35.071000,-8.626506024096386,-0.14457831325301207,-4.626506024096386,-0.05885959534028203,-8.469037400367872,-4.335990190067443,3.0,0.2626262626262626,3807.6923076923076,0.07866674436221735,-0.3073247479750594,0.08612551716100456,1156.7765567765566,-1.0,72.52766710934041,0.2625173652280398,
2023-08-12 10:12:35.078000,-8.590361445783133,-0.12048192771084337,-4.662650602409639,0.0,-8.446965052115265,-4.331085223789086,3.0,0.2626262626262626,3807.6923076923076,0.21245848144047624,-0.5359827515879031,0.0844939106112698,1155.3113553113553,-1.0,72.52766710934041,0.26251819726513387,
2023-08-12 10:12:35.086000,-8.590361445783133,-0.13253012048192772,-4.662650602409639,-0.07112201103617412,-8.446965052115265,-4.328632740649907,3.0,0.2626262626262626,3807.6923076923076,0.34473515529398074,-0.5919235475788123,-0.053376842841326155,1154.5787545787546,-1.0,72.52766710934041,0.2625190836269017,
2023-08-12 10:12:35.094000,-8.590361445783133,-0.13253012048192772,-4.650602409638554,-0.02452483139178418,-8.47148988350705,-4.370324954015941,3.0,0.2621822621822622,3814.1405588484336,0.2917079424275978,-0.2180525610395668,0.10162577938348596,1153.8461538461538,-1.0,72.52766710934041,0.2625200237441525,
2023-08-12 10:12:35.101000,-8.578313253012048,-0.13253012048192772,-4.662650602409639,-0.08828939301042305,-8.42489270386266,-4.321275291232372,3.0,0.2621822621822622,3814.1405588484336,-0.3869238389371251,-0.2897267059029201,-0.21781947438960425,1153.8461538461538,-1.0,72.52766710934041,0.26252101670227196,
2023-08-12 10:12:35.109000,-8.590361445783133,-0.14457831325301207,-4.63855421686747,-0.03678724708767627,-8.473942366646229,-4.343347639484978,3.0,0.2626262626262626,3807.6923076923076,0.010139269273351865,0.09708058970922423,0.10384010255812619,1154.5787545787546,-1.0,72.52766710934041,0.26252206121438615,
2023-08-12 10:12:35.117000,-8.578313253012048,-0.13253012048192772,-4.626506024096386,-0.0809319435928878,-8.451870018393624,-4.345800122624157,3.0,0.2626262626262626,3807.6923076923076,0.040440533768428356,-0.11607715168113703,0.0543091894411748,1154.5787545787546,-1.0,72.52766710934041,0.2625231557858821,
2023-08-12 10:12:35.124000,-8.626506024096386,-0.1566265060240964,-4.650602409638554,-0.07602697731453095,-8.508277130594728,-4.345800122624157,3.0,0.2626262626262626,3807.6923076923076,-0.09847910960899774,-0.14579569955130758,0.20686440184138435,1155.3113553113553,-1.0,72.52766710934041,0.26252429889015344,
2023-08-12 10:12:35.132000,-8.63855421686747,-0.1566265060240964,-4.662650602409639,-0.02452483139178418,-8.53525444512569,-4.335990190067443,3.0,0.2626262626262626,3807.6923076923076,0.06619660858924355,0.20721403181632816,-0.3755025930889808,1157.5091575091574,-1.0,72.52766710934041,0.2625254889755056,
2023-08-12 10:12:35.140000,-8.63855421686747,-0.14457831325301207,-4.662650602409639,-0.07847946045370938,-8.515634580012263,-4.362967504598406,3.0,0.2626262626262626,3807.6923076923076,-0.11817493153079728,0.25138395198415026,0.022026688421420616,1161.904761904762,-1.0,72.52766710934041,0.26252672445247777,
2023-08-12 10:12:35.147000,-8.650602409638555,-0.13253012048192772,-4.674698795180723,-0.041692213366033105,-8.50091968117719,-4.394849785407725,3.0,0.2626262626262626,3807.6923076923076,-0.40895052735854487,-0.19439426606841012,0.03741040731892097,1168.4981684981685,-1.0,72.52766710934041,0.26252800341554394,
2023-08-12 10:12:35.155000,-8.674698795180724,-0.13253012048192772,-4.662650602409639,-0.04414469650521152,-8.43960760269773,-4.385039852851011,3.0,0.2621822621822622,3814.1405588484336,-0.14789347940096786,-0.2387972728861956,-0.13134432725365675,1174.3589743589744,-1.0,72.52766710934041,0.26252932381248706,
2023-08-12 10:12:35.163000,-8.66265060240964,-0.12048192771084337,-4.63855421686747,-0.04659717964438994,-8.508277130594728,-4.2992029429797665,3.0,0.2626262626262626,3807.6923076923076,-0.19334537614358085,0.2660684109317634,-0.14579569955130803,1180.2197802197802,-1.0,72.52766710934041,0.2625306832946552,
2023-08-12 10:12:35.170000,-8.650602409638555,-0.13253012048192772,-4.63855421686747,-0.02207234825260576,-8.50091968117719,-4.338442673206622,3.0,0.2626262626262626,3807.6923076923076,-0.49810617096905835,0.09766330633413015,-0.009090379348522817,1186.080586080586,-1.0,72.52766710934041,0.26253207936548667,
2023-08-12 10:12:35.178000,-8.650602409638555,-0.14457831325301207,-4.63855421686747,-0.01226241569589209,-8.50091968117719,-4.282035561005518,3.0,0.2626262626262626,3807.6923076923076,-0.26548569430685925,0.0045451896742613,0.06608006526426206,1189.7435897435896,-1.0,72.52766710934041,0.2625335096786643,
2023-08-12 10:12:35.186000,-8.66265060240964,-0.14457831325301207,-4.650602409638554,-0.04659717964438994,-8.491109748620477,-4.282035561005518,3.0,0.2626262626262626,3807.6923076923076,-0.0025639531495836093,-0.13285939047841044,-0.11677641163102377,1191.2087912087911,-1.0,72.52766710934041,0.2625349717619604,
2023-08-12 10:12:35.193000,-8.63855421686747,-0.14457831325301207,-4.650602409638554,-0.09074187614960147,-8.491109748620477,-4.350705088902513,3.0,0.2621822621822622,3814.1405588484336,-0.15360410232503927,-0.17854437387098687,0.20523279529164962,1193.4065934065934,-1.0,72.52766710934041,0.2625364630293475,
2023-08-12 10:12:35.201000,-8.63855421686747,-0.1566265060240964,-4.63855421686747,-0.004904966278356836,-8.498467198038012,-4.291845493562231,3.0,0.2626262626262626,3807.6923076923076,-0.1505739758755323,-0.17621350737136493,0.2040673620418393,1197.8021978021977,-1.0,72.52766710934041,0.26253798064397776,
2023-08-12 10:12:35.209000,-8.602409638554217,-0.18072289156626506,-4.662650602409639,-0.04414469650521152,-8.518087063151441,-4.318822808093194,3.0,0.2626262626262626,3807.6923076923076,-0.07190723151331495,-0.46524095332439824,0.08134724083678115,1201.4652014652013,-1.0,72.52766710934041,0.26253952165798006,
2023-08-12 10:12:35.216000,-8.614457831325302,-0.18072289156626506,-4.674698795180723,-0.0809319435928878,-8.513182096873084,-4.348252605763335,3.0,0.2626262626262626,3807.6923076923076,-0.5444904143115198,-0.08181341413670515,0.14218285647689516,1200.7326007326008,-1.0,72.52766710934041,0.2625410831838256,
2023-08-12 10:12:35.224000,-8.602409638554217,-0.16867469879518074,-4.662650602409639,-0.1079092581238504,-8.52053954629062,-4.289393010423053,3.0,0.2626262626262626,3807.6923076923076,-0.4010255812598341,-0.2952042421770298,0.06328302546471656,1199.2673992673992,-1.0,72.52766710934041,0.2625426622678125,
2023-08-12 10:12:35.232000,-8.63855421686747,-0.18072289156626506,-4.650602409638554,-0.09319435928877988,-8.483752299202942,-4.343347639484978,3.0,0.2626262626262626,3807.6923076923076,-0.35102849484295806,0.04102325039333428,-0.07447118466289834,1194.1391941391942,-1.0,72.52766710934041,0.26254425590224695,
2023-08-12 10:12:35.239000,-8.63855421686747,-0.14457831325301207,-4.650602409638554,-0.09074187614960147,-8.473942366646229,-4.316370324954016,3.0,0.2626262626262626,3807.6923076923076,-0.16479226152322038,0.010372355923315273,-0.11759221490589136,1187.5457875457876,-1.0,72.52766710934041,0.2625458608987704,
2023-08-12 10:12:35.247000,-8.614457831325302,-0.14457831325301207,-4.626506024096386,-0.02452483139178418,-8.50091968117719,-4.321275291232372,3.0,0.2626262626262626,3807.6923076923076,-0.3019637550259305,0.10115960608356218,-0.1312277839286757,1181.6849816849815,-1.0,72.52766710934041,0.2625474740594107,
2023-08-12 10:12:35.255000,-8.602409638554217,-0.14457831325301207,-4.626506024096386,-0.04414469650521152,-8.449417535254444,-4.316370324954016,3.0,0.2626262626262626,3807.6923076923076,-0.23774838296136636,-0.26746693083153694,0.005477536274109945,1175.0915750915751,-1.0,72.52766710934041,0.26254909231591855,
2023-08-12 10:12:35.262000,-8.63855421686747,-0.13253012048192772,-4.63855421686747,-0.014714898835070508,-8.530349478847333,-4.318822808093194,3.0,0.2626262626262626,3807.6923076923076,-0.28168521647922673,-0.17388264087174474,0.06712895518909133,1170.6959706959706,-1.0,72.52766710934041,0.2625507125921489,
2023-08-12 10:12:35.270000,-8.614457831325302,-0.12048192771084337,-4.602409638554217,-0.056407112201103615,-8.454322501532802,-4.323727774371551,3.0,0.2626262626262626,3807.6923076923076,-0.21851873433949015,-0.26408717440708573,-0.2263271371132218,1166.3003663003662,-1.0,72.52766710934041,0.26255233167670133,
2023-08-12 10:12:35.278000,-8.650602409638555,-0.13253012048192772,-4.626506024096386,-0.04904966278356836,-8.518087063151441,-4.333537706928265,3.0,0.2626262626262626,3807.6923076923076,-0.5057980304178075,-0.43202610570479566,0.003845929724375197,1160.4395604395604,-1.0,72.52766710934041,0.2625539462543595,
2023-08-12 10:12:35.285000,-8.602409638554217,-0.13253012048192772,-4.626506024096386,-0.0539546290619252,-8.522992029429798,-4.274678111587982,3.0,0.2621822621822622,3814.1405588484336,-0.07167414486335329,-0.15675077209952878,-0.08950527358545554,1156.0439560439559,-1.0,72.52766710934041,0.262555553064778,
2023-08-12 10:12:35.293000,-8.602409638554217,-0.14457831325301207,-4.650602409638554,-0.07602697731453095,-8.54996934396076,-4.29429797670141,3.0,0.2626262626262626,3807.6923076923076,-0.07015908163859894,-0.2623390245323697,-0.05850474914049316,1153.113553113553,-1.0,72.52766710934041,0.2625571487623777,
2023-08-12 10:12:35.301000,-8.626506024096386,-0.1566265060240964,-4.63855421686747,-0.03678724708767627,-8.488657265481299,-4.35561005518087,3.0,0.2626262626262626,3807.6923076923076,0.29963288852631026,0.06153487559000141,-0.09136996678515218,1154.5787545787546,-1.0,72.52766710934041,0.2625587300527145,
2023-08-12 10:12:35.308000,-8.63855421686747,-0.13253012048192772,-4.614457831325302,-0.041692213366033105,-8.503372164316369,-4.291845493562231,3.0,0.2626262626262626,3807.6923076923076,0.11467863178136525,0.12551716100460386,-0.10710331565759591,1158.2417582417581,-1.0,72.52766710934041,0.2625602938601008,
2023-08-12 10:12:35.316000,-8.602409638554217,-0.1566265060240964,-4.626506024096386,-0.004904966278356836,-8.52053954629062,-4.311465358675659,3.0,0.2626262626262626,3807.6923076923076,0.35825418099178385,0.0510459763417053,-0.04673387331740568,1165.5677655677655,-1.0,72.52766710934041,0.2625618371970536,
2023-08-12 10:12:35.324000,-8.63855421686747,-0.13253012048192772,-4.614457831325302,-0.05150214592274678,-8.554874310239116,-4.382587369711833,3.0,0.2626262626262626,3807.6923076923076,0.09568206980945246,0.1604801584989225,-0.09428354990967895,1180.2197802197802,-1.0,72.52766710934041,0.26256335717217566,
2023-08-12 10:12:35.331000,-8.626506024096386,-0.13253012048192772,-4.626506024096386,-0.02207234825260576,-8.525444512568976,-4.284488044144696,3.0,0.2626262626262626,3807.6923076923076,0.30872326787483284,-0.0533768428413255,-0.17096905774721752,1207.3260073260074,-1.0,72.52766710934041,0.26256485099768934,
2023-08-12 10:12:35.339000,-8.63855421686747,-0.14457831325301207,-4.63855421686747,0.02452483139178418,-8.53525444512569,-4.328632740649907,3.0,0.2626262626262626,3807.6923076923076,0.5328360818134136,-0.06876056173882716,0.05768894586562557,1250.5494505494505,-1.0,72.52766710934041,0.26256631599660296,
2023-08-12 10:12:35.347000,-8.66265060240964,-0.12048192771084337,-4.602409638554217,-0.002452483139178418,-8.542611894543224,-4.328632740649907,3.0,0.2621822621822622,3814.1405588484336,0.5894761377542095,-0.2368160363615179,-0.1575665753743955,1315.018315018315,-1.0,72.52766710934041,0.2625677496094847,
2023-08-12 10:12:35.354000,-8.66265060240964,-0.12048192771084337,-4.63855421686747,-0.03923973022685469,-8.498467198038012,-4.375229920294298,3.0,0.2621822621822622,3814.1405588484336,0.31152030767437816,0.2822679331041309,-0.17096905774721752,1404.3956043956043,-1.0,72.52766710934041,0.26256914925153174,
2023-08-12 10:12:35.362000,-8.63855421686747,-0.12048192771084337,-4.650602409638554,-0.056407112201103615,-8.564684242795831,-4.350705088902513,3.0,0.2626262626262626,3807.6923076923076,0.5708292057572409,0.09451663655964061,0.2427597459355514,1516.4835164835163,-1.0,72.52766710934041,0.26257051229662304,
2023-08-12 10:12:35.370000,-8.66265060240964,-0.10843373493975904,-4.674698795180723,-0.05885959534028203,-8.47148988350705,-4.318822808093194,3.0,0.2626262626262626,3807.6923076923076,0.4451955014276562,0.12062234135539832,0.0868247771108911,1645.4212454212452,-1.0,72.52766710934041,0.262571836369158,
2023-08-12 10:12:35.377000,-8.63855421686747,-0.12048192771084337,-4.662650602409639,-0.08338442673206621,-8.508277130594728,-4.360515021459228,3.0,0.2626262626262626,3807.6923076923076,-0.24439135248528618,-0.23518442981178272,-0.03741040731892097,1785.3479853479853,-1.0,72.52766710934041,0.26257311936907507,
2023-08-12 10:12:35.385000,-8.63855421686747,-0.10843373493975904,-4.662650602409639,-0.03923973022685469,-8.525444512568976,-4.350705088902513,3.0,0.2626262626262626,3807.6923076923076,0.11118233203193321,0.0844939106112696,0.17586387739642198,1929.6703296703295,-1.0,72.52766710934041,0.26257435933728135,
2023-08-12 10:12:35.392000,-8.63855421686747,-0.12048192771084337,-4.686746987951808,-0.03188228080931944,-8.48620478234212,-4.382587369711833,3.0,0.2626262626262626,3807.6923076923076,-0.00967309597342852,-0.4348231455043409,0.18763475321950926,2072.5274725274726,-1.0,72.52766710934041,0.2625755544593589,
2023-08-12 10:12:35.400000,-8.63855421686747,-0.14457831325301207,-4.662650602409639,-0.004904966278356836,-8.54996934396076,-4.321275291232372,3.0,0.2626262626262626,3807.6923076923076,-0.13250976050346794,-0.35708874774197374,0.2767903968300216,2205.128205128205,-1.0,72.52766710934041,0.2625767030687964,
2023-08-12 10:12:35.408000,-8.63855421686747,-0.12048192771084337,-4.662650602409639,-0.056407112201103615,-8.48620478234212,-4.289393010423053,3.0,0.2626262626262626,3807.6923076923076,-0.22562787716333504,-0.34100576889458706,0.11980653808053138,2323.809523809524,811.95068359375,73.89611365857326,0.2625778036497407,
2023-08-12 10:12:35.415000,-8.614457831325302,-0.1566265060240964,-4.674698795180723,-0.0539546290619252,-8.473942366646229,-4.367872470876763,3.0,0.2626262626262626,3807.6923076923076,-0.11922382145562654,-0.13857001340248185,-0.004195559699318357,2419.047619047619,-1.0,73.89611365857326,0.2625788548392685,
2023-08-12 10:12:35.423000,-8.626506024096386,-0.13253012048192772,-4.674698795180723,-0.04659717964438994,-8.493562231759656,-4.35561005518087,3.0,0.2626262626262626,3807.6923076923076,-0.2429928325855144,-0.18040906707068372,-0.02016199522172376,2490.10989010989,-1.0,73.89611365857326,0.2625798554291738,
2023-08-12 10:12:35.431000,-8.614457831325302,-0.1566265060240964,-4.650602409638554,-0.0269773145309626,-8.42489270386266,-4.385039852851011,3.0,0.2626262626262626,3807.6923076923076,-0.030301264495076495,0.26723384418157525,-0.2202668842142066,2530.4029304029305,-1.0,73.89611365857326,0.2625808043672787,
2023-08-12 10:12:35.438000,-8.590361445783133,-0.1566265060240964,-4.674698795180723,-0.10545677498467197,-8.459227467811159,-4.335990190067443,3.0,0.2626262626262626,3807.6923076923076,-0.07633587786259542,-0.20593205524153552,-0.49495950119456905,2540.6593406593406,-1.0,73.89611365857326,0.26258170075826587,
2023-08-12 10:12:35.446000,-8.590361445783133,-0.14457831325301207,-4.626506024096386,-0.07602697731453095,-8.446965052115265,-4.311465358675659,3.0,0.26307026307026304,3801.26582278481,0.06270030883981152,-0.04789930656721578,-0.25033506205932055,2522.3443223443223,-1.0,73.89611365857326,0.26258254400278985,
2023-08-12 10:12:35.454000,-8.602409638554217,-0.14457831325301207,-4.662650602409639,-0.05885959534028203,-8.459227467811159,-4.348252605763335,3.0,0.2626262626262626,3807.6923076923076,-0.27457607365538184,0.031117067769944086,-0.2505681487092827,2480.5860805860802,-1.0,73.89611365857326,0.26258333378753884,
2023-08-12 10:12:35.461000,-8.602409638554217,-0.12048192771084337,-4.650602409638554,0.004904966278356836,-8.481299816063764,-4.321275291232372,3.0,0.2626262626262626,3807.6923076923076,0.21455626129013475,0.10838529223238792,-0.15651768544956582,2426.3736263736264,-1.0,73.89611365857326,0.2625840698296444,
2023-08-12 10:12:35.469000,-8.614457831325302,-0.13253012048192772,-4.674698795180723,-0.05885959534028203,-8.483752299202942,-4.313917841814837,3.0,0.2626262626262626,3807.6923076923076,-0.2019695821921801,0.10943418215721719,-0.12644950760445187,2358.241758241758,-1.0,73.89611365857326,0.2625847518658333,
2023-08-12 10:12:35.477000,-8.626506024096386,-0.12048192771084337,-4.650602409638554,-0.007357449417535254,-8.454322501532802,-4.335990190067443,3.0,0.2626262626262626,3807.6923076923076,-0.20313501544199022,0.10803566225744368,-0.12808111415418683,2279.8534798534797,-1.0,73.89611365857326,0.2625853797897237,
2023-08-12 10:12:35.484000,-8.63855421686747,-0.10843373493975904,-4.602409638554217,0.004904966278356836,-8.47148988350705,-4.318822808093194,3.0,0.2626262626262626,3807.6923076923076,-0.4912301147951751,0.4278305460054768,-0.31268574092418866,2194.139194139194,-1.0,73.89611365857326,0.26258595364993964,
2023-08-12 10:12:35.492000,-8.63855421686747,-0.12048192771084337,-4.626506024096386,-0.034334763948497854,-8.515634580012263,-4.343347639484978,3.0,0.2626262626262626,3807.6923076923076,-0.19509352601829688,0.10255812598333396,-0.6015966435522405,2108.424908424908,-1.0,73.89611365857326,0.26258647364781307,
2023-08-12 10:12:35.500000,-8.63855421686747,-0.12048192771084337,-4.626506024096386,-0.04659717964438994,-8.513182096873084,-4.257510729613734,3.0,0.2626262626262626,3807.6923076923076,-0.3730551832643778,0.28040323990443405,-0.42899597925528826,2024.1758241758241,-1.0,73.89611365857326,0.262586940134682,
2023-08-12 10:12:35.507000,-8.66265060240964,-0.13253012048192772,-4.63855421686747,-0.08583690987124463,-8.562231759656651,-4.326180257510729,3.0,0.2626262626262626,3807.6923076923076,-0.24345900588543773,0.016432608822329185,-0.3342462560456851,1945.054945054945,-1.0,73.89611365857326,0.26258735374755315,
2023-08-12 10:12:35.515000,-8.674698795180724,-0.13253012048192772,-4.662650602409639,-0.04659717964438994,-8.48620478234212,-4.3408951563458,3.0,0.2626262626262626,3807.6923076923076,-0.08414428063632708,0.030534351145038167,-0.05768894586562557,1871.7948717948716,-1.0,73.89611365857326,0.26258771524651986,
2023-08-12 10:12:35.523000,-8.66265060240964,-0.16867469879518074,-4.650602409638554,-0.07602697731453095,-8.584304107909258,-4.328632740649907,3.0,0.2626262626262626,3807.6923076923076,-0.14043470660217872,-0.07901637433715986,-0.18064215372064582,1805.8608058608058,-1.0,73.89611365857326,0.2625880253833421,
2023-08-12 10:12:35.530000,-8.650602409638555,-0.1566265060240964,-4.650602409638554,-0.10300429184549356,-8.552421827099938,-4.284488044144696,3.0,0.2626262626262626,3807.6923076923076,0.01759804207214102,-0.6117359128255926,-0.24042887943593014,1745.054945054945,-1.0,73.89611365857326,0.2625882850464045,
2023-08-12 10:12:35.538000,-8.674698795180724,-0.14457831325301207,-4.650602409638554,-0.07357449417535254,-8.469037400367872,-4.326180257510729,3.0,0.2626262626262626,3807.6923076923076,0.06782821513897873,-0.12050579803041749,-0.2685158207563662,1692.3076923076922,-1.0,73.89611365857326,0.26258849525606964,
2023-08-12 10:12:35.546000,-8.650602409638555,-0.13253012048192772,-4.614457831325302,-0.09319435928877988,-8.45677498467198,-4.306560392397302,3.0,0.2626262626262626,3807.6923076923076,0.40557077093409544,-0.6386574208962179,-0.03845929724375023,1645.4212454212452,-1.0,73.89611365857326,0.2625886571597371,
2023-08-12 10:12:35.553000,-8.626506024096386,-0.12048192771084337,-4.614457831325302,-0.06376456161863887,-8.45677498467198,-4.301655426118945,3.0,0.2626262626262626,3807.6923076923076,0.5538138803100058,-0.4347066021793601,-0.281452129829264,1601.4652014652013,-1.0,73.89611365857326,0.2625887720266365,
2023-08-12 10:12:35.561000,-8.578313253012048,-0.13253012048192772,-4.63855421686747,-0.05885959534028203,-8.466584917228694,-4.321275291232372,3.0,0.2626262626262626,3807.6923076923076,0.8567099819357847,-0.3060427714002684,-0.23401899656197198,1561.9047619047617,-1.0,73.89611365857326,0.2625888412423726,
2023-08-12 10:12:35.569000,-8.590361445783133,-0.12048192771084337,-4.650602409638554,-0.08583690987124463,-8.48620478234212,-4.353157572041692,3.0,0.2626262626262626,3807.6923076923076,0.5433249810617097,0.15605151214964202,-0.003612843074412873,1520.14652014652,-1.0,73.89611365857326,0.2625888663032485,
2023-08-12 10:12:35.576000,-8.590361445783133,-0.12048192771084337,-4.650602409638554,-0.041692213366033105,-8.427345187001839,-4.3408951563458,3.0,0.2626262626262626,3807.6923076923076,0.6898199405629041,-0.15208903910028493,-0.0180642153720648,1478.3882783882782,-1.0,73.89611365857326,0.26258884894913676,
2023-08-12 10:12:35.584000,-8.590361445783133,-0.13253012048192772,-4.650602409638554,-0.04659717964438994,-8.429797670141017,-4.326180257510729,3.0,0.2626262626262626,3807.6923076923076,0.39403298176097007,0.06176796223996309,-0.048132393217178535,1435.8974358974358,-1.0,73.89611365857326,0.2625887911370445,
2023-08-12 10:12:35.592000,-8.590361445783133,-0.1566265060240964,-4.686746987951808,-0.09319435928877988,-8.48620478234212,-4.335990190067443,3.0,0.2626262626262626,3807.6923076923076,-0.03449682419439355,0.3185129071732422,-0.23192121671231303,1393.4065934065934,-1.0,73.89611365857326,0.262588694748161,
2023-08-12 10:12:35.599000,-8.602409638554217,-0.16867469879518074,-4.674698795180723,-0.04659717964438994,-8.493562231759656,-4.345800122624157,3.0,0.2626262626262626,3807.6923076923076,0.10174232270846637,0.34473515529398074,-0.21374045801526717,1351.6483516483515,-1.0,73.89611365857326,0.2625885616029981,
2023-08-12 10:12:35.607000,-8.614457831325302,-0.18072289156626506,-4.686746987951808,-0.07847946045370938,-8.498467198038012,-4.385039852851011,3.0,0.2626262626262626,3807.6923076923076,0.4506730377017659,0.40114212458481496,-0.33179884622108274,1314.2857142857142,-1.0,73.89611365857326,0.26258839360383635,
2023-08-12 10:12:35.615000,-8.650602409638555,-0.1566265060240964,-4.662650602409639,-0.06621704475781728,-8.476394849785407,-4.358062538320048,3.0,0.2621822621822622,3814.1405588484336,0.2776062001048888,0.12260357788007775,-0.17656313734630874,1279.8534798534797,-1.0,73.89611365857326,0.2625881927277923,
2023-08-12 10:12:35.622000,-8.650602409638555,-0.1566265060240964,-4.662650602409639,-0.1079092581238504,-8.469037400367872,-4.343347639484978,3.0,0.2626262626262626,3807.6923076923076,0.4599965037002502,0.39857817143523133,0.022376318396363778,1252.014652014652,-1.0,73.89611365857326,0.2625879608705318,
2023-08-12 10:12:35.630000,-8.650602409638555,-0.14457831325301207,-4.662650602409639,-0.08338442673206621,-8.469037400367872,-4.365419987737584,3.0,0.2626262626262626,3807.6923076923076,0.244507895810267,0.12027271138045581,0.02074471184662903,1235.164835164835,-1.0,73.89611365857326,0.26258769996666226,
2023-08-12 10:12:35.638000,-8.650602409638555,-0.14457831325301207,-4.674698795180723,-0.019619865113427344,-8.50091968117719,-4.331085223789086,3.0,0.2626262626262626,3807.6923076923076,0.2464891323349447,-0.09428354990967895,-0.26909853738127165,1228.5714285714284,-1.0,73.89611365857326,0.26258741214163234,
2023-08-12 10:12:35.645000,-8.650602409638555,-0.13253012048192772,-4.686746987951808,0.014714898835070508,-8.540159411404046,-4.343347639484978,3.0,0.2621822621822622,3814.1405588484336,0.4765456558475619,-0.568964512557544,-0.3890216187867841,1230.7692307692307,-1.0,73.89611365857326,0.2625870995657765,
2023-08-12 10:12:35.653000,-8.650602409638555,-0.13253012048192772,-4.662650602409639,-0.0809319435928878,-8.508277130594728,-4.370324954015941,3.0,0.2621822621822622,3814.1405588484336,0.35370899131752254,-0.8110249985432083,-0.17213449099702827,1237.3626373626373,-1.0,73.89611365857326,0.26258676429785904,
2023-08-12 10:12:35.661000,-8.626506024096386,-0.13253012048192772,-4.650602409638554,-0.05150214592274678,-8.518087063151441,-4.35561005518087,3.0,0.2621822621822622,3814.1405588484336,0.0651477186644143,-0.2878620127032232,-0.2344851698618964,1248.3516483516482,-1.0,73.89611365857326,0.262586408394855,
2023-08-12 10:12:35.668000,-8.590361445783133,-0.13253012048192772,-4.662650602409639,-0.07112201103617412,-8.451870018393624,-4.331085223789086,3.0,0.2626262626262626,3807.6923076923076,0.11071615873200813,-0.223180467338734,-0.5078958102674669,1260.8058608058607,-1.0,73.89611365857326,0.2625860340216333,
2023-08-12 10:12:35.676000,-8.602409638554217,-0.1566265060240964,-4.63855421686747,0.03923973022685469,-8.488657265481299,-4.387492335990189,3.0,0.2626262626262626,3807.6923076923076,-0.19497698269331604,-0.511858283316823,-0.4136122603577879,1271.7948717948716,-1.0,73.89611365857326,0.2625856433047507,
2023-08-12 10:12:35.684000,-8.578313253012048,-0.14457831325301207,-4.662650602409639,-0.03678724708767627,-8.473942366646229,-4.333537706928265,3.0,0.2626262626262626,3807.6923076923076,-0.408833984033564,-0.20301847211700938,-0.3963638482605911,1282.7838827838827,-1.0,73.89611365857326,0.2625852383670116,
2023-08-12 10:12:35.691000,-8.626506024096386,-0.1566265060240964,-4.674698795180723,-0.12017167381974249,-8.493562231759656,-4.367872470876763,3.0,0.2626262626262626,3807.6923076923076,-0.040440533768428356,-0.306858574675136,-0.13588951692791829,1290.8424908424909,-1.0,73.89611365857326,0.26258482146924467,
2023-08-12 10:12:35.699000,-8.66265060240964,-0.1927710843373494,-4.674698795180723,-0.11771919068056406,-8.518087063151441,-4.321275291232372,3.0,0.2626262626262626,3807.6923076923076,-0.3326146494959495,-0.4075520074587731,0.33715983917021164,1299.6336996336995,-1.0,73.89611365857326,0.2625843949826127,
2023-08-12 10:12:35.707000,-8.674698795180724,-0.18072289156626506,-4.590361445783133,-0.11771919068056406,-8.579399141630901,-4.264868179031269,3.0,0.2626262626262626,3807.6923076923076,-0.02365829497115493,0.6360934677466343,0.5786376085309712,1304.0293040293038,-1.0,73.89611365857326,0.26258396109479554,
2023-08-12 10:12:35.714000,-8.686746987951807,-0.1566265060240964,-4.590361445783133,-0.02207234825260576,-8.579399141630901,-4.242795830778663,3.0,0.2626262626262626,3807.6923076923076,0.4658236699493042,1.5659926577705265,0.6191946856243808,1309.1575091575091,-1.0,73.89611365857326,0.2625835218246551,
2023-08-12 10:12:35.722000,-8.674698795180724,-0.14457831325301207,-4.63855421686747,-0.029429797670141016,-8.493562231759656,-4.286940527283875,3.0,0.2626262626262626,3807.6923076923076,1.0551832643785328,0.7986714060952154,0.26350445778218046,1314.2857142857142,-1.0,73.89611365857326,0.26258307916460283,
2023-08-12 10:12:35.730000,-8.650602409638555,-0.0963855421686747,-4.662650602409639,0.014714898835070508,-8.45677498467198,-4.328632740649907,3.0,0.2626262626262626,3807.6923076923076,1.2099527999533821,-0.23774838296136636,0.0146844589476136,1317.216117216117,-1.0,73.89611365857326,0.26258263507397744,
2023-08-12 10:12:35.737000,-8.63855421686747,-0.04819277108433735,-4.626506024096386,0.0809319435928878,-8.449417535254444,-4.309012875536481,3.0,0.2626262626262626,3807.6923076923076,1.1968999475555042,0.45533477070100803,-0.016782238797272996,1318.6813186813185,-1.0,73.89611365857326,0.26258219147275746,
2023-08-12 10:12:35.745000,-8.590361445783133,0.0,-4.542168674698796,0.07357449417535254,-8.469037400367872,-4.2109135499693435,3.0,0.2626262626262626,3807.6923076923076,1.5813763766680264,0.9703397237923189,0.1340248237282212,1316.4835164835165,-1.0,73.89611365857326,0.2625817502356232,
2023-08-12 10:12:35.752000,-8.614457831325302,0.0,-4.55421686746988,0.1079092581238504,-8.45677498467198,-4.2624156958920905,3.0,0.2626262626262626,3807.6923076923076,1.5679738942952044,0.9597342812190437,0.13309247712837277,1313.5531135531135,-1.0,73.89611365857326,0.2625813133251437,
2023-08-12 10:12:35.760000,-8.578313253012048,-0.024096385542168676,-4.602409638554217,0.10055180870631514,-8.510729613733906,-4.323727774371551,3.0,0.2626262626262626,3807.6923076923076,1.2066895868539136,1.4057455859215657,-0.0950993531845461,1306.9597069597069,-1.0,73.89611365857326,0.26258088262747237,
2023-08-12 10:12:35.768000,-8.626506024096386,-0.060240963855421686,-4.590361445783133,-0.04414469650521152,-8.537706928264868,-4.301655426118945,3.0,0.2626262626262626,3807.6923076923076,1.1386282850649732,2.120738884680379,0.09148651011013323,1297.4358974358975,-1.0,73.89611365857326,0.26258045981996386,
2023-08-12 10:12:35.775000,-8.626506024096386,-0.0963855421686747,-4.63855421686747,-0.05150214592274678,-8.498467198038012,-4.331085223789086,3.0,0.2626262626262626,3807.6923076923076,0.09474972320960402,2.1445137229765168,0.0926519433599442,1286.4468864468863,-1.0,73.89611365857326,0.2625800466546652,
2023-08-12 10:12:35.783000,-8.63855421686747,-0.14457831325301207,-4.674698795180723,-0.11281422440220723,-8.554874310239116,-4.360515021459228,3.0,0.2626262626262626,3807.6923076923076,0.006876056173883237,0.21956762426431942,-0.07190723151331517,1273.9926739926739,-1.0,73.89611365857326,0.26257964493381036,
2023-08-12 10:12:35.791000,-8.66265060240964,-0.16867469879518074,-4.698795180722891,-0.1765787860208461,-8.508277130594728,-4.343347639484978,3.0,0.2626262626262626,3807.6923076923076,0.25313210185886625,-1.3841850708000694,-0.05186177961657225,1258.6080586080586,-1.0,73.89611365857326,0.26257925621938755,
2023-08-12 10:12:35.798000,-8.66265060240964,-0.18072289156626506,-4.674698795180723,-0.12017167381974249,-8.461679950950337,-4.367872470876763,3.0,0.2626262626262626,3807.6923076923076,1.7831128722102432,-2.5139560631664817,-0.20022143231746412,1242.4908424908424,-1.0,73.89611365857326,0.26257888199012236,
2023-08-12 10:12:35.806000,-8.614457831325302,-0.16867469879518074,-4.63855421686747,-0.0809319435928878,-8.43960760269773,-4.282035561005518,3.0,0.2621822621822622,3814.1405588484336,2.4616281102499853,-2.4898315948954015,0.5982168871277895,1226.3736263736264,-1.0,73.89611365857326,0.26257852376719343,
2023-08-12 10:12:35.814000,-8.566265060240964,-0.18072289156626506,-4.63855421686747,-0.05150214592274678,-8.417535254445125,-4.335990190067443,3.0,0.2621822621822622,3814.1405588484336,3.3309247712837244,-2.0525610395664597,0.4745644193228834,1213.9194139194137,-1.0,73.89611365857326,0.26257818281419815,
2023-08-12 10:12:35.821000,-8.55421686746988,-0.14457831325301207,-4.698795180722891,-0.056407112201103615,-8.39546290619252,-4.505211526670754,3.0,0.2626262626262626,3807.6923076923076,3.228133558650429,-0.5500844939106121,0.24613950236000218,1205.128205128205,-1.0,73.89611365857326,0.26257786011408485,
2023-08-12 10:12:35.829000,-8.530120481927712,-0.13253012048192772,-4.746987951807229,-0.09074187614960147,-8.432250153280195,-4.458614347026364,3.0,0.2626262626262626,3807.6923076923076,2.457316007225687,0.04183905366820187,-0.21071033156575977,1197.8021978021977,-1.0,73.89611365857326,0.2625775566545737,
2023-08-12 10:12:35.837000,-8.55421686746988,-0.13253012048192772,-4.759036144578314,-0.04414469650521152,-8.422440220723482,-4.478234212139792,3.0,0.2621822621822622,3814.1405588484336,1.0046034613367507,1.0664879669016964,-0.5120913699667852,1189.0109890109889,-1.0,73.89611365857326,0.26257727330873415,
2023-08-12 10:12:35.844000,-8.602409638554217,-0.1566265060240964,-4.759036144578314,-0.06376456161863887,-8.464132434089516,-4.461066830165542,3.0,0.2626262626262626,3807.6923076923076,-0.7576481557018828,1.3146087057863765,-0.4303944991550609,1181.6849816849815,-1.0,73.89611365857326,0.2625770105665418,
2023-08-12 10:12:35.852000,-8.63855421686747,-0.22891566265060243,-4.746987951807229,-0.16922133660331085,-8.50091968117719,-4.461066830165542,3.0,0.2626262626262626,3807.6923076923076,-1.6494376784569669,1.7570071674144856,0.03193287104481081,1175.0915750915751,-1.0,73.89611365857326,0.26257676880978825,
2023-08-12 10:12:35.860000,-8.710843373493976,-0.26506024096385544,-4.710843373493976,-0.17412630288166767,-8.525444512568976,-4.416922133660331,3.0,0.2626262626262626,3807.6923076923076,-2.1996387156925583,1.8583998601480094,-0.027620768020511614,1168.4981684981685,-1.0,73.89611365857326,0.26257654860844576,
2023-08-12 10:12:35.867000,-8.759036144578314,-0.27710843373493976,-4.686746987951808,-0.19865113427345185,-8.662783568362967,-4.404659717964439,3.0,0.2626262626262626,3807.6923076923076,-1.906299166715227,2.004894819649204,0.12644950760445187,1160.4395604395604,-1.0,73.89611365857326,0.26257635042176636,
2023-08-12 10:12:35.875000,-8.819277108433736,-0.28915662650602414,-4.674698795180723,-0.2158185162477008,-8.709380748007357,-4.318822808093194,3.0,0.2626262626262626,3807.6923076923076,-1.326029951634519,1.4842957869588023,0.2964862187518212,1153.113553113553,-1.0,73.89611365857326,0.2625761744701372,
2023-08-12 10:12:35.883000,-8.807228915662652,-0.2530120481927711,-4.686746987951808,-0.21336603310852237,-8.64316370324954,-4.375229920294298,3.0,0.2626262626262626,3807.6923076923076,-0.47223355282326235,0.930132276673854,0.1278480275042245,1147.2527472527472,-1.0,73.89611365857326,0.262576021022889,
2023-08-12 10:12:35.890000,-8.783132530120483,-0.24096385542168675,-4.674698795180723,-0.13979153893316984,-8.68976088289393,-4.35561005518087,3.0,0.2626262626262626,3807.6923076923076,-0.1630441116485061,-0.35440825126740927,0.40149175455975744,1142.1245421245421,-1.0,73.89611365857326,0.2625758902394223,
2023-08-12 10:12:35.898000,-8.734939759036145,-0.21686746987951808,-4.710843373493976,-0.1618638871857756,-8.594114040465971,-4.380134886572654,3.0,0.2626262626262626,3807.6923076923076,-0.21362391469028633,-0.8802517335819587,0.68713944408834,1138.4615384615383,-1.0,73.89611365857326,0.26257578204233756,
2023-08-12 10:12:35.906000,-8.686746987951807,-0.18072289156626506,-4.734939759036145,-0.07602697731453095,-8.569589209074188,-4.385039852851011,3.0,0.2626262626262626,3807.6923076923076,-0.8000699259949888,-1.686614999125925,0.6364430977215781,1136.2637362637363,-1.0,73.89611365857326,0.26257569640650313,
2023-08-12 10:12:35.913000,-8.63855421686747,-0.18072289156626506,-4.72289156626506,-0.14224402207234824,-8.515634580012263,-4.397302268546904,3.0,0.2626262626262626,3807.6923076923076,-1.3362857642328536,-1.6416292756832354,0.755433832527242,1135.5311355311355,-1.0,73.89611365857326,0.26257563320142635,
2023-08-12 10:12:35.921000,-8.566265060240964,-0.1927710843373494,-4.698795180722891,-0.15695892090741875,-8.449417535254444,-4.414469650521152,3.0,0.2621822621822622,3814.1405588484336,-1.7929025115086525,-1.3858166773498046,0.6279354349979606,1135.5311355311355,-1.0,73.89611365857326,0.2625755920656006,
