Shimmer_F5D4_Timestamp_FormattedUnix_CAL,Shimmer_F5D4_Accel_LN_X_CAL,Shimmer_F5D4_Accel_LN_Y_CAL,Shimmer_F5D4_Accel_LN_Z_CAL,Shimmer_F5D4_Accel_WR_X_CAL,Shimmer_F5D4_Accel_WR_Y_CAL,Shimmer_F5D4_Accel_WR_Z_CAL,Shimmer_F5D4_GSR_Range_CAL,Shimmer_F5D4_GSR_Skin_Conductance_CAL,Shimmer_F5D4_GSR_Skin_Resistance_CAL,Shimmer_F5D4_Gyro_X_CAL,Shimmer_F5D4_Gyro_Y_CAL,Shimmer_F5D4_Gyro_Z_CAL,Shimmer_F5D4_PPG_A13_CAL,Shimmer_F5D4_PPG_IBI_CAL,Shimmer_F5D4_PPGtoHR_CAL,Shimmer_F5D4_GSR_Skin_Conductance_LPF_CAL,
yyyy/mm/dd hh:mm:ss.000,m/(s^2),m/(s^2),m/(s^2),m/(s^2),m/(s^2),m/(s^2),no_units,uS,kOhms,deg/s,deg/s,deg/s,mV,ms,BPM,uS,
2023-08-16 11:40:38.082000,-6.313253012048193,1.0481927710843375,-7.542168674698796,1.1820968730839976,-6.026364193746168,-7.293684855916615,3.0,0.1756021756021756,5694.690265486726,0.13250976050346794,-0.2312219567624256,0.06806130178893997,1942.124542124542,-1.0,73.2054957739137,0.17562426706086168,
2023-08-16 11:40:38.089000,-6.337349397590362,1.072289156626506,-7.55421686746988,1.1526670754138564,-6.060698957694665,-7.256897608828939,3.0,0.1756021756021756,5694.690265486726,-0.09917836955888276,-0.17026979779733184,0.06724549851407281,1896.7032967032965,-1.0,73.2054957739137,0.1756237607290936,
2023-08-16 11:40:38.097000,-6.337349397590362,1.0481927710843375,-7.566265060240965,1.0987124463519313,-6.048436541998774,-7.269160024524831,3.0,0.1756021756021756,5694.690265486726,0.11421245848144017,-0.5800361284307444,0.08297884738651612,1853.4798534798533,-1.0,73.2054957739137,0.17562325643461965,
2023-08-16 11:40:38.104000,-6.36144578313253,1.0602409638554218,-7.542168674698796,1.1820968730839976,-6.03862660944206,-7.269160024524831,3.0,0.1756021756021756,5694.690265486726,-0.11561097838121367,-0.4977565409941141,-0.07050871161354232,1815.3846153846152,-1.0,73.2054957739137,0.1756227548789802,
2023-08-16 11:40:38.112000,-6.325301204819278,1.0602409638554218,-7.566265060240965,1.120784794604537,-6.1072961373390555,-7.276517473942366,3.0,0.1756021756021756,5694.690265486726,-0.26548569430685925,-0.842375152963114,-0.13379173707825887,1778.021978021978,-1.0,73.2054957739137,0.17562225678517113,
2023-08-16 11:40:38.120000,-6.337349397590362,1.072289156626506,-7.542168674698796,1.150214592274678,-6.065603923973022,-7.249540159411404,3.0,0.17604617604617603,5680.32786885246,0.012353592447992964,-0.5416933745119745,0.10955072548219803,1743.5897435897434,-1.0,73.2054957739137,0.17562176289866696,
2023-08-16 11:40:38.127000,-6.337349397590362,1.0481927710843375,-7.506024096385542,1.0839975475168608,-6.028816676885346,-7.244635193133047,3.0,0.1756021756021756,5694.690265486726,0.14905891265077795,-0.11829147485577812,0.25977507138278655,1712.087912087912,-1.0,73.2054957739137,0.17562127413751946,
2023-08-16 11:40:38.135000,-6.349397590361446,1.0481927710843375,-7.530120481927711,1.150214592274678,-6.072961373390558,-7.2323727774371545,3.0,0.17604617604617603,5680.32786885246,0.15045743255055147,-0.11106578870695237,0.2573276615581842,1684.249084249084,-1.0,73.2054957739137,0.17562079146550574,
2023-08-16 11:40:38.143000,-6.337349397590362,1.072289156626506,-7.542168674698796,1.1354996934396075,-6.048436541998774,-7.225015328019619,3.0,0.1756021756021756,5694.690265486726,-0.10896800885729212,0.13985198997727452,-0.18961598974418759,1660.07326007326,-1.0,73.2054957739137,0.17562031588279559,
2023-08-16 11:40:38.150000,-6.349397590361446,1.0602409638554218,-7.566265060240965,1.2213366033108521,-6.0410790925812385,-7.242182709993869,3.0,0.17604617604617603,5680.32786885246,-0.16677349804789982,0.08158032748674347,-0.15896509527416816,1639.5604395604394,-1.0,73.2054957739137,0.17561984843750839,
2023-08-16 11:40:38.158000,-6.337349397590362,1.0481927710843375,-7.566265060240965,1.1722869405272838,-6.043531575720417,-7.261802575107295,3.0,0.1756021756021756,5694.690265486726,0.07843365771225394,0.02191014509643891,-0.12679913757939523,1620.5128205128203,-1.0,73.2054957739137,0.17561939021600317,
2023-08-16 11:40:38.166000,-6.337349397590362,1.0481927710843375,-7.578313253012048,1.1183323114653587,-6.033721643163703,-7.259350091968117,3.0,0.1756021756021756,5694.690265486726,0.12446827107977461,0.2939222656022371,0.0543091894411748,1603.6630036630036,-1.0,73.2054957739137,0.17561894221527138,
2023-08-16 11:40:38.173000,-6.349397590361446,1.036144578313253,-7.55421686746988,1.1404046597179645,-6.019006744328633,-7.261802575107295,3.0,0.1756021756021756,5694.690265486726,0.08053143756191421,-0.016316065497348348,-0.25091777868422604,1587.5457875457873,-1.0,73.2054957739137,0.17561850534261453,
2023-08-16 11:40:38.181000,-6.349397590361446,1.0481927710843375,-7.590361445783133,1.1305947271612506,-6.019006744328633,-7.220110361741263,3.0,0.17604617604617603,5680.32786885246,-0.25534642503350563,-0.09405046325971728,0.20768020511625196,1576.5567765567764,-1.0,73.2054957739137,0.17561808068133872,
2023-08-16 11:40:38.189000,-6.337349397590362,1.0602409638554218,-7.55421686746988,1.120784794604537,-6.058246474555487,-7.293684855916615,3.0,0.1756021756021756,5694.690265486726,0.08391119398636367,0.14626187285123268,-0.17563079074645987,1569.9633699633698,-1.0,73.2054957739137,0.17561766948992924,
2023-08-16 11:40:38.196000,-6.325301204819278,1.036144578313253,-7.542168674698796,1.125689760882894,-6.0410790925812385,-7.249540159411404,3.0,0.1756021756021756,5694.690265486726,0.10011071615873118,0.09894528290892109,-0.12901346075403547,1569.230769230769,-1.0,73.2054957739137,0.17561727307344197,
2023-08-16 11:40:38.204000,-6.313253012048193,1.0602409638554218,-7.55421686746988,1.137952176578786,-6.036174126302881,-7.266707541385653,3.0,0.1756021756021756,5694.690265486726,-0.20499970864168707,0.14323174640172398,0.009440009323465979,1572.161172161172,-1.0,73.2054957739137,0.17561689262300295,
2023-08-16 11:40:38.212000,-6.337349397590362,1.036144578313253,-7.518072289156627,1.1477621091354997,-6.043531575720417,-7.276517473942366,3.0,0.1756021756021756,5694.690265486726,-0.0045451896742613,0.15733348872443298,-0.29671930540178326,1577.2893772893772,-1.0,73.2054957739137,0.17561652935280025,
2023-08-16 11:40:38.219000,-6.337349397590362,1.0481927710843375,-7.542168674698796,1.1870018393623543,-6.009196811771918,-7.247087676272225,3.0,0.1756021756021756,5694.690265486726,-0.21828564768952846,0.3095390711497005,-0.03566225744420495,1585.3479853479853,-1.0,73.2054957739137,0.1756161844979381,
2023-08-16 11:40:38.227000,-6.313253012048193,1.0481927710843375,-7.566265060240965,1.213979153893317,-6.050889025137952,-7.269160024524831,3.0,0.1756021756021756,5694.690265486726,0.05803857584056938,0.3675776469902681,-0.2793543499796048,1595.6043956043954,-1.0,73.2054957739137,0.17561585931189827,
2023-08-16 11:40:38.235000,-6.337349397590362,1.072289156626506,-7.55421686746988,1.1600245248313916,-6.001839362354383,-7.229920294297976,3.0,0.17515817515817514,5709.125475285172,0.17877746052094853,-0.24613950236000218,-0.12481790105471711,1603.6630036630036,-1.0,73.2054957739137,0.17561555506361196,
2023-08-16 11:40:38.242000,-6.325301204819278,1.0602409638554218,-7.566265060240965,1.2286940527283874,-6.0778663396689145,-7.269160024524831,3.0,0.1756021756021756,5694.690265486726,0.2552298817085248,0.03158324106986743,-0.15430336227492558,1612.4542124542124,-1.0,73.2054957739137,0.17561527288485015,
2023-08-16 11:40:38.250000,-6.337349397590362,1.072289156626506,-7.542168674698796,1.2066217044757817,-6.104843654199877,-7.251992642550582,3.0,0.1756021756021756,5694.690265486726,-0.005244449624148055,0.1988229124176906,-2.3308664996210684E-4,1618.3150183150183,-1.0,73.2054957739137,0.1756150138939481,
2023-08-16 11:40:38.258000,-6.337349397590362,1.0481927710843375,-7.542168674698796,1.1870018393623543,-6.0410790925812385,-7.198038013488657,3.0,0.1756021756021756,5694.690265486726,-0.06631315191422439,0.10453936250801164,-0.05978672571528453,1619.7802197802196,-1.0,73.2054957739137,0.17561477935068007,
2023-08-16 11:40:38.265000,-6.325301204819278,1.072289156626506,-7.566265060240965,1.1453096259963211,-6.019006744328633,-7.23973022685469,3.0,0.1756021756021756,5694.690265486726,0.04288794359303113,0.15407027562496434,0.1554687955247361,1620.5128205128203,-1.0,73.2054957739137,0.1756145705129076,
2023-08-16 11:40:38.273000,-6.325301204819278,1.0602409638554218,-7.542168674698796,1.1354996934396075,-6.0410790925812385,-7.283874923359901,3.0,0.1756021756021756,5694.690265486726,-0.0654973486393568,0.16805547462269074,-0.041839053668201,1617.5824175824175,-1.0,73.2054957739137,0.17561438863164702,
2023-08-16 11:40:38.281000,-6.36144578313253,1.0602409638554218,-7.530120481927711,1.1404046597179645,-6.058246474555487,-7.283874923359901,3.0,0.1756021756021756,5694.690265486726,-0.11013344210710395,0.18297302022026732,0.0654973486393568,1613.186813186813,-1.0,73.2054957739137,0.17561423494582817,
2023-08-16 11:40:38.288000,-6.349397590361446,1.072289156626506,-7.542168674698796,1.1747394236664623,-6.045984058859595,-7.229920294297976,3.0,0.1756021756021756,5694.690265486726,0.37876580618845096,0.09078725016024691,0.11048307208204645,1606.5934065934066,-1.0,73.2054957739137,0.1756141105380207,
2023-08-16 11:40:38.296000,-6.325301204819278,1.0602409638554218,-7.530120481927711,1.1992642550582464,-6.05334150827713,-7.220110361741263,3.0,0.1756021756021756,5694.690265486726,0.17609696404638409,0.2900763358778626,-0.013402482372822228,1595.6043956043954,-1.0,73.2054957739137,0.17561401648778122,
2023-08-16 11:40:38.304000,-6.337349397590362,1.072289156626506,-7.542168674698796,1.1281422440220723,-6.102391171060699,-7.220110361741263,3.0,0.1756021756021756,5694.690265486726,-0.05430918944117393,0.1630441116485061,-0.33168230289610146,1584.6153846153845,-1.0,73.2054957739137,0.1756139539932577,
2023-08-16 11:40:38.311000,-6.337349397590362,1.0602409638554218,-7.542168674698796,1.155119558553035,-5.987124463519313,-7.281422440220723,3.0,0.1756021756021756,5694.690265486726,-0.008158032748674174,-0.16152904842375176,-0.09789639298409182,1573.6263736263736,-1.0,73.2054957739137,0.17561392421588903,
2023-08-16 11:40:38.319000,-6.313253012048193,1.0481927710843375,-7.55421686746988,1.1698344573881054,-6.00674432863274,-7.293684855916615,3.0,0.1756021756021756,5694.690265486726,0.3284190897966324,0.1252840743546422,-0.18868364314433872,1561.1721611721612,-1.0,73.2054957739137,0.17561392827423633,
2023-08-16 11:40:38.327000,-6.313253012048193,1.0602409638554218,-7.542168674698796,1.1992642550582464,-6.014101778050276,-7.281422440220723,3.0,0.1756021756021756,5694.690265486726,0.18751820989452864,0.09206922673503957,-0.21758638773964215,1545.7875457875457,-1.0,73.2054957739137,0.17561396723768677,
2023-08-16 11:40:38.334000,-6.325301204819278,1.0481927710843375,-7.566265060240965,1.1330472103004292,-6.036174126302881,-7.2323727774371545,3.0,0.1756021756021756,5694.690265486726,-0.07423809801293689,0.1333255637783338,-0.21478934794009685,1529.6703296703295,-1.0,73.2054957739137,0.17561404212006534,
2023-08-16 11:40:38.342000,-6.313253012048193,1.0481927710843375,-7.542168674698796,1.1747394236664623,-6.05334150827713,-7.237277743715511,3.0,0.1756021756021756,5694.690265486726,0.10978381213215971,-0.24951925878445338,-0.36466406386574196,1511.3553113553112,-1.0,73.2054957739137,0.1756141538731913,
2023-08-16 11:40:38.350000,-6.337349397590362,1.036144578313253,-7.55421686746988,1.1060698957694666,-5.989576946658492,-7.220110361741263,3.0,0.1756021756021756,5694.690265486726,0.1699201678223876,-0.1281976574791683,-0.16199522172367598,1492.3076923076922,-1.0,73.2054957739137,0.17561430338041872,
2023-08-16 11:40:38.357000,-6.337349397590362,1.0481927710843375,-7.518072289156627,1.0938074800735744,-6.011649294911098,-7.308399754751686,3.0,0.1756021756021756,5694.690265486726,-0.08950527358545597,0.12913000407901673,-0.19183031291882738,1476.923076923077,-1.0,73.2054957739137,0.17561449145020003,
2023-08-16 11:40:38.365000,-6.337349397590362,1.0481927710843375,-7.542168674698796,1.1477621091354997,-5.999386879215205,-7.244635193133047,3.0,0.1756021756021756,5694.690265486726,0.03251558766971586,-0.00967309597342852,-0.08262921741157274,1464.4688644688645,-1.0,73.2054957739137,0.17561471880971405,
2023-08-16 11:40:38.373000,-6.301204819277109,1.0240963855421688,-7.566265060240965,1.137952176578786,-6.058246474555487,-7.269160024524831,3.0,0.1756021756021756,5694.690265486726,0.15430336227492603,-0.19521006934327773,-0.09579861313443286,1456.4102564102564,-1.0,73.2054957739137,0.17561498609859866,
2023-08-16 11:40:38.380000,-6.325301204819278,1.0481927710843375,-7.566265060240965,1.1992642550582464,-5.994481912936848,-7.274064990803188,3.0,0.1756021756021756,5694.690265486726,0.13682186352776582,0.17236757764699037,-0.1707359710972552,1449.8168498168498,-1.0,73.2054957739137,0.17561529386283117,
2023-08-16 11:40:38.388000,-6.337349397590362,1.0120481927710845,-7.542168674698796,1.1600245248313916,-5.969957081545064,-7.1735131820968725,3.0,0.17515817515817514,5709.125475285172,-0.10756948895752033,0.2180525610395668,0.12015616805547454,1443.2234432234432,-1.0,73.2054957739137,0.1756156425487962,
2023-08-16 11:40:38.396000,-6.325301204819278,1.036144578313253,-7.542168674698796,1.1354996934396075,-6.036174126302881,-7.293684855916615,3.0,0.1756021756021756,5694.690265486726,-0.2283083736378995,0.24509061243517294,-0.2920575724025407,1438.095238095238,-1.0,73.2054957739137,0.17561603234829185,
2023-08-16 11:40:38.403000,-6.325301204819278,1.036144578313253,-7.566265060240965,1.1820968730839976,-6.043531575720417,-7.27161250766401,3.0,0.1756021756021756,5694.690265486726,0.06339956878969827,-0.1689878212225392,0.031117067769943652,1432.9670329670328,-1.0,73.2054957739137,0.1756164633205175,
2023-08-16 11:40:38.411000,-6.325301204819278,1.0481927710843375,-7.578313253012048,1.1134273451870018,-6.065603923973022,-7.296137339055794,3.0,0.1756021756021756,5694.690265486726,0.06235067886486727,-0.16642386807295556,0.02925237457024636,1427.8388278388277,-1.0,73.2054957739137,0.17561693554589436,
2023-08-16 11:40:38.419000,-6.325301204819278,1.0481927710843375,-7.566265060240965,1.1600245248313916,-6.082771305947271,-7.264255058246474,3.0,0.1756021756021756,5694.690265486726,-0.04673387331740568,0.24695530563486978,0.07493735796282278,1419.7802197802198,-1.0,73.2054957739137,0.17561744898236598,
2023-08-16 11:40:38.426000,-6.36144578313253,1.0602409638554218,-7.530120481927711,1.1404046597179645,-6.0410790925812385,-7.264255058246474,3.0,0.1756021756021756,5694.690265486726,-0.13717149350271007,-0.09055416351028524,0.1959093292931649,1409.5238095238094,-1.0,73.2054957739137,0.17561800346084608,
2023-08-16 11:40:38.434000,-6.325301204819278,1.0602409638554218,-7.518072289156627,1.125689760882894,-6.033721643163703,-7.269160024524831,3.0,0.1756021756021756,5694.690265486726,0.1554687955247361,0.0768020511625205,0.0870578637608532,1400.0,-1.0,73.2054957739137,0.1756185985423556,
2023-08-16 11:40:38.442000,-6.337349397590362,1.036144578313253,-7.566265060240965,1.0987124463519313,-6.001839362354383,-7.276517473942366,3.0,0.1756021756021756,5694.690265486726,0.0170153254472351,0.15045743255055147,0.13239321717848623,1391.9413919413919,-1.0,73.2054957739137,0.17561923367351293,
2023-08-16 11:40:38.449000,-6.325301204819278,1.0481927710843375,-7.566265060240965,1.1477621091354997,-6.03862660944206,-7.244635193133047,3.0,0.1756021756021756,5694.690265486726,0.12132160130528508,0.055824252665928276,-0.01969582192179955,1385.3479853479853,-1.0,73.2054957739137,0.17561990831101784,
2023-08-16 11:40:38.457000,-6.313253012048193,1.036144578313253,-7.566265060240965,1.1060698957694666,-6.014101778050276,-7.237277743715511,3.0,0.1756021756021756,5694.690265486726,-0.26210593788240805,-0.1298292640289035,0.2700308839811201,1381.6849816849815,-1.0,73.2054957739137,0.17562062176997026,
2023-08-16 11:40:38.465000,-6.301204819277109,1.0481927710843375,-7.55421686746988,1.1158798283261802,-6.090128755364806,-7.28632740649908,3.0,0.1756021756021756,5694.690265486726,-0.22947380688771132,-0.08309539071149782,-0.17539770409649777,1381.6849816849815,-1.0,73.2054957739137,0.1756213730833043,
2023-08-16 11:40:38.472000,-6.337349397590362,1.0240963855421688,-7.530120481927711,1.120784794604537,-6.05334150827713,-7.225015328019619,3.0,0.1756021756021756,5694.690265486726,-0.19835673911776724,-0.313385000874075,0.13216013052852413,1385.3479853479853,-1.0,73.2054957739137,0.1756221611597006,
2023-08-16 11:40:38.480000,-6.325301204819278,1.036144578313253,-7.55421686746988,1.1575720416922133,-6.016554261189454,-7.301042305334151,3.0,0.1756021756021756,5694.690265486726,0.09323465998484969,-0.29567041547695316,-0.15908163859914942,1386.080586080586,-1.0,73.2054957739137,0.17562298491060113,
2023-08-16 11:40:38.487000,-6.337349397590362,1.0481927710843375,-7.566265060240965,1.137952176578786,-5.99202942979767,-7.308399754751686,3.0,0.1756021756021756,5694.690265486726,0.0012819765747909368,-0.1865858632946802,0.102208496008391,1386.080586080586,-1.0,73.2054957739137,0.17562384310115509,
2023-08-16 11:40:38.495000,-6.313253012048193,1.0240963855421688,-7.566265060240965,1.1870018393623543,-6.014101778050276,-7.23973022685469,3.0,0.1756021756021756,5694.690265486726,-0.04428646349280291,0.05967018239030283,0.40685274750888634,1383.8827838827838,-1.0,73.2054957739137,0.1756247342123636,
2023-08-16 11:40:38.503000,-6.337349397590362,1.0602409638554218,-7.542168674698796,1.1870018393623543,-6.004291845493562,-7.27161250766401,3.0,0.1756021756021756,5694.690265486726,-0.22842491696288034,-0.16945399452246426,-0.007458772798787853,1381.6849816849815,-1.0,73.2054957739137,0.17562565660176632,
2023-08-16 11:40:38.510000,-6.325301204819278,1.0481927710843375,-7.55421686746988,1.1649294911097485,-6.001839362354383,-7.220110361741263,3.0,0.1756021756021756,5694.690265486726,-0.012586679097954637,0.016432608822329185,-0.03764349396888308,1378.021978021978,-1.0,73.2054957739137,0.17562660863328505,
2023-08-16 11:40:38.518000,-6.337349397590362,1.0481927710843375,-7.542168674698796,1.1870018393623543,-6.080318822808093,-7.2323727774371545,3.0,0.1756021756021756,5694.690265486726,-0.04113979371831512,-0.04148942369325762,0.038575840568731506,1372.8937728937728,-1.0,73.2054957739137,0.17562758853103125,
2023-08-16 11:40:38.526000,-6.325301204819278,1.0481927710843375,-7.542168674698796,1.1477621091354997,-5.996934396076027,-7.247087676272225,3.0,0.1756021756021756,5694.690265486726,0.06689586853912857,-0.09941145620884616,0.0375269506439018,1367.7655677655678,-1.0,73.2054957739137,0.17562859438307987,
2023-08-16 11:40:38.533000,-6.337349397590362,1.0481927710843375,-7.566265060240965,1.179644389944819,-6.060698957694665,-7.28632740649908,3.0,0.1756021756021756,5694.690265486726,-0.038808927218693175,-0.2178194743896051,0.1281976574791679,1362.6373626373625,-1.0,73.2054957739137,0.17562962414590993,
2023-08-16 11:40:38.541000,-6.337349397590362,1.0240963855421688,-7.55421686746988,1.1600245248313916,-6.102391171060699,-7.266707541385653,3.0,0.17515817515817514,5709.125475285172,-0.18938290309422548,0.26047433133267284,0.21630441116485033,1357.5091575091574,-1.0,73.2054957739137,0.17563067564950088,
2023-08-16 11:40:38.549000,-6.349397590361446,1.036144578313253,-7.530120481927711,1.1820968730839976,-6.043531575720417,-7.291232372777436,3.0,0.1756021756021756,5694.690265486726,-0.0051279062991672186,0.10850183555736877,0.27364372705553297,1357.5091575091574,-1.0,73.2054957739137,0.17563174645377702,
2023-08-16 11:40:38.556000,-6.289156626506024,1.036144578313253,-7.55421686746988,1.1109748620478233,-5.974862047823421,-7.281422440220723,3.0,0.1756021756021756,5694.690265486726,-0.23285356331216078,0.12411864110483035,0.591457374278888,1361.1721611721612,-1.0,73.2054957739137,0.17563283398238722,
2023-08-16 11:40:38.564000,-6.349397590361446,1.0481927710843375,-7.530120481927711,1.1992642550582464,-6.019006744328633,-7.251992642550582,3.0,0.1756021756021756,5694.690265486726,-0.04813239321717919,-0.10325738593322072,-0.02389138162111747,1365.5677655677655,-1.0,73.2054957739137,0.17563393568860808,
2023-08-16 11:40:38.572000,-6.301204819277109,1.0481927710843375,-7.566265060240965,1.1453096259963211,-6.023911710606989,-7.229920294297976,3.0,0.1756021756021756,5694.690265486726,0.07575316123768949,-0.07027562496357977,-0.13192704387856202,1368.4981684981683,-1.0,73.2054957739137,0.17563504878520414,
2023-08-16 11:40:38.579000,-6.325301204819278,1.0481927710843375,-7.55421686746988,1.1060698957694666,-6.045984058859595,-7.264255058246474,3.0,0.1756021756021756,5694.690265486726,-0.2160713245148891,0.021443971796515564,0.15884855194918732,1370.6959706959706,-1.0,73.2054957739137,0.1756361704114742,
2023-08-16 11:40:38.587000,-6.313253012048193,1.0481927710843375,-7.55421686746988,1.1771919068056407,-6.060698957694665,-7.242182709993869,3.0,0.1756021756021756,5694.690265486726,-0.24613950236000218,-0.04020744711846669,0.32527242002214335,1373.6263736263736,-1.0,73.2054957739137,0.17563729763056407,
2023-08-16 11:40:38.595000,-6.337349397590362,1.036144578313253,-7.542168674698796,1.150214592274678,-6.0705088902513795,-7.274064990803188,3.0,0.1756021756021756,5694.690265486726,-0.3343627993706655,-0.26968125400617626,-0.3970631082104774,1375.8241758241757,-1.0,73.2054957739137,0.1756384274484459,
2023-08-16 11:40:38.602000,-6.337349397590362,1.0481927710843375,-7.55421686746988,1.1771919068056407,-5.994481912936848,-7.251992642550582,3.0,0.1756021756021756,5694.690265486726,-0.17761202727113842,-0.31105413437445306,-0.059320552415360314,1374.3589743589744,-1.0,73.2054957739137,0.1756395569511382,
2023-08-16 11:40:38.610000,-6.325301204819278,1.0481927710843375,-7.55421686746988,1.2017167381974247,-6.0999386879215205,-7.2323727774371545,3.0,0.1756021756021756,5694.690265486726,-0.20453353534176372,-0.04941436979197012,-0.05978672571528453,1370.6959706959706,-1.0,73.2054957739137,0.1756406831656391,
2023-08-16 11:40:38.618000,-6.337349397590362,1.0481927710843375,-7.542168674698796,1.1820968730839976,-6.028816676885346,-7.242182709993869,3.0,0.1756021756021756,5694.690265486726,-0.15721694539945213,-0.04603461336751892,0.24637258900996428,1363.3699633699632,-1.0,73.2054957739137,0.17564180307053345,
2023-08-16 11:40:38.625000,-6.337349397590362,1.0481927710843375,-7.55421686746988,1.1698344573881054,-6.092581238503985,-7.244635193133047,3.0,0.1756021756021756,5694.690265486726,-0.29333954897733294,0.03216595769477335,0.10465590583299335,1353.8461538461538,-1.0,73.2054957739137,0.17564291360693177,
2023-08-16 11:40:38.633000,-6.337349397590362,1.0602409638554218,-7.542168674698796,1.1820968730839976,-5.996934396076027,-7.217657878602084,3.0,0.1756021756021756,5694.690265486726,0.02925237457024723,-0.07132451488840903,0.21129304819066483,1342.8571428571427,-1.0,73.2054957739137,0.17564401168969238,
2023-08-16 11:40:38.641000,-6.325301204819278,1.036144578313253,-7.55421686746988,1.1305947271612506,-6.036174126302881,-7.274064990803188,3.0,0.1756021756021756,5694.690265486726,0.2130411980653804,-0.054192646116193094,0.054891906066079854,1332.6007326007325,-1.0,73.2054957739137,0.17564509421887514,
2023-08-16 11:40:38.648000,-6.325301204819278,1.0481927710843375,-7.55421686746988,1.103617412630288,-6.058246474555487,-7.247087676272225,3.0,0.1756021756021756,5694.690265486726,0.12027271138045581,-0.24881999883456662,0.02494027154594717,1323.076923076923,-1.0,73.2054957739137,0.17564615809137318,
2023-08-16 11:40:38.656000,-6.349397590361446,1.0481927710843375,-7.530120481927711,1.1624770079705702,-6.019006744328633,-7.234825260576333,3.0,0.1756021756021756,5694.690265486726,0.3326146494959495,-0.029019287920283823,-0.12901346075403547,1314.2857142857142,-1.0,73.2054957739137,0.17564720021267055,
2023-08-16 11:40:38.664000,-6.349397590361446,1.036144578313253,-7.55421686746988,1.1722869405272838,-6.0410790925812385,-7.222562844880441,3.0,0.1756021756021756,5694.690265486726,-0.036244974069109565,0.10931763883223636,0.11619369500611873,1308.4249084249084,-1.0,73.2054957739137,0.17564821750866813,
2023-08-16 11:40:38.671000,-6.337349397590362,1.072289156626506,-7.542168674698796,1.1820968730839976,-6.05334150827713,-7.296137339055794,3.0,0.1756021756021756,5694.690265486726,0.4368043820290186,-0.11945690810558822,0.3739875298642271,1304.7619047619046,-1.0,73.2054957739137,0.17564920693752398,
2023-08-16 11:40:38.679000,-6.349397590361446,1.0602409638554218,-7.530120481927711,1.1919068056407112,-6.03862660944206,-7.266707541385653,3.0,0.1756021756021756,5694.690265486726,-0.05547462269098577,0.09463317988462146,0.14171668317697095,1303.2967032967033,-1.0,73.2054957739137,0.17565016550145152,
2023-08-16 11:40:38.687000,-6.337349397590362,1.0481927710843375,-7.578313253012048,1.1992642550582464,-6.026364193746168,-7.25444512568976,3.0,0.1756021756021756,5694.690265486726,-0.05465881941611818,0.09673095973428172,0.13915273002738776,1304.0293040293038,-1.0,73.2054957739137,0.1756510902584188,
2023-08-16 11:40:38.694000,-6.325301204819278,1.0481927710843375,-7.542168674698796,1.1575720416922133,-5.987124463519313,-7.274064990803188,3.0,0.17515817515817514,5709.125475285172,-0.1309946972787136,0.2010372355923317,-0.0758697045626712,1304.0293040293038,-1.0,73.2054957739137,0.1756519783336939,
2023-08-16 11:40:38.702000,-6.301204819277109,1.0481927710843375,-7.518072289156627,1.1894543225015328,-6.05334150827713,-7.301042305334151,3.0,0.1756021756021756,5694.690265486726,-0.20430044869180033,-0.16630732474797474,-0.12318629450498236,1306.227106227106,-1.0,73.2054957739137,0.17565282678188648,
2023-08-16 11:40:38.710000,-6.313253012048193,1.0602409638554218,-7.530120481927711,1.125689760882894,-6.068056407112201,-7.247087676272225,3.0,0.1756021756021756,5694.690265486726,-0.03449682419439355,-0.4687372530738303,-0.15162286580036113,1307.6923076923076,-1.0,73.2054957739137,0.17565363272543807,
2023-08-16 11:40:38.717000,-6.36144578313253,1.072289156626506,-7.542168674698796,1.179644389944819,-5.984671980380135,-7.278969957081545,3.0,0.1756021756021756,5694.690265486726,-0.21746984441466088,0.02540644484587095,0.2631548278072373,1306.9597069597069,-1.0,73.2054957739137,0.17565439352431372,
2023-08-16 11:40:38.725000,-6.325301204819278,1.0602409638554218,-7.55421686746988,1.1354996934396075,-6.004291845493562,-7.247087676272225,3.0,0.1756021756021756,5694.690265486726,1.1654332498083647E-4,0.16665695472291897,-2.3308664996210684E-4,1306.227106227106,-1.0,73.2054957739137,0.17565510664745349,
2023-08-16 11:40:38.733000,-6.325301204819278,1.0481927710843375,-7.530120481927711,1.184549356223176,-6.036174126302881,-7.23973022685469,3.0,0.1756021756021756,5694.690265486726,-0.013285939047841392,0.36536332381562875,-0.0327486743196784,1303.2967032967033,-1.0,73.2054957739137,0.1756557696825633,
2023-08-16 11:40:38.740000,-6.313253012048193,1.0481927710843375,-7.566265060240965,1.150214592274678,-6.031269160024524,-7.225015328019619,3.0,0.1756021756021756,5694.690265486726,-0.056756599265776704,-0.2785385467047372,0.2577938348581084,1302.5641025641025,-1.0,73.2054957739137,0.17565638034544936,
2023-08-16 11:40:38.748000,-6.325301204819278,1.072289156626506,-7.55421686746988,1.1232372777437154,-6.0778663396689145,-7.251992642550582,3.0,0.1756021756021756,5694.690265486726,-0.0692267350387505,0.13565643027795574,0.04207214031816311,1299.6336996336995,-1.0,73.2054957739137,0.17565693648885292,
2023-08-16 11:40:38.756000,-6.36144578313253,1.0481927710843375,-7.542168674698796,1.1575720416922133,-6.080318822808093,-7.249540159411404,3.0,0.1756021756021756,5694.690265486726,0.26746693083153694,0.05687314259075754,-0.21712021443971793,1294.5054945054944,-1.0,73.2054957739137,0.1756574361107448,
2023-08-16 11:40:38.763000,-6.313253012048193,1.036144578313253,-7.518072289156627,1.1404046597179645,-6.065603923973022,-7.305947271612507,3.0,0.1756021756021756,5694.690265486726,-0.026688421420663622,-0.23157158673736986,-0.16992016782238803,1288.6446886446886,-1.0,73.2054957739137,0.1756578773620405,
2023-08-16 11:40:38.771000,-6.325301204819278,1.036144578313253,-7.530120481927711,1.1600245248313916,-6.0705088902513795,-7.217657878602084,3.0,0.1756021756021756,5694.690265486726,0.06444845871452753,0.04789930656721578,-0.15337101567507716,1286.4468864468863,-1.0,73.2054957739137,0.17565825855370018,
2023-08-16 11:40:38.779000,-6.301204819277109,1.0481927710843375,-7.530120481927711,1.155119558553035,-5.987124463519313,-7.249540159411404,3.0,0.1756021756021756,5694.690265486726,0.10978381213215971,0.27947089330458563,-0.09125342346017112,1287.9120879120878,-1.0,73.2054957739137,0.1756585781631823,
2023-08-16 11:40:38.786000,-6.325301204819278,1.0481927710843375,-7.506024096385542,1.179644389944819,-6.0410790925812385,-7.274064990803188,3.0,0.1756021756021756,5694.690265486726,-0.07540353126274699,0.0033797564244512,0.15243866907522874,1290.10989010989,-1.0,73.2054957739137,0.17565883484022016,
2023-08-16 11:40:38.794000,-6.325301204819278,1.0602409638554218,-7.55421686746988,1.150214592274678,-6.05334150827713,-7.244635193133047,3.0,0.1756021756021756,5694.690265486726,-0.1358895169279174,0.5208321193403649,0.07738476778742512,1296.7032967032967,873.22998046875,68.71042147200671,0.1756590274118959,
2023-08-16 11:40:38.802000,-6.337349397590362,1.072289156626506,-7.566265060240965,1.1011649294911097,-6.080318822808093,-7.296137339055794,3.0,0.1756021756021756,5694.690265486726,-0.14882582600081629,0.2843657129537912,-0.02797039799545499,1301.8315018315018,-1.0,68.71042147200671,0.17565915488699124,
2023-08-16 11:40:38.809000,-6.349397590361446,1.0602409638554218,-7.578313253012048,1.1281422440220723,-6.058246474555487,-7.318209687308399,3.0,0.1756021756021756,5694.690265486726,-0.2700308839811205,0.18588660334479346,0.17271720762193332,1304.0293040293038,-1.0,68.71042147200671,0.17565921645959376,
2023-08-16 11:40:38.817000,-6.337349397590362,1.0481927710843375,-7.542168674698796,1.1354996934396075,-6.031269160024524,-7.313304721030042,3.0,0.1756021756021756,5694.690265486726,-0.1305285239787885,-0.2160713245148891,0.10955072548219803,1304.0293040293038,-1.0,68.71042147200671,0.17565921151194608,
2023-08-16 11:40:38.825000,-6.313253012048193,1.0602409638554218,-7.55421686746988,1.2066217044757817,-6.011649294911098,-7.227467811158798,3.0,0.1756021756021756,5694.690265486726,-0.09684750305926255,-0.5362158382378648,0.2146728046151156,1302.5641025641025,-1.0,68.71042147200671,0.17565913961652593,
2023-08-16 11:40:38.832000,-6.289156626506024,1.0843373493975905,-7.578313253012048,1.2066217044757817,-6.026364193746168,-7.222562844880441,3.0,0.1756021756021756,5694.690265486726,0.3019637550259305,-0.48854961832061067,0.260357788007692,1301.8315018315018,-1.0,68.71042147200671,0.17565900053734962,
2023-08-16 11:40:38.840000,-6.301204819277109,1.072289156626506,-7.542168674698796,1.1943592887798895,-5.982219497240957,-7.293684855916615,3.0,0.1756021756021756,5694.690265486726,0.3636151739409127,-0.56197191305868,0.19451080939339183,1298.9010989010987,-1.0,68.71042147200671,0.17565879423049646,
2023-08-16 11:40:38.847000,-6.325301204819278,1.072289156626506,-7.542168674698796,1.2237890864500305,-6.019006744328633,-7.222562844880441,3.0,0.1756021756021756,5694.690265486726,0.025989161470776866,-0.08565934386107969,0.1778451139211001,1293.7728937728937,-1.0,68.71042147200671,0.1756585208438548,
2023-08-16 11:40:38.855000,-6.313253012048193,1.072289156626506,-7.55421686746988,1.1649294911097485,-6.023911710606989,-7.222562844880441,3.0,0.1756021756021756,5694.690265486726,0.36175048074121585,0.08158032748674347,-0.14614532952625142,1287.9120879120878,-1.0,68.71042147200671,0.1756581807160925,
2023-08-16 11:40:38.863000,-6.337349397590362,1.0602409638554218,-7.530120481927711,1.1992642550582464,-6.036174126302881,-7.274064990803188,3.0,0.1756021756021756,5694.690265486726,0.282734106404056,0.11013344210710395,-0.13181050055358076,1280.5860805860805,-1.0,68.71042147200671,0.17565777437486313,
2023-08-16 11:40:38.870000,-6.36144578313253,1.036144578313253,-7.55421686746988,1.1575720416922133,-6.072961373390558,-7.264255058246474,3.0,0.1756021756021756,5694.690265486726,0.20371773206689614,0.15069051920051313,-0.06957636501369388,1276.1904761904761,-1.0,68.71042147200671,0.1756573025342571,
2023-08-16 11:40:38.878000,-6.373493975903615,1.0240963855421688,-7.542168674698796,1.213979153893317,-6.004291845493562,-7.256897608828939,3.0,0.1756021756021756,5694.690265486726,0.2178194743896051,-0.40312336110949265,-0.3293514363964804,1272.5274725274724,-1.0,68.71042147200671,0.17565676609151532,
2023-08-16 11:40:38.886000,-6.409638554216868,1.0602409638554218,-7.542168674698796,1.1134273451870018,-6.050889025137952,-7.244635193133047,3.0,0.1756021756021756,5694.690265486726,-0.028553114620360476,-0.38785618553697354,-0.08192995746168641,1273.9926739926739,-1.0,68.71042147200671,0.17565616612302473,
2023-08-16 11:40:38.893000,-6.36144578313253,1.0481927710843375,-7.55421686746988,1.20907418761496,-6.109748620478234,-7.210300429184549,3.0,0.1756021756021756,5694.690265486726,-0.02925237457024723,-0.40603694423401876,-0.06782821513897787,1282.051282051282,-1.0,68.71042147200671,0.17565550387961734,
2023-08-16 11:40:38.901000,-6.349397590361446,1.0602409638554218,-7.566265060240965,1.1698344573881054,-6.019006744328633,-7.229920294297976,3.0,0.1756021756021756,5694.690265486726,0.07808402773731143,-0.6218751820989444,-0.23506788648680146,1297.4358974358975,-1.0,68.71042147200671,0.17565478064245157,
2023-08-16 11:40:38.909000,-6.349397590361446,1.0602409638554218,-7.530120481927711,1.2041692213366033,-6.092581238503985,-7.217657878602084,3.0,0.1756021756021756,5694.690265486726,-0.32177612027271085,-0.5444904143115198,-0.03286521764465924,1322.3443223443223,-1.0,68.71042147200671,0.17565399773738316,
2023-08-16 11:40:38.916000,-6.337349397590362,1.0481927710843375,-7.542168674698796,1.1183323114653587,-6.043531575720417,-7.225015328019619,3.0,0.1756021756021756,5694.690265486726,0.09195268341005701,-0.6823611677641166,0.21210885146553243,1353.8461538461538,-1.0,68.71042147200671,0.175653156815091,
2023-08-16 11:40:38.924000,-6.325301204819278,1.0481927710843375,-7.542168674698796,1.1428571428571428,-5.94543225015328,-7.274064990803188,3.0,0.1756021756021756,5694.690265486726,-0.16805547462269074,-0.7111473690344388,0.04498572344268966,1394.8717948717947,-1.0,68.71042147200671,0.17565225982240656,
2023-08-16 11:40:38.932000,-6.337349397590362,1.0602409638554218,-7.530120481927711,1.1134273451870018,-6.072961373390558,-7.198038013488657,3.0,0.1756021756021756,5694.690265486726,-0.1361226035778808,-0.8290892139152727,0.21502243459005896,1446.8864468864467,-1.0,68.71042147200671,0.17565130870694448,
2023-08-16 11:40:38.939000,-6.313253012048193,1.0481927710843375,-7.530120481927711,1.1281422440220723,-6.033721643163703,-7.178418148375229,3.0,0.1756021756021756,5694.690265486726,0.04720004661733076,-0.4117475671580902,0.06293339548977318,1506.227106227106,-1.0,68.71042147200671,0.1756503055684089,
2023-08-16 11:40:38.947000,-6.301204819277109,1.0240963855421688,-7.518072289156627,1.1698344573881054,-6.05334150827713,-7.249540159411404,3.0,0.1756021756021756,5694.690265486726,0.014917545597576574,0.09649787308431831,0.09381737660975473,1568.4981684981683,-1.0,68.71042147200671,0.1756492527779267,
2023-08-16 11:40:38.955000,-6.313253012048193,1.0240963855421688,-7.530120481927711,1.1722869405272838,-6.014101778050276,-7.1955855303494785,3.0,0.1756021756021756,5694.690265486726,-0.15313792902511592,0.4208379465066145,-0.1342579103781831,1631.5018315018315,-1.0,68.71042147200671,0.17564815282025342,
2023-08-16 11:40:38.962000,-6.313253012048193,1.036144578313253,-7.518072289156627,1.1354996934396075,-6.043531575720417,-7.256897608828939,3.0,0.1756021756021756,5694.690265486726,-0.15208903910028493,0.42410115960608313,-0.1334421071033155,1694.5054945054944,-1.0,68.71042147200671,0.17564700828489654,
2023-08-16 11:40:38.970000,-6.313253012048193,1.0481927710843375,-7.566265060240965,1.1698344573881054,-6.016554261189454,-7.237277743715511,3.0,0.1756021756021756,5694.690265486726,0.046500786667444005,0.8498339257619014,0.21898490763941478,1754.5787545787546,-1.0,68.71042147200671,0.17564582185690403,
2023-08-16 11:40:38.978000,-6.337349397590362,1.0602409638554218,-7.55421686746988,1.1404046597179645,-6.045984058859595,-7.242182709993869,3.0,0.1756021756021756,5694.690265486726,-0.13740458015267176,1.0910786084726998,0.1256337043295847,1810.989010989011,-1.0,68.71042147200671,0.17564459630736057,
2023-08-16 11:40:38.985000,-6.337349397590362,1.0481927710843375,-7.55421686746988,1.2385039852851012,-5.979767014101777,-7.278969957081545,3.0,0.1756021756021756,5694.690265486726,0.29089213915273016,0.990152089039101,-0.1187576481557019,1866.6666666666665,-1.0,68.71042147200671,0.17564333448363506,
2023-08-16 11:40:38.993000,-6.337349397590362,1.0602409638554218,-7.566265060240965,1.1453096259963211,-6.063151440833844,-7.266707541385653,3.0,0.1756021756021756,5694.690265486726,0.1505739758755323,0.6597517627177909,-0.13192704387856202,1926.7399267399267,-1.0,68.71042147200671,0.17564203929942393,
2023-08-16 11:40:39.001000,-6.36144578313253,1.072289156626506,-7.602409638554217,1.2066217044757817,-6.03862660944206,-7.269160024524831,3.0,0.1756021756021756,5694.690265486726,0.19497698269331604,0.3307499562962526,-0.12901346075403547,1991.2087912087911,-1.0,68.71042147200671,0.17564071372463588,
2023-08-16 11:40:39.008000,-6.337349397590362,1.072289156626506,-7.566265060240965,1.196811771919068,-6.072961373390558,-7.301042305334151,3.0,0.1756021756021756,5694.690265486726,-0.08088106753685671,0.1242351844298112,-0.15826583532428184,2060.07326007326,-1.0,68.71042147200671,0.17563936091391172,
2023-08-16 11:40:39.016000,-6.397590361445784,1.072289156626506,-7.590361445783133,1.1575720416922133,-6.026364193746168,-7.261802575107295,3.0,0.1756021756021756,5694.690265486726,-0.44822562787716314,-0.4302779558300796,0.05722277256570135,2126.7399267399264,-1.0,68.71042147200671,0.17563798403719968,
2023-08-16 11:40:39.024000,-6.36144578313253,1.0602409638554218,-7.55421686746988,1.1477621091354997,-6.055793991416309,-7.212752912323728,3.0,0.1756021756021756,5694.690265486726,0.0564069692908342,-0.5498514072606486,-0.15640114212458497,2187.5457875457873,-1.0,68.71042147200671,0.17563658614182354,
2023-08-16 11:40:39.031000,-6.349397590361446,1.0481927710843375,-7.542168674698796,1.2066217044757817,-6.119558553034947,-7.23973022685469,3.0,0.1756021756021756,5694.690265486726,0.19322883281860004,-0.5617388264087165,-0.17085251442223648,2236.6300366300366,-1.0,68.71042147200671,0.17563517029128442,
2023-08-16 11:40:39.039000,-6.325301204819278,1.0602409638554218,-7.530120481927711,1.1943592887798895,-6.058246474555487,-7.148988350705088,3.0,0.1756021756021756,5694.690265486726,0.03892547054367401,-0.3854087757123708,0.0903210768603227,2273.9926739926736,-1.0,68.71042147200671,0.17563373955483774,
2023-08-16 11:40:39.047000,-6.325301204819278,1.072289156626506,-7.518072289156627,1.1820968730839976,-6.075413856529736,-7.217657878602084,3.0,0.1756021756021756,5694.690265486726,0.1604801584989225,0.022026688421421484,-0.06281685216479235,2294.5054945054944,-1.0,68.71042147200671,0.17563229699718516,
2023-08-16 11:40:39.054000,-6.325301204819278,1.072289156626506,-7.506024096385542,1.1698344573881054,-6.043531575720417,-7.210300429184549,3.0,0.17604617604617603,5680.32786885246,-0.009206922673503438,-0.0029135831245261186,0.4259658528057804,2301.8315018315016,-1.0,68.71042147200671,0.17563084566832718,
2023-08-16 11:40:39.062000,-6.325301204819278,1.0240963855421688,-7.542168674698796,1.1649294911097485,-6.023911710606989,-7.256897608828939,3.0,0.17604617604617603,5680.32786885246,-0.05512499271604152,0.7209370083328481,-0.2015034088922555,2294.5054945054944,-1.0,68.71042147200671,0.1756293887429141,
2023-08-16 11:40:39.070000,-6.313253012048193,1.0240963855421688,-7.530120481927711,1.2213366033108521,-5.999386879215205,-7.274064990803188,3.0,0.1756021756021756,5694.690265486726,-0.20872909504108078,1.1498164442631542,-0.428879435930307,2276.190476190476,-1.0,68.71042147200671,0.17562792953242454,
2023-08-16 11:40:39.077000,-6.313253012048193,1.036144578313253,-7.55421686746988,1.1183323114653587,-6.03862660944206,-7.266707541385653,3.0,0.17604617604617603,5680.32786885246,-0.05326029951634467,0.7028727929607838,-0.30592622807528713,2245.421245421245,-1.0,68.71042147200671,0.17562647118940206,
2023-08-16 11:40:39.085000,-6.313253012048193,1.0602409638554218,-7.55421686746988,1.137952176578786,-6.048436541998774,-7.283874923359901,3.0,0.17604617604617603,5680.32786885246,-0.053959559466231426,0.8976166890041364,-0.10349047258318282,2205.128205128205,-1.0,68.71042147200671,0.17562501682766116,
2023-08-16 11:40:39.093000,-6.313253012048193,1.0481927710843375,-7.602409638554217,1.1183323114653587,-5.967504598405886,-7.23973022685469,3.0,0.1756021756021756,5694.690265486726,0.06980945166365643,1.0420138686556721,0.11153196200687615,2158.974358974359,-1.0,68.71042147200671,0.17562356967455284,
2023-08-16 11:40:39.100000,-6.301204819277109,1.0481927710843375,-7.566265060240965,1.1404046597179645,-5.965052115266707,-7.305947271612507,3.0,0.1756021756021756,5694.690265486726,0.11456208845638441,0.3307499562962526,-0.22469553056348707,2110.6227106227107,-1.0,68.71042147200671,0.17562213277662442,
2023-08-16 11:40:39.108000,-6.325301204819278,1.072289156626506,-7.578313253012048,1.1330472103004292,-6.011649294911098,-7.2323727774371545,3.0,0.1756021756021756,5694.690265486726,-0.007342229473806583,0.11024998543208478,0.05244449624147795,2059.3406593406594,-1.0,68.71042147200671,0.17562070897203655,
2023-08-16 11:40:39.116000,-6.325301204819278,1.0481927710843375,-7.566265060240965,1.0938074800735744,-6.05334150827713,-7.256897608828939,3.0,0.17604617604617603,5680.32786885246,-0.023192121671231584,-0.2607074179826345,-0.0553580793660045,2007.3260073260071,-1.0,68.71042147200671,0.1756193010225197,
2023-08-16 11:40:39.123000,-6.325301204819278,1.0602409638554218,-7.542168674698796,1.1526670754138564,-6.016554261189454,-7.242182709993869,3.0,0.1756021756021756,5694.690265486726,-0.10115960608356218,-0.4636093467746631,-0.20861255171610038,1955.311355311355,-1.0,68.71042147200671,0.175617911756308,
2023-08-16 11:40:39.131000,-6.337349397590362,1.072289156626506,-7.55421686746988,1.1722869405272838,-6.026364193746168,-7.256897608828939,3.0,0.1756021756021756,5694.690265486726,-0.1611794184488075,-0.34217120214439717,0.06864401841384546,1903.296703296703,-1.0,68.71042147200671,0.17561654393480383,
2023-08-16 11:40:39.139000,-6.337349397590362,1.0481927710843375,-7.530120481927711,1.1526670754138564,-6.104843654199877,-7.251992642550582,3.0,0.1756021756021756,5694.690265486726,0.07039216828856061,-0.6154652992249863,-0.0825126740865919,1854.9450549450548,-1.0,68.71042147200671,0.1756152000881821,
2023-08-16 11:40:39.146000,-6.349397590361446,1.0602409638554218,-7.542168674698796,1.20907418761496,-6.0778663396689145,-7.256897608828939,3.0,0.1756021756021756,5694.690265486726,-0.08146378416176263,-0.2607074179826345,-0.07983217761202745,1812.4542124542124,-1.0,68.71042147200671,0.17561388264933164,
2023-08-16 11:40:39.154000,-6.337349397590362,1.0843373493975905,-7.518072289156627,1.2385039852851012,-6.0705088902513795,-7.1955855303494785,3.0,0.1756021756021756,5694.690265486726,0.11700949828098545,-0.1968416758930129,-0.17213449099702827,1769.9633699633698,-1.0,68.71042147200671,0.1756125939495143,
2023-08-16 11:40:39.162000,-6.325301204819278,1.0602409638554218,-7.530120481927711,1.1992642550582464,-6.048436541998774,-7.278969957081545,3.0,0.1756021756021756,5694.690265486726,-0.20558242526659298,-0.46978614299865956,-0.08029835091195167,1731.8681318681317,-1.0,68.71042147200671,0.17561133621448904,
2023-08-16 11:40:39.169000,-6.325301204819278,1.072289156626506,-7.542168674698796,1.1575720416922133,-6.014101778050276,-7.25444512568976,3.0,0.1756021756021756,5694.690265486726,-0.0658469786142993,0.12913000407901673,0.08740749373579615,1696.7032967032967,-1.0,68.71042147200671,0.1756101115611048,
2023-08-16 11:40:39.177000,-6.325301204819278,1.0602409638554218,-7.566265060240965,1.1183323114653587,-5.999386879215205,-7.274064990803188,3.0,0.1756021756021756,5694.690265486726,-0.033681020919527696,0.2370491230114796,-0.1722510343220091,1665.9340659340658,-1.0,68.71042147200671,0.17560892199435568,
2023-08-16 11:40:39.185000,-6.337349397590362,1.036144578313253,-7.566265060240965,1.1624770079705702,-5.99202942979767,-7.23973022685469,3.0,0.1756021756021756,5694.690265486726,0.04370374686789872,0.14334828972670657,-0.21851873433949057,1639.5604395604394,-1.0,68.71042147200671,0.17560776940489595,
2023-08-16 11:40:39.192000,-6.313253012048193,1.0481927710843375,-7.55421686746988,1.120784794604537,-6.119558553034947,-7.283874923359901,3.0,0.1756021756021756,5694.690265486726,-0.06526426198939513,-0.026571878095682785,0.044403006817784606,1617.5824175824175,-1.0,68.71042147200671,0.17560665556700455,
2023-08-16 11:40:39.200000,-6.325301204819278,1.0481927710843375,-7.530120481927711,1.155119558553035,-6.033721643163703,-7.256897608828939,3.0,0.1756021756021756,5694.690265486726,0.18029252374570287,0.050929433016724465,0.08868947031058795,1601.4652014652013,-1.0,68.71042147200671,0.17560558213699154,
2023-08-16 11:40:39.208000,-6.325301204819278,1.036144578313253,-7.55421686746988,1.1330472103004292,-6.058246474555487,-7.256897608828939,3.0,0.1756021756021756,5694.690265486726,-0.07971563428704662,0.1885670998193579,0.01083852922323862,1590.4761904761904,-1.0,68.71042147200671,0.1756045506520333,
2023-08-16 11:40:39.215000,-6.313253012048193,1.0240963855421688,-7.55421686746988,1.074187614960147,-5.977314530962599,-7.217657878602084,3.0,0.17604617604617603,5680.32786885246,-0.049997086416876044,-0.010372355923315273,0.2857642328535634,1582.4175824175823,-1.0,68.71042147200671,0.17560356252942294,
2023-08-16 11:40:39.223000,-6.313253012048193,1.0481927710843375,-7.55421686746988,1.179644389944819,-6.001839362354383,-7.281422440220723,3.0,0.1756021756021756,5694.690265486726,0.25581259833343073,-0.10080997610861794,-0.11549443505623197,1578.7545787545787,-1.0,68.71042147200671,0.17560261921551434,
2023-08-16 11:40:39.230000,-6.301204819277109,1.0481927710843375,-7.578313253012048,1.1428571428571428,-5.965052115266707,-7.237277743715511,3.0,0.1756021756021756,5694.690265486726,-0.037760037293863916,0.4365712953790569,-0.14532952625138382,1574.3589743589744,-1.0,68.71042147200671,0.1756017220583362,
2023-08-16 11:40:39.238000,-6.313253012048193,1.0481927710843375,-7.566265060240965,1.1894543225015328,-5.996934396076027,-7.244635193133047,3.0,0.1756021756021756,5694.690265486726,-0.036944234018996325,0.43598857875415103,-0.14626187285123224,1571.4285714285713,-1.0,68.71042147200671,0.1756008721490496,
2023-08-16 11:40:39.246000,-6.301204819277109,1.0481927710843375,-7.55421686746988,1.1698344573881054,-6.019006744328633,-7.242182709993869,3.0,0.1756021756021756,5694.690265486726,0.11747567158091053,0.049064739817027615,0.006642969523920696,1567.032967032967,-1.0,68.71042147200671,0.17560007046162138,
2023-08-16 11:40:39.253000,-6.301204819277109,1.0602409638554218,-7.542168674698796,1.1624770079705702,-6.055793991416309,-7.25444512568976,3.0,0.1756021756021756,5694.690265486726,0.2865800361284305,-0.10384010255812663,0.11234776528174331,1565.5677655677655,-1.0,68.71042147200671,0.17559931785406077,
2023-08-16 11:40:39.261000,-6.325301204819278,1.0602409638554218,-7.542168674698796,1.1575720416922133,-6.00674432863274,-7.308399754751686,3.0,0.1756021756021756,5694.690265486726,-0.2346017131868768,-0.3306334129712718,0.09626478643435707,1567.032967032967,-1.0,68.71042147200671,0.175598615069945,
2023-08-16 11:40:39.269000,-6.349397590361446,1.0602409638554218,-7.566265060240965,1.1820968730839976,-6.0410790925812385,-7.251992642550582,3.0,0.1756021756021756,5694.690265486726,-0.12633296427947147,-0.08309539071149782,-0.04230522696812521,1571.4285714285713,-1.0,68.71042147200671,0.17559796274020914,
2023-08-16 11:40:39.276000,-6.337349397590362,1.036144578313253,-7.55421686746988,1.1722869405272838,-6.090128755364806,-7.20784794604537,3.0,0.1756021756021756,5694.690265486726,-0.23180467338733154,-0.5698968591573925,-0.01025581259833357,1576.5567765567764,-1.0,68.71042147200671,0.17559736138517348,
2023-08-16 11:40:39.284000,-6.337349397590362,1.0481927710843375,-7.55421686746988,1.1526670754138564,-6.139178418148375,-7.247087676272225,3.0,0.1756021756021756,5694.690265486726,-0.13880310005244526,-0.06048598566517042,-0.10209195268341018,1580.2197802197802,-1.0,68.71042147200671,0.17559681141678402,
2023-08-16 11:40:39.292000,-6.337349397590362,1.0481927710843375,-7.530120481927711,1.1575720416922133,-6.063151440833844,-7.293684855916615,3.0,0.1756021756021756,5694.690265486726,-0.07738476778742467,-0.04335411689295448,0.1281976574791679,1583.150183150183,-1.0,68.71042147200671,0.17559631314103955,
2023-08-16 11:40:39.299000,-6.349397590361446,1.0602409638554218,-7.530120481927711,1.1477621091354997,-6.075413856529736,-7.278969957081545,3.0,0.1756021756021756,5694.690265486726,0.24683876230988894,0.003496299749432037,-0.10092651943359965,1582.4175824175823,-1.0,68.71042147200671,0.17559586676057853,
2023-08-16 11:40:39.307000,-6.325301204819278,1.0602409638554218,-7.518072289156627,1.2066217044757817,-6.033721643163703,-7.266707541385653,3.0,0.17515817515817514,5709.125475285172,-0.028320027970398804,-0.22329701066371485,0.15931472524911153,1576.5567765567764,-1.0,68.71042147200671,0.17559547237740245,
2023-08-16 11:40:39.315000,-6.325301204819278,1.0481927710843375,-7.530120481927711,1.1526670754138564,-6.043531575720417,-7.274064990803188,3.0,0.1756021756021756,5694.690265486726,-0.13519025697803239,-0.20499970864168707,-0.05815511916554978,1570.6959706959706,-1.0,68.71042147200671,0.17559512998516302,
2023-08-16 11:40:39.322000,-6.337349397590362,1.0602409638554218,-7.530120481927711,1.1820968730839976,-6.021459227467811,-7.247087676272225,3.0,0.1756021756021756,5694.690265486726,-0.0882232970106633,0.16187867839869427,-0.16537497814812674,1559.7069597069597,-1.0,68.71042147200671,0.17559483944037035,
2023-08-16 11:40:39.330000,-6.313253012048193,1.0602409638554218,-7.55421686746988,1.1820968730839976,-6.0410790925812385,-7.242182709993869,3.0,0.1756021756021756,5694.690265486726,0.14416409300157415,-0.006176796223996482,0.09393391993473557,1545.7875457875457,-1.0,68.71042147200671,0.17559460049669673,
2023-08-16 11:40:39.338000,-6.301204819277109,1.0481927710843375,-7.530120481927711,1.20907418761496,-6.011649294911098,-7.328019619865113,3.0,0.1756021756021756,5694.690265486726,0.022609405046325665,0.08635860381096644,-0.2443913524852866,1531.135531135531,-1.0,68.71042147200671,0.1755944128181596,
2023-08-16 11:40:39.345000,-6.325301204819278,1.0602409638554218,-7.55421686746988,1.1870018393623543,-6.060698957694665,-7.25444512568976,3.0,0.1756021756021756,5694.690265486726,-0.26793310413146026,0.010605442573276946,0.04580152671755725,1515.7509157509157,-1.0,68.71042147200671,0.17559427598178473,
2023-08-16 11:40:39.353000,-6.301204819277109,1.0602409638554218,-7.530120481927711,1.1771919068056407,-5.99202942979767,-7.296137339055794,3.0,0.1756021756021756,5694.690265486726,0.08635860381096644,0.45160538430161434,0.24101159606083541,1501.8315018315018,-1.0,68.71042147200671,0.1755941894802832,
2023-08-16 11:40:39.361000,-6.325301204819278,1.0481927710843375,-7.530120481927711,1.1943592887798895,-6.095033721643164,-7.251992642550582,3.0,0.1756021756021756,5694.690265486726,0.1636268282734103,0.15733348872443298,-0.15919818192413027,1487.179487179487,-1.0,68.71042147200671,0.1755941527247238,
2023-08-16 11:40:39.368000,-6.337349397590362,1.072289156626506,-7.530120481927711,1.1698344573881054,-6.055793991416309,-7.276517473942366,3.0,0.1756021756021756,5694.690265486726,0.05512499271604152,0.06573043528931848,-0.0375269506439018,1472.5274725274724,-1.0,68.71042147200671,0.17559416504718983,
2023-08-16 11:40:39.376000,-6.325301204819278,1.072289156626506,-7.542168674698796,1.1919068056407112,-6.036174126302881,-7.259350091968117,3.0,0.1756021756021756,5694.690265486726,0.10104306275858134,0.14171668317697136,0.2366994930365362,1458.6080586080584,-1.0,68.71042147200671,0.17559422570340796,
2023-08-16 11:40:39.384000,-6.337349397590362,1.0481927710843375,-7.542168674698796,1.1477621091354997,-6.036174126302881,-7.276517473942366,3.0,0.1756021756021756,5694.690265486726,-0.020395081871686302,0.13938581667734945,-0.25464716508361973,1443.956043956044,-1.0,68.71042147200671,0.17559433387533993,
2023-08-16 11:40:39.391000,-6.337349397590362,1.0481927710843375,-7.566265060240965,1.1526670754138564,-6.08522378908645,-7.244635193133047,3.0,0.1756021756021756,5694.690265486726,-0.03414719421945104,-0.08915564361051173,-0.1474273061010432,1427.8388278388277,-1.0,68.71042147200671,0.17559448867372746,
2023-08-16 11:40:39.399000,-6.337349397590362,1.036144578313253,-7.55421686746988,1.1600245248313916,-6.050889025137952,-7.269160024524831,3.0,0.1756021756021756,5694.690265486726,0.10302429928325904,-0.08659169046092811,-0.3899539653866325,1411.7216117216117,-1.0,68.71042147200671,0.17559468914058443,
2023-08-16 11:40:39.407000,-6.325301204819278,1.0481927710843375,-7.566265060240965,1.1649294911097485,-6.075413856529736,-7.261802575107295,3.0,0.1756021756021756,5694.690265486726,-0.03659460404405381,0.068877105063808,-0.1299458073538839,1395.6043956043954,-1.0,68.71042147200671,0.17559493425162992,
2023-08-16 11:40:39.414000,-6.349397590361446,1.0481927710843375,-7.55421686746988,1.179644389944819,-6.050889025137952,-7.249540159411404,3.0,0.1756021756021756,5694.690265486726,-0.06608006526426272,0.23530097313676357,-0.17481498747159271,1379.4871794871794,-1.0,68.71042147200671,0.1755952229186598,
2023-08-16 11:40:39.422000,-6.337349397590362,1.0602409638554218,-7.55421686746988,1.1575720416922133,-6.045984058859595,-7.259350091968117,3.0,0.1756021756021756,5694.690265486726,-0.3701416001398517,0.11036652875706562,-0.06666278188916733,1367.7655677655678,-1.0,68.71042147200671,0.1755955539918532,
2023-08-16 11:40:39.430000,-6.325301204819278,1.0240963855421688,-7.530120481927711,1.1404046597179645,-6.05334150827713,-7.303494788473329,3.0,0.1756021756021756,5694.690265486726,0.21280811141541875,0.14218285647689471,0.056290425965852924,1358.974358974359,-1.0,68.71042147200671,0.17559592626201428,
2023-08-16 11:40:39.437000,-6.349397590361446,1.036144578313253,-7.542168674698796,1.1330472103004292,-6.045984058859595,-7.234825260576333,3.0,0.1756021756021756,5694.690265486726,-0.14066779325214213,-0.1188741914806823,-0.0497639997669135,1352.3809523809523,-1.0,68.71042147200671,0.1755963384627497,
2023-08-16 11:40:39.445000,-6.325301204819278,1.0481927710843375,-7.566265060240965,1.1894543225015328,-6.009196811771918,-7.266707541385653,3.0,0.1756021756021756,5694.690265486726,0.06036944234018958,-0.0102558125983327,0.04265485694306859,1346.5201465201465,-1.0,68.71042147200671,0.17559678927258454,
2023-08-16 11:40:39.453000,-6.325301204819278,1.0602409638554218,-7.566265060240965,1.1722869405272838,-6.087676272225628,-7.261802575107295,3.0,0.1756021756021756,5694.690265486726,0.3657129537905712,0.22026688421420615,-0.0026804964745644456,1341.3919413919414,-1.0,68.71042147200671,0.1755972773170199,
2023-08-16 11:40:39.460000,-6.313253012048193,1.036144578313253,-7.566265060240965,1.196811771919068,-6.065603923973022,-7.23973022685469,3.0,0.17515817515817514,5709.125475285172,0.1962589592681087,0.0666627818891669,0.04277140026804986,1336.9963369963368,-1.0,68.71042147200671,0.17559780117053728,
2023-08-16 11:40:39.468000,-6.325301204819278,1.0240963855421688,-7.566265060240965,1.1232372777437154,-6.014101778050276,-7.27161250766401,3.0,0.1756021756021756,5694.690265486726,-0.11223122195676248,-0.23984616281102486,-0.0015150632247539115,1332.6007326007325,-1.0,68.71042147200671,0.17559835920926303,
2023-08-16 11:40:39.476000,-6.325301204819278,1.072289156626506,-7.518072289156627,1.137952176578786,-6.011649294911098,-7.281422440220723,3.0,0.1756021756021756,5694.690265486726,-0.08227958743663023,0.021210885146553893,-0.033564477594545554,1328.937728937729,-1.0,68.71042147200671,0.17559894974030488,
2023-08-16 11:40:39.483000,-6.337349397590362,1.0481927710843375,-7.566265060240965,1.1943592887798895,-6.00674432863274,-7.278969957081545,3.0,0.1756021756021756,5694.690265486726,0.024007924946099175,0.5075461802925234,-0.24625604568498347,1325.2747252747251,-1.0,68.71042147200671,0.17559957116257746,
2023-08-16 11:40:39.491000,-6.325301204819278,1.0481927710843375,-7.55421686746988,1.1649294911097485,-6.033721643163703,-7.264255058246474,3.0,0.1756021756021756,5694.690265486726,-0.020977798496590483,0.3490472583182804,-0.0015150632247539115,1320.14652014652,-1.0,68.71042147200671,0.17560022169098652,
2023-08-16 11:40:39.499000,-6.349397590361446,1.0481927710843375,-7.55421686746988,1.1600245248313916,-5.965052115266707,-7.264255058246474,3.0,0.1756021756021756,5694.690265486726,-0.21898490763941522,0.16199522172367511,-0.3062758580502301,1317.216117216117,-1.0,68.71042147200671,0.17560089951723684,
2023-08-16 11:40:39.506000,-6.36144578313253,1.0481927710843375,-7.55421686746988,1.1305947271612506,-6.026364193746168,-7.278969957081545,3.0,0.1756021756021756,5694.690265486726,0.07272303478818254,0.19194685624380908,-0.04148942369325806,1314.2857142857142,-1.0,68.71042147200671,0.17560160293913735,
2023-08-16 11:40:39.514000,-6.337349397590362,1.0481927710843375,-7.542168674698796,1.2066217044757817,-5.984671980380135,-7.23973022685469,3.0,0.1756021756021756,5694.690265486726,0.07074179826350485,0.18938290309422548,-0.041372880368276785,1309.89010989011,-1.0,68.71042147200671,0.17560233021321967,
2023-08-16 11:40:39.522000,-6.337349397590362,1.0481927710843375,-7.55421686746988,1.1943592887798895,-6.050889025137952,-7.249540159411404,3.0,0.1756021756021756,5694.690265486726,0.16199522172367511,0.11188159198181996,-0.05675659926577714,1305.4945054945053,-1.0,68.71042147200671,0.17560307955668936,
2023-08-16 11:40:39.529000,-6.337349397590362,1.0602409638554218,-7.518072289156627,1.1649294911097485,-6.014101778050276,-7.276517473942366,3.0,0.1756021756021756,5694.690265486726,0.008041489423693338,0.06503117533943172,-0.23937998951110065,1301.098901098901,-1.0,68.71042147200671,0.17560384914942642,
2023-08-16 11:40:39.537000,-6.325301204819278,1.0481927710843375,-7.542168674698796,1.184549356223176,-6.00674432863274,-7.249540159411404,3.0,0.1756021756021756,5694.690265486726,-0.1744653574966489,-0.25674494493327915,-0.19159722626886527,1295.970695970696,-1.0,68.71042147200671,0.17560463713604746,
2023-08-16 11:40:39.545000,-6.325301204819278,1.0481927710843375,-7.566265060240965,1.1477621091354997,-6.058246474555487,-7.261802575107295,3.0,0.1756021756021756,5694.690265486726,-0.02051162519666714,-0.012120505798029556,0.009206922673503872,1293.040293040293,-1.0,68.71042147200671,0.1756054414892922,
2023-08-16 11:40:39.552000,-6.325301204819278,1.0481927710843375,-7.530120481927711,1.1992642550582464,-6.087676272225628,-7.264255058246474,3.0,0.1756021756021756,5694.690265486726,0.421187576481557,0.08158032748674347,-0.12668259425441397,1293.040293040293,-1.0,68.71042147200671,0.17560626003262303,
2023-08-16 11:40:39.560000,-6.337349397590362,1.036144578313253,-7.566265060240965,1.1722869405272838,-5.982219497240957,-7.296137339055794,3.0,0.1756021756021756,5694.690265486726,-0.05512499271604152,0.24975234543441507,-0.04731658994231116,1293.7728937728937,-1.0,68.71042147200671,0.17560709059053517,
2023-08-16 11:40:39.568000,-6.325301204819278,1.072289156626506,-7.566265060240965,1.1183323114653587,-6.0705088902513795,-7.237277743715511,3.0,0.1756021756021756,5694.690265486726,-0.08682477711089152,0.12668259425441397,-0.3019637550259309,1295.970695970696,-1.0,68.71042147200671,0.1756079309898767,
2023-08-16 11:40:39.575000,-6.313253012048193,1.036144578313253,-7.566265060240965,1.1477621091354997,-6.0705088902513795,-7.237277743715511,3.0,0.1756021756021756,5694.690265486726,0.24951925878445338,-0.08880601363556921,-0.16234485169861892,1298.168498168498,-1.0,68.71042147200671,0.17560877920023207,
2023-08-16 11:40:39.583000,-6.313253012048193,1.0602409638554218,-7.566265060240965,1.1428571428571428,-6.019006744328633,-7.320662170447577,3.0,0.1756021756021756,5694.690265486726,0.2483538255346433,0.21665404113979328,-0.08565934386108055,1301.098901098901,-1.0,68.71042147200671,0.1756096333154979,
2023-08-16 11:40:39.591000,-6.301204819277109,1.036144578313253,-7.530120481927711,1.1305947271612506,-6.016554261189454,-7.261802575107295,3.0,0.1756021756021756,5694.690265486726,-0.029835091195151413,0.1846046267700025,-0.31268574092418866,1304.0293040293038,-1.0,68.71042147200671,0.17561049126942063,
2023-08-16 11:40:39.598000,-6.325301204819278,1.0602409638554218,-7.566265060240965,1.179644389944819,-6.036174126302881,-7.310852237890864,3.0,0.1756021756021756,5694.690265486726,-0.016082978847386676,0.24392517918536283,-0.18553697336985006,1305.4945054945053,-1.0,68.71042147200671,0.17561135085968438,
2023-08-16 11:40:39.606000,-6.313253012048193,1.0481927710843375,-7.578313253012048,1.1354996934396075,-5.999386879215205,-7.278969957081545,3.0,0.1756021756021756,5694.690265486726,0.24112813938581582,-0.11118233203193321,0.01153778917312494,1305.4945054945053,-1.0,68.71042147200671,0.17561220989973855,
2023-08-16 11:40:39.613000,-6.325301204819278,1.0481927710843375,-7.566265060240965,1.125689760882894,-6.03862660944206,-7.301042305334151,3.0,0.17515817515817514,5709.125475285172,-0.05209486626653457,0.3757356797389423,0.08752403706077741,1302.5641025641025,-1.0,68.71042147200671,0.1756130663604,
2023-08-16 11:40:39.621000,-6.325301204819278,1.0602409638554218,-7.542168674698796,1.179644389944819,-6.011649294911098,-7.247087676272225,3.0,0.1756021756021756,5694.690265486726,0.0078084027737316646,0.26548569430685925,-0.03554571411922368,1301.098901098901,-1.0,68.71042147200671,0.17561391820334787,
2023-08-16 11:40:39.629000,-6.313253012048193,1.0481927710843375,-7.542168674698796,1.1477621091354997,-6.028816676885346,-7.305947271612507,3.0,0.1756021756021756,5694.690265486726,0.0981294796340535,-0.0882232970106633,-0.01794767204708353,1298.9010989010987,-1.0,68.71042147200671,0.17561476336402482,
2023-08-16 11:40:39.636000,-6.349397590361446,1.0481927710843375,-7.578313253012048,1.1600245248313916,-6.045984058859595,-7.345187001839362,3.0,0.1756021756021756,5694.690265486726,0.0340306508944702,-0.08752403706077655,-0.10838529223238749,1296.7032967032967,-1.0,68.71042147200671,0.17561559991544923,
2023-08-16 11:40:39.644000,-6.301204819277109,1.0481927710843375,-7.55421686746988,1.044757817290006,-6.082771305947271,-7.237277743715511,3.0,0.1756021756021756,5694.690265486726,0.15605151214964202,-0.13344210710331636,0.031699784394848704,1295.2380952380952,-1.0,68.71042147200671,0.1756164259342427,
2023-08-16 11:40:39.652000,-6.313253012048193,1.0481927710843375,-7.566265060240965,1.150214592274678,-5.996934396076027,-7.259350091968117,3.0,0.1756021756021756,5694.690265486726,0.1105996154070273,-0.02622224812073854,-0.02890274459530342,1295.2380952380952,-1.0,68.71042147200671,0.17561723950548452,
2023-08-16 11:40:39.659000,-6.313253012048193,1.0602409638554218,-7.566265060240965,1.2458614347026364,-6.065603923973022,-7.27161250766401,3.0,0.1756021756021756,5694.690265486726,-0.011537789173125373,-0.10453936250801164,0.03286521764465924,1294.5054945054944,-1.0,68.71042147200671,0.17561803858888353,
2023-08-16 11:40:39.667000,-6.337349397590362,1.072289156626506,-7.566265060240965,1.1354996934396075,-6.0778663396689145,-7.28632740649908,3.0,0.1756021756021756,5694.690265486726,-0.13111124060369442,-0.1501078025756072,0.0013985198997726411,1294.5054945054944,-1.0,68.71042147200671,0.1756188211828798,
2023-08-16 11:40:39.675000,-6.301204819277109,1.0481927710843375,-7.566265060240965,1.1722869405272838,-6.036174126302881,-7.293684855916615,3.0,0.1756021756021756,5694.690265486726,-0.16094633179884585,0.004195559699318791,0.47584639589767475,1293.040293040293,-1.0,68.71042147200671,0.1756195853185196,
2023-08-16 11:40:39.682000,-6.325301204819278,1.036144578313253,-7.590361445783133,1.1600245248313916,-6.075413856529736,-7.276517473942366,3.0,0.1756021756021756,5694.690265486726,0.10314084260823987,-0.19555969931822195,-0.028436571295379204,1290.8424908424909,-1.0,68.71042147200671,0.1756203290745196,
2023-08-16 11:40:39.690000,-6.325301204819278,1.0481927710843375,-7.530120481927711,1.1354996934396075,-6.023911710606989,-7.264255058246474,3.0,0.1756021756021756,5694.690265486726,0.20884563836606335,-0.04102325039333428,-0.07260649146320128,1288.6446886446886,-1.0,68.71042147200671,0.17562105057136662,
2023-08-16 11:40:39.698000,-6.325301204819278,1.036144578313253,-7.55421686746988,1.184549356223176,-6.063151440833844,-7.323114653586757,3.0,0.1756021756021756,5694.690265486726,-0.006876056173883237,-0.1471942194510811,-0.04009090379348541,1286.4468864468863,-1.0,68.71042147200671,0.17562174798657332,
2023-08-16 11:40:39.705000,-6.349397590361446,1.0481927710843375,-7.590361445783133,1.1404046597179645,-6.004291845493562,-7.28632740649908,3.0,0.1756021756021756,5694.690265486726,-0.12994580735388434,-0.05326029951634467,0.021094341821572188,1284.9816849816848,-1.0,68.71042147200671,0.1756224196876788,
2023-08-16 11:40:39.713000,-6.325301204819278,1.0240963855421688,-7.55421686746988,1.137952176578786,-6.0778663396689145,-7.25444512568976,3.0,0.1756021756021756,5694.690265486726,0.006876056173883237,-0.08496008391119467,-0.11700949828098588,1282.051282051282,-1.0,68.71042147200671,0.17562306408848646,
2023-08-16 11:40:39.721000,-6.325301204819278,1.036144578313253,-7.542168674698796,1.2115266707541386,-6.031269160024524,-7.283874923359901,3.0,0.1756021756021756,5694.690265486726,0.15919818192412982,-0.16455917487325872,0.24951925878445297,1277.6556776556777,-1.0,68.71042147200671,0.17562367951577007,
2023-08-16 11:40:39.728000,-6.313253012048193,1.036144578313253,-7.542168674698796,1.1526670754138564,-6.019006744328633,-7.264255058246474,3.0,0.1756021756021756,5694.690265486726,0.07994872093700829,-0.17877746052094853,-0.10115960608356175,1273.260073260073,-1.0,68.71042147200671,0.17562426437375733,
2023-08-16 11:40:39.736000,-6.313253012048193,1.0602409638554218,-7.542168674698796,1.1354996934396075,-6.021459227467811,-7.298589822194972,3.0,0.1756021756021756,5694.690265486726,0.2013868655672742,-0.2376318396363855,0.08321193403647822,1268.131868131868,-1.0,68.71042147200671,0.17562481727697493,
2023-08-16 11:40:39.744000,-6.325301204819278,1.0481927710843375,-7.542168674698796,1.184549356223176,-6.072961373390558,-7.242182709993869,3.0,0.1756021756021756,5694.690265486726,-0.10570479575782349,-0.17236757764699037,0.0980129363090731,1259.3406593406592,-1.0,68.71042147200671,0.17562533690623436,
2023-08-16 11:40:39.751000,-6.301204819277109,1.036144578313253,-7.55421686746988,1.1354996934396075,-6.043531575720417,-7.298589822194972,3.0,0.1756021756021756,5694.690265486726,-0.10547170910786008,0.05547462269098577,-0.26676767088165015,1252.014652014652,-1.0,68.71042147200671,0.1756258220137403,
2023-08-16 11:40:39.759000,-6.313253012048193,1.0481927710843375,-7.530120481927711,1.1698344573881054,-6.104843654199877,-7.256897608828939,3.0,0.1756021756021756,5694.690265486726,0.15418681894994518,0.10150923605850469,-0.05023017306683771,1245.4212454212454,-1.0,68.71042147200671,0.1756262714280016,
2023-08-16 11:40:39.767000,-6.313253012048193,1.036144578313253,-7.566265060240965,1.1771919068056407,-6.075413856529736,-7.251992642550582,3.0,0.17515817515817514,5709.125475285172,0.017481498747158448,-0.03659460404405381,0.05582425266592871,1239.5604395604396,-1.0,68.71042147200671,0.17562668405852078,
2023-08-16 11:40:39.774000,-6.349397590361446,1.072289156626506,-7.566265060240965,1.1698344573881054,-6.031269160024524,-7.256897608828939,3.0,0.1756021756021756,5694.690265486726,0.35289318804265496,0.007342229473806583,-0.17446535749664935,1235.164835164835,-1.0,68.71042147200671,0.17562705888969227,
2023-08-16 11:40:39.782000,-6.337349397590362,1.036144578313253,-7.566265060240965,1.1649294911097485,-6.0778663396689145,-7.247087676272225,3.0,0.1756021756021756,5694.690265486726,0.2742264436804376,0.037760037293863916,-0.35708874774197286,1236.6300366300366,-1.0,68.71042147200671,0.1756273949532672,
2023-08-16 11:40:39.790000,-6.349397590361446,1.0602409638554218,-7.542168674698796,1.1673819742489269,-6.08522378908645,-7.247087676272225,3.0,0.1756021756021756,5694.690265486726,0.2728279237806658,0.03915855719363742,-0.35464133791737096,1241.0256410256409,-1.0,68.71042147200671,0.17562769136356135,
2023-08-16 11:40:39.797000,-6.36144578313253,1.0240963855421688,-7.566265060240965,1.1477621091354997,-6.0410790925812385,-7.269160024524831,3.0,0.1756021756021756,5694.690265486726,-0.0658469786142993,-0.38902161878678365,-0.24345900588543773,1248.3516483516482,-1.0,68.71042147200671,0.17562794733119147,
2023-08-16 11:40:39.805000,-6.337349397590362,1.0481927710843375,-7.55421686746988,1.196811771919068,-6.048436541998774,-7.229920294297976,3.0,0.1756021756021756,5694.690265486726,0.08612551716100478,0.04498572344268966,-0.07260649146320128,1254.212454212454,-1.0,68.71042147200671,0.1756281621659455,
2023-08-16 11:40:39.813000,-6.337349397590362,1.0240963855421688,-7.530120481927711,1.1575720416922133,-6.004291845493562,-7.20784794604537,3.0,0.1756021756021756,5694.690265486726,0.19101450964396066,-0.16723967134782317,-0.10232503933337228,1256.4102564102564,-1.0,68.71042147200671,0.17562833527931848,
2023-08-16 11:40:39.820000,-6.313253012048193,1.0481927710843375,-7.530120481927711,1.1060698957694666,-6.00674432863274,-7.217657878602084,3.0,0.1756021756021756,5694.690265486726,-0.19439426606841012,-0.3021968416758921,-0.13029543732882684,1257.142857142857,-1.0,68.71042147200671,0.1756284661867018,
2023-08-16 11:40:39.828000,-6.325301204819278,1.0481927710843375,-7.55421686746988,1.1477621091354997,-6.05334150827713,-7.274064990803188,3.0,0.1756021756021756,5694.690265486726,-0.2704970572810439,0.1715517743721228,-0.28063632655439663,1255.6776556776556,972.808837890625,61.6770712425887,0.17562855450921705,
2023-08-16 11:40:39.836000,-6.325301204819278,1.072289156626506,-7.566265060240965,1.137952176578786,-6.05334150827713,-7.27161250766401,3.0,0.1756021756021756,5694.690265486726,-0.20837946506613828,0.303362274925704,0.2427597459355514,1254.9450549450548,-1.0,61.6770712425887,0.17562859997518276,
2023-08-16 11:40:39.843000,-6.349397590361446,1.0602409638554218,-7.578313253012048,1.1992642550582464,-6.14653586756591,-7.256897608828939,3.0,0.1756021756021756,5694.690265486726,-0.2047666219917254,0.31233611094924574,0.06025289901520874,1255.6776556776556,-1.0,61.6770712425887,0.17562860242121012,
2023-08-16 11:40:39.851000,-6.36144578313253,1.0481927710843375,-7.578313253012048,1.1453096259963211,-6.068056407112201,-7.303494788473329,3.0,0.1756021756021756,5694.690265486726,-0.017481498747158448,0.061068702290076333,-0.029718547870170576,1256.4102564102564,-1.0,61.6770712425887,0.17562856179291964,
2023-08-16 11:40:39.859000,-6.325301204819278,1.072289156626506,-7.55421686746988,1.1404046597179645,-6.080318822808093,-7.27161250766401,3.0,0.1756021756021756,5694.690265486726,-0.06316648213973486,-0.3221257502476551,0.10990035545714097,1257.142857142857,-1.0,61.6770712425887,0.17562847814527685,
2023-08-16 11:40:39.866000,-6.313253012048193,1.0843373493975905,-7.542168674698796,1.1894543225015328,-6.019006744328633,-7.278969957081545,3.0,0.1756021756021756,5694.690265486726,-0.02960200454518974,-0.6400559407959914,0.06281685216479235,1256.4102564102564,-1.0,61.6770712425887,0.17562835164254315,
2023-08-16 11:40:39.874000,-6.301204819277109,1.072289156626506,-7.55421686746988,1.1477621091354997,-5.984671980380135,-7.237277743715511,3.0,0.1756021756021756,5694.690265486726,0.01841384534700861,-0.2835499096789236,0.15360410232503927,1252.014652014652,-1.0,61.6770712425887,0.17562818255784338,
2023-08-16 11:40:39.882000,-6.301204819277109,1.0602409638554218,-7.55421686746988,1.1477621091354997,-5.994481912936848,-7.25444512568976,3.0,0.1756021756021756,5694.690265486726,0.21816910436454764,-0.24998543208437674,0.228891090262805,1242.4908424908424,-1.0,61.6770712425887,0.1756279712723497,
2023-08-16 11:40:39.889000,-6.301204819277109,1.072289156626506,-7.542168674698796,1.0889025137952175,-6.009196811771918,-7.288779889638258,3.0,0.1756021756021756,5694.690265486726,0.15698385874949047,-0.05291066954140216,0.19474389604335393,1235.164835164835,-1.0,61.6770712425887,0.1756277182740866,
2023-08-16 11:40:39.897000,-6.337349397590362,1.036144578313253,-7.566265060240965,1.2041692213366033,-6.082771305947271,-7.310852237890864,3.0,0.1756021756021756,5694.690265486726,0.09440009323465978,-0.08624206048598561,0.04055707709340963,1227.8388278388277,-1.0,61.6770712425887,0.1756274241563605,
2023-08-16 11:40:39.905000,-6.325301204819278,1.036144578313253,-7.55421686746988,1.2164316370324952,-6.031269160024524,-7.261802575107295,3.0,0.1756021756021756,5694.690265486726,0.0017481498747160184,-0.012586679097954637,0.05559116601596661,1221.9780219780218,-1.0,61.6770712425887,0.17562708961582113,
2023-08-16 11:40:39.912000,-6.373493975903615,1.036144578313253,-7.542168674698796,1.1477621091354997,-6.026364193746168,-7.296137339055794,3.0,0.1756021756021756,5694.690265486726,0.2464891323349447,-0.1396189033273111,0.2371656663364604,1219.7802197802198,-1.0,61.6770712425887,0.17562671545016303,
2023-08-16 11:40:39.920000,-6.349397590361446,1.036144578313253,-7.542168674698796,1.1281422440220723,-6.023911710606989,-7.291232372777436,3.0,0.17515817515817514,5709.125475285172,-0.017481498747158448,-0.631548278072373,-0.14602878620127013,1219.7802197802198,-1.0,61.6770712425887,0.1756263025554771,
2023-08-16 11:40:39.928000,-6.349397590361446,1.0481927710843375,-7.55421686746988,1.1624770079705702,-6.03862660944206,-7.320662170447577,3.0,0.17515817515817514,5709.125475285172,-0.15418681894994518,-0.5711788357321834,0.055707709340947445,1223.4432234432234,-1.0,61.6770712425887,0.17562585191271748,
2023-08-16 11:40:39.935000,-6.349397590361446,1.0481927710843375,-7.530120481927711,1.1281422440220723,-6.080318822808093,-7.259350091968117,3.0,0.1756021756021756,5694.690265486726,-0.1086183788823496,-0.8931880426548576,-0.1575665753743955,1233.6996336996335,-1.0,61.6770712425887,0.175625364403384,
2023-08-16 11:40:39.943000,-6.36144578313253,1.0481927710843375,-7.530120481927711,1.1183323114653587,-6.0410790925812385,-7.247087676272225,3.0,0.1756021756021756,5694.690265486726,-0.10896800885729212,-0.8320027970397987,0.05955363906532242,1252.014652014652,-1.0,61.6770712425887,0.17562484096463862,
2023-08-16 11:40:39.951000,-6.337349397590362,1.036144578313253,-7.55421686746988,1.1747394236664623,-6.068056407112201,-7.256897608828939,3.0,0.1756021756021756,5694.690265486726,-0.12318629450498193,-1.1956179709807115,0.02960200454518974,1279.120879120879,-1.0,61.6770712425887,0.17562428275448466,
2023-08-16 11:40:39.958000,-6.349397590361446,1.036144578313253,-7.542168674698796,1.150214592274678,-6.011649294911098,-7.220110361741263,3.0,0.1756021756021756,5694.690265486726,-0.09171959676009533,-1.109842083794651,0.13752112347765302,1315.018315018315,-1.0,61.6770712425887,0.17562369100826034,
2023-08-16 11:40:39.966000,-6.337349397590362,1.036144578313253,-7.518072289156627,1.155119558553035,-6.097486204782342,-7.217657878602084,3.0,0.1756021756021756,5694.690265486726,0.06036944234018958,-0.854262572111182,0.029135831245265524,1361.904761904762,-1.0,61.6770712425887,0.17562306703364322,
2023-08-16 11:40:39.974000,-6.313253012048193,1.036144578313253,-7.530120481927711,1.1771919068056407,-6.009196811771918,-7.222562844880441,3.0,0.1756021756021756,5694.690265486726,-0.048248936542160024,-0.5547462269098542,0.16584115144805095,1417.5824175824175,-1.0,61.6770712425887,0.1756224122054425,
2023-08-16 11:40:39.981000,-6.325301204819278,1.0481927710843375,-7.518072289156627,1.1060698957694666,-6.004291845493562,-7.188228080931943,3.0,0.1756021756021756,5694.690265486726,-0.2308723267874831,-0.055707709340947445,0.1362391469028612,1482.051282051282,-1.0,61.6770712425887,0.17562172796020722,
2023-08-16 11:40:39.989000,-6.337349397590362,1.0240963855421688,-7.493975903614459,1.0423053341508277,-5.99202942979767,-7.269160024524831,3.0,0.1756021756021756,5694.690265486726,-0.19975525901753902,0.21245848144047624,0.04510226676767093,1552.3809523809523,-1.0,61.6770712425887,0.17562101579067507,
2023-08-16 11:40:39.996000,-6.313253012048193,1.0120481927710845,-7.55421686746988,1.0962599632127528,-6.055793991416309,-7.266707541385653,3.0,0.1756021756021756,5694.690265486726,0.20080414894237003,0.7680205116251964,0.16654041139793727,1622.7106227106226,-1.0,61.6770712425887,0.1756202772400922,
2023-08-16 11:40:40.004000,-6.313253012048193,1.036144578313253,-7.542168674698796,1.0766400980993256,-6.055793991416309,-7.23973022685469,3.0,0.1756021756021756,5694.690265486726,0.0018646931996968547,1.2711380455684393,-0.03368102091952683,1689.3772893772893,-1.0,61.6770712425887,0.1756195138964308,
2023-08-16 11:40:40.012000,-6.337349397590362,1.0240963855421688,-7.542168674698796,1.1183323114653587,-6.043531575720417,-7.276517473942366,3.0,0.1756021756021756,5694.690265486726,-0.2104772449157968,0.8671988811840808,0.011887419148068318,1745.7875457875457,-1.0,61.6770712425887,0.17561872738653414,
2023-08-16 11:40:40.019000,-6.349397590361446,1.0240963855421688,-7.578313253012048,1.1747394236664623,-6.031269160024524,-7.288779889638258,3.0,0.1756021756021756,5694.690265486726,0.12633296427947147,0.5869121846046276,0.04160596701823889,1794.139194139194,-1.0,61.6770712425887,0.17561791937021543,
2023-08-16 11:40:40.027000,-6.325301204819278,1.0481927710843375,-7.566265060240965,1.1649294911097485,-6.019006744328633,-7.330472103004292,3.0,0.1756021756021756,5694.690265486726,-0.13763766680263342,0.5640696929083385,0.13379173707825887,1833.6996336996335,-1.0,61.6770712425887,0.1756170915343416,
2023-08-16 11:40:40.035000,-6.36144578313253,1.0481927710843375,-7.55421686746988,1.1453096259963211,-6.055793991416309,-7.274064990803188,3.0,0.1756021756021756,5694.690265486726,0.07750131111240552,0.32667093992191637,-0.17329992424683882,1868.8644688644688,-1.0,61.6770712425887,0.17561624558692684,
2023-08-16 11:40:40.042000,-6.337349397590362,1.0481927710843375,-7.602409638554217,1.1624770079705702,-6.045984058859595,-7.350091968117718,3.0,0.1756021756021756,5694.690265486726,0.15465299224986853,-0.07703513781248217,0.117242584930948,1902.5641025641025,-1.0,61.6770712425887,0.175615383251267,
2023-08-16 11:40:40.050000,-6.36144578313253,1.0602409638554218,-7.590361445783133,1.1183323114653587,-6.092581238503985,-7.244635193133047,3.0,0.1756021756021756,5694.690265486726,-0.3348289726705906,-0.5069634636676192,0.3617504807412154,1936.9963369963368,-1.0,61.6770712425887,0.17561450626013825,
2023-08-16 11:40:40.058000,-6.325301204819278,1.0481927710843375,-7.542168674698796,1.1453096259963211,-6.055793991416309,-7.288779889638258,3.0,0.1756021756021756,5694.690265486726,-0.1936950061185251,-0.9305984499737774,0.11467863178136481,1969.9633699633698,-1.0,61.6770712425887,0.17561361635008926,
2023-08-16 11:40:40.065000,-6.325301204819278,1.036144578313253,-7.530120481927711,1.1919068056407112,-5.994481912936848,-7.256897608828939,3.0,0.1756021756021756,5694.690265486726,-0.1922964862187516,-0.9237223937998958,0.1174756715809101,1997.8021978021977,-1.0,61.6770712425887,0.17561271525584995,
2023-08-16 11:40:40.073000,-6.337349397590362,1.072289156626506,-7.518072289156627,1.1453096259963211,-6.026364193746168,-7.23973022685469,3.0,0.17515817515817514,5709.125475285172,-0.16071324514888416,-0.36175048074121585,0.11549443505623197,2017.5824175824175,-1.0,61.6770712425887,0.17561180470488266,
2023-08-16 11:40:40.081000,-6.337349397590362,1.072289156626506,-7.530120481927711,1.1673819742489269,-6.05334150827713,-7.25444512568976,3.0,0.1756021756021756,5694.690265486726,-0.1305285239787885,-0.5640696929083385,-0.08670823378590982,2031.5018315018315,-1.0,61.6770712425887,0.17561088640155312,
2023-08-16 11:40:40.088000,-6.313253012048193,1.0602409638554218,-7.530120481927711,1.1575720416922133,-6.001839362354383,-7.261802575107295,3.0,0.1756021756021756,5694.690265486726,-0.14521298292640342,-0.08111415418681839,-0.07272303478818254,2033.6996336996335,-1.0,61.6770712425887,0.17560996199032258,
2023-08-16 11:40:40.096000,-6.313253012048193,1.072289156626506,-7.542168674698796,1.1820968730839976,-6.009196811771918,-7.2029429797670135,3.0,0.1756021756021756,5694.690265486726,-0.1139793718314785,0.12493444437969795,-0.10314084260823944,2024.9084249084249,-1.0,61.6770712425887,0.17560903308218134,
2023-08-16 11:40:40.104000,-6.349397590361446,1.0481927710843375,-7.530120481927711,1.1673819742489269,-6.023911710606989,-7.261802575107295,3.0,0.1756021756021756,5694.690265486726,-0.21945108093933857,0.45277081755142445,0.020977798496590917,2006.5934065934064,-1.0,61.6770712425887,0.17560810126014734,
2023-08-16 11:40:40.111000,-6.301204819277109,1.036144578313253,-7.55421686746988,1.1771919068056407,-6.058246474555487,-7.261802575107295,3.0,0.1756021756021756,5694.690265486726,-0.1100168987821231,0.2537148184837722,-0.27061360060602513,1980.9523809523807,-1.0,61.6770712425887,0.1756071680744728,
2023-08-16 11:40:40.119000,-6.325301204819278,1.0602409638554218,-7.578313253012048,1.2164316370324952,-6.021459227467811,-7.264255058246474,3.0,0.1756021756021756,5694.690265486726,-0.032865217644660105,0.43622166540411444,-0.03880892721869361,1947.2527472527472,-1.0,61.6770712425887,0.17560623503812395,
2023-08-16 11:40:40.127000,-6.313253012048193,1.0481927710843375,-7.578313253012048,1.1698344573881054,-6.019006744328633,-7.308399754751686,3.0,0.1756021756021756,5694.690265486726,-0.2312219567624256,0.9046092885030005,0.053027212866383,1907.6923076923076,-1.0,61.6770712425887,0.17560530362255178,
2023-08-16 11:40:40.134000,-6.337349397590362,1.0481927710843375,-7.55421686746988,1.137952176578786,-6.019006744328633,-7.274064990803188,3.0,0.1756021756021756,5694.690265486726,0.05990326904026623,0.6503117533943241,-0.10127614940854258,1863.7362637362637,-1.0,61.6770712425887,0.175604375253771,
2023-08-16 11:40:40.142000,-6.337349397590362,1.0481927710843375,-7.566265060240965,1.155119558553035,-6.05334150827713,-7.315757204169221,3.0,0.1756021756021756,5694.690265486726,0.16514189149816463,0.582017364955422,0.11409591515645932,1821.9780219780218,-1.0,61.6770712425887,0.1756034513087614,
2023-08-16 11:40:40.150000,-6.301204819277109,1.072289156626506,-7.602409638554217,1.1624770079705702,-6.016554261189454,-7.256897608828939,3.0,0.1756021756021756,5694.690265486726,-0.06456500203950837,0.23728220966144126,0.1129304819066488,1780.2197802197802,-1.0,61.6770712425887,0.1756025331122035,
2023-08-16 11:40:40.157000,-6.325301204819278,1.0602409638554218,-7.578313253012048,1.1453096259963211,-6.03862660944206,-7.247087676272225,3.0,0.1756021756021756,5694.690265486726,0.042188683643144376,0.2336693665870284,0.14229939980187642,1739.9267399267399,-1.0,61.6770712425887,0.17560162193355908,
2023-08-16 11:40:40.165000,-6.325301204819278,1.072289156626506,-7.578313253012048,1.1747394236664623,-6.063151440833844,-7.251992642550582,3.0,0.1756021756021756,5694.690265486726,-0.10990035545714054,-0.16642386807295556,0.18600314666977427,1699.6336996336995,-1.0,61.6770712425887,0.17560071898450558,
2023-08-16 11:40:40.173000,-6.349397590361446,1.036144578313253,-7.566265060240965,1.1477621091354997,-6.0410790925812385,-7.283874923359901,3.0,0.1756021756021756,5694.690265486726,0.11840801818075895,-0.21443971796515393,-0.02948546122020847,1660.07326007326,-1.0,61.6770712425887,0.17559982541672764,
2023-08-16 11:40:40.180000,-6.349397590361446,1.0602409638554218,-7.530120481927711,1.1820968730839976,-6.036174126302881,-7.247087676272225,3.0,0.1756021756021756,5694.690265486726,-0.1272653108793199,-0.21175922149058948,-0.13519025697803153,1621.245421245421,-1.0,61.6770712425887,0.17559894232007336,
2023-08-16 11:40:40.188000,-6.349397590361446,1.0481927710843375,-7.566265060240965,1.1771919068056407,-6.141630901287553,-7.308399754751686,3.0,0.1756021756021756,5694.690265486726,0.01083852922323862,-0.16246139502360019,-0.10465590583299335,1583.150183150183,-1.0,61.6770712425887,0.17559807072107284,
2023-08-16 11:40:40.196000,-6.337349397590362,1.0240963855421688,-7.55421686746988,1.103617412630288,-6.068056407112201,-7.217657878602084,3.0,0.1756021756021756,5694.690265486726,0.011071615873200292,-0.007342229473806583,-0.2884447293281278,1547.2527472527472,-1.0,61.6770712425887,0.17559721158182054,
2023-08-16 11:40:40.203000,-6.337349397590362,1.036144578313253,-7.518072289156627,1.1526670754138564,-6.080318822808093,-7.301042305334151,3.0,0.1756021756021756,5694.690265486726,-0.20325155876697107,-0.3279529164967073,-0.17877746052094853,1515.018315018315,-1.0,61.6770712425887,0.17559636579921872,
2023-08-16 11:40:40.211000,-6.325301204819278,1.0481927710843375,-7.530120481927711,1.1232372777437154,-6.119558553034947,-7.256897608828939,3.0,0.1756021756021756,5694.690265486726,-0.18507080006992585,-0.26385408775712405,-0.08484354058621296,1486.4468864468863,-1.0,61.6770712425887,0.17559553420457535,
2023-08-16 11:40:40.219000,-6.349397590361446,1.036144578313253,-7.55421686746988,1.1870018393623543,-5.962599632127529,-7.28632740649908,3.0,0.1756021756021756,5694.690265486726,-0.2605908746576537,-0.16863819124759666,-0.11432900180642144,1463.7362637362637,-1.0,61.6770712425887,0.1755947175635512,
2023-08-16 11:40:40.226000,-6.337349397590362,1.0481927710843375,-7.542168674698796,1.1820968730839976,-6.048436541998774,-7.27161250766401,3.0,0.1756021756021756,5694.690265486726,-0.04521881009265133,-0.24357554921041857,-0.004079016374337087,1446.153846153846,-1.0,61.6770712425887,0.17559391657644555,
2023-08-16 11:40:40.234000,-6.349397590361446,1.0481927710843375,-7.55421686746988,1.155119558553035,-6.058246474555487,-7.278969957081545,3.0,0.1756021756021756,5694.690265486726,0.0029135831245261186,-0.25756074820814673,0.1786609171959677,1436.6300366300366,-1.0,61.6770712425887,0.17559313201755994,
2023-08-16 11:40:40.242000,-6.337349397590362,1.0602409638554218,-7.518072289156627,1.1747394236664623,-5.999386879215205,-7.229920294297976,3.0,0.1756021756021756,5694.690265486726,0.14008507662723618,-0.48109084552182324,0.054425732766155636,1433.6996336996335,-1.0,61.6770712425887,0.17559236457699856,
2023-08-16 11:40:40.249000,-6.337349397590362,1.0602409638554218,-7.506024096385542,1.1281422440220723,-6.050889025137952,-7.269160024524831,3.0,0.1756021756021756,5694.690265486726,0.001398519899773509,-0.031117067769944086,0.19066487966901685,1436.6300366300366,-1.0,61.6770712425887,0.17559161473428528,
2023-08-16 11:40:40.257000,-6.325301204819278,1.0481927710843375,-7.542168674698796,1.2458614347026364,-6.036174126302881,-7.249540159411404,3.0,0.1756021756021756,5694.690265486726,0.20080414894237003,0.04615115669249976,-0.03939164384359866,1443.2234432234432,-1.0,61.6770712425887,0.17559088290897457,
2023-08-16 11:40:40.265000,-6.325301204819278,1.036144578313253,-7.542168674698796,1.1477621091354997,-6.033721643163703,-7.298589822194972,3.0,0.1756021756021756,5694.690265486726,0.07936600431210238,-0.30580968475030673,-0.22108268748907417,1453.4798534798533,-1.0,61.6770712425887,0.1755901694622362,
2023-08-16 11:40:40.272000,-6.313253012048193,1.0481927710843375,-7.566265060240965,1.120784794604537,-6.068056407112201,-7.229920294297976,3.0,0.1756021756021756,5694.690265486726,0.06176796223996309,0.09125342346017198,-0.23355282326204754,1463.003663003663,-1.0,61.6770712425887,0.17558947469868944,
2023-08-16 11:40:40.280000,-6.301204819277109,1.036144578313253,-7.542168674698796,1.120784794604537,-6.0778663396689145,-7.234825260576333,3.0,0.1756021756021756,5694.690265486726,0.0451022667676705,-0.10826874890740709,-0.06374919876464077,1472.5274725274724,-1.0,61.6770712425887,0.17558879886847045,
2023-08-16 11:40:40.288000,-6.325301204819278,1.036144578313253,-7.542168674698796,1.1870018393623543,-6.031269160024524,-7.237277743715511,3.0,0.1756021756021756,5694.690265486726,-0.20127032224229335,-0.49321135131985283,-0.1545364489248877,1479.120879120879,-1.0,61.6770712425887,0.17558814216951185,
2023-08-16 11:40:40.295000,-6.349397590361446,1.036144578313253,-7.55421686746988,1.1281422440220723,-6.031269160024524,-7.264255058246474,3.0,0.1756021756021756,5694.690265486726,-0.20080414894237003,-0.016432608822329185,0.014218285647689385,1485.7142857142856,-1.0,61.6770712425887,0.17558750475001536,
2023-08-16 11:40:40.303000,-6.349397590361446,1.0240963855421688,-7.530120481927711,1.1183323114653587,-6.068056407112201,-7.200490496627835,3.0,0.1756021756021756,5694.690265486726,0.21234193811549365,-0.016432608822329185,-0.16770584464774782,1489.3772893772893,-1.0,61.6770712425887,0.17558688671109643,
2023-08-16 11:40:40.311000,-6.373493975903615,1.0481927710843375,-7.55421686746988,1.103617412630288,-6.058246474555487,-7.249540159411404,3.0,0.1756021756021756,5694.690265486726,-0.13857001340248185,-0.260357788007692,0.18437154012003953,1493.7728937728937,-1.0,61.6770712425887,0.17558628810957755,
2023-08-16 11:40:40.318000,-6.36144578313253,1.036144578313253,-7.542168674698796,1.1453096259963211,-6.023911710606989,-7.256897608828939,3.0,0.1756021756021756,5694.690265486726,-0.13775421012761427,-0.41256337043295777,0.03193287104481081,1495.970695970696,-1.0,61.6770712425887,0.17558570896091108,
2023-08-16 11:40:40.326000,-6.325301204819278,1.0240963855421688,-7.542168674698796,1.1870018393623543,-5.962599632127529,-7.23973022685469,3.0,0.1756021756021756,5694.690265486726,-0.015616805547461593,-0.4718839228483181,0.3981119981353067,1495.2380952380952,-1.0,61.6770712425887,0.1755851492422047,
2023-08-16 11:40:40.334000,-6.349397590361446,1.036144578313253,-7.542168674698796,1.1453096259963211,-6.0999386879215205,-7.283874923359901,3.0,0.1756021756021756,5694.690265486726,0.02960200454518974,-0.46687255987413345,0.3331973661208554,1494.5054945054944,-1.0,61.6770712425887,0.17558460889532934,
2023-08-16 11:40:40.341000,-6.337349397590362,1.0240963855421688,-7.530120481927711,1.1109748620478233,-6.080318822808093,-7.259350091968117,3.0,0.1756021756021756,5694.690265486726,0.03041780782005733,-0.4631431734747397,0.33179884622108274,1493.040293040293,-1.0,61.6770712425887,0.17558408783008558,
2023-08-16 11:40:40.349000,-6.325301204819278,1.0240963855421688,-7.518072289156627,1.1428571428571428,-6.068056407112201,-7.225015328019619,3.0,0.1756021756021756,5694.690265486726,-0.1681720179476716,-0.77932521414836,0.037760037293863916,1489.3772893772893,-1.0,61.6770712425887,0.17558358592740475,
2023-08-16 11:40:40.356000,-6.337349397590362,1.0602409638554218,-7.506024096385542,1.150214592274678,-6.065603923973022,-7.261802575107295,3.0,0.1756021756021756,5694.690265486726,-0.10791911893246285,-0.6050929433016727,0.3283025464716507,1483.5164835164835,-1.0,61.6770712425887,0.17558310304256244,
2023-08-16 11:40:40.364000,-6.337349397590362,1.036144578313253,-7.518072289156627,1.150214592274678,-6.004291845493562,-7.2323727774371545,3.0,0.1756021756021756,5694.690265486726,-0.09125342346017198,-0.35242701474272986,0.2517335819590932,1473.9926739926739,-1.0,61.6770712425887,0.17558263900838136,
2023-08-16 11:40:40.372000,-6.337349397590362,1.0240963855421688,-7.530120481927711,1.1575720416922133,-6.00674432863274,-7.244635193133047,3.0,0.1756021756021756,5694.690265486726,-0.1199230814055133,-0.3786492628634701,0.1879843831944524,1463.003663003663,-1.0,61.6770712425887,0.17558219363840147,
2023-08-16 11:40:40.379000,-6.325301204819278,1.0481927710843375,-7.542168674698796,1.1354996934396075,-6.087676272225628,-7.215205395462906,3.0,0.1756021756021756,5694.690265486726,0.0340306508944702,-0.26793310413146026,-0.057572402540644295,1447.6190476190475,-1.0,61.6770712425887,0.17558176672999587,
2023-08-16 11:40:40.387000,-6.337349397590362,1.036144578313253,-7.518072289156627,1.1232372777437154,-5.994481912936848,-7.247087676272225,3.0,0.1756021756021756,5694.690265486726,0.0802983509119508,0.07155760153837244,0.15884855194918732,1432.9670329670328,-1.0,61.6770712425887,0.17558135806741165,
2023-08-16 11:40:40.395000,-6.36144578313253,1.036144578313253,-7.530120481927711,1.125689760882894,-6.048436541998774,-7.23973022685469,3.0,0.1756021756021756,5694.690265486726,-0.28692966610337306,0.04207214031816354,0.07983217761202745,1416.8498168498168,-1.0,61.6770712425887,0.17558096742471563,
2023-08-16 11:40:40.402000,-6.36144578313253,1.036144578313253,-7.542168674698796,1.1232372777437154,-6.014101778050276,-7.259350091968117,3.0,0.1756021756021756,5694.690265486726,0.3561564011421253,0.1637433715983911,0.35335936134257917,1400.7326007326005,-1.0,61.6770712425887,0.17558059456862615,
2023-08-16 11:40:40.410000,-6.36144578313253,1.036144578313253,-7.542168674698796,1.120784794604537,-6.087676272225628,-7.264255058246474,3.0,0.1756021756021756,5694.690265486726,-0.1343744537031648,0.00967309597342852,0.21071033156575977,1383.150183150183,-1.0,61.6770712425887,0.17558023926121344,
2023-08-16 11:40:40.418000,-6.337349397590362,1.036144578313253,-7.542168674698796,1.1453096259963211,-6.033721643163703,-7.259350091968117,3.0,0.1756021756021756,5694.690265486726,0.12586679097954637,0.07167414486335329,0.08635860381096688,1366.3003663003662,-1.0,61.6770712425887,0.17557990126245127,
2023-08-16 11:40:40.425000,-6.337349397590362,1.0120481927710845,-7.55421686746988,1.137952176578786,-6.05334150827713,-7.298589822194972,3.0,0.1756021756021756,5694.690265486726,-0.04358720354291789,0.08868947031058838,-0.12901346075403547,1350.9157509157508,-1.0,61.6770712425887,0.1755795803326057,
2023-08-16 11:40:40.433000,-6.337349397590362,1.0481927710843375,-7.578313253012048,1.1060698957694666,-6.139178418148375,-7.293684855916615,3.0,0.1756021756021756,5694.690265486726,-0.09195268341005701,-0.18542043004486836,0.2840160829788474,1338.4615384615383,-1.0,61.6770712425887,0.17557927623444636,
2023-08-16 11:40:40.441000,-6.36144578313253,1.036144578313253,-7.542168674698796,1.120784794604537,-6.060698957694665,-7.20784794604537,3.0,0.1756021756021756,5694.690265486726,0.03239904434473502,-0.1823903035953614,0.1299458073538839,1330.4029304029302,-1.0,61.6770712425887,0.17557898873526812,
2023-08-16 11:40:40.448000,-6.36144578313253,1.0481927710843375,-7.55421686746988,1.1526670754138564,-6.095033721643164,-7.2029429797670135,3.0,0.1756021756021756,5694.690265486726,-0.16747275799778483,-0.3034788182506848,0.08309539071149695,1323.076923076923,-1.0,61.6770712425887,0.17557871760871285,
2023-08-16 11:40:40.456000,-6.337349397590362,1.0481927710843375,-7.542168674698796,1.1722869405272838,-6.08522378908645,-7.278969957081545,3.0,0.1756021756021756,5694.690265486726,-0.19637550259308956,-0.5602237631839639,0.08309539071149695,1315.7509157509157,-1.0,61.6770712425887,0.1755784626363819,
2023-08-16 11:40:40.464000,-6.349397590361446,1.072289156626506,-7.542168674698796,1.1354996934396075,-6.03862660944206,-7.234825260576333,3.0,0.1756021756021756,5694.690265486726,-0.1616455917487326,-0.37049123011479596,0.3575549210418975,1308.4249084249084,-1.0,61.6770712425887,0.17557822360923173,
2023-08-16 11:40:40.471000,-6.349397590361446,1.072289156626506,-7.506024096385542,1.184549356223176,-6.031269160024524,-7.27161250766401,3.0,0.1756021756021756,5694.690265486726,-0.15896509527416816,-0.3359944059204007,0.20278538546704727,1299.6336996336995,-1.0,61.6770712425887,0.17557800032874707,
2023-08-16 11:40:40.479000,-6.349397590361446,1.0602409638554218,-7.542168674698796,1.1870018393623543,-6.048436541998774,-7.229920294297976,3.0,0.1756021756021756,5694.690265486726,0.19252957286871328,-0.4414661150282625,0.32364081347240814,1290.10989010989,-1.0,61.6770712425887,0.17557779260788828,
2023-08-16 11:40:40.487000,-6.325301204819278,1.0602409638554218,-7.542168674698796,1.1820968730839976,-6.009196811771918,-7.225015328019619,3.0,0.1756021756021756,5694.690265486726,-0.038575840568731506,-0.07085834158848568,0.27539187693024897,1282.7838827838827,-1.0,61.6770712425887,0.17557760027180971,
2023-08-16 11:40:40.494000,-6.349397590361446,1.0602409638554218,-7.518072289156627,1.1698344573881054,-6.0410790925812385,-7.23973022685469,3.0,0.1756021756021756,5694.690265486726,-0.2518501252840736,0.04113979371831512,0.10372355923314493,1278.3882783882782,-1.0,61.6770712425887,0.17557742315834884,
2023-08-16 11:40:40.502000,-6.337349397590362,1.0602409638554218,-7.530120481927711,1.2041692213366033,-6.045984058859595,-7.215205395462906,3.0,0.1756021756021756,5694.690265486726,-0.18903327311928123,0.25802692150807005,0.11840801818075852,1273.9926739926739,-1.0,61.6770712425887,0.17557726111828845,
2023-08-16 11:40:40.510000,-6.337349397590362,1.0602409638554218,-7.542168674698796,1.1820968730839976,-6.060698957694665,-7.276517473942366,3.0,0.1756021756021756,5694.690265486726,-0.15873200862420647,-0.10826874890740709,0.22224812073888472,1267.3992673992673,-1.0,61.6770712425887,0.1755771140153929,
2023-08-16 11:40:40.517000,-6.36144578313253,1.0602409638554218,-7.530120481927711,1.1919068056407112,-6.023911710606989,-7.283874923359901,3.0,0.1756021756021756,5694.690265486726,-0.08064798088689504,0.0017481498747160184,0.15931472524911153,1260.8058608058607,-1.0,61.6770712425887,0.1755769817262248,
2023-08-16 11:40:40.525000,-6.36144578313253,1.036144578313253,-7.542168674698796,1.179644389944819,-6.060698957694665,-7.274064990803188,3.0,0.17515817515817514,5709.125475285172,-0.2168871277897567,-0.011188159198181129,0.05104597634170487,1253.4798534798533,-1.0,61.6770712425887,0.1755768641397475,
2023-08-16 11:40:40.533000,-6.349397590361446,1.0602409638554218,-7.542168674698796,1.1771919068056407,-6.048436541998774,-7.229920294297976,3.0,0.17515817515817514,5709.125475285172,0.12190431793019099,-0.009323465998484274,0.0961482431093758,1244.6886446886447,-1.0,61.6770712425887,0.17557676100742722,
2023-08-16 11:40:40.540000,-6.349397590361446,1.0602409638554218,-7.55421686746988,1.213979153893317,-6.097486204782342,-7.27161250766401,3.0,0.1756021756021756,5694.690265486726,-0.39799545481032544,-0.09941145620884616,0.017364955422178044,1236.6300366300366,-1.0,61.6770712425887,0.17557667192055718,
2023-08-16 11:40:40.548000,-6.349397590361446,1.0602409638554218,-7.566265060240965,1.1722869405272838,-6.060698957694665,-7.296137339055794,3.0,0.1756021756021756,5694.690265486726,0.16863819124759666,0.3431035487442456,-0.21315774139036167,1230.7692307692307,-1.0,61.6770712425887,0.1755765965956264,
2023-08-16 11:40:40.556000,-6.325301204819278,1.036144578313253,-7.530120481927711,1.179644389944819,-5.999386879215205,-7.242182709993869,3.0,0.17515817515817514,5709.125475285172,-0.10756948895752033,-0.3609346774663483,-0.13507371365305068,1228.5714285714284,-1.0,61.6770712425887,0.17557653489316336,
2023-08-16 11:40:40.563000,-6.337349397590362,1.036144578313253,-7.530120481927711,1.1600245248313916,-6.08522378908645,-7.269160024524831,3.0,0.1756021756021756,5694.690265486726,0.14078433657712294,-0.6619660858924303,0.26198939455742676,1227.8388278388277,-1.0,61.6770712425887,0.1755764865280117,
2023-08-16 11:40:40.571000,-6.337349397590362,1.0602409638554218,-7.542168674698796,1.231146535867566,-5.987124463519313,-7.256897608828939,3.0,0.1756021756021756,5694.690265486726,0.07831711438727311,-0.7761785443738705,0.18332265019521027,1231.5018315018315,-1.0,61.6770712425887,0.1755764511949408,
2023-08-16 11:40:40.579000,-6.349397590361446,1.0602409638554218,-7.518072289156627,1.1820968730839976,-6.011649294911098,-7.242182709993869,3.0,0.1756021756021756,5694.690265486726,0.04661732999242484,-0.6919177204125626,0.026921508070625294,1236.6300366300366,-1.0,61.6770712425887,0.17557642872567075,
2023-08-16 11:40:40.586000,-6.301204819277109,1.0481927710843375,-7.530120481927711,1.1624770079705702,-5.999386879215205,-7.20784794604537,3.0,0.1756021756021756,5694.690265486726,0.09405046325971728,0.04661732999242484,-0.11199813530680036,1241.7582417582416,-1.0,61.6770712425887,0.1755764189479404,
2023-08-16 11:40:40.594000,-6.349397590361446,1.072289156626506,-7.506024096385542,1.0938074800735744,-6.072961373390558,-7.234825260576333,3.0,0.1756021756021756,5694.690265486726,0.2938057222772563,0.29333954897733294,0.0713245148884099,1246.8864468864467,-1.0,61.6770712425887,0.1755764215445199,
2023-08-16 11:40:40.602000,-6.36144578313253,1.072289156626506,-7.566265060240965,1.1624770079705702,-6.055793991416309,-7.27161250766401,3.0,0.1756021756021756,5694.690265486726,0.19987180234252158,0.2631548278072373,-0.02330866499621242,1250.5494505494505,-1.0,61.6770712425887,0.17557643607132278,
2023-08-16 11:40:40.609000,-6.349397590361446,1.072289156626506,-7.566265060240965,1.184549356223176,-6.068056407112201,-7.217657878602084,3.0,0.1756021756021756,5694.690265486726,0.13728803682769092,-0.1480100227259487,-0.039974360468504146,1252.7472527472526,-1.0,61.6770712425887,0.17557646224187315,
2023-08-16 11:40:40.617000,-6.337349397590362,1.0602409638554218,-7.578313253012048,1.1722869405272838,-6.026364193746168,-7.278969957081545,3.0,0.1756021756021756,5694.690265486726,0.13822038342753934,-0.14649495950119434,-0.03974127381854204,1256.4102564102564,-1.0,61.6770712425887,0.17557649976481826,
2023-08-16 11:40:40.625000,-6.349397590361446,1.0481927710843375,-7.55421686746988,1.2164316370324952,-6.126916002452483,-7.269160024524831,3.0,0.1756021756021756,5694.690265486726,-0.27527533360526857,-0.38552531903735165,0.37328826991434083,1259.3406593406592,-1.0,61.6770712425887,0.17557654821319546,
2023-08-16 11:40:40.632000,-6.337349397590362,1.0481927710843375,-7.542168674698796,1.1894543225015328,-6.0705088902513795,-7.247087676272225,3.0,0.1756021756021756,5694.690265486726,0.1392692733523686,0.017714585397121858,0.03414719421945104,1262.2710622710622,-1.0,61.6770712425887,0.17557660730942057,
2023-08-16 11:40:40.640000,-6.36144578313253,1.0240963855421688,-7.566265060240965,1.1673819742489269,-6.0999386879215205,-7.234825260576333,3.0,0.1756021756021756,5694.690265486726,0.12388555445486868,-0.012237049123012128,0.10990035545714141,1264.4688644688645,-1.0,61.6770712425887,0.175576676902135,
2023-08-16 11:40:40.648000,-6.36144578313253,1.036144578313253,-7.518072289156627,1.1428571428571428,-6.0999386879215205,-7.251992642550582,3.0,0.1756021756021756,5694.690265486726,-0.02925237457024723,-0.2098945282908926,0.10803566225744411,1270.3296703296703,-1.0,61.6770712425887,0.1755767568157379,
2023-08-16 11:40:40.655000,-6.36144578313253,1.0481927710843375,-7.542168674698796,1.1526670754138564,-6.05334150827713,-7.264255058246474,3.0,0.1756021756021756,5694.690265486726,-0.10395664588310746,-0.4521881009265203,0.45836489715051587,1273.260073260073,-1.0,61.6770712425887,0.1755768467105823,
2023-08-16 11:40:40.663000,-6.36144578313253,1.0240963855421688,-7.530120481927711,1.155119558553035,-6.072961373390558,-7.227467811158798,3.0,0.1756021756021756,5694.690265486726,-0.16316065497348695,-0.5849309480799482,0.3627993706660451,1276.1904761904761,-1.0,61.6770712425887,0.17557694624117914,
2023-08-16 11:40:40.671000,-6.313253012048193,1.036144578313253,-7.518072289156627,1.1526670754138564,-6.058246474555487,-7.249540159411404,3.0,0.1756021756021756,5694.690265486726,-0.11596060835615618,-0.45766563720062997,0.08519317056115591,1277.6556776556777,-1.0,61.6770712425887,0.17557705518302877,
2023-08-16 11:40:40.678000,-6.337349397590362,1.0481927710843375,-7.506024096385542,1.1820968730839976,-6.060698957694665,-7.198038013488657,3.0,0.1756021756021756,5694.690265486726,-0.19217994289377077,-0.4690868830487728,0.13006235067886474,1278.3882783882782,-1.0,61.6770712425887,0.17557717328289715,
2023-08-16 11:40:40.686000,-6.325301204819278,1.0481927710843375,-7.506024096385542,1.2017167381974247,-6.031269160024524,-7.210300429184549,3.0,0.17515817515817514,5709.125475285172,-0.20698094516636475,-0.2807528698793783,0.30033214847619616,1276.1904761904761,-1.0,61.6770712425887,0.17557730025854965,
2023-08-16 11:40:40.694000,-6.349397590361446,1.036144578313253,-7.518072289156627,1.1747394236664623,-6.087676272225628,-7.1735131820968725,3.0,0.1756021756021756,5694.690265486726,-0.2044169920167829,0.21001107161587346,0.5265427422644366,1274.7252747252746,-1.0,61.6770712425887,0.17557743564936165,
2023-08-16 11:40:40.701000,-6.36144578313253,1.0602409638554218,-7.518072289156627,1.1404046597179645,-6.036174126302881,-7.323114653586757,3.0,0.1756021756021756,5694.690265486726,0.1501078025756072,0.07225686148825747,0.002563953149583175,1273.260073260073,-1.0,61.6770712425887,0.17557757894381867,
2023-08-16 11:40:40.709000,-6.349397590361446,1.0481927710843375,-7.542168674698796,1.1183323114653587,-6.03862660944206,-7.222562844880441,3.0,0.1756021756021756,5694.690265486726,0.04230522696812521,-0.3553405978672577,0.2308723267874831,1272.5274725274724,-1.0,61.6770712425887,0.17557772973871633,
2023-08-16 11:40:40.717000,-6.36144578313253,1.0481927710843375,-7.518072289156627,1.1919068056407112,-6.090128755364806,-7.220110361741263,3.0,0.1756021756021756,5694.690265486726,-0.0961482431093758,-0.16828856127265243,0.2899597925528813,1273.260073260073,-1.0,61.6770712425887,0.17557788760067547,
2023-08-16 11:40:40.724000,-6.349397590361446,1.036144578313253,-7.530120481927711,1.1624770079705702,-6.092581238503985,-7.200490496627835,3.0,0.1756021756021756,5694.690265486726,-0.06456500203950837,-0.12027271138045581,0.2101276149408543,1273.260073260073,-1.0,61.6770712425887,0.17557805206660124,
2023-08-16 11:40:40.732000,-6.337349397590362,1.0240963855421688,-7.518072289156627,1.1354996934396075,-6.055793991416309,-7.171060698957694,3.0,0.1756021756021756,5694.690265486726,0.07482081463784107,0.07948254763708494,0.1489423693257967,1271.062271062271,-1.0,61.6770712425887,0.17557822264434308,
2023-08-16 11:40:40.739000,-6.349397590361446,1.0481927710843375,-7.518072289156627,1.2360515021459226,-6.117106069895769,-7.256897608828939,3.0,0.1756021756021756,5694.690265486726,-0.06223413553988644,-0.08880601363556921,0.23821455626129012,1268.8644688644688,-1.0,61.6770712425887,0.1755783988135553,
2023-08-16 11:40:40.747000,-6.337349397590362,1.0481927710843375,-7.518072289156627,1.2164316370324952,-6.097486204782342,-7.229920294297976,3.0,0.1756021756021756,5694.690265486726,-0.029368917895228067,-0.027271138045567803,0.17551424742147903,1266.6666666666665,-1.0,61.6770712425887,0.17557858002676113,
2023-08-16 11:40:40.755000,-6.325301204819278,1.0602409638554218,-7.518072289156627,1.1649294911097485,-6.050889025137952,-7.1931330472103,3.0,0.1756021756021756,5694.690265486726,-0.07540353126274699,0.18693549326962272,0.17446535749664935,1265.9340659340658,-1.0,61.6770712425887,0.17557876557186808,
2023-08-16 11:40:40.762000,-6.337349397590362,1.0481927710843375,-7.530120481927711,1.120784794604537,-6.119558553034947,-7.251992642550582,3.0,0.1756021756021756,5694.690265486726,-0.044752636792727986,0.4775945457723912,-0.012586679097954637,1265.9340659340658,-1.0,61.6770712425887,0.17557895473276183,
2023-08-16 11:40:40.770000,-6.385542168674699,1.036144578313253,-7.55421686746988,1.1870018393623543,-6.095033721643164,-7.281422440220723,3.0,0.1756021756021756,5694.690265486726,-0.05815511916555022,0.3389079890449268,0.1545364489248877,1263.003663003663,-1.0,61.6770712425887,0.17557914691858112,
2023-08-16 11:40:40.778000,-6.385542168674699,1.036144578313253,-7.566265060240965,1.1428571428571428,-6.109748620478234,-7.222562844880441,3.0,0.1756021756021756,5694.690265486726,-0.14882582600081629,0.23075578346250228,0.39752928151040123,1262.2710622710622,-1.0,61.6770712425887,0.1755793415164739,
2023-08-16 11:40:40.785000,-6.373493975903615,1.0602409638554218,-7.55421686746988,1.1305947271612506,-6.104843654199877,-7.264255058246474,3.0,0.1756021756021756,5694.690265486726,0.02330866499621242,-0.16630732474797474,0.5605733931589069,1260.07326007326,-1.0,61.6770712425887,0.17557953789383243,
2023-08-16 11:40:40.793000,-6.36144578313253,1.0602409638554218,-7.542168674698796,1.1158798283261802,-6.090128755364806,-7.249540159411404,3.0,0.1756021756021756,5694.690265486726,-0.3713070333896618,-0.544840044286464,0.5835324281801759,1256.4102564102564,-1.0,61.6770712425887,0.17557973540070443,
2023-08-16 11:40:40.801000,-6.337349397590362,1.0481927710843375,-7.530120481927711,1.20907418761496,-6.03862660944206,-7.225015328019619,3.0,0.1756021756021756,5694.690265486726,-0.1064040557077085,-0.7983217761202728,0.3772507429636966,1250.5494505494505,-1.0,61.6770712425887,0.17557993337236777,
2023-08-16 11:40:40.808000,-6.325301204819278,1.0602409638554218,-7.542168674698796,1.231146535867566,-5.994481912936848,-7.217657878602084,3.0,0.1756021756021756,5694.690265486726,0.3066254880251726,-0.45766563720062997,0.43284190897966324,1245.4212454212454,-1.0,61.6770712425887,0.1755801311320584,
2023-08-16 11:40:40.816000,-6.325301204819278,1.0963855421686748,-7.566265060240965,1.1747394236664623,-6.0410790925812385,-7.1808706315144075,3.0,0.17515817515817514,5709.125475285172,-0.30522696812540084,-0.19264611619369584,0.6419206339956878,1238.8278388278388,-1.0,61.6770712425887,0.1755803279938368,
2023-08-16 11:40:40.824000,-6.337349397590362,1.0963855421686748,-7.55421686746988,1.2458614347026364,-6.080318822808093,-7.205395462906192,3.0,0.1756021756021756,5694.690265486726,-0.2856476895285821,-0.28238447642911174,0.42165374978148124,1230.7692307692307,-1.0,61.6770712425887,0.17558052311628555,
2023-08-16 11:40:40.831000,-6.337349397590362,1.072289156626506,-7.55421686746988,1.1158798283261802,-6.048436541998774,-7.298589822194972,3.0,0.1756021756021756,5694.690265486726,0.0973136763591859,-0.43354116892954997,0.4317930190548335,1224.1758241758241,-1.0,61.6770712425887,0.17558071563302843,
2023-08-16 11:40:40.839000,-6.373493975903615,1.072289156626506,-7.542168674698796,1.2213366033108521,-6.0410790925812385,-7.234825260576333,3.0,0.17515817515817514,5709.125475285172,-0.04230522696812521,-0.4119806538080536,0.2879785560282032,1216.8498168498168,-1.0,61.6770712425887,0.17558090481486277,
2023-08-16 11:40:40.847000,-6.337349397590362,1.0602409638554218,-7.530120481927711,1.2017167381974247,-6.072961373390558,-7.247087676272225,3.0,0.1756021756021756,5694.690265486726,-0.13460754035312647,-0.6032282501019759,0.2865800361284305,1213.1868131868132,-1.0,61.6770712425887,0.17558108992355131,
2023-08-16 11:40:40.854000,-6.349397590361446,1.072289156626506,-7.518072289156627,1.1649294911097485,-6.0410790925812385,-7.249540159411404,3.0,0.1756021756021756,5694.690265486726,-0.04300448691801197,-0.609638132975934,0.4364547520540761,1211.7216117216117,1034.088134765625,58.02213368747233,0.17558127018326633,
2023-08-16 11:40:40.862000,-6.36144578313253,1.072289156626506,-7.530120481927711,1.184549356223176,-6.055793991416309,-7.188228080931943,3.0,0.1756021756021756,5694.690265486726,-0.10337392925820155,-0.6025289901520892,0.08064798088689461,1212.4542124542124,-1.0,58.02213368747233,0.17558144481511892,
2023-08-16 11:40:40.870000,-6.373493975903615,1.0602409638554218,-7.530120481927711,1.2335990190067443,-6.092581238503985,-7.2323727774371545,3.0,0.1756021756021756,5694.690265486726,0.01957927859681871,-0.8731425907581138,0.491929374745061,1218.3150183150183,-1.0,58.02213368747233,0.17558161305056336,
2023-08-16 11:40:40.877000,-6.36144578313253,1.072289156626506,-7.493975903614459,1.1771919068056407,-6.090128755364806,-7.198038013488657,3.0,0.1756021756021756,5694.690265486726,-0.08717440708583403,-1.1135714701940447,0.4111648505331856,1228.5714285714284,-1.0,58.02213368747233,0.17558177413428405,
2023-08-16 11:40:40.885000,-6.337349397590362,1.072289156626506,-7.493975903614459,1.1919068056407112,-6.0778663396689145,-7.2323727774371545,3.0,0.1756021756021756,5694.690265486726,-0.4675718198240202,-0.8151040149175462,0.10267466930831566,1244.6886446886447,-1.0,58.02213368747233,0.17558192732709654,
2023-08-16 11:40:40.893000,-6.373493975903615,1.0963855421686748,-7.530120481927711,1.1992642550582464,-6.104843654199877,-7.2323727774371545,3.0,0.1756021756021756,5694.690265486726,-0.46186119689994704,-0.8086941320435863,0.10244158265835313,1271.062271062271,-1.0,58.02213368747233,0.17558207190885144,
2023-08-16 11:40:40.900000,-6.349397590361446,1.072289156626506,-7.518072289156627,1.1330472103004292,-6.075413856529736,-7.244635193133047,3.0,0.1756021756021756,5694.690265486726,-0.4718839228483181,-1.075578346250219,0.16304411164850524,1307.6923076923076,-1.0,58.02213368747233,0.17558220718132628,
2023-08-16 11:40:40.908000,-6.337349397590362,1.0843373493975905,-7.493975903614459,1.1624770079705702,-5.99202942979767,-7.200490496627835,3.0,0.1756021756021756,5694.690265486726,-0.39065322533651886,-0.8520482489365425,0.25254938523396075,1351.6483516483515,-1.0,58.02213368747233,0.17558233247109117,
2023-08-16 11:40:40.916000,-6.313253012048193,1.0843373493975905,-7.481927710843374,1.1698344573881054,-6.05334150827713,-7.14653586756591,3.0,0.1756021756021756,5694.690265486726,-0.24963580210943423,-0.9196433774255579,0.1277314841792441,1406.5934065934066,-1.0,58.02213368747233,0.1755824471323368,
2023-08-16 11:40:40.923000,-6.337349397590362,1.0481927710843375,-7.506024096385542,1.1673819742489269,-6.058246474555487,-7.247087676272225,3.0,0.1756021756021756,5694.690265486726,0.02960200454518974,-0.16316065497348695,0.05104597634170487,1467.3992673992673,-1.0,58.02213368747233,0.17558255054964902,
2023-08-16 11:40:40.931000,-6.349397590361446,1.0481927710843375,-7.506024096385542,1.1649294911097485,-6.095033721643164,-7.220110361741263,3.0,0.1756021756021756,5694.690265486726,0.15208903910028493,0.0037293863993937094,0.155235708874774,1527.4725274725274,-1.0,58.02213368747233,0.17558264214071687,
2023-08-16 11:40:40.939000,-6.349397590361446,1.0602409638554218,-7.506024096385542,1.1992642550582464,-6.0705088902513795,-7.2323727774371545,3.0,0.1756021756021756,5694.690265486726,0.3336635394207805,0.7346891206806129,-0.0452188100926522,1584.6153846153845,-1.0,58.02213368747233,0.17558272135896066,
2023-08-16 11:40:40.946000,-6.349397590361446,1.0481927710843375,-7.530120481927711,1.1771919068056407,-6.055793991416309,-7.210300429184549,3.0,0.1756021756021756,5694.690265486726,0.31571586737369695,0.9079890449274517,-0.09311811665986798,1634.4322344322343,-1.0,58.02213368747233,0.17558278769606703,
2023-08-16 11:40:40.954000,-6.36144578313253,1.0602409638554218,-7.518072289156627,1.1820968730839976,-6.087676272225628,-7.234825260576333,3.0,0.17604617604617603,5680.32786885246,0.14521298292640342,0.9582192179942893,0.07470427131286067,1677.6556776556774,-1.0,58.02213368747233,0.17558284068441624,
2023-08-16 11:40:40.962000,-6.36144578313253,1.072289156626506,-7.506024096385542,1.20907418761496,-6.1072961373390555,-7.215205395462906,3.0,0.1756021756021756,5694.690265486726,0.4338907989044925,0.9899190023891377,0.31734747392343127,1713.5531135531135,-1.0,58.02213368747233,0.17558288004868494,
2023-08-16 11:40:40.969000,-6.373493975903615,1.0843373493975905,-7.530120481927711,1.2164316370324952,-6.119558553034947,-7.259350091968117,3.0,0.1756021756021756,5694.690265486726,0.18623623331973596,1.2966610337392928,0.08565934386108055,1741.3919413919414,-1.0,58.02213368747233,0.17558290558060435,
2023-08-16 11:40:40.977000,-6.385542168674699,1.0843373493975905,-7.542168674698796,1.1698344573881054,-6.050889025137952,-7.308399754751686,3.0,0.1756021756021756,5694.690265486726,0.3996270613600606,1.037934852281336,0.06864401841384546,1760.4395604395604,-1.0,58.02213368747233,0.17558291698205486,
2023-08-16 11:40:40.985000,-6.397590361445784,1.0963855421686748,-7.542168674698796,1.1820968730839976,-6.080318822808093,-7.23973022685469,3.0,0.1756021756021756,5694.690265486726,0.07621933453761458,0.7680205116251964,0.1443971796515354,1772.8937728937728,-1.0,58.02213368747233,0.175582914005877,
2023-08-16 11:40:40.992000,-6.397590361445784,1.108433734939759,-7.530120481927711,1.2164316370324952,-6.08522378908645,-7.234825260576333,3.0,0.17515817515817514,5709.125475285172,0.15080706252549397,0.42748091603053434,0.06666278188916777,1776.5567765567764,-1.0,58.02213368747233,0.17558289645775793,
2023-08-16 11:40:41,-6.373493975903615,1.108433734939759,-7.518072289156627,1.1624770079705702,-6.0705088902513795,-7.229920294297976,3.0,0.1756021756021756,5694.690265486726,0.42351844298117897,0.3204941436979199,0.01934619194685617,1776.5567765567764,-1.0,58.02213368747233,0.17558286418738525,
2023-08-16 11:40:41.008000,-6.349397590361446,1.0963855421686748,-7.506024096385542,1.2237890864500305,-6.13182096873084,-7.227467811158798,3.0,0.1756021756021756,5694.690265486726,-0.020395081871686302,0.08111415418681839,-0.3167647572985253,1778.021978021978,-1.0,58.02213368747233,0.17558281705823675,
2023-08-16 11:40:41.015000,-6.349397590361446,1.108433734939759,-7.506024096385542,1.150214592274678,-6.119558553034947,-7.242182709993869,3.0,0.1756021756021756,5694.690265486726,0.16351028494842945,0.36652875706543886,-0.43808635860381084,1780.2197802197802,-1.0,58.02213368747233,0.17558275498019354,
2023-08-16 11:40:41.023000,-6.373493975903615,1.0963855421686748,-7.566265060240965,1.1870018393623543,-6.0778663396689145,-7.1955855303494785,3.0,0.1756021756021756,5694.690265486726,0.20698094516636475,0.21933453761435773,-0.37491987646407554,1780.9523809523807,-1.0,58.02213368747233,0.17558267792077337,
2023-08-16 11:40:41.031000,-6.36144578313253,1.0963855421686748,-7.530120481927711,1.1673819742489269,-6.1072961373390555,-7.249540159411404,3.0,0.1756021756021756,5694.690265486726,0.03892547054367401,0.23914690286113813,-0.434123885554455,1778.021978021978,-1.0,58.02213368747233,0.17558258590559983,
2023-08-16 11:40:41.038000,-6.349397590361446,1.072289156626506,-7.530120481927711,1.1134273451870018,-6.0410790925812385,-7.20784794604537,3.0,0.1756021756021756,5694.690265486726,0.328186003146669,0.4419322883281858,-0.4616281102499854,1768.4981684981683,-1.0,58.02213368747233,0.17558247901864862,
2023-08-16 11:40:41.046000,-6.36144578313253,1.0963855421686748,-7.506024096385542,1.2188841201716738,-6.0778663396689145,-7.229920294297976,3.0,0.1756021756021756,5694.690265486726,0.5252607656896453,0.610920109550725,-0.4912301147951751,1753.8461538461538,-1.0,58.02213368747233,0.17558235740227018,
2023-08-16 11:40:41.054000,-6.337349397590362,1.072289156626506,-7.530120481927711,1.1649294911097485,-6.082771305947271,-7.2029429797670135,3.0,0.1756021756021756,5694.690265486726,0.3397237923197944,0.6992599498863709,-0.24357554921041902,1734.7985347985348,-1.0,58.02213368747233,0.17558222125698686,
2023-08-16 11:40:41.061000,-6.325301204819278,1.0843373493975905,-7.493975903614459,1.1281422440220723,-6.055793991416309,-7.249540159411404,3.0,0.1756021756021756,5694.690265486726,0.24345900588543773,0.9057747217528123,-0.5455393042363499,1711.3553113553112,-1.0,58.02213368747233,0.1755820708410634,
2023-08-16 11:40:41.069000,-6.313253012048193,1.072289156626506,-7.518072289156627,1.1698344573881054,-6.033721643163703,-7.244635193133047,3.0,0.1756021756021756,5694.690265486726,0.484820231921217,0.710448109084552,-0.08367810733640244,1684.9816849816848,-1.0,58.02213368747233,0.17558190646985342,
2023-08-16 11:40:41.077000,-6.337349397590362,1.0602409638554218,-7.530120481927711,1.155119558553035,-6.058246474555487,-7.251992642550582,3.0,0.1756021756021756,5694.690265486726,0.5716450090321085,0.8523978789114851,-0.4039391643843598,1657.8754578754579,-1.0,58.02213368747233,0.17558172851492315,
