Shimmer_F5D4_Timestamp_FormattedUnix_CAL,Shimmer_F5D4_Accel_LN_X_CAL,Shimmer_F5D4_Accel_LN_Y_CAL,Shimmer_F5D4_Accel_LN_Z_CAL,Shimmer_F5D4_Accel_WR_X_CAL,Shimmer_F5D4_Accel_WR_Y_CAL,Shimmer_F5D4_Accel_WR_Z_CAL,Shimmer_F5D4_GSR_Range_CAL,Shimmer_F5D4_GSR_Skin_Conductance_CAL,Shimmer_F5D4_GSR_Skin_Resistance_CAL,Shimmer_F5D4_Gyro_X_CAL,Shimmer_F5D4_Gyro_Y_CAL,Shimmer_F5D4_Gyro_Z_CAL,Shimmer_F5D4_PPG_A13_CAL,Shimmer_F5D4_PPG_IBI_CAL,Shimmer_F5D4_PPGtoHR_CAL,Shimmer_F5D4_GSR_Skin_Conductance_LPF_CAL,
yyyy/mm/dd hh:mm:ss.000,m/(s^2),m/(s^2),m/(s^2),m/(s^2),m/(s^2),m/(s^2),no_units,uS,kOhms,deg/s,deg/s,deg/s,mV,ms,BPM,uS,
2023-08-16 13:19:59.540000,-6.987951807228916,0.8674698795180723,6.63855421686747,1.1134273451870018,-6.9656652360515015,7.305947271612507,3.0,0.4903984903984904,2039.1579900407423,-0.511858283316823,-0.10628751238272767,-0.372006293339549,1364.8351648351647,-1.0,73.89611365857326,0.4904601669444979,
2023-08-16 13:19:59.547000,-6.975903614457832,0.8674698795180723,6.63855421686747,1.1183323114653587,-7.029429797670141,7.261802575107295,3.0,0.4903984903984904,2039.1579900407423,-0.2952042421770298,-0.1656080647980897,-0.4935609812947962,1364.102564102564,-1.0,73.89611365857326,0.49045339387945464,
2023-08-16 13:19:59.555000,-6.927710843373494,0.8674698795180723,6.650602409638554,1.120784794604537,-6.948497854077253,7.266707541385653,3.0,0.4903984903984904,2039.1579900407423,-0.231455043412389,-0.05547462269098577,-0.44496241477769366,1360.4395604395604,-1.0,73.89611365857326,0.49044692528694717,
2023-08-16 13:19:59.562000,-6.951807228915663,0.8674698795180723,6.614457831325302,1.103617412630288,-6.946045370938075,7.222562844880441,3.0,0.4903984903984904,2039.1579900407423,-0.01666569547229259,-0.2849484295786954,-0.12143814463026635,1358.2417582417581,-1.0,73.89611365857326,0.4904407615484785,
2023-08-16 13:19:59.570000,-6.951807228915663,0.8674698795180723,6.626506024096386,1.1158798283261802,-6.96811771919068,7.217657878602084,3.0,0.4903984903984904,2039.1579900407423,0.09032107686032356,-0.0102558125983327,0.15360410232503927,1352.3809523809523,-1.0,73.89611365857326,0.49043490268730255,
2023-08-16 13:19:59.578000,-6.963855421686747,0.8674698795180723,6.674698795180723,1.1747394236664623,-6.982832618025751,7.325567136725935,3.0,0.4903984903984904,2039.1579900407423,-0.15605151214964202,0.11153196200687572,-0.1392692733523686,1347.2527472527472,-1.0,73.89611365857326,0.49042934821458817,
2023-08-16 13:19:59.585000,-6.963855421686747,0.8915662650602411,6.674698795180723,1.137952176578786,-6.980380134886572,7.249540159411404,3.0,0.4903984903984904,2039.1579900407423,-0.07924946098712153,0.47712837247246614,0.19579278596818364,1341.3919413919414,-1.0,73.89611365857326,0.4904240971264742,
2023-08-16 13:19:59.593000,-6.987951807228916,0.8795180722891567,6.662650602409639,1.1453096259963211,-6.997547516860821,7.276517473942366,3.0,0.4903984903984904,2039.1579900407423,-0.15465299224986853,0.2288910902628054,0.2549967950585631,1335.5311355311355,-1.0,73.89611365857326,0.49041914790277275,
2023-08-16 13:19:59.601000,-7.0,0.8915662650602411,6.674698795180723,1.1183323114653587,-7.017167381974248,7.288779889638258,3.0,0.48995448995449,2041.0058903488898,-0.2464891323349447,-0.0340306508944702,-0.06829438843890208,1326.7399267399267,-1.0,73.89611365857326,0.4904144985073556,
2023-08-16 13:19:59.608000,-6.987951807228916,0.8915662650602411,6.650602409638554,1.150214592274678,-7.046597179644389,7.23973022685469,3.0,0.48995448995449,2041.0058903488898,-0.04754967659227327,-0.15756657537439464,0.06887710506380756,1317.9487179487178,-1.0,73.89611365857326,0.4904101462409568,
2023-08-16 13:19:59.616000,-6.987951807228916,0.8674698795180723,6.662650602409639,1.155119558553035,-6.958307786633966,7.256897608828939,3.0,0.4903984903984904,2039.1579900407423,-0.30674203135015515,-0.3713070333896618,0.021094341821572188,1308.4249084249084,-1.0,73.89611365857326,0.49040608772313293,
2023-08-16 13:19:59.624000,-6.975903614457832,0.8795180722891567,6.662650602409639,1.137952176578786,-7.073574494175352,7.283874923359901,3.0,0.4903984903984904,2039.1579900407423,0.22702639706310856,-0.001631606549735182,-0.2271429403880894,1296.7032967032967,-1.0,73.89611365857326,0.490402319184197,
2023-08-16 13:19:59.631000,-6.975903614457832,0.8674698795180723,6.63855421686747,1.0472103004291844,-6.909258123850398,7.276517473942366,3.0,0.4903984903984904,2039.1579900407423,-0.004428646349280464,-0.47736145912242955,-0.24194394266068425,1287.179487179487,-1.0,73.89611365857326,0.49039883635381065,
2023-08-16 13:19:59.639000,-6.963855421686747,0.8795180722891567,6.626506024096386,1.0643776824034334,-6.985285101164929,7.259350091968117,3.0,0.4903984903984904,2039.1579900407423,-0.06608006526426272,-0.16945399452246426,0.1550026222248119,1277.6556776556777,-1.0,73.89611365857326,0.4903956344900866,
2023-08-16 13:19:59.647000,-6.975903614457832,0.855421686746988,6.614457831325302,1.108522378908645,-6.958307786633966,7.274064990803188,3.0,0.4903984903984904,2039.1579900407423,-0.003496299749432037,0.04638424334246317,0.09335120330983052,1271.062271062271,-1.0,73.89611365857326,0.4903927085176864,
2023-08-16 13:19:59.654000,-6.963855421686747,0.8795180722891567,6.662650602409639,1.0987124463519313,-6.977927651747394,7.249540159411404,3.0,0.4903984903984904,2039.1579900407423,0.07062525493852402,-0.16828856127265243,-0.015034088922556976,1266.6666666666665,-1.0,73.89611365857326,0.490390052890949,
2023-08-16 13:19:59.662000,-6.987951807228916,0.8674698795180723,6.63855421686747,1.1428571428571428,-6.997547516860821,7.276517473942366,3.0,0.4903984903984904,2039.1579900407423,-0.006876056173883237,-0.04685041664238651,0.13775421012761513,1263.003663003663,-1.0,73.89611365857326,0.4903876616080328,
2023-08-16 13:19:59.670000,-6.963855421686747,0.8795180722891567,6.674698795180723,1.155119558553035,-6.9656652360515015,7.25444512568976,3.0,0.4903984903984904,2039.1579900407423,-0.005477536274109728,0.10547170910786008,0.08892255696055006,1259.3406593406592,-1.0,73.89611365857326,0.49038552822673653,
2023-08-16 13:19:59.677000,-6.9397590361445785,0.8795180722891567,6.686746987951808,1.0815450643776823,-6.963212752912323,7.274064990803188,3.0,0.4903984903984904,2039.1579900407423,0.1018588660334472,0.11724258493094886,-0.12714876755433818,1256.4102564102564,-1.0,73.89611365857326,0.4903836458819587,
2023-08-16 13:19:59.685000,-6.9397590361445785,0.8795180722891567,6.662650602409639,1.1649294911097485,-6.985285101164929,7.288779889638258,3.0,0.4903984903984904,2039.1579900407423,-0.005244449624148055,0.4499737777518792,-0.08088106753685671,1252.014652014652,-1.0,73.89611365857326,0.4903820073047421,
2023-08-16 13:19:59.693000,-6.975903614457832,0.8915662650602411,6.674698795180723,1.1305947271612506,-7.031882280809319,7.296137339055794,3.0,0.4903984903984904,2039.1579900407423,0.2530155585338854,0.4602295903502136,-0.3996270613600606,1250.5494505494505,-1.0,73.89611365857326,0.4903806049815898,
2023-08-16 13:19:59.700000,-6.963855421686747,0.8915662650602411,6.674698795180723,1.1575720416922133,-6.982832618025751,7.28632740649908,3.0,0.4903984903984904,2039.1579900407423,0.2548802517335823,0.4558009440009314,-0.3968300215605149,1252.7472527472526,-1.0,73.89611365857326,0.4903794311561056,
2023-08-16 13:19:59.708000,-6.963855421686747,0.8915662650602411,6.698795180722892,1.0889025137952175,-7.019619865113427,7.305947271612507,3.0,0.4903984903984904,2039.1579900407423,-0.12854728745411081,0.3594196142415939,-0.13379173707825887,1258.6080586080586,-1.0,73.89611365857326,0.4903784777043991,
2023-08-16 13:19:59.716000,-6.963855421686747,0.855421686746988,6.662650602409639,1.1134273451870018,-6.9656652360515015,7.303494788473329,3.0,0.4903984903984904,2039.1579900407423,-0.07761785443738635,0.49495950119456883,-0.3299341530213859,1265.9340659340658,-1.0,73.89611365857326,0.49037773602213014,
2023-08-16 13:19:59.723000,-6.9397590361445785,0.8674698795180723,6.662650602409639,1.1281422440220723,-6.995095033721642,7.283874923359901,3.0,0.4903984903984904,2039.1579900407423,0.030068177845113085,0.5822504516053837,-0.2364664063865741,1273.260073260073,-1.0,73.89611365857326,0.49037719707168576,
2023-08-16 13:19:59.731000,-6.951807228915663,0.8795180722891567,6.63855421686747,1.1060698957694666,-6.946045370938075,7.266707541385653,3.0,0.4903984903984904,2039.1579900407423,-0.059320552415360314,0.744595303304003,-0.11234776528174331,1278.3882783882782,-1.0,73.89611365857326,0.49037685169662987,
2023-08-16 13:19:59.739000,-6.963855421686747,0.855421686746988,6.650602409638554,1.1183323114653587,-7.017167381974248,7.23973022685469,3.0,0.4903984903984904,2039.1579900407423,-0.010955072548219456,0.7409824602295901,-0.31198648097430237,1279.120879120879,-1.0,73.89611365857326,0.4903766906287353,
2023-08-16 13:19:59.746000,-6.975903614457832,0.8795180722891567,6.662650602409639,1.1526670754138564,-7.002452483139178,7.276517473942366,3.0,0.4903984903984904,2039.1579900407423,0.0983625662840169,0.6587028727929617,-0.12621642095448976,1283.5164835164835,-1.0,73.89611365857326,0.4903767043683071,
2023-08-16 13:19:59.754000,-7.0,0.8674698795180723,6.674698795180723,1.0889025137952175,-6.987737584304107,7.227467811158798,3.0,0.48995448995449,2041.0058903488898,-0.006992599498864074,0.6698910319911429,0.1659576947730318,1283.5164835164835,-1.0,73.89611365857326,0.4903768832143984,
2023-08-16 13:19:59.762000,-6.987951807228916,0.8674698795180723,6.63855421686747,1.0692826486817903,-7.029429797670141,7.281422440220723,3.0,0.4903984903984904,2039.1579900407423,-0.03484645416933779,0.42060485985665286,-0.4313268457549093,1281.3186813186812,-1.0,73.89611365857326,0.4903772172849641,
2023-08-16 13:19:59.769000,-6.987951807228916,0.8674698795180723,6.626506024096386,1.0938074800735744,-6.990190067443286,7.234825260576333,3.0,0.4903984903984904,2039.1579900407423,-0.17061942777227437,0.5363323815628456,-0.2893770759279763,1282.7838827838827,-1.0,73.89611365857326,0.49037769651621954,
2023-08-16 13:19:59.777000,-6.975903614457832,0.8674698795180723,6.614457831325302,1.1158798283261802,-7.007357449417535,7.256897608828939,3.0,0.4903984903984904,2039.1579900407423,-0.1396189033273111,0.5280578054891906,-0.25674494493327915,1284.2490842490843,-1.0,73.89611365857326,0.49037831072528715,
2023-08-16 13:19:59.785000,-6.951807228915663,0.9036144578313253,6.63855421686747,1.1820968730839976,-6.980380134886572,7.25444512568976,3.0,0.4903984903984904,2039.1579900407423,0.08938873026047514,0.2748091603053435,-0.5578928966843425,1287.179487179487,-1.0,73.89611365857326,0.49037904965181717,
2023-08-16 13:19:59.792000,-6.951807228915663,0.8915662650602411,6.674698795180723,1.150214592274678,-6.923973022685469,7.264255058246474,3.0,0.4903984903984904,2039.1579900407423,0.07365538138803097,0.35638948779208696,-0.18810092651943366,1290.8424908424909,-1.0,73.89611365857326,0.4903799029890893,
2023-08-16 13:19:59.800000,-6.963855421686747,0.8674698795180723,6.662650602409639,1.1232372777437154,-6.946045370938075,7.315757204169221,3.0,0.4903984903984904,2039.1579900407423,0.01048889924829611,0.3468329351436393,-0.09498280985956527,1294.5054945054944,-1.0,73.89611365857326,0.4903808604150309,
2023-08-16 13:19:59.808000,-6.963855421686747,0.8915662650602411,6.662650602409639,1.1820968730839976,-6.923973022685469,7.274064990803188,3.0,0.4903984903984904,2039.1579900407423,0.04125633704329595,0.15500262222481104,-0.15721694539945213,1295.970695970696,-1.0,73.89611365857326,0.4903819116230336,
2023-08-16 13:19:59.815000,-6.951807228915663,0.8674698795180723,6.662650602409639,1.1134273451870018,-6.960760269773145,7.259350091968117,3.0,0.4903984903984904,2039.1579900407423,0.025173358195909275,0.32981760969640417,-0.2621059378824076,1295.2380952380952,-1.0,73.89611365857326,0.4903830463524609,
2023-08-16 13:19:59.823000,-6.951807228915663,0.8313253012048193,6.686746987951808,1.0839975475168608,-6.975475168608216,7.296137339055794,3.0,0.4903984903984904,2039.1579900407423,0.07132451488840903,0.3976458248353829,-0.031117067769943652,1294.5054945054944,-1.0,73.89611365857326,0.4903842544187344,
2023-08-16 13:19:59.831000,-6.975903614457832,0.8313253012048193,6.662650602409639,1.0300429184549356,-6.990190067443286,7.247087676272225,3.0,0.4903984903984904,2039.1579900407423,0.27038051395606305,0.6645300390420139,-0.15104014917545608,1293.040293040293,-1.0,73.89611365857326,0.4903855257428918,
2023-08-16 13:19:59.838000,-6.987951807228916,0.8795180722891567,6.614457831325302,1.079092581238504,-6.948497854077253,7.244635193133047,3.0,0.4903984903984904,2039.1579900407423,-0.0374104073189214,0.5954198473282443,-0.042188683643144376,1292.3076923076922,-1.0,73.89611365857326,0.4903868503805097,
2023-08-16 13:19:59.846000,-6.975903614457832,0.855421686746988,6.626506024096386,1.0987124463519313,-6.997547516860821,7.264255058246474,3.0,0.4903984903984904,2039.1579900407423,-0.09754676300914931,0.589592681079192,-0.1778451139211001,1292.3076923076922,-1.0,73.89611365857326,0.4903882185498918,
2023-08-16 13:19:59.854000,-6.963855421686747,0.8674698795180723,6.63855421686747,1.0766400980993256,-6.9656652360515015,7.27161250766401,3.0,0.4903984903984904,2039.1579900407423,-0.09661441640930088,0.9074063283025458,-0.17341646757181964,1292.3076923076922,-1.0,73.89611365857326,0.49038962065941877,
2023-08-16 13:19:59.861000,-6.951807228915663,0.8674698795180723,6.63855421686747,1.1134273451870018,-6.973022685469037,7.274064990803188,3.0,0.4903984903984904,2039.1579900407423,0.11782530155585304,0.6897033972379232,-0.0017481498747160184,1293.040293040293,-1.0,73.89611365857326,0.49039104733397,
2023-08-16 13:19:59.869000,-6.975903614457832,0.8674698795180723,6.63855421686747,1.0398528510116491,-6.963212752912323,7.247087676272225,3.0,0.4903984903984904,2039.1579900407423,0.10150923605850469,1.126973952566867,0.15255521240020956,1293.040293040293,-1.0,73.89611365857326,0.4903924894403208,
2023-08-16 13:19:59.877000,-6.987951807228916,0.855421686746988,6.674698795180723,1.0766400980993256,-7.063764561618639,7.278969957081545,3.0,0.49084249084249093,2037.3134328358208,-0.18914981644426382,0.876638890507546,0.12190431793019056,1295.2380952380952,-1.0,73.89611365857326,0.4903939381114344,
2023-08-16 13:19:59.884000,-7.0120481927710845,0.8674698795180723,6.626506024096386,1.032495401594114,-7.009809932556713,7.310852237890864,3.0,0.4903984903984904,2039.1579900407423,-0.17225103432200956,0.5670998193578471,0.2594254414078431,1299.6336996336995,-1.0,73.89611365857326,0.490395384918856,
2023-08-16 13:19:59.892000,-7.0120481927710845,0.8795180722891567,6.614457831325302,1.0594727161250765,-6.973022685469037,7.264255058246474,3.0,0.4903984903984904,2039.1579900407423,0.2549967950585631,0.39578113163568607,0.26070741798263497,1305.4945054945053,-1.0,73.89611365857326,0.4903968217671328,
2023-08-16 13:19:59.900000,-7.0120481927710845,0.8795180722891567,6.614457831325302,1.1134273451870018,-7.017167381974248,7.274064990803188,3.0,0.4903984903984904,2039.1579900407423,0.05430918944117393,0.40895052735854487,0.1991725423926344,1314.2857142857142,-1.0,73.89611365857326,0.49039824075537713,
2023-08-16 13:19:59.907000,-6.975903614457832,0.8674698795180723,6.614457831325302,1.1649294911097485,-6.975475168608216,7.256897608828939,3.0,0.48995448995449,2041.0058903488898,0.19206339956878993,0.19124759629392235,0.10803566225744411,1326.7399267399267,-1.0,73.89611365857326,0.490399634335303,
2023-08-16 13:19:59.915000,-6.9397590361445785,0.855421686746988,6.614457831325302,1.155119558553035,-6.973022685469037,7.293684855916615,3.0,0.4903984903984904,2039.1579900407423,0.06771167181399616,0.20406736204183865,-0.01561680554746246,1345.7875457875457,-1.0,73.89611365857326,0.4904009951797552,
2023-08-16 13:19:59.923000,-6.91566265060241,0.8674698795180723,6.650602409638554,1.1354996934396075,-6.96811771919068,7.301042305334151,3.0,0.4903984903984904,2039.1579900407423,-0.1936950061185251,0.44566167472757956,-0.032165957694772915,1369.9633699633698,-1.0,73.89611365857326,0.49040231646517835,
2023-08-16 13:19:59.930000,-6.927710843373494,0.855421686746988,6.650602409638554,1.1722869405272838,-6.958307786633966,7.237277743715511,3.0,0.4903984903984904,2039.1579900407423,0.03659460404405381,0.5457723908863107,-0.002563953149583175,1403.6630036630036,-1.0,73.89611365857326,0.4904035918861635,
2023-08-16 13:19:59.938000,-6.91566265060241,0.8674698795180723,6.650602409638554,1.1011649294911097,-6.950950337216431,7.274064990803188,3.0,0.4903984903984904,2039.1579900407423,0.12668259425441397,1.0113629741856531,0.07423809801293646,1446.8864468864467,-1.0,73.89611365857326,0.4904048155407795,
2023-08-16 13:19:59.945000,-6.9397590361445785,0.855421686746988,6.63855421686747,1.1453096259963211,-6.973022685469037,7.325567136725935,3.0,0.4903984903984904,2039.1579900407423,0.0787832876871982,1.518676067828215,0.010488899248295677,1494.5054945054944,-1.0,73.89611365857326,0.4904059819318581,
2023-08-16 13:19:59.953000,-6.987951807228916,0.8674698795180723,6.626506024096386,1.1624770079705702,-7.009809932556713,7.249540159411404,3.0,0.4903984903984904,2039.1579900407423,0.2731775537556083,1.4277722743429873,-0.14171668317697095,1547.985347985348,-1.0,73.89611365857326,0.49040708584884535,
2023-08-16 13:19:59.961000,-6.975903614457832,0.855421686746988,6.626506024096386,1.1453096259963211,-6.933782955242182,7.229920294297976,3.0,0.4903984903984904,2039.1579900407423,0.025756074820815194,1.1049472641454454,0.16479226152322127,1601.4652014652013,-1.0,73.89611365857326,0.4904081225246971,
2023-08-16 13:19:59.968000,-7.0,0.8674698795180723,6.626506024096386,1.1281422440220723,-7.009809932556713,7.281422440220723,3.0,0.4903984903984904,2039.1579900407423,0.191480682943884,1.318920808810676,0.04160596701823889,1654.9450549450548,-1.0,73.89611365857326,0.4904090876418072,
2023-08-16 13:19:59.976000,-7.048192771084338,0.8674698795180723,6.63855421686747,1.1477621091354997,-7.036787247087676,7.1955855303494785,3.0,0.4903984903984904,2039.1579900407423,0.19019870636909308,1.302488199988345,0.04020744711846625,1700.3663003663003,-1.0,73.89611365857326,0.49040997747501125,
2023-08-16 13:19:59.984000,-7.0120481927710845,0.8915662650602411,6.63855421686747,1.108522378908645,-7.046597179644389,7.215205395462906,3.0,0.4903984903984904,2039.1579900407423,0.4946098712196263,0.9374745061476606,-0.21805256103956636,1735.5311355311353,-1.0,73.89611365857326,0.49041078873505317,
2023-08-16 13:19:59.991000,-7.0,0.9036144578313253,6.63855421686747,1.120784794604537,-7.041692213366033,7.288779889638258,3.0,0.4903984903984904,2039.1579900407423,0.15605151214964202,0.45078958102674677,-0.09474972320960316,1759.7069597069597,-1.0,73.89611365857326,0.4904115184419196,
2023-08-16 13:19:59.999000,-7.024096385542169,0.8915662650602411,6.63855421686747,1.125689760882894,-6.997547516860821,7.256897608828939,3.0,0.4903984903984904,2039.1579900407423,0.21712021443971838,0.2478876522347182,0.07423809801293646,1768.4981684981683,-1.0,73.89611365857326,0.4904121642120108,
2023-08-16 13:20:00.007000,-7.0,0.8674698795180723,6.626506024096386,1.091354996934396,-7.002452483139178,7.237277743715511,3.0,0.4903984903984904,2039.1579900407423,0.01713186877221594,0.3511450381679389,0.10442281918303124,1766.3003663003662,-1.0,73.89611365857326,0.4904127242352948,
2023-08-16 13:20:00.014000,-7.0,0.8795180722891567,6.626506024096386,1.1453096259963211,-7.022072348252605,7.291232372777436,3.0,0.4903984903984904,2039.1579900407423,0.10815220558242453,-0.017598042072139285,-0.10873492220733044,1751.6483516483515,842.59033203125,71.20898225280695,0.49041319712329445,
2023-08-16 13:20:00.022000,-6.975903614457832,0.8915662650602411,6.626506024096386,1.1575720416922133,-6.987737584304107,7.2029429797670135,3.0,0.4903984903984904,2039.1579900407423,0.1984732824427481,0.42433424625604654,0.07447118466289857,1729.6703296703295,-1.0,71.20898225280695,0.4904135819046568,
2023-08-16 13:20:00.030000,-6.975903614457832,0.8795180722891567,6.626506024096386,1.0374003678724708,-6.997547516860821,7.261802575107295,3.0,0.4903984903984904,2039.1579900407423,-0.04813239321717919,-0.20802983509119577,-0.005360992949128891,1699.6336996336995,-1.0,71.20898225280695,0.49041387801906394,
2023-08-16 13:20:00.037000,-6.987951807228916,0.8915662650602411,6.626506024096386,1.079092581238504,-7.024524831391783,7.242182709993869,3.0,0.4903984903984904,2039.1579900407423,0.0745877279878794,-0.026571878095682785,0.39065322533651886,1659.3406593406592,-1.0,71.20898225280695,0.4904140853095408,
2023-08-16 13:20:00.045000,-7.0,0.8795180722891567,6.63855421686747,1.0815450643776823,-7.026977314530963,7.298589822194972,3.0,0.4903984903984904,2039.1579900407423,0.3336635394207805,0.030184721170095657,0.18763475321950945,1613.186813186813,-1.0,71.20898225280695,0.49041420401322683,
2023-08-16 13:20:00.053000,-7.0,0.8795180722891567,6.626506024096386,1.1771919068056407,-6.987737584304107,7.291232372777436,3.0,0.4903984903984904,2039.1579900407423,0.008740749373580091,-0.12773148417924324,-0.2897267059029192,1564.8351648351647,-1.0,71.20898225280695,0.49041423475067714,
2023-08-16 13:20:00.060000,-6.963855421686747,0.8915662650602411,6.626506024096386,1.1404046597179645,-7.031882280809319,7.215205395462906,3.0,0.48995448995449,2041.0058903488898,-0.008624206048599255,-0.03764349396888308,-0.2265602237631839,1516.4835164835163,-1.0,71.20898225280695,0.49041417851377994,
2023-08-16 13:20:00.068000,-6.9397590361445785,0.8915662650602411,6.650602409638554,1.1477621091354997,-6.975475168608216,7.261802575107295,3.0,0.48995448995449,2041.0058903488898,-0.04207214031816354,0.11048307208204645,-0.16502534817318337,1471.7948717948716,-1.0,71.20898225280695,0.49041403664181843,
2023-08-16 13:20:00.076000,-6.9397590361445785,0.9036144578313253,6.662650602409639,1.137952176578786,-7.002452483139178,7.242182709993869,3.0,0.48995448995449,2041.0058903488898,0.2949711555270664,0.07715168113746301,-0.10279121263329649,1424.9084249084249,-1.0,71.20898225280695,0.49041381062585887,
2023-08-16 13:20:00.083000,-6.987951807228916,0.8915662650602411,6.63855421686747,1.125689760882894,-6.982832618025751,7.303494788473329,3.0,0.4903984903984904,2039.1579900407423,0.16828856127265243,0.05547462269098577,-0.04428646349280334,1380.2197802197802,-1.0,71.20898225280695,0.49041350224121594,
2023-08-16 13:20:00.091000,-6.987951807228916,0.8795180722891567,6.63855421686747,1.1109748620478233,-7.022072348252605,7.259350091968117,3.0,0.4903984903984904,2039.1579900407423,0.02960200454518974,0.09474972320960229,-0.0903210768603227,1340.6593406593406,-1.0,71.20898225280695,0.4904131136680849,
2023-08-16 13:20:00.099000,-6.987951807228916,0.8795180722891567,6.63855421686747,1.125689760882894,-6.92152053954629,7.291232372777436,3.0,0.48995448995449,2041.0058903488898,0.028436571295379638,0.31769710389837463,-0.2565118582833166,1307.6923076923076,-1.0,71.20898225280695,0.49041264750462493,
2023-08-16 13:20:00.106000,-6.987951807228916,0.8674698795180723,6.626506024096386,1.1404046597179645,-7.056407112201104,7.210300429184549,3.0,0.48995448995449,2041.0058903488898,0.11957345143056906,0.08286230406153441,-0.05454227609113691,1278.3882783882782,-1.0,71.20898225280695,0.4904121064496606,
2023-08-16 13:20:00.114000,-6.987951807228916,0.9036144578313253,6.602409638554217,1.196811771919068,-6.992642550582464,7.237277743715511,3.0,0.48995448995449,2041.0058903488898,0.027970397995454557,-0.04463609346774715,-0.2484703688596237,1251.2820512820513,-1.0,71.20898225280695,0.4904114932718459,
2023-08-16 13:20:00.122000,-7.0120481927710845,0.9036144578313253,6.63855421686747,1.155119558553035,-7.002452483139178,7.247087676272225,3.0,0.4903984903984904,2039.1579900407423,0.18157450032049383,0.11980653808053246,-0.3810966726880716,1227.106227106227,-1.0,71.20898225280695,0.49041081091604005,
2023-08-16 13:20:00.129000,-6.987951807228916,0.8915662650602411,6.63855421686747,1.103617412630288,-6.985285101164929,7.242182709993869,3.0,0.4903984903984904,2039.1579900407423,0.1798263504457778,0.46570712662432157,-0.34578404521881,1208.058608058608,-1.0,71.20898225280695,0.49041006250183095,
2023-08-16 13:20:00.137000,-6.987951807228916,0.8674698795180723,6.650602409638554,1.1722869405272838,-7.017167381974248,7.259350091968117,3.0,0.48995448995449,2041.0058903488898,0.1188741914806823,0.4861022084960079,-0.37002505681487086,1195.6043956043954,-1.0,71.20898225280695,0.49040925160960613,
2023-08-16 13:20:00.145000,-6.975903614457832,0.855421686746988,6.63855421686747,1.0104230533415082,-6.987737584304107,7.274064990803188,3.0,0.48995448995449,2041.0058903488898,-0.08297884738651524,0.32154303362274916,-0.33576131927043856,1186.8131868131868,-1.0,71.20898225280695,0.4904083818108673,
2023-08-16 13:20:00.152000,-6.987951807228916,0.8674698795180723,6.626506024096386,1.137952176578786,-7.017167381974248,7.28632740649908,3.0,0.48995448995449,2041.0058903488898,0.021443971796515564,0.400559407959909,-0.5002039508187168,1179.4871794871794,-1.0,71.20898225280695,0.4904074564961875,
2023-08-16 13:20:00.160000,-6.987951807228916,0.8674698795180723,6.63855421686747,1.1060698957694666,-7.039239730226854,7.313304721030042,3.0,0.48995448995449,2041.0058903488898,0.15558533884971695,0.0666627818891669,-0.03741040731892097,1172.161172161172,-1.0,71.20898225280695,0.4904064791389091,
2023-08-16 13:20:00.168000,-6.975903614457832,0.8674698795180723,6.63855421686747,1.1183323114653587,-7.058859595340282,7.249540159411404,3.0,0.48995448995449,2041.0058903488898,-0.029019287920283823,-0.05069634636676106,-0.03659460404405338,1165.5677655677655,-1.0,71.20898225280695,0.4904054532708284,
2023-08-16 13:20:00.175000,-7.0,0.855421686746988,6.674698795180723,1.1134273451870018,-6.941140404659717,7.288779889638258,3.0,0.48995448995449,2041.0058903488898,0.09300157333488801,-0.1185245615057398,-0.021443971796515564,1162.6373626373625,-1.0,71.20898225280695,0.4904043825967889,
2023-08-16 13:20:00.183000,-6.987951807228916,0.8674698795180723,6.650602409638554,1.137952176578786,-6.992642550582464,7.313304721030042,3.0,0.48995448995449,2041.0058903488898,0.04591807004253809,-0.07924946098712153,-0.20744711846628985,1162.6373626373625,-1.0,71.20898225280695,0.4904032708116915,
2023-08-16 13:20:00.191000,-6.963855421686747,0.8795180722891567,6.626506024096386,1.150214592274678,-6.980380134886572,7.291232372777436,3.0,0.48995448995449,2041.0058903488898,0.013402482372822228,-0.12959617737894008,-0.2369325796864983,1165.5677655677655,-1.0,71.20898225280695,0.49040212158818175,
2023-08-16 13:20:00.198000,-6.975903614457832,0.9036144578313253,6.626506024096386,1.1158798283261802,-6.975475168608216,7.244635193133047,3.0,0.48995448995449,2041.0058903488898,-0.049064739817027615,0.2019695821921801,-0.05256103956645878,1175.0915750915751,-1.0,71.20898225280695,0.49040093868246065,
2023-08-16 13:20:00.206000,-6.975903614457832,0.8795180722891567,6.650602409638554,1.1183323114653587,-6.982832618025751,7.220110361741263,3.0,0.48995448995449,2041.0058903488898,0.05850474914049272,0.45580094400093313,0.10022725948371289,1186.8131868131868,-1.0,71.20898225280695,0.49039972576384555,
2023-08-16 13:20:00.214000,-6.987951807228916,0.8795180722891567,6.650602409638554,1.1404046597179645,-7.039239730226854,7.27161250766401,3.0,0.48951048951048953,2042.857142857143,-0.05023017306683771,0.7691859448750064,0.11467863178136481,1197.8021978021977,-1.0,71.20898225280695,0.4903984863942008,
2023-08-16 13:20:00.221000,-6.987951807228916,0.8795180722891567,6.626506024096386,1.1453096259963211,-7.0,7.278969957081545,3.0,0.48951048951048953,2042.857142857143,-0.004079016374337954,1.1861779616572463,-0.2068644018413848,1209.5238095238094,-1.0,71.20898225280695,0.49039722399751157,
2023-08-16 13:20:00.229000,-7.0,0.8795180722891567,6.602409638554217,1.1354996934396075,-7.012262415695892,7.1931330472103,3.0,0.48995448995449,2041.0058903488898,-0.05151214964162865,0.9150981877512966,-0.15966435522405448,1219.047619047619,-1.0,71.20898225280695,0.49039594165978706,
2023-08-16 13:20:00.237000,-7.0120481927710845,0.855421686746988,6.602409638554217,1.125689760882894,-6.992642550582464,7.234825260576333,3.0,0.48995448995449,2041.0058903488898,-0.25021851873434015,1.0746459996503706,-0.0327486743196784,1230.03663003663,-1.0,71.20898225280695,0.4903946422696115,
2023-08-16 13:20:00.244000,-7.0,0.8674698795180723,6.63855421686747,1.061925199264255,-6.975475168608216,7.1955855303494785,3.0,0.48995448995449,2041.0058903488898,-0.29275683235242705,1.354233436279937,0.07773439776236805,1243.2234432234432,-1.0,71.20898225280695,0.4903933286700369,
2023-08-16 13:20:00.252000,-7.0120481927710845,0.8674698795180723,6.614457831325302,1.032495401594114,-7.0,7.247087676272225,3.0,0.48995448995449,2041.0058903488898,-0.2905425091777877,1.3405978672571532,0.07621933453761415,1258.6080586080586,-1.0,71.20898225280695,0.49039200350315737,
2023-08-16 13:20:00.260000,-7.0120481927710845,0.855421686746988,6.602409638554217,1.120784794604537,-7.031882280809319,7.27161250766401,3.0,0.48995448995449,2041.0058903488898,0.0015150632247543454,1.143872734689121,0.12306975118000109,1275.4578754578754,-1.0,71.20898225280695,0.49039066919462,
2023-08-16 13:20:00.267000,-7.024096385542169,0.8433734939759037,6.614457831325302,1.1305947271612506,-7.041692213366033,7.2323727774371545,3.0,0.48995448995449,2041.0058903488898,0.19975525901753902,1.1305867956412798,0.3202610570479574,1290.8424908424909,-1.0,71.20898225280695,0.49038932793940976,
2023-08-16 13:20:00.275000,-7.0361445783132535,0.8915662650602411,6.578313253012048,1.1698344573881054,-7.034334763948498,7.244635193133047,3.0,0.48995448995449,2041.0058903488898,0.07610279121263375,1.4372122836664523,0.30289610162577935,1305.4945054945053,-1.0,71.20898225280695,0.49038798168899234,
2023-08-16 13:20:00.283000,-7.024096385542169,0.9036144578313253,6.602409638554217,1.0545677498467196,-7.039239730226854,7.25444512568976,3.0,0.48995448995449,2041.0058903488898,0.1503408892255689,0.9928325855136655,0.20942835499096799,1320.8791208791208,-1.0,71.20898225280695,0.49038663213987305,
2023-08-16 13:20:00.290000,-7.0120481927710845,0.8674698795180723,6.626506024096386,1.061925199264255,-7.078479460453709,7.23973022685469,3.0,0.48995448995449,2041.0058903488898,-0.09906182623390192,0.7040382262105939,0.2679331041314607,1336.263736263736,-1.0,71.20898225280695,0.49038528072364723,
2023-08-16 13:20:00.298000,-7.0361445783132535,0.8674698795180723,6.614457831325302,1.150214592274678,-6.970570202329859,7.278969957081545,3.0,0.48995448995449,2041.0058903488898,-0.2856476895285821,0.6911019171376968,0.14288211642678147,1345.7875457875457,-1.0,71.20898225280695,0.490383928598586,
2023-08-16 13:20:00.306000,-7.0120481927710845,0.8795180722891567,6.590361445783133,1.1575720416922133,-7.068669527896995,7.237277743715511,3.0,0.48995448995449,2041.0058903488898,-0.3323815628459878,0.7867839869471475,-0.1497581726006643,1348.7179487179487,-1.0,71.20898225280695,0.49038257664280566,
2023-08-16 13:20:00.313000,-6.987951807228916,0.8795180722891567,6.602409638554217,1.103617412630288,-7.044144696505211,7.148988350705088,3.0,0.48995448995449,2041.0058903488898,-0.1329759338033913,0.42410115960608313,-0.08740749373579615,1344.3223443223442,-1.0,71.20898225280695,0.4903812255878112,
2023-08-16 13:20:00.321000,-7.0,0.8674698795180723,6.578313253012048,1.1722869405272838,-7.009809932556713,7.222562844880441,3.0,0.48951048951048953,2042.857142857143,-0.043121030242992804,0.44379698152788266,0.1885670998193579,1339.194139194139,-1.0,71.20898225280695,0.49037987585580106,
2023-08-16 13:20:00.328000,-6.975903614457832,0.8674698795180723,6.614457831325302,1.0962599632127528,-7.009809932556713,7.217657878602084,3.0,0.48995448995449,2041.0058903488898,0.06479808868947004,0.43622166540411444,0.09638132975933791,1331.135531135531,-1.0,71.20898225280695,0.49037852728086406,
2023-08-16 13:20:00.336000,-7.0,0.855421686746988,6.614457831325302,1.0374003678724708,-7.058859595340282,7.256897608828939,3.0,0.48951048951048953,2042.857142857143,-0.14987471592564555,0.6705902919410296,-0.008857292698560493,1320.8791208791208,-1.0,71.20898225280695,0.4903771793852687,
2023-08-16 13:20:00.344000,-6.987951807228916,0.8674698795180723,6.614457831325302,1.0398528510116491,-6.987737584304107,7.220110361741263,3.0,0.48995448995449,2041.0058903488898,0.20045451896742578,0.6272361750480734,0.006293339548977319,1306.9597069597069,-1.0,71.20898225280695,0.4903758313903574,
2023-08-16 13:20:00.351000,-7.0120481927710845,0.8674698795180723,6.614457831325302,1.120784794604537,-7.022072348252605,7.23973022685469,3.0,0.48995448995449,2041.0058903488898,-0.1826233902453231,0.4041722510343219,0.11223122195676248,1296.7032967032967,-1.0,71.20898225280695,0.4903744823466942,
2023-08-16 13:20:00.359000,-7.0120481927710845,0.8795180722891567,6.602409638554217,1.150214592274678,-7.01471489883507,7.2323727774371545,3.0,0.48995448995449,2041.0058903488898,0.09381737660975387,0.626303828448225,0.1715517743721228,1284.2490842490843,-1.0,71.20898225280695,0.4903731312770084,
2023-08-16 13:20:00.367000,-6.987951807228916,0.8795180722891567,6.602409638554217,1.1134273451870018,-7.083384426732066,7.249540159411404,3.0,0.48906648906648903,2044.7117566954153,0.16922090787250085,0.635044577821805,0.09195268341005788,1269.5970695970695,-1.0,71.20898225280695,0.49037177689528416,
2023-08-16 13:20:00.374000,-7.0120481927710845,0.8795180722891567,6.602409638554217,1.103617412630288,-7.049049662783568,7.225015328019619,3.0,0.48951048951048953,2042.857142857143,0.07738476778742467,0.6891206806130172,0.349629974943185,1260.07326007326,-1.0,71.20898225280695,0.4903704173167133,
2023-08-16 13:20:00.382000,-7.0,0.8915662650602411,6.614457831325302,1.1354996934396075,-7.063764561618639,7.222562844880441,3.0,0.48951048951048953,2042.857142857143,0.5344676883631487,0.5151214964162935,0.07062525493852315,1252.7472527472526,-1.0,71.20898225280695,0.4903690501731486,
2023-08-16 13:20:00.390000,-7.0120481927710845,0.8915662650602411,6.590361445783133,1.137952176578786,-7.058859595340282,7.261802575107295,3.0,0.48951048951048953,2042.857142857143,0.05792203251558681,0.8778043237573577,0.130178894003846,1249.8168498168498,-1.0,71.20898225280695,0.49036767292033595,
2023-08-16 13:20:00.397000,-7.0120481927710845,0.9036144578313253,6.614457831325302,1.137952176578786,-7.063764561618639,7.242182709993869,3.0,0.48951048951048953,2042.857142857143,-0.049647456441931796,0.5324864518384711,0.09929491288386447,1247.6190476190475,-1.0,71.20898225280695,0.49036628270961036,
2023-08-16 13:20:00.405000,-7.0361445783132535,0.9036144578313253,6.626506024096386,1.079092581238504,-7.009809932556713,7.256897608828939,3.0,0.48951048951048953,2042.857142857143,-0.1117650486568374,0.4351727754792834,0.3894877920867083,1245.4212454212454,-1.0,71.20898225280695,0.4903648763993849,
2023-08-16 13:20:00.413000,-7.0361445783132535,0.9036144578313253,6.590361445783133,1.1624770079705702,-7.041692213366033,7.1808706315144075,3.0,0.48951048951048953,2042.857142857143,0.012353592447992964,0.49227900472000435,0.32585513664704835,1243.2234432234432,-1.0,71.20898225280695,0.4903634505676357,
2023-08-16 13:20:00.420000,-7.024096385542169,0.9036144578313253,6.602409638554217,1.150214592274678,-7.019619865113427,7.222562844880441,3.0,0.48951048951048953,2042.857142857143,0.029718547870170576,2.3308664996167294E-4,0.18880018646932,1241.0256410256409,-1.0,71.20898225280695,0.4903620013865723,
2023-08-16 13:20:00.428000,-7.048192771084338,0.9036144578313253,6.590361445783133,1.1673819742489269,-7.09319435928878,7.200490496627835,3.0,0.48951048951048953,2042.857142857143,-0.2115261348406278,-0.04521881009265133,-0.039158557193636555,1239.5604395604396,-1.0,71.20898225280695,0.49036052479607384,
2023-08-16 13:20:00.436000,-7.048192771084338,0.9036144578313253,6.602409638554217,1.1673819742489269,-7.041692213366033,7.247087676272225,3.0,0.48951048951048953,2042.857142857143,0.0071091428238449095,0.1386865567274627,0.2995163452013286,1238.8278388278388,-1.0,71.20898225280695,0.4903590165076805,
2023-08-16 13:20:00.443000,-7.024096385542169,0.9036144578313253,6.566265060240964,1.1281422440220723,-7.098099325567136,7.244635193133047,3.0,0.48951048951048953,2042.857142857143,0.34578404521881,0.1409008799021038,-0.08216304411164853,1242.4908424908424,-1.0,71.20898225280695,0.4903574718917664,
2023-08-16 13:20:00.451000,-7.0120481927710845,0.8915662650602411,6.578313253012048,1.155119558553035,-7.051502145922746,7.20784794604537,3.0,0.48951048951048953,2042.857142857143,-0.008740749373580091,-0.31571586737369695,-0.12341938115494447,1246.8864468864467,-1.0,71.20898225280695,0.4903558862810678,
2023-08-16 13:20:00.459000,-7.0120481927710845,0.9156626506024097,6.614457831325302,1.150214592274678,-7.044144696505211,7.210300429184549,3.0,0.48951048951048953,2042.857142857143,0.1628110249985427,0.10465590583299249,-0.33179884622108274,1251.2820512820513,-1.0,71.20898225280695,0.490354254827865,
2023-08-16 13:20:00.466000,-7.024096385542169,0.8915662650602411,6.578313253012048,1.0864500306560392,-6.987737584304107,7.212752912323728,3.0,0.48951048951048953,2042.857142857143,0.10407318920808831,-0.07423809801293689,-0.26198939455742676,1253.4798534798533,-1.0,71.20898225280695,0.4903525723934401,
2023-08-16 13:20:00.474000,-7.0361445783132535,0.8795180722891567,6.602409638554217,1.1158798283261802,-7.063764561618639,7.200490496627835,3.0,0.48951048951048953,2042.857142857143,0.030883981119980676,-0.022143231746400583,-0.35976924421653733,1254.212454212454,-1.0,71.20898225280695,0.4903508337149281,
2023-08-16 13:20:00.482000,-7.0120481927710845,0.8915662650602411,6.578313253012048,1.125689760882894,-7.068669527896995,7.190680564071122,3.0,0.48951048951048953,2042.857142857143,-0.13449099702814563,-0.2912417691276727,-0.3996270613600606,1255.6776556776556,-1.0,71.20898225280695,0.49034903356223664,
2023-08-16 13:20:00.489000,-7.0,0.9036144578313253,6.602409638554217,1.1060698957694666,-7.012262415695892,7.259350091968117,3.0,0.48951048951048953,2042.857142857143,-0.16199522172367511,-0.223180467338734,-0.41046559058329923,1257.8754578754579,-1.0,71.20898225280695,0.49034716659762156,
2023-08-16 13:20:00.497000,-7.0120481927710845,0.8795180722891567,6.626506024096386,1.137952176578786,-7.073574494175352,7.247087676272225,3.0,0.48951048951048953,2042.857142857143,-0.12784802750422405,-0.08053143756191421,-0.11665986830604294,1257.142857142857,-1.0,71.20898225280695,0.49034522726723545,
2023-08-16 13:20:00.505000,-7.024096385542169,0.8795180722891567,6.626506024096386,1.1281422440220723,-7.049049662783568,7.227467811158798,3.0,0.48951048951048953,2042.857142857143,0.025522988170851784,0.30406153487559073,-0.2835499096789232,1257.142857142857,-1.0,71.20898225280695,0.4903432099697645,
2023-08-16 13:20:00.512000,-7.0361445783132535,0.8674698795180723,6.614457831325302,1.1526670754138564,-7.117719190680564,7.227467811158798,3.0,0.48951048951048953,2042.857142857143,-0.0825126740865919,-0.17201794767204787,-0.12773148417924365,1260.07326007326,-1.0,71.20898225280695,0.49034110907606815,
2023-08-16 13:20:00.520000,-7.024096385542169,0.8795180722891567,6.590361445783133,1.1060698957694666,-7.026977314530963,7.1955855303494785,3.0,0.48906648906648903,2044.7117566954153,-0.18751820989452864,-0.00524444962414632,-0.4767787424975236,1262.2710622710622,-1.0,71.20898225280695,0.4903389189490376,
2023-08-16 13:20:00.528000,-7.0361445783132535,0.8674698795180723,6.590361445783133,1.155119558553035,-6.970570202329859,7.215205395462906,3.0,0.48951048951048953,2042.857142857143,-0.18763475321950945,-0.009556552648447682,-0.47433133267292127,1266.6666666666665,-1.0,71.20898225280695,0.490336633953046,
2023-08-16 13:20:00.535000,-7.024096385542169,0.8674698795180723,6.602409638554217,1.1011649294911097,-7.012262415695892,7.23973022685469,3.0,0.48951048951048953,2042.857142857143,-0.18716857991958438,0.07668550783753793,-0.3034788182506848,1272.5274725274724,-1.0,71.20898225280695,0.49033424858103963,
2023-08-16 13:20:00.543000,-7.0361445783132535,0.855421686746988,6.578313253012048,1.0815450643776823,-7.10790925812385,7.222562844880441,3.0,0.48951048951048953,2042.857142857143,-0.15605151214964202,0.3576714643668779,-0.19730784919293756,1276.923076923077,-1.0,71.20898225280695,0.49033175734676276,
2023-08-16 13:20:00.551000,-7.024096385542169,0.855421686746988,6.590361445783133,1.0987124463519313,-7.112814224402207,7.220110361741263,3.0,0.48951048951048953,2042.857142857143,-0.021560515121496402,0.08915564361051173,0.09218577006001999,1277.6556776556777,-1.0,71.20898225280695,0.49032915468723043,
2023-08-16 13:20:00.558000,-7.024096385542169,0.8433734939759037,6.590361445783133,1.0938074800735744,-7.036787247087676,7.229920294297976,3.0,0.48951048951048953,2042.857142857143,-0.25289901520890457,0.49391061126973956,0.2105937882407785,1274.7252747252746,-1.0,71.20898225280695,0.4903264351311978,
2023-08-16 13:20:00.566000,-7.024096385542169,0.8433734939759037,6.566265060240964,1.0717351318209687,-7.0,7.222562844880441,3.0,0.48951048951048953,2042.857142857143,0.1744653574966489,-0.18763475321950945,0.20628168521647933,1273.9926739926739,-1.0,71.20898225280695,0.490323593318086,
2023-08-16 13:20:00.574000,-7.048192771084338,0.855421686746988,6.590361445783133,1.091354996934396,-7.053954629061924,7.244635193133047,3.0,0.48951048951048953,2042.857142857143,0.09638132975933747,0.09603169978439496,0.17388264087174385,1272.5274725274724,-1.0,71.20898225280695,0.4903206240165947,
2023-08-16 13:20:00.581000,-7.024096385542169,0.8674698795180723,6.566265060240964,1.1060698957694666,-7.007357449417535,7.225015328019619,3.0,0.48951048951048953,2042.857142857143,-0.3009148651011012,-0.2158382378649257,0.06747858516403492,1273.260073260073,-1.0,71.20898225280695,0.4903175221429319,
2023-08-16 13:20:00.589000,-7.0120481927710845,0.8795180722891567,6.55421686746988,1.074187614960147,-7.012262415695892,7.242182709993869,3.0,0.48951048951048953,2042.857142857143,-0.16269448167356187,-0.020628168521647974,-0.04032399044344752,1271.062271062271,-1.0,71.20898225280695,0.4903142827785946,
2023-08-16 13:20:00.597000,-7.0120481927710845,0.8915662650602411,6.566265060240964,1.1011649294911097,-6.995095033721642,7.1735131820968725,3.0,0.48951048951048953,2042.857142857143,0.1582658353242814,-0.22108268748907375,0.11479517510634565,1268.131868131868,-1.0,71.20898225280695,0.4903109011876389,
2023-08-16 13:20:00.604000,-7.0,0.8674698795180723,6.626506024096386,1.125689760882894,-7.007357449417535,7.222562844880441,3.0,0.48951048951048953,2042.857142857143,-0.13449099702814563,0.0055940795990905645,0.23868072956121433,1264.4688644688645,-1.0,71.20898225280695,0.49030737283337794,
2023-08-16 13:20:00.612000,-7.0361445783132535,0.855421686746988,6.566265060240964,1.1158798283261802,-7.044144696505211,7.175965665236051,3.0,0.48951048951048953,2042.857142857143,-0.2425266592855893,0.16747275799778483,0.313385000874075,1263.7362637362637,-1.0,71.20898225280695,0.49030369339445046,
2023-08-16 13:20:00.620000,-7.0361445783132535,0.8674698795180723,6.542168674698796,1.0864500306560392,-7.071122011036174,7.183323114653587,3.0,0.48906648906648903,2044.7117566954153,-0.1497581726006647,-0.024007924946099175,0.17481498747159271,1263.003663003663,-1.0,71.20898225280695,0.490299858780205,
2023-08-16 13:20:00.627000,-7.0361445783132535,0.8674698795180723,6.578313253012048,1.0692826486817903,-7.026977314530963,7.168608215818516,3.0,0.48951048951048953,2042.857142857143,-0.38028086941320355,-0.24625604568498302,-0.13099469727871316,1264.4688644688645,-1.0,71.20898225280695,0.4902958649960542,
2023-08-16 13:20:00.635000,-7.024096385542169,0.8674698795180723,6.55421686746988,1.1453096259963211,-7.044144696505211,7.190680564071122,3.0,0.48906648906648903,2044.7117566954153,-0.07062525493852402,0.0397412738185416,0.006409882873958589,1266.6666666666665,-1.0,71.20898225280695,0.4902917082847599,
2023-08-16 13:20:00.643000,-7.048192771084338,0.8674698795180723,6.578313253012048,1.1109748620478233,-7.051502145922746,7.1808706315144075,3.0,0.48951048951048953,2042.857142857143,-0.13146087057863695,0.319911427073014,0.020511625196666706,1268.131868131868,-1.0,71.20898225280695,0.4902873851491151,
2023-08-16 13:20:00.650000,-7.0120481927710845,0.8674698795180723,6.590361445783133,1.0570202329858982,-7.06131207847946,7.249540159411404,3.0,0.48951048951048953,2042.857142857143,-0.22283083736378978,-0.04102325039333428,0.4039391643843598,1270.3296703296703,-1.0,71.20898225280695,0.49028289235259837,
2023-08-16 13:20:00.658000,-7.024096385542169,0.8674698795180723,6.590361445783133,1.1134273451870018,-7.083384426732066,7.148988350705088,3.0,0.48906648906648903,2044.7117566954153,-0.038226210593788994,0.10617096905774683,0.06642969523920522,1275.4578754578754,-1.0,71.20898225280695,0.4902782270894035,
2023-08-16 13:20:00.666000,-7.072289156626506,0.8674698795180723,6.578313253012048,1.1354996934396075,-7.044144696505211,7.198038013488657,3.0,0.48906648906648903,2044.7117566954153,-0.2666511275566693,0.1131635685566109,0.4024241011596059,1279.120879120879,-1.0,71.20898225280695,0.49027338670637793,
2023-08-16 13:20:00.673000,-7.048192771084338,0.8674698795180723,6.566265060240964,1.0962599632127528,-7.100551808706315,7.242182709993869,3.0,0.48906648906648903,2044.7117566954153,0.07097488491346653,0.05990326904026623,0.46221082687489085,1284.2490842490843,-1.0,71.20898225280695,0.49026836869018464,
2023-08-16 13:20:00.681000,-7.0843373493975905,0.8674698795180723,6.566265060240964,1.150214592274678,-7.004904966278357,7.178418148375229,3.0,0.48906648906648903,2044.7117566954153,-0.09777984965911098,-0.15978089854903574,0.1547695355748498,1295.2380952380952,-1.0,71.20898225280695,0.4902631709511924,
2023-08-16 13:20:00.689000,-7.048192771084338,0.8915662650602411,6.602409638554217,1.1134273451870018,-7.004904966278357,7.217657878602084,3.0,0.48906648906648903,2044.7117566954153,0.10197540935842977,-0.5914573742788889,0.1991725423926344,1311.3553113553112,-1.0,71.20898225280695,0.4902577916695719,
2023-08-16 13:20:00.696000,-7.0,0.8915662650602411,6.566265060240964,1.1673819742489269,-7.090741876149601,7.212752912323728,3.0,0.48906648906648903,2044.7117566954153,-0.2044169920167829,-0.3455509585688484,-0.031233611094924486,1336.263736263736,-1.0,71.20898225280695,0.4902522291717467,
2023-08-16 13:20:00.704000,-7.0,0.8674698795180723,6.578313253012048,1.1404046597179645,-7.002452483139178,7.1587982832618025,3.0,0.48951048951048953,2042.857142857143,0.18052561039566456,-0.29986597517627195,-0.0027970397995452823,1365.5677655677655,-1.0,71.20898225280695,0.49024648208238886,
2023-08-16 13:20:00.711000,-7.0120481927710845,0.8795180722891567,6.566265060240964,1.0839975475168608,-7.022072348252605,7.1808706315144075,3.0,0.48906648906648903,2044.7117566954153,-0.3229415535225227,-0.16292756832352354,0.14754384942602405,1402.197802197802,-1.0,71.20898225280695,0.49024054933651773,
2023-08-16 13:20:00.719000,-7.0,0.8674698795180723,6.602409638554217,1.0815450643776823,-7.06131207847946,7.25444512568976,3.0,0.48906648906648903,2044.7117566954153,0.19742439251791882,-0.22621059378824096,0.22236466406386554,1444.6886446886447,-1.0,71.20898225280695,0.49023443007288053,
2023-08-16 13:20:00.727000,-7.024096385542169,0.8795180722891567,6.578313253012048,1.0962599632127528,-7.098099325567136,7.210300429184549,3.0,0.48906648906648903,2044.7117566954153,0.16455917487325872,-0.12003962473049413,0.09661441640930002,1490.8424908424906,-1.0,71.20898225280695,0.4902281236223182,
2023-08-16 13:20:00.734000,-7.0361445783132535,0.8915662650602411,6.578313253012048,1.1600245248313916,-7.053954629061924,7.1514408338442665,3.0,0.48906648906648903,2044.7117566954153,0.13274284715342963,-0.09032107686032356,0.21677058446477457,1539.9267399267399,-1.0,71.20898225280695,0.49022162964383165,
2023-08-16 13:20:00.742000,-7.060240963855422,0.9036144578313253,6.55421686746988,1.108522378908645,-7.103004291845493,7.2323727774371545,3.0,0.48906648906648903,2044.7117566954153,-0.06747858516403449,0.07785094108734976,-0.15162286580036113,1587.5457875457873,-1.0,71.20898225280695,0.4902149482597885,
2023-08-16 13:20:00.750000,-7.060240963855422,0.8795180722891567,6.578313253012048,1.108522378908645,-6.997547516860821,7.23973022685469,3.0,0.48906648906648903,2044.7117566954153,0.19217994289377077,-0.35067886486801386,-0.13705495017772837,1633.6996336996335,-1.0,71.20898225280695,0.49020807989243415,
2023-08-16 13:20:00.757000,-7.0361445783132535,0.8795180722891567,6.602409638554217,1.1232372777437154,-7.090741876149601,7.210300429184549,3.0,0.48906648906648903,2044.7117566954153,0.11479517510634608,-0.2574442048831659,-0.39601421828564776,1675.4578754578754,-1.0,71.20898225280695,0.4902010252698865,
2023-08-16 13:20:00.765000,-7.024096385542169,0.8795180722891567,6.566265060240964,1.1624770079705702,-7.017167381974248,7.20784794604537,3.0,0.48906648906648903,2044.7117566954153,-0.03915855719363742,-0.3174640172484112,-0.3149000640988289,1709.8901098901097,-1.0,71.20898225280695,0.4901937855489699,
2023-08-16 13:20:00.773000,-7.0361445783132535,0.8674698795180723,6.566265060240964,1.0864500306560392,-7.044144696505211,7.126916002452483,3.0,0.48906648906648903,2044.7117566954153,0.03682769069401549,-0.21094341821572188,-0.009906182623390191,1733.3333333333333,-1.0,71.20898225280695,0.4901863620216959,
2023-08-16 13:20:00.780000,-7.024096385542169,0.8674698795180723,6.578313253012048,1.0570202329858982,-7.039239730226854,7.217657878602084,3.0,0.48906648906648903,2044.7117566954153,0.11118233203193321,-0.4554513140259889,0.27853854670473766,1746.5201465201465,850.250244140625,70.56745989016905,0.49017875626806584,
2023-08-16 13:20:00.788000,-7.024096385542169,0.8795180722891567,6.578313253012048,1.091354996934396,-7.034334763948498,7.2029429797670135,3.0,0.48906648906648903,2044.7117566954153,-0.028553114620360476,-0.4538197074762537,0.12225394790513394,1747.2527472527472,-1.0,70.56745989016905,0.49017097013780964,
2023-08-16 13:20:00.796000,-7.0120481927710845,0.8915662650602411,6.55421686746988,1.091354996934396,-6.985285101164929,7.200490496627835,3.0,0.48906648906648903,2044.7117566954153,-0.08915564361051173,-0.16397645824835452,0.28541460287862,1739.194139194139,-1.0,70.56745989016905,0.4901630056137964,
2023-08-16 13:20:00.803000,-7.0,0.8674698795180723,6.578313253012048,1.1109748620478233,-7.071122011036174,7.225015328019619,3.0,0.48906648906648903,2044.7117566954153,-0.08833984033564414,-0.16572460812307055,0.2821513897791505,1717.9487179487178,-1.0,70.56745989016905,0.49015486495165683,
2023-08-16 13:20:00.811000,-7.0361445783132535,0.8915662650602411,6.55421686746988,1.1232372777437154,-7.0,7.190680564071122,3.0,0.48906648906648903,2044.7117566954153,0.018880018646931958,4.661732999250815E-4,0.38645766563720046,1685.7142857142856,-1.0,70.56745989016905,0.4901465506696757,
2023-08-16 13:20:00.819000,-7.048192771084338,0.8915662650602411,6.590361445783133,1.1134273451870018,-7.009809932556713,7.200490496627835,3.0,0.48906648906648903,2044.7117566954153,-0.0882232970106633,0.011304702523163701,0.18413845347007743,1643.956043956044,-1.0,70.56745989016905,0.49013806567704843,
2023-08-16 13:20:00.826000,-7.072289156626506,0.9156626506024097,6.590361445783133,1.1232372777437154,-7.083384426732066,7.1955855303494785,3.0,0.4886224886224886,2046.569741026806,0.11071615873200813,-0.06817784511392125,0.21152613484062693,1594.8717948717947,-1.0,70.56745989016905,0.4901294131039385,
2023-08-16 13:20:00.834000,-7.072289156626506,0.9036144578313253,6.578313253012048,1.1453096259963211,-7.152053954629062,7.175965665236051,3.0,0.48906648906648903,2044.7117566954153,-0.11899073480566313,-0.024357554921041684,0.22516170386341128,1545.054945054945,-1.0,70.56745989016905,0.49012059615223635,
2023-08-16 13:20:00.842000,-7.060240963855422,0.9156626506024097,6.590361445783133,1.0668301655426118,-7.071122011036174,7.215205395462906,3.0,0.48906648906648903,2044.7117566954153,-0.009556552648447682,-0.25359827515878963,-0.18973253306916843,1495.970695970696,-1.0,70.56745989016905,0.49011161834040395,
2023-08-16 13:20:00.849000,-7.0361445783132535,0.8915662650602411,6.55421686746988,1.120784794604537,-7.09319435928878,7.27161250766401,3.0,0.48906648906648903,2044.7117566954153,-0.1628110249985427,-0.3594196142415939,-0.1273818542043003,1450.5494505494505,-1.0,70.56745989016905,0.4901024835027757,
2023-08-16 13:20:00.857000,-7.0361445783132535,0.8915662650602411,6.578313253012048,1.074187614960147,-7.120171673819742,7.161250766400981,3.0,0.48906648906648903,2044.7117566954153,-0.17796165724608096,-0.5102266767670879,-0.15814929199930056,1411.7216117216117,-1.0,70.56745989016905,0.4900931956399852,
2023-08-16 13:20:00.865000,-7.048192771084338,0.8674698795180723,6.590361445783133,1.0864500306560392,-7.07602697731453,7.1955855303494785,3.0,0.48906648906648903,2044.7117566954153,-0.28459879960375284,-0.5810850183555736,-0.05127906299166698,1375.091575091575,-1.0,70.56745989016905,0.4900837589079118,
2023-08-16 13:20:00.872000,-7.024096385542169,0.8795180722891567,6.590361445783133,1.1232372777437154,-7.07602697731453,7.20784794604537,3.0,0.48906648906648903,2044.7117566954153,-0.25138395198415026,-0.6835266010139267,-0.23401899656197175,1341.3919413919414,-1.0,70.56745989016905,0.4900741776064476,
2023-08-16 13:20:00.880000,-7.0361445783132535,0.8795180722891567,6.566265060240964,1.0987124463519313,-7.041692213366033,7.1661557326793375,3.0,0.48906648906648903,2044.7117566954153,-0.21851873433949015,-0.7054367461103673,0.05908746576539821,1308.4249084249084,-1.0,70.56745989016905,0.49006445616815103,
2023-08-16 13:20:00.888000,-7.0120481927710845,0.8915662650602411,6.566265060240964,1.0864500306560392,-7.053954629061924,7.225015328019619,3.0,0.48906648906648903,2044.7117566954153,-0.3560398578171427,-0.48470368859623614,0.07493735796282278,1278.3882783882782,-1.0,70.56745989016905,0.49005459914683425,
2023-08-16 13:20:00.895000,-7.0361445783132535,0.8795180722891567,6.590361445783133,1.125689760882894,-7.024524831391783,7.175965665236051,3.0,0.48906648906648903,2044.7117566954153,0.011421245848144537,-0.6190781422993992,0.3054600547753629,1252.014652014652,-1.0,70.56745989016905,0.4900446112061475,
2023-08-16 13:20:00.903000,-7.0361445783132535,0.8915662650602411,6.590361445783133,1.1134273451870018,-7.083384426732066,7.171060698957694,3.0,0.48906648906648903,2044.7117566954153,-0.4298117825301563,-0.7231513315074874,-0.015383718897500353,1232.2344322344322,-1.0,70.56745989016905,0.490034497108209,
2023-08-16 13:20:00.911000,-7.0361445783132535,0.8795180722891567,6.590361445783133,1.1281422440220723,-7.053954629061924,7.161250766400981,3.0,0.48951048951048953,2042.857142857143,-0.044752636792727986,-0.5514830138103839,-0.07470427131286067,1219.7802197802198,-1.0,70.56745989016905,0.49002426170233765,
2023-08-16 13:20:00.918000,-7.0361445783132535,0.8915662650602411,6.578313253012048,1.1305947271612506,-7.036787247087676,7.229920294297976,3.0,0.48906648906648903,2044.7117566954153,-0.11957345143056906,-0.5201328593904782,-0.2258609638132976,1208.7912087912086,-1.0,70.56745989016905,0.490013910063229,
2023-08-16 13:20:00.926000,-7.0120481927710845,0.9036144578313253,6.566265060240964,1.103617412630288,-7.051502145922746,7.185775597792765,3.0,0.48951048951048953,2042.857142857143,-0.011537789173125373,-0.3667618437154005,-0.08670823378590982,1200.0,-1.0,70.56745989016905,0.49000344721387634,
2023-08-16 13:20:00.934000,-7.0361445783132535,0.8795180722891567,6.602409638554217,1.120784794604537,-7.105456774984671,7.183323114653587,3.0,0.48951048951048953,2042.857142857143,0.17003671114736846,0.10791911893246285,-0.11665986830604294,1194.8717948717947,-1.0,70.56745989016905,0.48999287826438664,
2023-08-16 13:20:00.941000,-7.024096385542169,0.8795180722891567,6.578313253012048,1.1698344573881054,-7.051502145922746,7.141630901287553,3.0,0.48951048951048953,2042.857142857143,-0.21292465474039957,-0.1835557368451715,-0.25301555853388497,1193.4065934065934,-1.0,70.56745989016905,0.4899822086900312,
2023-08-16 13:20:00.949000,-7.048192771084338,0.8795180722891567,6.566265060240964,1.125689760882894,-7.164316370324953,7.1735131820968725,3.0,0.48951048951048953,2042.857142857143,-0.10372355923314405,-0.3012644950760437,-0.17399918419672514,1190.4761904761904,-1.0,70.56745989016905,0.48997144403522286,
2023-08-16 13:20:00.957000,-7.0361445783132535,0.855421686746988,6.590361445783133,1.061925199264255,-7.007357449417535,7.175965665236051,3.0,0.48951048951048953,2042.857142857143,-0.07202377483829579,-0.398811258085193,-0.21816910436454764,1183.8827838827838,-1.0,70.56745989016905,0.48996058990608216,
2023-08-16 13:20:00.964000,-7.048192771084338,0.855421686746988,6.590361445783133,1.1109748620478233,-7.115266707541386,7.244635193133047,3.0,0.48951048951048953,2042.857142857143,-0.06957636501369302,-0.3129188275741499,0.07272303478818254,1178.021978021978,-1.0,70.56745989016905,0.48994965196356965,
2023-08-16 13:20:00.972000,-7.0361445783132535,0.8674698795180723,6.566265060240964,1.079092581238504,-7.058859595340282,7.178418148375229,3.0,0.48951048951048953,2042.857142857143,0.007342229473806583,-0.5352834916380164,0.058388205815511886,1176.5567765567764,-1.0,70.56745989016905,0.48993863591720344,
2023-08-16 13:20:00.980000,-7.024096385542169,0.8674698795180723,6.566265060240964,1.0521152667075413,-7.10790925812385,7.156345800122624,3.0,0.48906648906648903,2044.7117566954153,-0.2051162519666679,-0.32667093992191637,0.07377192471301224,1177.2893772893772,-1.0,70.56745989016905,0.4899275475193691,
2023-08-16 13:20:00.987000,-7.024096385542169,0.8795180722891567,6.566265060240964,1.1109748620478233,-7.110361741263028,7.124463519313304,3.0,0.48906648906648903,2044.7117566954153,-0.06479808868947004,-0.5317871918885843,0.02797039799545499,1180.952380952381,-1.0,70.56745989016905,0.4899163925496832,
2023-08-16 13:20:00.995000,-7.0361445783132535,0.8674698795180723,6.55421686746988,1.1354996934396075,-7.0,7.1931330472103,3.0,0.48906648906648903,2044.7117566954153,-0.16747275799778483,-0.17306683759687713,0.39275100518617784,1186.8131868131868,-1.0,70.56745989016905,0.4899051767682469,
2023-08-16 13:20:01.003000,-7.048192771084338,0.8674698795180723,6.542168674698796,1.1183323114653587,-7.046597179644389,7.183323114653587,3.0,0.48906648906648903,2044.7117566954153,-0.13449099702814563,-0.3244566167472753,0.23658294971155538,1190.4761904761904,-1.0,70.56745989016905,0.48989390590081094,
2023-08-16 13:20:01.010000,-7.072289156626506,0.8795180722891567,6.542168674698796,1.137952176578786,-7.056407112201104,7.20784794604537,3.0,0.48906648906648903,2044.7117566954153,-0.10127614940854301,-0.3845929724375032,0.26606841093176387,1192.6739926739926,-1.0,70.56745989016905,0.48988258563468695,
2023-08-16 13:20:01.018000,-7.048192771084338,0.9036144578313253,6.566265060240964,1.1453096259963211,-7.147148988350705,7.1587982832618025,3.0,0.48906648906648903,2044.7117566954153,0.037060777343977155,-0.5197832294155356,0.1276149408542624,1200.0,-1.0,70.56745989016905,0.48987122147609646,
2023-08-16 13:20:01.026000,-7.024096385542169,0.8915662650602411,6.518072289156627,1.0938074800735744,-7.063764561618639,7.1661557326793375,3.0,0.48906648906648903,2044.7117566954153,-0.14556261290134592,-0.5345842316881296,0.019113105296894063,1207.3260073260074,-1.0,70.56745989016905,0.4898598187668316,
2023-08-16 13:20:01.033000,-7.048192771084338,0.8795180722891567,6.542168674698796,1.1183323114653587,-7.06131207847946,7.1440833844267315,3.0,0.48906648906648903,2044.7117566954153,-0.234485169861896,-0.30161412505098795,-0.056640055940795866,1218.3150183150183,-1.0,70.56745989016905,0.48984838282870063,
2023-08-16 13:20:01.041000,-7.060240963855422,0.8915662650602411,6.566265060240964,1.1183323114653587,-7.034334763948498,7.198038013488657,3.0,0.48906648906648903,2044.7117566954153,0.16397645824835452,-0.39578113163568607,-0.1629275683235244,1231.5018315018315,-1.0,70.56745989016905,0.48983691895903897,
2023-08-16 13:20:01.049000,-7.048192771084338,0.8674698795180723,6.578313253012048,1.1747394236664623,-7.085836909871245,7.229920294297976,3.0,0.48906648906648903,2044.7117566954153,0.04125633704329595,-0.503117533943243,-0.08216304411164853,1245.4212454212454,-1.0,70.56745989016905,0.48982543242657317,
2023-08-16 13:20:01.056000,-7.0361445783132535,0.8795180722891567,6.578313253012048,1.0668301655426118,-7.078479460453709,7.175965665236051,3.0,0.48906648906648903,2044.7117566954153,0.07412155468795606,-0.3038284482256273,-0.1409008799021038,1258.6080586080586,-1.0,70.56745989016905,0.4898139284676176,
2023-08-16 13:20:01.064000,-7.024096385542169,0.8674698795180723,6.590361445783133,1.1232372777437154,-7.034334763948498,7.1808706315144075,3.0,0.48906648906648903,2044.7117566954153,-0.15523570887477445,-0.24462443913524784,0.01095507254821989,1268.131868131868,-1.0,70.56745989016905,0.48980241242134626,
2023-08-16 13:20:01.071000,-7.0361445783132535,0.8915662650602411,6.578313253012048,1.0889025137952175,-7.078479460453709,7.27161250766401,3.0,0.48906648906648903,2044.7117566954153,-0.01654915214731002,-0.49053085484528836,-0.11269739525668669,1276.1904761904761,-1.0,70.56745989016905,0.4897908895674879,
2023-08-16 13:20:01.079000,-7.024096385542169,0.855421686746988,6.566265060240964,1.044757817290006,-6.990190067443286,7.190680564071122,3.0,0.48906648906648903,2044.7117566954153,-0.01654915214731002,-0.4891323349455166,-0.11281393858166752,1280.5860805860805,-1.0,70.56745989016905,0.4897793649958254,
2023-08-16 13:20:01.087000,-7.048192771084338,0.8674698795180723,6.55421686746988,1.108522378908645,-7.012262415695892,7.1931330472103,3.0,0.48906648906648903,2044.7117566954153,-0.22772565701299533,-0.10628751238272767,-0.15826583532428184,1283.5164835164835,-1.0,70.56745989016905,0.4897678437526654,
2023-08-16 13:20:01.094000,-7.048192771084338,0.8795180722891567,6.542168674698796,1.1526670754138564,-7.068669527896995,7.1735131820968725,3.0,0.48906648906648903,2044.7117566954153,0.08088106753685671,-0.4898315948954016,0.026105704795757703,1286.4468864468863,-1.0,70.56745989016905,0.4897563308382597,
2023-08-16 13:20:01.102000,-7.048192771084338,0.8795180722891567,6.602409638554217,1.1354996934396075,-7.046597179644389,7.212752912323728,3.0,0.48906648906648903,2044.7117566954153,-0.1177087582308722,-0.518967426140668,0.17819474389604348,1285.7142857142856,-1.0,70.56745989016905,0.48974483120444434,
2023-08-16 13:20:01.110000,-7.048192771084338,0.8915662650602411,6.566265060240964,1.137952176578786,-7.044144696505211,7.168608215818516,3.0,0.48906648906648903,2044.7117566954153,0.14323174640172398,-0.5003204941436977,-0.05384301614125059,1279.8534798534797,-1.0,70.56745989016905,0.48973334975247684,
2023-08-16 13:20:01.117000,-7.0361445783132535,0.8915662650602411,6.566265060240964,1.1575720416922133,-7.046597179644389,7.227467811158798,3.0,0.48906648906648903,2044.7117566954153,-0.05512499271604152,-0.2850649729036762,0.08379465066138327,1273.9926739926739,-1.0,70.56745989016905,0.4897218913310477,
2023-08-16 13:20:01.125000,-7.048192771084338,0.8795180722891567,6.566265060240964,1.1305947271612506,-7.039239730226854,7.1955855303494785,3.0,0.48906648906648903,2044.7117566954153,0.3122195676242649,-0.8509993590117133,-0.1017423227084668,1269.5970695970695,-1.0,70.56745989016905,0.4897104607344382,
2023-08-16 13:20:01.133000,-7.048192771084338,0.8915662650602411,6.590361445783133,1.1281422440220723,-7.056407112201104,7.1931330472103,3.0,0.4886224886224886,2046.569741026806,0.05197832294155373,-0.7243167647572993,0.04894819649204591,1265.2014652014652,-1.0,70.56745989016905,0.48969906270080515,
2023-08-16 13:20:01.140000,-7.048192771084338,0.9036144578313253,6.590361445783133,1.1698344573881054,-7.083384426732066,7.210300429184549,3.0,0.4886224886224886,2046.569741026806,-0.17574733407144158,-0.7485577763533602,0.09183614008507661,1261.5384615384614,-1.0,70.56745989016905,0.48968770190001754,
2023-08-16 13:20:01.148000,-7.0361445783132535,0.8795180722891567,6.602409638554217,1.1134273451870018,-7.09319435928878,7.1735131820968725,3.0,0.48906648906648903,2044.7117566954153,-0.1579162053493389,-0.8181341413670532,-0.33914107569488977,1258.6080586080586,-1.0,70.56745989016905,0.48967638288985776,
2023-08-16 13:20:01.156000,-7.0361445783132535,0.8915662650602411,6.590361445783133,1.0864500306560392,-7.009809932556713,7.200490496627835,3.0,0.48906648906648903,2044.7117566954153,0.056756599265776704,-0.6134840627003086,-0.4612784802750424,1257.8754578754579,-1.0,70.56745989016905,0.4896651101141367,
2023-08-16 13:20:01.163000,-7.0361445783132535,0.8674698795180723,6.602409638554217,1.1109748620478233,-7.026977314530963,7.261802575107295,3.0,0.48906648906648903,2044.7117566954153,-0.2637375444321432,-0.8981994056290423,0.05745585921566346,1256.4102564102564,-1.0,70.56745989016905,0.4896538879427084,
2023-08-16 13:20:01.171000,-7.024096385542169,0.9036144578313253,6.590361445783133,1.0962599632127528,-7.066217044757817,7.141630901287553,3.0,0.48906648906648903,2044.7117566954153,-0.13798729677757768,-0.8320027970398005,0.07190723151331495,1254.212454212454,-1.0,70.56745989016905,0.4896427206797867,
2023-08-16 13:20:01.179000,-7.0,0.9036144578313253,6.602409638554217,1.1134273451870018,-6.995095033721642,7.2029429797670135,3.0,0.48906648906648903,2044.7117566954153,0.26024124468271115,-0.5228133558650425,-0.1580327486743197,1252.014652014652,-1.0,70.56745989016905,0.48963161256171805,
2023-08-16 13:20:01.186000,-7.0120481927710845,0.8795180722891567,6.55421686746988,1.1894543225015328,-7.071122011036174,7.210300429184549,3.0,0.4886224886224886,2046.569741026806,-0.06118524561505717,-0.6744362216654041,-0.0654973486393568,1250.5494505494505,-1.0,70.56745989016905,0.4896205677547394,
2023-08-16 13:20:01.194000,-7.0361445783132535,0.8795180722891567,6.542168674698796,1.1109748620478233,-7.031882280809319,7.220110361741263,3.0,0.48906648906648903,2044.7117566954153,-0.2583765514830143,-0.6108035662257459,-0.17353301089680093,1249.8168498168498,-1.0,70.56745989016905,0.48960959020341865,
2023-08-16 13:20:01.202000,-7.0361445783132535,0.8795180722891567,6.566265060240964,1.108522378908645,-7.073574494175352,7.210300429184549,3.0,0.4886224886224886,2046.569741026806,-0.4390187052036597,-0.5021851873433946,-0.006176796223996482,1249.084249084249,-1.0,70.56745989016905,0.4895986837557714,
2023-08-16 13:20:01.209000,-7.0361445783132535,0.8674698795180723,6.566265060240964,1.1011649294911097,-7.090741876149601,7.168608215818516,3.0,0.48906648906648903,2044.7117566954153,-0.20651477186644143,-0.407085834158848,-0.25091777868422604,1250.5494505494505,-1.0,70.56745989016905,0.48958785217055933,
2023-08-16 13:20:01.217000,-7.0361445783132535,0.8795180722891567,6.566265060240964,1.1060698957694666,-7.110361741263028,7.163703249540159,3.0,0.4886224886224886,2046.569741026806,-0.14288211642678147,-0.3717732066895869,-0.30942252782471874,1254.212454212454,-1.0,70.56745989016905,0.48957709910337593,
2023-08-16 13:20:01.225000,-7.0361445783132535,0.8915662650602411,6.542168674698796,1.1060698957694666,-7.149601471489883,7.1735131820968725,3.0,0.48906648906648903,2044.7117566954153,-0.3553405978672577,-0.34951343161820375,-0.15360410232503927,1257.142857142857,-1.0,70.56745989016905,0.4895664281136579,
2023-08-16 13:20:01.232000,-7.0361445783132535,0.8433734939759037,6.578313253012048,1.108522378908645,-7.085836909871245,7.242182709993869,3.0,0.48906648906648903,2044.7117566954153,-0.32154303362274916,-0.26303828448225647,-0.3830779092127497,1257.8754578754579,-1.0,70.56745989016905,0.48955584265048546,
2023-08-16 13:20:01.240000,-7.060240963855422,0.855421686746988,6.578313253012048,1.108522378908645,-7.051502145922746,7.168608215818516,3.0,0.4886224886224886,2046.569741026806,0.07808402773731143,-0.4997377775187918,-0.22877454693782415,1259.3406593406592,-1.0,70.56745989016905,0.48954534620860685,
2023-08-16 13:20:01.248000,-7.048192771084338,0.8674698795180723,6.566265060240964,1.0275904353157572,-7.09319435928878,7.205395462906192,3.0,0.48906648906648903,2044.7117566954153,-0.15278829905017166,-0.6416875473457265,-0.22737602703805151,1259.3406593406592,-1.0,70.56745989016905,0.4895349420372598,
2023-08-16 13:20:01.255000,-7.048192771084338,0.8795180722891567,6.566265060240964,1.1011649294911097,-7.039239730226854,7.1955855303494785,3.0,0.48906648906648903,2044.7117566954153,0.167356214672804,-0.5970514538779794,0.09544898315948948,1258.6080586080586,-1.0,70.56745989016905,0.48952463326442325,
2023-08-16 13:20:01.263000,-7.048192771084338,0.8674698795180723,6.578313253012048,1.103617412630288,-7.058859595340282,7.161250766400981,3.0,0.48906648906648903,2044.7117566954153,-0.07983217761202745,-0.8274576073655392,-0.17959326379581614,1261.5384615384614,-1.0,70.56745989016905,0.48951442305257487,
2023-08-16 13:20:01.271000,-7.048192771084338,0.8674698795180723,6.614457831325302,1.108522378908645,-7.046597179644389,7.1955855303494785,3.0,0.48906648906648903,2044.7117566954153,-0.13973544665229368,-0.5993823203775996,-0.11631023833109956,1262.2710622710622,-1.0,70.56745989016905,0.4895043144565663,
2023-08-16 13:20:01.278000,-7.0361445783132535,0.8433734939759037,6.602409638554217,1.0374003678724708,-7.053954629061924,7.229920294297976,3.0,0.48906648906648903,2044.7117566954153,-0.289260532602995,-0.7851523803974122,0.07015908163859894,1263.7362637362637,-1.0,70.56745989016905,0.48949431042026187,
2023-08-16 13:20:01.286000,-7.0,0.8674698795180723,6.542168674698796,1.1354996934396075,-7.004904966278357,7.222562844880441,3.0,0.4886224886224886,2046.569741026806,-0.31641512732358196,-0.5700134024823733,0.07190723151331495,1265.2014652014652,-1.0,70.56745989016905,0.48948441377320473,
2023-08-16 13:20:01.294000,-7.024096385542169,0.8674698795180723,6.542168674698796,1.1404046597179645,-7.039239730226854,7.1735131820968725,3.0,0.4886224886224886,2046.569741026806,0.008391119398635847,-0.7107977390594945,0.31723093059845,1265.2014652014652,-1.0,70.56745989016905,0.48947462721678253,
2023-08-16 13:20:01.301000,-7.0361445783132535,0.8795180722891567,6.55421686746988,1.137952176578786,-7.103004291845493,7.183323114653587,3.0,0.4886224886224886,2046.569741026806,-0.03752695064390224,-0.7151098420837941,-0.03426373754443231,1265.2014652014652,-1.0,70.56745989016905,0.4894649531399948,
2023-08-16 13:20:01.309000,-7.024096385542169,0.9036144578313253,6.590361445783133,1.1477621091354997,-7.01471489883507,7.198038013488657,3.0,0.48906648906648903,2044.7117566954153,0.03764349396888308,-0.2765573101800595,0.3640813472408369,1265.2014652014652,-1.0,70.56745989016905,0.48945539362575496,
2023-08-16 13:20:01.317000,-7.024096385542169,0.8795180722891567,6.578313253012048,1.1305947271612506,-7.034334763948498,7.171060698957694,3.0,0.4886224886224886,2046.569741026806,-0.05605733931588995,-0.3442689819940574,0.08542625721111802,1265.9340659340658,-1.0,70.56745989016905,0.4894459507443627,
2023-08-16 13:20:01.324000,-7.0120481927710845,0.9156626506024097,6.590361445783133,1.1943592887798895,-7.026977314530963,7.1808706315144075,3.0,0.48906648906648903,2044.7117566954153,0.2036011887419153,0.2729444671056466,0.2215488607889984,1269.5970695970695,-1.0,70.56745989016905,0.48943662642091246,
2023-08-16 13:20:01.332000,-7.0120481927710845,0.9036144578313253,6.578313253012048,1.155119558553035,-7.049049662783568,7.215205395462906,3.0,0.48906648906648903,2044.7117566954153,-0.11817493153079728,-0.12190431793019099,0.12971272070392179,1274.7252747252746,-1.0,70.56745989016905,0.48942742242046117,
2023-08-16 13:20:01.340000,-7.0120481927710845,0.8795180722891567,6.55421686746988,1.103617412630288,-7.06131207847946,7.1955855303494785,3.0,0.4886224886224886,2046.569741026806,-0.009206922673503438,0.4633762601247014,0.5111590233669367,1277.6556776556777,-1.0,70.56745989016905,0.48941834050366106,
2023-08-16 13:20:01.347000,-7.0361445783132535,0.8674698795180723,6.566265060240964,1.1134273451870018,-7.002452483139178,7.1931330472103,3.0,0.48906648906648903,2044.7117566954153,-0.1774954839461576,0.3438028086941323,0.1713186877221607,1281.3186813186812,-1.0,70.56745989016905,0.4894093821354613,
2023-08-16 13:20:01.355000,-7.060240963855422,0.8795180722891567,6.55421686746988,1.125689760882894,-7.06131207847946,7.178418148375229,3.0,0.48906648906648903,2044.7117566954153,-0.17388264087174474,0.34706602179360097,0.17003671114736887,1282.7838827838827,-1.0,70.56745989016905,0.4894005486095407,
2023-08-16 13:20:01.363000,-7.048192771084338,0.855421686746988,6.590361445783133,1.1305947271612506,-7.159411404046597,7.14653586756591,3.0,0.4886224886224886,2046.569741026806,0.14742730610104277,0.13495717032806898,0.032165957694772915,1284.2490842490843,-1.0,70.56745989016905,0.48939184120456025,
2023-08-16 13:20:01.370000,-7.072289156626506,0.8433734939759037,6.590361445783133,1.1281422440220723,-7.051502145922746,7.229920294297976,3.0,0.48906648906648903,2044.7117566954153,-0.1881009265194328,0.03309830429462177,0.14008507662723618,1284.9816849816848,-1.0,70.56745989016905,0.48938326089358725,
2023-08-16 13:20:01.378000,-7.048192771084338,0.8674698795180723,6.578313253012048,1.0889025137952175,-7.049049662783568,7.229920294297976,3.0,0.4886224886224886,2046.569741026806,0.05967018239030283,-0.26630149758172683,-0.07400501136297435,1284.9816849816848,-1.0,70.56745989016905,0.48937480846934883,
2023-08-16 13:20:01.386000,-7.048192771084338,0.9156626506024097,6.55421686746988,1.1404046597179645,-7.125076640098099,7.185775597792765,3.0,0.48906648906648903,2044.7117566954153,0.07586970456267034,-0.6850416642386811,-0.23868072956121433,1282.7838827838827,-1.0,70.56745989016905,0.4893664845521182,
2023-08-16 13:20:01.393000,-7.0361445783132535,0.9277108433734941,6.542168674698796,1.179644389944819,-7.041692213366033,7.205395462906192,3.0,0.48906648906648903,2044.7117566954153,-0.2556960550084499,-0.6437853271953851,-0.3431035487442456,1281.3186813186812,-1.0,70.56745989016905,0.48935828957687094,
2023-08-16 13:20:01.401000,-7.024096385542169,0.9277108433734941,6.590361445783133,1.1698344573881054,-7.098099325567136,7.134273451870018,3.0,0.48906648906648903,2044.7117566954153,-0.09976108618378868,-0.8289726705902918,-0.33937416234485185,1282.7838827838827,-1.0,70.56745989016905,0.4893502239511823,
2023-08-16 13:20:01.409000,-7.024096385542169,0.9156626506024097,6.602409638554217,1.1134273451870018,-7.056407112201104,7.234825260576333,3.0,0.48906648906648903,2044.7117566954153,-0.006876056173883237,-0.34345317871918807,-0.015267175572519083,1284.9816849816848,-1.0,70.56745989016905,0.4893422879157475,
2023-08-16 13:20:01.416000,-7.048192771084338,0.8674698795180723,6.626506024096386,1.1453096259963211,-7.068669527896995,7.283874923359901,3.0,0.4886224886224886,2046.569741026806,0.03904201386865485,-0.4271312860555918,-0.13414136705320182,1285.7142857142856,-1.0,70.56745989016905,0.48933448140543684,
2023-08-16 13:20:01.424000,-7.060240963855422,0.8313253012048193,6.650602409638554,1.1011649294911097,-7.012262415695892,7.278969957081545,3.0,0.4886224886224886,2046.569741026806,-0.06712895518909198,-0.1279645708292049,-0.03880892721869361,1285.7142857142856,-1.0,70.56745989016905,0.4893268040594891,
2023-08-16 13:20:01.432000,-7.048192771084338,0.8313253012048193,6.614457831325302,1.1060698957694666,-7.090741876149601,7.188228080931943,3.0,0.4886224886224886,2046.569741026806,0.19404463609346762,-0.12481790105471711,-0.23530097313676357,1286.4468864468863,-1.0,70.56745989016905,0.48931925532818904,
2023-08-16 13:20:01.439000,-7.0361445783132535,0.8313253012048193,6.602409638554217,1.0938074800735744,-7.078479460453709,7.225015328019619,3.0,0.4886224886224886,2046.569741026806,-0.06771167181399616,-0.09148651011013366,-0.7526367927276963,1284.2490842490843,-1.0,70.56745989016905,0.4893118344623713,
2023-08-16 13:20:01.447000,-7.0120481927710845,0.8313253012048193,6.602409638554217,1.0692826486817903,-7.058859595340282,7.1440833844267315,3.0,0.4886224886224886,2046.569741026806,0.20849600839111912,0.0651477186644143,-0.4237515296311402,1282.7838827838827,-1.0,70.56745989016905,0.4893045406526463,
2023-08-16 13:20:01.454000,-7.0120481927710845,0.8072289156626506,6.578313253012048,1.015328019619865,-7.068669527896995,7.234825260576333,3.0,0.4886224886224886,2046.569741026806,0.19509352601829688,0.510692850067013,-0.14602878620127013,1282.051282051282,-1.0,70.56745989016905,0.48929737287119857,
2023-08-16 13:20:01.462000,-7.024096385542169,0.8433734939759037,6.590361445783133,1.0938074800735744,-7.049049662783568,7.200490496627835,3.0,0.4886224886224886,2046.569741026806,0.11805838820581471,0.018064215372064367,0.05291066954140216,1282.7838827838827,-1.0,70.56745989016905,0.48929032974556685,
2023-08-16 13:20:01.470000,-7.0120481927710845,0.8433734939759037,6.602409638554217,1.103617412630288,-6.992642550582464,7.200490496627835,3.0,0.48906648906648903,2044.7117566954153,0.2566284016082983,0.4330749956296249,0.29450498222714305,1283.5164835164835,-1.0,70.56745989016905,0.4892834097096179,
2023-08-16 13:20:01.477000,-7.0361445783132535,0.855421686746988,6.63855421686747,1.120784794604537,-7.090741876149601,7.256897608828939,3.0,0.4886224886224886,2046.569741026806,-0.003263213099470364,0.049647456441931796,0.5652351261581494,1287.179487179487,-1.0,70.56745989016905,0.4892766111550156,
2023-08-16 13:20:01.485000,-7.096385542168675,0.8674698795180723,6.63855421686747,1.1134273451870018,-7.159411404046597,7.242182709993869,3.0,0.48906648906648903,2044.7117566954153,0.22679331041314688,0.1885670998193579,0.7872501602470716,1295.2380952380952,-1.0,70.56745989016905,0.4892699323064961,
2023-08-16 13:20:01.493000,-7.096385542168675,0.8433734939759037,6.650602409638554,1.0938074800735744,-7.105456774984671,7.256897608828939,3.0,0.48906648906648903,2044.7117566954153,0.11794184488083388,-0.2710797739059498,0.5033506205932056,1309.1575091575091,-1.0,70.56745989016905,0.48926337121543956,
2023-08-16 13:20:01.500000,-7.1084337349397595,0.855421686746988,6.614457831325302,1.0717351318209687,-7.1446965052115265,7.2029429797670135,3.0,0.4886224886224886,2046.569741026806,-0.0055940795990905645,0.09766330633413015,0.09929491288386447,1327.4725274725274,-1.0,70.56745989016905,0.48925692592443293,
2023-08-16 13:20:01.508000,-7.060240963855422,0.8313253012048193,6.614457831325302,1.125689760882894,-7.137339055793991,7.1514408338442665,3.0,0.4886224886224886,2046.569741026806,-0.43330808227958656,0.06771167181399616,0.06689586853912943,1353.113553113553,-1.0,70.56745989016905,0.48925059418538963,
2023-08-16 13:20:01.516000,-7.0361445783132535,0.8072289156626506,6.590361445783133,1.0864500306560392,-6.985285101164929,7.178418148375229,3.0,0.4886224886224886,2046.569741026806,-0.6733873317405749,0.14777693607598702,-0.3787658061884505,1382.4175824175823,-1.0,70.56745989016905,0.48924437344455923,
2023-08-16 13:20:01.523000,-7.0,0.8072289156626506,6.542168674698796,1.0374003678724708,-6.992642550582464,7.161250766400981,3.0,0.4886224886224886,2046.569741026806,-0.8513489889866558,-0.005360992949128891,-0.04125633704329595,1417.5824175824175,-1.0,70.56745989016905,0.4892382609871924,
2023-08-16 13:20:01.531000,-6.951807228915663,0.855421686746988,6.530120481927711,0.9981606376456161,-6.995095033721642,7.13182096873084,3.0,0.4886224886224886,2046.569741026806,-0.9065905250276781,0.04242177029310605,0.36734456034030644,1461.5384615384614,-1.0,70.56745989016905,0.4892322539439769,
2023-08-16 13:20:01.539000,-6.963855421686747,0.8313253012048193,6.542168674698796,1.0987124463519313,-7.019619865113427,7.2323727774371545,3.0,0.4886224886224886,2046.569741026806,-0.32014451372297564,0.3951984150107801,0.6964629100868247,1513.5531135531135,-1.0,70.56745989016905,0.48922634929798153,
2023-08-16 13:20:01.546000,-7.0120481927710845,0.8313253012048193,6.590361445783133,1.0104230533415082,-7.024524831391783,7.200490496627835,3.0,0.4886224886224886,2046.569741026806,-0.4098828739583933,0.3337800827457613,0.993764932113513,1571.4285714285713,-1.0,70.56745989016905,0.4892205438921031,
2023-08-16 13:20:01.554000,-7.072289156626506,0.8433734939759037,6.602409638554217,1.0987124463519313,-7.080931943592887,7.2323727774371545,3.0,0.48906648906648903,2044.7117566954153,-0.3612843074412908,0.9009964454285876,1.320086242060486,1632.2344322344322,-1.0,70.56745989016905,0.48921483443699676,
2023-08-16 13:20:01.562000,-7.048192771084338,0.855421686746988,6.590361445783133,1.103617412630288,-7.049049662783568,7.264255058246474,3.0,0.4886224886224886,2046.569741026806,-0.6783986947147594,0.30161412505098795,0.8674319678340424,1687.9120879120878,765.9912109375,78.32988047808765,0.48920921766877035,
2023-08-16 13:20:01.569000,-7.0361445783132535,0.8674698795180723,6.626506024096386,1.049662783568363,-7.071122011036174,7.212752912323728,3.0,0.48906648906648903,2044.7117566954153,-0.5826000815803279,0.2595419847328244,0.6175630790746461,1737.7289377289376,-1.0,78.32988047808765,0.48920369023041854,
2023-08-16 13:20:01.577000,-7.0,0.8674698795180723,6.590361445783133,1.1109748620478233,-7.017167381974248,7.244635193133047,3.0,0.48906648906648903,2044.7117566954153,-0.6674436221665401,0.3958976749606669,0.98024590641571,1778.021978021978,-1.0,78.32988047808765,0.4891982486714557,
2023-08-16 13:20:01.585000,-6.987951807228916,0.855421686746988,6.626506024096386,1.1477621091354997,-6.96811771919068,7.220110361741263,3.0,0.48906648906648903,2044.7117566954153,-0.8743080240079257,0.7013577297360294,1.0956237981469612,1807.3260073260071,-1.0,78.32988047808765,0.4891928896184127,
2023-08-16 13:20:01.592000,-6.975903614457832,0.8674698795180723,6.614457831325302,1.1011649294911097,-6.958307786633966,7.259350091968117,3.0,0.4886224886224886,2046.569741026806,-0.5787541518559517,0.8189499446419207,1.1939863644309772,1824.1758241758241,-1.0,78.32988047808765,0.48918760964801017,
2023-08-16 13:20:01.600000,-6.951807228915663,0.8795180722891567,6.602409638554217,1.0717351318209687,-6.992642550582464,7.222562844880441,3.0,0.4886224886224886,2046.569741026806,-0.9103199114270736,1.3340714410582124,1.4128547287454112,1830.03663003663,-1.0,78.32988047808765,0.48918240528906237,
2023-08-16 13:20:01.608000,-6.963855421686747,0.8795180722891567,6.55421686746988,1.1428571428571428,-7.019619865113427,7.168608215818516,3.0,0.4886224886224886,2046.569741026806,-0.6719888118408014,2.133791737078259,1.2036594604044057,1820.5128205128203,-1.0,78.32988047808765,0.4891772729931491,
2023-08-16 13:20:01.615000,-7.0,0.8915662650602411,6.542168674698796,1.125689760882894,-7.009809932556713,7.139178418148375,3.0,0.4886224886224886,2046.569741026806,-0.6513606433191533,2.150457432550551,1.3175222889109024,1797.069597069597,-1.0,78.32988047808765,0.4891722091370444,
2023-08-16 13:20:01.623000,-7.024096385542169,0.8795180722891567,6.518072289156627,1.1330472103004292,-7.031882280809319,7.134273451870018,3.0,0.4886224886224886,2046.569741026806,-0.5247945923897203,2.5193170561156104,1.446302663014976,1763.3699633699632,-1.0,78.32988047808765,0.4891672098969426,
2023-08-16 13:20:01.631000,-7.060240963855422,0.8674698795180723,6.542168674698796,1.0962599632127528,-7.125076640098099,7.122011036174126,3.0,0.4886224886224886,2046.569741026806,-0.7038051395606322,2.6853912942136233,1.8019928908571765,1721.6117216117216,-1.0,78.32988047808765,0.4891622712817685,
2023-08-16 13:20:01.638000,-7.1084337349397595,0.8795180722891567,6.530120481927711,1.0570202329858982,-7.110361741263028,7.168608215818516,3.0,0.4886224886224886,2046.569741026806,-0.6999592098362559,2.6652292989919006,1.7861429986597515,1671.7948717948716,-1.0,78.32988047808765,0.4891573894327606,
2023-08-16 13:20:01.646000,-7.144578313253012,0.9036144578313253,6.518072289156627,1.1747394236664623,-7.220723482526057,7.119558553034947,3.0,0.4886224886224886,2046.569741026806,-0.663248062467223,1.7617854437387102,1.3133267292115844,1620.5128205128203,-1.0,78.32988047808765,0.48915256061469947,
2023-08-16 13:20:01.654000,-7.144578313253012,0.8915662650602411,6.481927710843374,1.1305947271612506,-7.142244022072348,7.065603923973022,3.0,0.4886224886224886,2046.569741026806,-0.5356331216129588,1.7680787832876876,1.2410698677233263,1569.9633699633698,-1.0,78.32988047808765,0.4891477810795441,
2023-08-16 13:20:01.661000,-7.1325301204819285,0.9156626506024097,6.46987951807229,1.150214592274678,-7.149601471489883,7.0778663396689145,3.0,0.4886224886224886,2046.569741026806,-0.9898024590641568,0.8402773731134555,1.233261464949595,1519.4139194139193,-1.0,78.32988047808765,0.48914304694039684,
2023-08-16 13:20:01.669000,-7.120481927710844,0.9397590361445783,6.457831325301205,1.1600245248313916,-7.122624156958921,7.055793991416309,3.0,0.4886224886224886,2046.569741026806,-0.7062525493852332,0.45498514072606383,1.2534234601713186,1472.5274725274724,-1.0,78.32988047808765,0.48913835420433904,
2023-08-16 13:20:01.677000,-7.120481927710844,0.9518072289156627,6.457831325301205,1.213979153893317,-7.127529123237277,7.134273451870018,3.0,0.4886224886224886,2046.569741026806,-0.5334187984383195,-0.23262047666219912,1.2148476196025872,1432.2344322344322,-1.0,78.32988047808765,0.489133699071326,
2023-08-16 13:20:01.684000,-7.120481927710844,0.9518072289156627,6.506024096385542,1.155119558553035,-7.132434089515634,7.148988350705088,3.0,0.4886224886224886,2046.569741026806,-0.4509061243517276,-0.31991142707301573,1.2227725657012989,1397.069597069597,-1.0,78.32988047808765,0.4891290779245198,
2023-08-16 13:20:01.692000,-7.120481927710844,0.9397590361445783,6.542168674698796,1.1894543225015328,-7.103004291845493,7.168608215818516,3.0,0.4886224886224886,2046.569741026806,-0.5229298991900234,-0.5150049530913109,0.9992424683876234,1366.3003663003662,-1.0,78.32988047808765,0.4891244871928264,
2023-08-16 13:20:01.700000,-7.072289156626506,0.9518072289156627,6.506024096385542,1.2164316370324952,-7.041692213366033,7.141630901287553,3.0,0.4886224886224886,2046.569741026806,-0.7149932987588133,-0.8645183847095164,0.3502126915680898,1336.9963369963368,-1.0,78.32988047808765,0.48911992336231286,
2023-08-16 13:20:01.707000,-7.0361445783132535,0.963855421686747,6.518072289156627,1.2458614347026364,-7.022072348252605,7.13182096873084,3.0,0.4886224886224886,2046.569741026806,-0.6025289901520892,-1.072082046500787,0.2692150807062523,1311.3553113553112,-1.0,78.32988047808765,0.48911538298717533,
2023-08-16 13:20:01.715000,-7.024096385542169,0.963855421686747,6.542168674698796,1.2041692213366033,-6.997547516860821,7.1587982832618025,3.0,0.4886224886224886,2046.569741026806,-0.533768428413262,-0.9417866091719602,0.2348347998368398,1290.10989010989,-1.0,78.32988047808765,0.4891108627002196,
2023-08-16 13:20:01.723000,-7.0,0.963855421686747,6.542168674698796,1.1992642550582464,-7.071122011036174,7.178418148375229,3.0,0.4886224886224886,2046.569741026806,-0.3929840918361408,-0.719771575083038,0.11024998543208457,1271.7948717948716,-1.0,78.32988047808765,0.489106359222829,
2023-08-16 13:20:01.730000,-7.0,0.963855421686747,6.590361445783133,1.1919068056407112,-7.022072348252605,7.266707541385653,3.0,0.4886224886224886,2046.569741026806,0.14766039275100445,-0.5303886719888126,-0.22656022376318435,1259.3406593406592,-1.0,78.32988047808765,0.48910186937438616,
2023-08-16 13:20:01.738000,-7.0,0.9397590361445783,6.602409638554217,1.179644389944819,-6.987737584304107,7.227467811158798,3.0,0.4886224886224886,2046.569741026806,-0.048831653167064205,-0.32632130994697217,-0.5464716508361979,1252.014652014652,-1.0,78.32988047808765,0.4890973900811278,
2023-08-16 13:20:01.746000,-7.024096385542169,0.963855421686747,6.602409638554217,1.2385039852851012,-7.034334763948498,7.237277743715511,3.0,0.4881784881784882,2048.431105047749,-0.21350737136530548,0.30394499155060817,-0.313385000874075,1246.153846153846,-1.0,78.32988047808765,0.489092918384408,
2023-08-16 13:20:01.753000,-7.0361445783132535,0.963855421686747,6.590361445783133,1.1354996934396075,-7.031882280809319,7.200490496627835,3.0,0.4886224886224886,2046.569741026806,-0.10360701590816322,0.167356214672804,-0.19171376959384698,1241.7582417582416,-1.0,78.32988047808765,0.48908845143780844,
2023-08-16 13:20:01.761000,-7.0361445783132535,0.9759036144578314,6.614457831325302,1.184549356223176,-7.024524831391783,7.1735131820968725,3.0,0.4886224886224886,2046.569741026806,0.114329001806421,0.6392401375211239,-0.6662781889167302,1238.8278388278388,-1.0,78.32988047808765,0.48908398662120683,
2023-08-16 13:20:01.769000,-7.048192771084338,0.9397590361445783,6.590361445783133,1.1992642550582464,-7.058859595340282,7.222562844880441,3.0,0.4886224886224886,2046.569741026806,0.4979896276440775,0.5891265077792669,-0.7880659635219388,1237.3626373626373,-1.0,78.32988047808765,0.48907952141936567,
2023-08-16 13:20:01.776000,-7.060240963855422,0.9518072289156627,6.590361445783133,1.1894543225015328,-7.039239730226854,7.1931330472103,3.0,0.4886224886224886,2046.569741026806,-0.08426082396130792,0.40149175455975744,-0.8778043237573566,1238.095238095238,-1.0,78.32988047808765,0.4890750533102277,
2023-08-16 13:20:01.784000,-7.060240963855422,0.9518072289156627,6.566265060240964,1.137952176578786,-7.063764561618639,7.102391171060699,3.0,0.4886224886224886,2046.569741026806,0.05605733931588995,0.3840102558125973,-0.7660392751005186,1238.8278388278388,-1.0,78.32988047808765,0.4890705799187363,
2023-08-16 13:20:01.792000,-7.060240963855422,0.9397590361445783,6.578313253012048,1.2188841201716738,-7.100551808706315,7.200490496627835,3.0,0.4886224886224886,2046.569741026806,-0.017831128722102692,0.4105821339082801,-0.9734863935668087,1241.7582417582416,-1.0,78.32988047808765,0.4890660990207204,
2023-08-16 13:20:01.799000,-7.072289156626506,0.9156626506024097,6.590361445783133,1.1011649294911097,-7.10790925812385,7.139178418148375,3.0,0.4886224886224886,2046.569741026806,-0.09218577006002042,0.26898199405629125,-1.0888642852980592,1243.956043956044,-1.0,78.32988047808765,0.489061608546148,
2023-08-16 13:20:01.807000,-7.072289156626506,0.8795180722891567,6.55421686746988,1.0889025137952175,-7.122624156958921,7.153893316983446,3.0,0.4886224886224886,2046.569741026806,0.0015150632247543454,0.20698094516636475,-0.9119515179768082,1247.6190476190475,-1.0,78.32988047808765,0.48905710658175594,
2023-08-16 13:20:01.815000,-7.0843373493975905,0.8795180722891567,6.530120481927711,1.1109748620478233,-7.066217044757817,7.097486204782342,3.0,0.4886224886224886,2046.569741026806,0.0029135831245261186,0.3591865275916323,-1.2706718722685155,1253.4798534798533,-1.0,78.32988047808765,0.4890525913730715,
2023-08-16 13:20:01.822000,-7.0843373493975905,0.855421686746988,6.542168674698796,1.0668301655426118,-7.129981606376456,7.210300429184549,3.0,0.4886224886224886,2046.569741026806,0.17306683759687713,-0.23658294971155625,-0.9845580094400096,1257.8754578754579,-1.0,78.32988047808765,0.48904806132583906,
2023-08-16 13:20:01.830000,-7.0843373493975905,0.8433734939759037,6.542168674698796,1.0472103004291844,-7.085836909871245,7.171060698957694,3.0,0.4886224886224886,2046.569741026806,-0.11689295495600462,0.25627877163335405,-1.2822096614416405,1260.8058608058607,-1.0,78.32988047808765,0.4890435150068708,
2023-08-16 13:20:01.837000,-7.060240963855422,0.7951807228915663,6.55421686746988,1.0275904353157572,-7.10790925812385,7.153893316983446,3.0,0.4886224886224886,2046.569741026806,0.054891906066079854,0.17994289377075864,-1.1192820931181169,1267.3992673992673,-1.0,78.32988047808765,0.48903895114434326,
2023-08-16 13:20:01.845000,-7.048192771084338,0.819277108433735,6.566265060240964,1.074187614960147,-7.088289393010423,7.153893316983446,3.0,0.4886224886224886,2046.569741026806,0.11677641163102377,-0.0939339199347347,-0.8352660101392694,1279.120879120879,-1.0,78.32988047808765,0.4890343686275585,
2023-08-16 13:20:01.853000,-7.060240963855422,0.8072289156626506,6.566265060240964,1.0349478847332925,-7.056407112201104,7.14653586756591,3.0,0.4886224886224886,2046.569741026806,0.33168230289610107,0.2890274459530333,-1.1519142241128135,1293.7728937728937,-1.0,78.32988047808765,0.4890297665061981,
2023-08-16 13:20:01.860000,-7.060240963855422,0.7951807228915663,6.542168674698796,1.0423053341508277,-7.071122011036174,7.20784794604537,3.0,0.4886224886224886,2046.569741026806,0.10104306275858134,0.25604568498339236,-0.8091603053435115,1311.3553113553112,-1.0,78.32988047808765,0.4890251441278422,
2023-08-16 13:20:01.868000,-7.0361445783132535,0.783132530120482,6.55421686746988,1.0374003678724708,-7.024524831391783,7.168608215818516,3.0,0.4886224886224886,2046.569741026806,0.3147835207738485,0.267933104131462,-0.7287454111065793,1330.4029304029302,-1.0,78.32988047808765,0.4890205009771551,
2023-08-16 13:20:01.876000,-7.024096385542169,0.783132530120482,6.55421686746988,1.0717351318209687,-7.103004291845493,7.1735131820968725,3.0,0.4881784881784882,2048.431105047749,0.4039391643843602,0.35545714119223853,-0.19008216304411138,1345.7875457875457,-1.0,78.32988047808765,0.48901583668490783,
2023-08-16 13:20:01.883000,-7.060240963855422,0.783132530120482,6.566265060240964,1.049662783568363,-7.095646842427958,7.13182096873084,3.0,0.4886224886224886,2046.569741026806,0.17201794767204787,0.5636035196084151,-0.26758347415651773,1358.974358974359,-1.0,78.32988047808765,0.4890111508661424,
2023-08-16 13:20:01.891000,-7.072289156626506,0.819277108433735,6.55421686746988,1.044757817290006,-7.115266707541386,7.1808706315144075,3.0,0.4886224886224886,2046.569741026806,0.44589476137754297,0.5866790979546641,0.008857292698560493,1372.161172161172,-1.0,78.32988047808765,0.4890064431168997,
2023-08-16 13:20:01.899000,-7.0843373493975905,0.819277108433735,6.602409638554217,1.0423053341508277,-7.056407112201104,7.188228080931943,3.0,0.4881784881784882,2048.431105047749,0.5792203251558767,0.5806188450556502,0.2680496474564424,1382.4175824175823,-1.0,78.32988047808765,0.4890017133188475,
2023-08-16 13:20:01.906000,-7.060240963855422,0.819277108433735,6.578313253012048,1.0815450643776823,-7.080931943592887,7.168608215818516,3.0,0.4881784881784882,2048.431105047749,0.40895052735854487,0.5582425266592863,0.19113105296894106,1388.278388278388,-1.0,78.32988047808765,0.4889969616246447,
2023-08-16 13:20:01.914000,-7.072289156626506,0.819277108433735,6.55421686746988,0.9981606376456161,-7.056407112201104,7.161250766400981,3.0,0.4881784881784882,2048.431105047749,0.40452188100926445,0.5504341238855546,0.18868364314433916,1391.2087912087911,-1.0,78.32988047808765,0.48899218825221197,
2023-08-16 13:20:01.922000,-7.0843373493975905,0.8313253012048193,6.542168674698796,1.032495401594114,-7.129981606376456,7.171060698957694,3.0,0.4886224886224886,2046.569741026806,0.3419381154944355,0.8950527358545545,0.4453120447526366,1389.7435897435896,-1.0,78.32988047808765,0.48898739334162655,
2023-08-16 13:20:01.929000,-7.072289156626506,0.8313253012048193,6.530120481927711,1.091354996934396,-7.120171673819742,7.141630901287553,3.0,0.4886224886224886,2046.569741026806,0.1418332265019522,1.1456208845638371,0.9583357613192707,1387.5457875457876,-1.0,78.32988047808765,0.48898257724800165,
2023-08-16 13:20:01.937000,-7.060240963855422,0.819277108433735,6.518072289156627,1.0864500306560392,-7.085836909871245,7.175965665236051,3.0,0.4881784881784882,2048.431105047749,-0.05594079599090911,1.1510984208379451,0.6592855894178663,1383.150183150183,-1.0,78.32988047808765,0.48897774055714016,
2023-08-16 13:20:01.945000,-7.072289156626506,0.8433734939759037,6.506024096385542,1.1011649294911097,-7.088289393010423,7.090128755364806,3.0,0.4886224886224886,2046.569741026806,-0.3424042887943588,1.022667676708817,0.7896975700716744,1377.2893772893772,-1.0,78.32988047808765,0.4889728837924917,
2023-08-16 13:20:01.952000,-7.048192771084338,0.8433734939759037,6.530120481927711,1.0938074800735744,-7.078479460453709,7.141630901287553,3.0,0.4881784881784882,2048.431105047749,-0.20208612551716096,0.9234893071499324,0.7958743662956707,1367.7655677655678,-1.0,78.32988047808765,0.4889680075373475,
2023-08-16 13:20:01.960000,-7.072289156626506,0.8313253012048193,6.542168674698796,1.0717351318209687,-7.100551808706315,7.1931330472103,3.0,0.4881784881784882,2048.431105047749,-0.5810850183555736,1.0836198356739124,1.2757997785676822,1358.2417582417581,-1.0,78.32988047808765,0.48896311243908414,
2023-08-16 13:20:01.968000,-7.0843373493975905,0.819277108433735,6.506024096385542,1.0374003678724708,-7.132434089515634,7.1661557326793375,3.0,0.4886224886224886,2046.569741026806,-0.19357846279354426,1.1653167064856367,0.9272186935493272,1348.7179487179487,-1.0,78.32988047808765,0.488958199042826,
2023-08-16 13:20:01.975000,-7.096385542168675,0.8313253012048193,6.530120481927711,1.137952176578786,-7.09319435928878,7.104843654199877,3.0,0.4881784881784882,2048.431105047749,-0.7097488491346653,0.9415535225219968,1.1788357321834388,1338.4615384615383,-1.0,78.32988047808765,0.4889532680720197,
2023-08-16 13:20:01.983000,-7.0843373493975905,0.8433734939759037,6.506024096385542,1.1134273451870018,-7.142244022072348,7.153893316983446,3.0,0.4881784881784882,2048.431105047749,-0.5038167938931297,1.0688188334013167,0.9856068993648391,1327.4725274725274,-1.0,78.32988047808765,0.4889483202933431,
2023-08-16 13:20:01.991000,-7.1084337349397595,0.819277108433735,6.506024096385542,1.061925199264255,-7.127529123237277,7.161250766400981,3.0,0.4881784881784882,2048.431105047749,-0.7437795000291355,1.1812831420080407,1.0687022900763359,1318.6813186813185,-1.0,78.32988047808765,0.488943356349944,
2023-08-16 13:20:01.998000,-7.0843373493975905,0.819277108433735,6.46987951807229,1.1011649294911097,-7.125076640098099,7.161250766400981,3.0,0.4881784881784882,2048.431105047749,-0.6449507604451952,1.077443039449916,1.1354816152904843,1309.1575091575091,-1.0,78.32988047808765,0.48893837689247,
2023-08-16 13:20:02.006000,-7.0843373493975905,0.819277108433735,6.481927710843374,1.0079705702023298,-7.198651134273452,7.153893316983446,3.0,0.4886224886224886,2046.569741026806,-0.486568381795933,1.0380513956063169,0.9754676300914866,1301.098901098901,-1.0,78.32988047808765,0.4889333825713047,
2023-08-16 13:20:02.014000,-7.1084337349397595,0.819277108433735,6.518072289156627,1.0177805027590434,-7.117719190680564,7.055793991416309,3.0,0.4886224886224886,2046.569741026806,-0.6344618611968991,0.9519258784453121,1.029194102907756,1293.7728937728937,-1.0,78.32988047808765,0.488928374178125,
2023-08-16 13:20:02.021000,-7.1325301204819285,0.8072289156626506,6.46987951807229,1.0055180870631515,-7.193746167995094,7.055793991416309,3.0,0.4881784881784882,2048.431105047749,-1.0252316298584006,1.4308024007924942,1.1590233669366583,1291.5750915750914,-1.0,78.32988047808765,0.48892335266011333,
2023-08-16 13:20:02.029000,-7.120481927710844,0.8072289156626506,6.46987951807229,1.0104230533415082,-7.142244022072348,7.060698957694665,3.0,0.4881784881784882,2048.431105047749,-0.8623040615348753,0.8056640055940794,1.2409533243983448,1290.10989010989,-1.0,78.32988047808765,0.488918318826077,
2023-08-16 13:20:02.037000,-7.1807228915662655,0.783132530120482,6.481927710843374,1.074187614960147,-7.230533415082771,7.087676272225628,3.0,0.4881784881784882,2048.431105047749,-1.3889633471242941,1.3301089680088571,1.397704096497873,1289.3772893772893,-1.0,78.32988047808765,0.48891327331910683,
2023-08-16 13:20:02.044000,-7.168674698795181,0.7951807228915663,6.46987951807229,1.0275904353157572,-7.191293684855916,7.102391171060699,3.0,0.4881784881784882,2048.431105047749,-1.377891731251092,0.4629100868247763,1.0793077326496123,1291.5750915750914,-1.0,78.32988047808765,0.4889082167485976,
2023-08-16 13:20:02.052000,-7.1807228915662655,0.7951807228915663,6.493975903614458,1.0521152667075413,-7.2109135499693435,7.092581238503985,3.0,0.48773448773448774,2050.2958579881656,-1.5011945690810566,0.24275974593555272,1.1746401724841204,1295.2380952380952,-1.0,78.32988047808765,0.48890314968379334,
2023-08-16 13:20:02.060000,-7.1325301204819285,0.7951807228915663,6.493975903614458,1.0104230533415082,-7.188841201716738,7.080318822808093,3.0,0.4881784881784882,2048.431105047749,-1.5938465124410004,-0.3124526542742283,0.8727929607831714,1298.168498168498,-1.0,78.32988047808765,0.4888980726371181,
2023-08-16 13:20:02.067000,-7.120481927710844,0.7710843373493976,6.493975903614458,1.015328019619865,-7.237890864500306,7.1146535867565905,3.0,0.4881784881784882,2048.431105047749,-1.5785793368684813,-0.6940155002622228,1.0765106928500667,1301.098901098901,-1.0,78.32988047808765,0.4888929860267047,
2023-08-16 13:20:02.075000,-7.1084337349397595,0.7590361445783133,6.493975903614458,0.9491109748620478,-7.166768853464132,7.048436541998774,3.0,0.4881784881784882,2048.431105047749,-1.6871977157508309,-0.7821222539479052,1.2644950760445195,1301.098901098901,-1.0,78.32988047808765,0.4888878902023727,
2023-08-16 13:20:02.083000,-7.0843373493975905,0.7590361445783133,6.481927710843374,0.9858982219497241,-7.149601471489883,7.148988350705088,3.0,0.4881784881784882,2048.431105047749,-1.824369209253539,-0.8561272653108788,1.297360293689179,1298.168498168498,-1.0,78.32988047808765,0.4888827854508944,
2023-08-16 13:20:02.090000,-7.1084337349397595,0.7590361445783133,6.506024096385542,0.9491109748620478,-7.088289393010423,7.122011036174126,3.0,0.4881784881784882,2048.431105047749,-2.0977798496591107,-1.1432900180642152,1.6199522172367575,1298.168498168498,-1.0,78.32988047808765,0.4888776719912119,
2023-08-16 13:20:02.098000,-7.096385542168675,0.7228915662650602,6.55421686746988,0.9662783568362967,-7.090741876149601,7.229920294297976,3.0,0.4881784881784882,2048.431105047749,-1.9431268574092424,-0.7993706660451021,1.5732183439193521,1299.6336996336995,-1.0,78.32988047808765,0.48887254997019025,
2023-08-16 13:20:02.106000,-7.1084337349397595,0.7228915662650602,6.566265060240964,0.9000613120784794,-7.156958920907418,7.200490496627835,3.0,0.4881784881784882,2048.431105047749,-1.6650544840044286,-1.2242876289260527,2.0624672221898486,1300.3663003663003,-1.0,78.32988047808765,0.48886741945893575,
2023-08-16 13:20:02.113000,-7.0843373493975905,0.746987951807229,6.542168674698796,0.9834457388105456,-7.07602697731453,7.161250766400981,3.0,0.4881784881784882,2048.431105047749,-2.214905891265077,-1.3866324806246721,1.800944000932347,1304.0293040293038,-1.0,78.32988047808765,0.4888622804497157,
2023-08-16 13:20:02.121000,-7.072289156626506,0.7710843373493976,6.518072289156627,1.020232985898222,-7.039239730226854,7.124463519313304,3.0,0.4881784881784882,2048.431105047749,-2.0409067070683533,-1.34910552998077,1.9364838878853217,1304.7619047619046,-1.0,78.32988047808765,0.4888571328535038,
2023-08-16 13:20:02.129000,-7.048192771084338,0.783132530120482,6.493975903614458,1.0055180870631515,-7.063764561618639,7.1735131820968725,3.0,0.4881784881784882,2048.431105047749,-2.526076568964513,-1.4170502884447296,2.361983567391177,1304.7619047619046,-1.0,78.32988047808765,0.4888519764981711,
2023-08-16 13:20:02.136000,-7.048192771084338,0.8072289156626506,6.530120481927711,1.0079705702023298,-7.058859595340282,7.205395462906192,3.0,0.4881784881784882,2048.431105047749,-2.378649262863468,-0.9085717615523576,2.7827049705728095,1307.6923076923076,-1.0,78.32988047808765,0.488846811127346,
2023-08-16 13:20:02.144000,-7.0361445783132535,0.7951807228915663,6.542168674698796,1.0398528510116491,-7.049049662783568,7.1514408338442665,3.0,0.4881784881784882,2048.431105047749,-2.4326088223297013,-0.8457549093875653,2.5905250276790404,1312.087912087912,-1.0,78.32988047808765,0.4888416363999548,
2023-08-16 13:20:02.152000,-7.048192771084338,0.855421686746988,6.542168674698796,1.137952176578786,-7.056407112201104,7.141630901287553,3.0,0.4881784881784882,2048.431105047749,-2.5793368684808575,-0.5546296835848734,2.5679156226327136,1317.9487179487178,-1.0,78.32988047808765,0.48883645189045144,
2023-08-16 13:20:02.159000,-7.060240963855422,0.8674698795180723,6.530120481927711,1.0815450643776823,-7.085836909871245,7.1955855303494785,3.0,0.4881784881784882,2048.431105047749,-2.9384068527475105,-0.20523279529165048,2.7405162869296658,1324.5421245421244,-1.0,78.32988047808765,0.48883125722849374,
2023-08-16 13:20:02.167000,-7.0843373493975905,0.8795180722891567,6.542168674698796,1.1183323114653587,-7.110361741263028,7.14653586756591,3.0,0.4881784881784882,2048.431105047749,-3.0028553114620347,-0.19287920284365753,2.910669541402016,1331.135531135531,-1.0,78.32988047808765,0.488826051941437,
2023-08-16 13:20:02.175000,-7.096385542168675,0.855421686746988,6.590361445783133,1.0545677498467196,-7.090741876149601,7.220110361741263,3.0,0.4881784881784882,2048.431105047749,-3.084319095623797,-0.09125342346017198,2.9458656255462965,1340.6593406593406,-1.0,78.32988047808765,0.48882083546778526,
2023-08-16 13:20:02.182000,-7.0843373493975905,0.8433734939759037,6.614457831325302,1.1281422440220723,-7.063764561618639,7.225015328019619,3.0,0.4881784881784882,2048.431105047749,-3.2556377833459584,0.055824252665928276,2.6448342171202133,1346.5201465201465,-1.0,78.32988047808765,0.4888156071501591,
2023-08-16 13:20:02.190000,-7.072289156626506,0.8072289156626506,6.590361445783133,1.032495401594114,-7.125076640098099,7.20784794604537,3.0,0.4881784881784882,2048.431105047749,-3.223937998951112,0.051395606316647816,2.618961598974419,1347.2527472527472,-1.0,78.32988047808765,0.4888103661111551,
2023-08-16 13:20:02.198000,-7.096385542168675,0.8072289156626506,6.566265060240964,1.0349478847332925,-7.13979153893317,7.222562844880441,3.0,0.4881784881784882,2048.431105047749,-3.60689936483888,-0.030534351145038167,2.456383660625838,1343.5897435897434,-1.0,78.32988047808765,0.4888051115453243,
2023-08-16 13:20:02.205000,-7.060240963855422,0.8072289156626506,6.55421686746988,1.0398528510116491,-7.051502145922746,7.200490496627835,3.0,0.48773448773448774,2050.2958579881656,-3.3775421012761493,-0.0045451896742613,2.492512091369966,1337.7289377289376,-1.0,78.32988047808765,0.48879984270336435,
2023-08-16 13:20:02.213000,-7.024096385542169,0.7951807228915663,6.55421686746988,1.0006131207847946,-7.049049662783568,7.168608215818516,3.0,0.48773448773448774,2050.2958579881656,-3.135831245265426,0.3579045510168413,2.727929607831712,1331.135531135531,-1.0,78.32988047808765,0.4887945586000209,
2023-08-16 13:20:02.220000,-7.024096385542169,0.8072289156626506,6.566265060240964,1.0668301655426118,-7.009809932556713,7.185775597792765,3.0,0.4881784881784882,2048.431105047749,-3.2756832352427003,-0.136705320202785,2.80682943884389,1323.8095238095236,-1.0,78.32988047808765,0.4887892579990968,
2023-08-16 13:20:02.228000,-7.0361445783132535,0.783132530120482,6.55421686746988,1.044757817290006,-7.004904966278357,7.1587982832618025,3.0,0.4881784881784882,2048.431105047749,-3.3527183730551844,0.5787541518559517,3.128722102441584,1319.4139194139193,-1.0,78.32988047808765,0.4887839397070567,
2023-08-16 13:20:02.236000,-7.048192771084338,0.7951807228915663,6.55421686746988,1.020232985898222,-7.080931943592887,7.220110361741263,3.0,0.4881784881784882,2048.431105047749,-3.6595769477303186,0.6170969057747215,3.403298176096963,1316.4835164835165,-1.0,78.32988047808765,0.4887786026006157,
2023-08-16 13:20:02.243000,-7.072289156626506,0.8313253012048193,6.566265060240964,1.0692826486817903,-7.078479460453709,7.188228080931943,3.0,0.4881784881784882,2048.431105047749,-3.4445545131402606,0.8236116776411629,3.5669250043703755,1315.7509157509157,-1.0,78.32988047808765,0.48877324535676747,
2023-08-16 13:20:02.251000,-7.072289156626506,0.8072289156626506,6.530120481927711,1.0275904353157572,-7.198651134273452,7.168608215818516,3.0,0.4881784881784882,2048.431105047749,-3.79278596818367,0.8281568673154243,3.60806479808869,1320.8791208791208,-1.0,78.32988047808765,0.4887678666197308,
2023-08-16 13:20:02.259000,-7.120481927710844,0.8313253012048193,6.55421686746988,1.0472103004291844,-7.088289393010423,7.183323114653587,3.0,0.4881784881784882,2048.431105047749,-4.170386341122312,0.6787483246897037,3.938698211059963,1333.3333333333333,-1.0,78.32988047808765,0.4887624651366401,
2023-08-16 13:20:02.266000,-7.0843373493975905,0.8313253012048193,6.55421686746988,1.0079705702023298,-7.078479460453709,7.156345800122624,3.0,0.4881784881784882,2048.431105047749,-4.1607132451488855,0.7138278655090032,3.7346308490181213,1353.113553113553,-1.0,78.32988047808765,0.4887570396167549,
2023-08-16 13:20:02.274000,-7.096385542168675,0.8313253012048193,6.55421686746988,1.0692826486817903,-7.085836909871245,7.134273451870018,3.0,0.4881784881784882,2048.431105047749,-4.33587786259542,0.30394499155060817,3.5908163859914928,1382.4175824175823,-1.0,78.32988047808765,0.488751588740162,
2023-08-16 13:20:02.282000,-7.096385542168675,0.819277108433735,6.55421686746988,1.0226854690374003,-7.100551808706315,7.1808706315144075,3.0,0.4881784881784882,2048.431105047749,-4.412213740458015,0.33447934269564633,3.453411805838821,1421.245421245421,-1.0,78.32988047808765,0.48874611116663774,
2023-08-16 13:20:02.289000,-7.060240963855422,0.8072289156626506,6.55421686746988,0.973635806253832,-7.122624156958921,7.171060698957694,3.0,0.4881784881784882,2048.431105047749,-4.534351145038168,0.19707476254297457,3.407610279121264,1469.5970695970695,-1.0,78.32988047808765,0.4887406055446375,
2023-08-16 13:20:02.297000,-7.060240963855422,0.783132530120482,6.55421686746988,1.0006131207847946,-7.10790925812385,7.171060698957694,3.0,0.4881784881784882,2048.431105047749,-4.625954198473282,0.30394499155060817,3.407610279121264,1524.5421245421244,-1.0,78.32988047808765,0.4887350705203772,
2023-08-16 13:20:02.305000,-7.048192771084338,0.783132530120482,6.530120481927711,1.044757817290006,-7.100551808706315,7.161250766400981,3.0,0.4881784881784882,2048.431105047749,-4.977099236641221,0.8840976633063333,3.438144630266302,1583.150183150183,-1.0,78.32988047808765,0.4887295047469657,
2023-08-16 13:20:02.312000,-7.048192771084338,0.7951807228915663,6.518072289156627,1.0104230533415082,-7.088289393010423,7.1440833844267315,3.0,0.48773448773448774,2050.2958579881656,-4.8396946564885495,0.5482198007109135,3.9572285997319514,1643.2234432234432,-1.0,78.32988047808765,0.4887239068935582,
2023-08-16 13:20:02.320000,-7.072289156626506,0.8072289156626506,6.542168674698796,1.0889025137952175,-7.071122011036174,7.139178418148375,3.0,0.48773448773448774,2050.2958579881656,-4.824427480916031,0.6245556785735089,3.8808927218693556,1698.168498168498,-1.0,78.32988047808765,0.48871827550519453,
2023-08-16 13:20:02.328000,-7.072289156626506,0.8072289156626506,6.55421686746988,1.1305947271612506,-7.176578786020846,7.119558553034947,3.0,0.4881784881784882,2048.431105047749,-4.778625954198473,0.7314259075811425,4.415243866907524,1749.4505494505493,-1.0,78.32988047808765,0.4887126089900017,
2023-08-16 13:20:02.335000,-7.060240963855422,0.783132530120482,6.55421686746988,1.0251379521765787,-7.083384426732066,7.161250766400981,3.0,0.4881784881784882,2048.431105047749,-4.8396946564885495,1.021502243459005,3.9877629508769896,1797.069597069597,-1.0,78.32988047808765,0.48870690591453647,
2023-08-16 13:20:02.343000,-7.072289156626506,0.783132530120482,6.530120481927711,1.0594727161250765,-7.080931943592887,7.153893316983446,3.0,0.4881784881784882,2048.431105047749,-4.961832061068702,0.8077617854437379,4.430511042480043,1837.3626373626373,-1.0,78.32988047808765,0.4887011650326499,
2023-08-16 13:20:02.351000,-7.1084337349397595,0.7951807228915663,6.530120481927711,1.103617412630288,-7.098099325567136,7.1661557326793375,3.0,0.4881784881784882,2048.431105047749,-4.7328244274809155,1.021502243459005,4.247304935609814,1868.131868131868,-1.0,78.32988047808765,0.4886953851550761,
2023-08-16 13:20:02.358000,-7.1084337349397595,0.8072289156626506,6.506024096385542,1.0423053341508277,-7.110361741263028,7.1146535867565905,3.0,0.48773448773448774,2050.2958579881656,-4.870229007633587,1.4031816327719822,4.8885263096556155,1885.7142857142856,-1.0,78.32988047808765,0.48868956515759715,
2023-08-16 13:20:02.366000,-7.072289156626506,0.783132530120482,6.506024096385542,1.0374003678724708,-7.166768853464132,7.124463519313304,3.0,0.48773448773448774,2050.2958579881656,-4.961832061068702,1.4795175106345775,4.674785851640348,1893.040293040293,-1.0,78.32988047808765,0.48868370397845473,
2023-08-16 13:20:02.374000,-7.096385542168675,0.8072289156626506,6.506024096385542,1.0570202329858982,-7.147148988350705,7.112201103617412,3.0,0.48773448773448774,2050.2958579881656,-5.083969465648854,1.0673037701765624,4.964862187518211,1886.4468864468863,781.31103515625,76.79400046871338,0.48867780044507436,
2023-08-16 13:20:02.381000,-7.120481927710844,0.8072289156626506,6.530120481927711,1.0987124463519313,-7.161863887185775,7.141630901287553,3.0,0.4881784881784882,2048.431105047749,-5.007633587786259,1.1131052968941195,4.98012936309073,1865.201465201465,-1.0,76.79400046871338,0.48867185329097895,
2023-08-16 13:20:02.389000,-7.120481927710844,0.8072289156626506,6.542168674698796,1.0226854690374003,-7.129981606376456,7.1440833844267315,3.0,0.4881784881784882,2048.431105047749,-5.465648854961832,1.2047083503292342,5.010663714235768,1831.5018315018315,-1.0,76.79400046871338,0.4886658614594914,
2023-08-16 13:20:02.397000,-7.1084337349397595,0.8072289156626506,6.566265060240964,0.9883507050889024,-7.137339055793991,7.148988350705088,3.0,0.48773448773448774,2050.2958579881656,-5.679389312977099,1.174173999184196,5.14806829438844,1788.278388278388,-1.0,76.79400046871338,0.4886598241302358,
2023-08-16 13:20:02.404000,-7.120481927710844,0.8072289156626506,6.55421686746988,1.0275904353157572,-7.049049662783568,7.134273451870018,3.0,0.48773448773448774,2050.2958579881656,-5.694656488549618,1.189441174756715,4.98012936309073,1739.194139194139,-1.0,76.79400046871338,0.48865374043691495,
2023-08-16 13:20:02.412000,-7.1084337349397595,0.783132530120482,6.506024096385542,1.0104230533415082,-7.186388718577559,7.188228080931943,3.0,0.4881784881784882,2048.431105047749,-5.893129770992366,1.2047083503292342,4.8885263096556155,1685.7142857142856,-1.0,76.79400046871338,0.4886476094509379,
2023-08-16 13:20:02.420000,-7.096385542168675,0.7710843373493976,6.518072289156627,1.0643776824034334,-7.166768853464132,7.14653586756591,3.0,0.48773448773448774,2050.2958579881656,-5.984732824427481,0.8688304877338142,5.178602645533478,1630.03663003663,-1.0,76.79400046871338,0.4886414304729472,
2023-08-16 13:20:02.427000,-7.120481927710844,0.783132530120482,6.518072289156627,1.032495401594114,-7.149601471489883,7.161250766400981,3.0,0.48773448773448774,2050.2958579881656,-5.816793893129771,0.823028961016257,5.392343103548745,1579.4871794871794,-1.0,76.79400046871338,0.48863520290836543,
2023-08-16 13:20:02.435000,-7.1084337349397595,0.7710843373493976,6.518072289156627,0.9858982219497241,-7.152053954629062,7.090128755364806,3.0,0.48773448773448774,2050.2958579881656,-6.290076335877862,0.823028961016257,5.590816385991493,1530.4029304029302,-1.0,76.79400046871338,0.48862892611089337,
2023-08-16 13:20:02.443000,-7.0843373493975905,0.7710843373493976,6.542168674698796,0.9613733905579399,-7.132434089515634,7.104843654199877,3.0,0.48773448773448774,2050.2958579881656,-6.549618320610687,0.7008915564361043,5.743488141716684,1486.4468864468863,-1.0,76.79400046871338,0.4886225995233586,
2023-08-16 13:20:02.450000,-7.1084337349397595,0.7951807228915663,6.506024096385542,1.0594727161250765,-7.088289393010423,7.097486204782342,3.0,0.4881784881784882,2048.431105047749,-6.244274809160305,0.33447934269564633,5.422877454693784,1446.153846153846,-1.0,76.79400046871338,0.48861622254054193,
2023-08-16 13:20:02.458000,-7.096385542168675,0.7951807228915663,6.481927710843374,1.0374003678724708,-7.169221336603311,7.1587982832618025,3.0,0.48773448773448774,2050.2958579881656,-6.549618320610687,0.8993648388788524,5.7740224928617225,1408.7912087912086,-1.0,76.79400046871338,0.48860979481865807,
2023-08-16 13:20:02.466000,-7.1325301204819285,0.8072289156626506,6.493975903614458,1.0055180870631515,-7.1814837522992025,7.087676272225628,3.0,0.4881784881784882,2048.431105047749,-6.549618320610687,0.8993648388788524,5.7740224928617225,1375.8241758241757,-1.0,76.79400046871338,0.4886033161373499,
2023-08-16 13:20:02.473000,-7.1325301204819285,0.7710843373493976,6.481927710843374,0.9932556713672593,-7.164316370324953,7.148988350705088,3.0,0.48773448773448774,2050.2958579881656,-6.687022900763359,0.8993648388788524,5.743488141716684,1347.2527472527472,-1.0,76.79400046871338,0.48859678626138836,
2023-08-16 13:20:02.481000,-7.1084337349397595,0.7710843373493976,6.518072289156627,1.0300429184549356,-7.1741263028816675,7.1293684855916615,3.0,0.48773448773448774,2050.2958579881656,-6.351145038167939,0.8077617854437379,5.972495775304471,1321.6117216117216,-1.0,76.79400046871338,0.4885902050999556,
2023-08-16 13:20:02.489000,-7.120481927710844,0.783132530120482,6.506024096385542,1.032495401594114,-7.152053954629062,7.124463519313304,3.0,0.48773448773448774,2050.2958579881656,-6.488549618320611,0.9757007167414479,6.048831653167066,1300.3663003663003,-1.0,76.79400046871338,0.48858357254610024,
2023-08-16 13:20:02.496000,-7.144578313253012,0.783132530120482,6.518072289156627,1.0226854690374003,-7.085836909871245,7.050889025137952,3.0,0.48773448773448774,2050.2958579881656,-6.458015267175572,0.6703572052910661,6.30837363789989,1284.9816849816848,-1.0,76.79400046871338,0.48857688861380766,
2023-08-16 13:20:02.504000,-7.1084337349397595,0.7710843373493976,6.493975903614458,1.0594727161250765,-7.147148988350705,7.097486204782342,3.0,0.4881784881784882,2048.431105047749,-6.702290076335878,0.27341064040557,6.048831653167066,1271.7948717948716,-1.0,76.79400046871338,0.48857015343607696,
2023-08-16 13:20:02.512000,-7.120481927710844,0.783132530120482,6.506024096385542,0.9858982219497241,-7.137339055793991,7.080318822808093,3.0,0.48773448773448774,2050.2958579881656,-6.931297709923664,0.21234193811549365,6.0030301264495085,1261.5384615384614,-1.0,76.79400046871338,0.4885633674120647,
2023-08-16 13:20:02.519000,-7.1084337349397595,0.7710843373493976,6.518072289156627,1.0251379521765787,-7.105456774984671,7.080318822808093,3.0,0.4872904872904873,2052.1640091116174,-6.99236641221374,-0.06246722218984984,6.354175164617447,1253.4798534798533,-1.0,76.79400046871338,0.4885565312160518,
2023-08-16 13:20:02.527000,-7.072289156626506,0.7710843373493976,6.506024096385542,0.9785407725321887,-7.152053954629062,7.122011036174126,3.0,0.48773448773448774,2050.2958579881656,-7.190839694656488,-0.15407027562496434,6.4763125691976,1249.084249084249,-1.0,76.79400046871338,0.4885496454662755,
2023-08-16 13:20:02.535000,-7.096385542168675,0.7951807228915663,6.530120481927711,1.0251379521765787,-7.10790925812385,7.1808706315144075,3.0,0.48773448773448774,2050.2958579881656,-7.206106870229007,-0.01666569547229259,6.674785851640348,1247.6190476190475,-1.0,76.79400046871338,0.4885427108405474,
2023-08-16 13:20:02.542000,-7.0843373493975905,0.7951807228915663,6.518072289156627,1.032495401594114,-7.105456774984671,7.161250766400981,3.0,0.48773448773448774,2050.2958579881656,-7.358778625954198,-0.276207680205117,7.056465240953325,1248.3516483516482,-1.0,76.79400046871338,0.48853572823356894,
2023-08-16 13:20:02.550000,-7.072289156626506,0.7951807228915663,6.506024096385542,1.003065603923973,-7.002452483139178,7.1367259350091965,3.0,0.48773448773448774,2050.2958579881656,-7.480916030534351,0.0749373579628219,6.995396538663249,1252.7472527472526,-1.0,76.79400046871338,0.4885286986160194,
2023-08-16 13:20:02.558000,-7.072289156626506,0.8313253012048193,6.506024096385542,1.0570202329858982,-7.080931943592887,7.139178418148375,3.0,0.48773448773448774,2050.2958579881656,-7.511450381679389,-0.2914748557776361,7.239671347823554,1261.5384615384614,-1.0,76.79400046871338,0.48852162303206104,
2023-08-16 13:20:02.565000,-7.0843373493975905,0.819277108433735,6.506024096385542,1.0349478847332925,-7.122624156958921,7.139178418148375,3.0,0.48773448773448774,2050.2958579881656,-7.694656488549618,-0.03193287104481168,7.254938523396073,1273.260073260073,-1.0,76.79400046871338,0.4885145025965342,
