Shimmer_F5D4_Timestamp_FormattedUnix_CAL,Shimmer_F5D4_Accel_LN_X_CAL,Shimmer_F5D4_Accel_LN_Y_CAL,Shimmer_F5D4_Accel_LN_Z_CAL,Shimmer_F5D4_Accel_WR_X_CAL,Shimmer_F5D4_Accel_WR_Y_CAL,Shimmer_F5D4_Accel_WR_Z_CAL,Shimmer_F5D4_GSR_Range_CAL,Shimmer_F5D4_GSR_Skin_Conductance_CAL,Shimmer_F5D4_GSR_Skin_Resistance_CAL,Shimmer_F5D4_Gyro_X_CAL,Shimmer_F5D4_Gyro_Y_CAL,Shimmer_F5D4_Gyro_Z_CAL,Shimmer_F5D4_PPG_A13_CAL,Shimmer_F5D4_PPG_IBI_CAL,Shimmer_F5D4_PPGtoHR_CAL,Shimmer_F5D4_GSR_Skin_Conductance_LPF_CAL,
yyyy/mm/dd hh:mm:ss.000,m/(s^2),m/(s^2),m/(s^2),m/(s^2),m/(s^2),m/(s^2),no_units,uS,kOhms,deg/s,deg/s,deg/s,mV,ms,BPM,uS,
2023-08-11 17:07:51.467000,-8.879518072289157,-0.674698795180723,-4.024096385542169,-0.5959534028203556,-8.79767014101778,-3.6002452483139176,3.0,1.416139416139416,706.1451638187804,-0.20814637841617661,-0.5879610745294568,-0.36827690694015486,1336.9963369963368,-1.0,88.01110166077264,1.4165561219406202,
2023-08-11 17:07:51.475000,-8.879518072289157,-0.674698795180723,-4.024096385542169,-0.6204782342121398,-8.782955242182709,-3.644389944819129,3.0,1.416139416139416,706.1451638187804,0.1719014043470653,-0.30639240137521095,-0.5183847095157625,1306.227106227106,-1.0,88.01110166077264,1.416550356092338,
2023-08-11 17:07:51.482000,-8.891566265060241,-0.6867469879518072,-4.0120481927710845,-0.5567136725935009,-8.724095646842427,-3.6345800122624157,3.0,1.416139416139416,706.1451638187804,-0.28891090262805247,-0.4256162228308375,-0.4539362508012354,1273.260073260073,-1.0,88.01110166077264,1.4165446914171986,
2023-08-11 17:07:51.490000,-8.891566265060241,-0.6867469879518072,-4.0,-0.5885959534028203,-8.775597792765174,-3.6223175965665235,3.0,1.416139416139416,706.1451638187804,0.2292407202377479,0.1006934327836371,-0.543674611036653,1237.3626373626373,-1.0,88.01110166077264,1.4165391289549811,
2023-08-11 17:07:51.498000,-8.891566265060241,-0.674698795180723,-4.0120481927710845,-0.6229307173513182,-8.760882893930104,-3.6100551808706314,3.0,1.416139416139416,706.1451638187804,-0.04941436979197012,0.061418332265018846,-0.4961249344443798,1200.7326007326008,-1.0,88.01110166077264,1.4165336694953257,
2023-08-11 17:07:51.505000,-8.867469879518072,-0.674698795180723,-4.0,-0.5542611894543225,-8.817290006131207,-3.614960147148988,3.0,1.416139416139416,706.1451638187804,0.04020744711846669,0.20406736204183865,-0.17061942777227437,1164.102564102564,-1.0,88.01110166077264,1.41652831356934,
2023-08-11 17:07:51.513000,-8.879518072289157,-0.674698795180723,-4.024096385542169,-0.6376456161863887,-8.800122624156959,-3.6125076640098097,3.0,1.416139416139416,706.1451638187804,0.2819183031291884,0.4234018996561964,-0.28902744595303287,1132.6007326007325,-1.0,88.01110166077264,1.4165230615812252,
2023-08-11 17:07:51.521000,-8.879518072289157,-0.6867469879518072,-4.024096385542169,-0.6057633353770693,-8.82709993868792,-3.654199877375843,3.0,1.416139416139416,706.1451638187804,0.14020161995221703,0.6254880251733573,-0.14754384942602405,1109.89010989011,-1.0,88.01110166077264,1.416517913643331,
2023-08-11 17:07:51.528000,-8.879518072289157,-0.674698795180723,-4.0602409638554215,-0.6204782342121398,-8.773145309625995,-3.632127529123237,3.0,1.416139416139416,706.1451638187804,-0.12330283782996276,0.5819008216304412,-0.31303537089913164,1090.8424908424909,-1.0,88.01110166077264,1.4165128695828515,
2023-08-11 17:07:51.536000,-8.891566265060241,-0.6626506024096386,-4.024096385542169,-0.5714285714285714,-8.755977927651747,-3.637032495401594,3.0,1.416139416139416,706.1451638187804,0.44309772157799593,0.6581201561680557,-0.21805256103956636,1076.1904761904761,-1.0,88.01110166077264,1.4165079290675153,
2023-08-11 17:07:51.544000,-8.903614457831326,-0.674698795180723,-4.0602409638554215,-0.5812385039852851,-8.802575107296137,-3.678724708767627,3.0,1.4156954156954156,706.3666300768386,0.07074179826350485,0.6564885496183206,-0.23028961016257807,1060.07326007326,-1.0,88.01110166077264,1.4165030914558159,
2023-08-11 17:07:51.551000,-8.903614457831326,-0.6867469879518072,-4.0843373493975905,-0.5787860208461066,-8.770692826486817,-3.6517473942366645,3.0,1.416139416139416,706.1451638187804,0.07004253831361809,0.3780665462385642,-0.3792319794883747,1049.084249084249,-1.0,88.01110166077264,1.4164983555097763,
2023-08-11 17:07:51.559000,-8.891566265060241,-0.6867469879518072,-4.0602409638554215,-0.5542611894543225,-8.768240343347639,-3.6591048436541995,3.0,1.416139416139416,706.1451638187804,-0.3428704620942839,0.19334537614358085,-0.02319212167123115,1041.7582417582416,-1.0,88.01110166077264,1.4164937195448537,
2023-08-11 17:07:51.567000,-8.891566265060241,-0.6987951807228916,-4.0602409638554215,-0.5738810545677498,-8.755977927651747,-3.666462293071735,3.0,1.4152514152514155,706.5882352941176,0.10046034613367542,0.08775712371073996,-0.11304702523163007,1036.6300366300366,-1.0,88.01110166077264,1.416489181740301,
2023-08-11 17:07:51.574000,-8.867469879518072,-0.6867469879518072,-4.072289156626506,-0.6229307173513182,-8.785407725321887,-3.6713672593500917,3.0,1.4156954156954156,706.3666300768386,0.09882873958394024,-0.1426490297768198,0.13285939047841044,1036.6300366300366,-1.0,88.01110166077264,1.4164847399827833,
2023-08-11 17:07:51.582000,-8.903614457831326,-0.6867469879518072,-4.048192771084338,-0.6033108522378908,-8.84181483752299,-3.5708154506437766,3.0,1.4156954156954156,706.3666300768386,0.15779966202435805,-0.46325971679972056,0.008624206048598388,1040.2930402930401,-1.0,88.01110166077264,1.4164803917974125,
2023-08-11 17:07:51.590000,-8.903614457831326,-0.6626506024096386,-4.024096385542169,-0.6033108522378908,-8.775597792765174,-3.6468424279583074,3.0,1.4156954156954156,706.3666300768386,0.06503117533943172,-0.4784103490472588,0.011887419148068318,1043.956043956044,-1.0,88.01110166077264,1.4164761343746486,
2023-08-11 17:07:51.597000,-8.903614457831326,-0.6987951807228916,-4.048192771084338,-0.6082158185162476,-8.817290006131207,-3.6640098099325566,3.0,1.4156954156954156,706.3666300768386,-0.07388846803799265,-0.5712953790571642,-0.002214323174640232,1050.5494505494505,-1.0,88.01110166077264,1.4164719645877215,
2023-08-11 17:07:51.605000,-8.927710843373495,-0.6867469879518072,-4.048192771084338,-0.6474555487431024,-8.79767014101778,-3.6174126302881664,3.0,1.416139416139416,706.1451638187804,-0.001398519899773509,-0.7060194627352715,0.058388205815511886,1060.07326007326,-1.0,88.01110166077264,1.4164678790006175,
2023-08-11 17:07:51.613000,-8.927710843373495,-0.674698795180723,-4.0120481927710845,-0.6474555487431024,-8.84426732066217,-3.632127529123237,3.0,1.4156954156954156,706.3666300768386,-0.3380921857700592,-0.42724782938057265,0.059670182390303694,1063.003663003663,-1.0,88.01110166077264,1.41646387388772,
2023-08-11 17:07:51.620000,-8.879518072289157,-0.6867469879518072,-4.048192771084338,-0.5885959534028203,-8.800122624156959,-3.602697731453096,3.0,1.4156954156954156,706.3666300768386,-0.24427480916030533,-0.48586912184604625,-0.016782238797272996,1065.2014652014652,-1.0,88.01110166077264,1.416459945275686,
2023-08-11 17:07:51.628000,-8.879518072289157,-0.674698795180723,-4.0120481927710845,-0.5714285714285714,-8.778050275904352,-3.6174126302881664,3.0,1.416139416139416,706.1451638187804,0.0927684866849246,-0.053493386166308075,0.19625895926810785,1070.3296703296703,-1.0,88.01110166077264,1.4164560889233504,
2023-08-11 17:07:51.635000,-8.891566265060241,-0.6987951807228916,-4.024096385542169,-0.598405885959534,-8.763335377069282,-3.6296750459840585,3.0,1.4156954156954156,706.3666300768386,0.0597867257152854,-0.31152030767437816,0.36478060719072325,1073.9926739926739,-1.0,88.01110166077264,1.4164523003343539,
2023-08-11 17:07:51.643000,-8.879518072289157,-0.6987951807228916,-4.0361445783132535,-0.5885959534028203,-8.84426732066217,-3.5585530349478844,3.0,1.416139416139416,706.1451638187804,0.10407318920808831,-0.18425499679505827,-0.03309830429462134,1075.4578754578754,-1.0,88.01110166077264,1.4164485746637105,
2023-08-11 17:07:51.651000,-8.903614457831326,-0.6987951807228916,-4.0120481927710845,-0.6229307173513182,-8.778050275904352,-3.6345800122624157,3.0,1.416139416139416,706.1451638187804,0.10115960608356218,-0.1774954839461576,-0.029835091195151847,1076.1904761904761,-1.0,88.01110166077264,1.4164449070094498,
2023-08-11 17:07:51.658000,-8.891566265060241,-0.6867469879518072,-3.963855421686747,-0.5935009196811771,-8.763335377069282,-3.619865113427345,3.0,1.416139416139416,706.1451638187804,-0.13157741390361952,-0.1719014043470653,0.2617563079074646,1078.3882783882784,-1.0,88.01110166077264,1.4164412925673677,
2023-08-11 17:07:51.666000,-8.855421686746988,-0.6626506024096386,-4.0,-0.615573267933783,-8.800122624156959,-3.6174126302881664,3.0,1.416139416139416,706.1451638187804,0.036011887419147896,-0.41081522055824177,0.23005652351261593,1072.5274725274724,-1.0,88.01110166077264,1.4164377263614998,
2023-08-11 17:07:51.674000,-8.891566265060241,-0.674698795180723,-3.9759036144578315,-0.5861434702636419,-8.807480073574494,-3.573267933782955,3.0,1.416139416139416,706.1451638187804,-0.17737894062117676,-0.4168754734572574,-0.1073364023075578,1068.8644688644688,-1.0,88.01110166077264,1.4164342032635813,
2023-08-11 17:07:51.681000,-8.879518072289157,-0.6987951807228916,-3.9759036144578315,-0.5836909871244634,-8.76578786020846,-3.5757204169221333,3.0,1.416139416139416,706.1451638187804,-0.10150923605850469,0.215605151214964,0.09148651011013323,1061.5384615384614,-1.0,88.01110166077264,1.4164307180133855,
2023-08-11 17:07:51.689000,-8.879518072289157,-0.6867469879518072,-3.9759036144578315,-0.5542611894543225,-8.82709993868792,-3.6223175965665235,3.0,1.416139416139416,706.1451638187804,-0.010372355923315273,0.30988870112464295,-0.03135015441990576,1058.6080586080586,-1.0,88.01110166077264,1.4164272652398424,
2023-08-11 17:07:51.697000,-8.891566265060241,-0.674698795180723,-4.0,-0.6008583690987124,-8.753525444512569,-3.62722256284488,3.0,1.416139416139416,706.1451638187804,0.5239787891148526,0.5517161004603456,-0.12318629450498236,1054.212454212454,-1.0,88.01110166077264,1.416423839482863,
2023-08-11 17:07:51.704000,-8.91566265060241,-0.6867469879518072,-4.0,-0.6229307173513182,-8.770692826486817,-3.6885346413243405,3.0,1.416139416139416,706.1451638187804,0.3070916613250977,0.5933220674785857,-0.01410174232270855,1053.4798534798533,-1.0,88.01110166077264,1.4164204352157868,
2023-08-11 17:07:51.712000,-8.91566265060241,-0.6987951807228916,-4.024096385542169,-0.5738810545677498,-8.770692826486817,-3.632127529123237,3.0,1.416139416139416,706.1451638187804,0.5802692150807061,0.8909737194802165,-0.04382029019287913,1054.212454212454,-1.0,88.01110166077264,1.4164170468683324,
2023-08-11 17:07:51.720000,-8.903614457831326,-0.674698795180723,-4.0120481927710845,-0.5885959534028203,-8.81238503985285,-3.578172900061312,3.0,1.4152514152514155,706.5882352941176,0.36256628401608343,0.7740807645242119,0.03461336751937525,1059.3406593406592,-1.0,88.01110166077264,1.4164136687112303,
2023-08-11 17:07:51.727000,-8.891566265060241,-0.6867469879518072,-4.024096385542169,-0.5910484365419988,-8.79767014101778,-3.6174126302881664,3.0,1.4156954156954156,706.3666300768386,0.31152030767437816,0.9021618786783995,0.11059961540702773,1069.5970695970695,-1.0,88.01110166077264,1.4164102950179605,
2023-08-11 17:07:51.735000,-8.91566265060241,-0.6987951807228916,-4.048192771084338,-0.5836909871244634,-8.787860208461066,-3.6934396076026976,3.0,1.4156954156954156,706.3666300768386,0.3842433424625607,0.55439659693491,-0.012470135772973802,1087.9120879120878,-1.0,88.01110166077264,1.4164069201423108,
2023-08-11 17:07:51.743000,-8.903614457831326,-0.6867469879518072,-4.024096385542169,-0.5959534028203556,-8.763335377069282,-3.678724708767627,3.0,1.416139416139416,706.1451638187804,0.48586912184604625,0.7743138511741736,0.29357263562729463,1115.7509157509157,-1.0,88.01110166077264,1.4164035382749476,
2023-08-11 17:07:51.750000,-8.903614457831326,-0.6626506024096386,-4.0602409638554215,-0.5640711220110362,-8.84671980380135,-3.6689147762109133,3.0,1.416139416139416,706.1451638187804,0.49670765106928483,0.7489074063283027,0.15407027562496348,1156.0439560439559,-1.0,88.01110166077264,1.4164001436466982,
2023-08-11 17:07:51.758000,-8.879518072289157,-0.6867469879518072,-4.024096385542169,-0.522378908645003,-8.787860208461066,-3.6885346413243405,3.0,1.416139416139416,706.1451638187804,0.1259833343045272,0.5271254588893421,0.21432317464017264,1216.117216117216,-1.0,88.01110166077264,1.4163967307210192,
2023-08-11 17:07:51.766000,-8.91566265060241,-0.6867469879518072,-4.0602409638554215,-0.6253832004904966,-8.802575107296137,-3.654199877375843,3.0,1.416139416139416,706.1451638187804,0.2746926169803627,0.6754851115902334,-0.1994056290425965,1302.5641025641025,-1.0,88.01110166077264,1.4163932940778547,
2023-08-11 17:07:51.773000,-8.903614457831326,-0.6867469879518072,-4.0602409638554215,-0.5665236051502146,-8.84671980380135,-3.6689147762109133,3.0,1.416139416139416,706.1451638187804,-0.138453470077501,0.12085542800536173,0.2617563079074646,1422.7106227106226,-1.0,88.01110166077264,1.416389828435977,
2023-08-11 17:07:51.781000,-8.903614457831326,-0.6867469879518072,-4.072289156626506,-0.568976088289393,-8.834457388105456,-3.656652360515021,3.0,1.4165834165834168,705.9238363892806,-0.046500786667444005,0.22772565701299533,-0.258609638132976,1574.3589743589744,-1.0,88.01110166077264,1.416386328674949,
2023-08-11 17:07:51.789000,-8.91566265060241,-0.6987951807228916,-4.0602409638554215,-0.5763335377069282,-8.760882893930104,-3.666462293071735,3.0,1.416139416139416,706.1451638187804,0.014684458947613166,-0.2617563079074638,-0.08810675368568247,1756.7765567765566,-1.0,88.01110166077264,1.4163827900059305,
2023-08-11 17:07:51.796000,-8.91566265060241,-0.6867469879518072,-4.048192771084338,-0.6131207847946045,-8.782955242182709,-3.6934396076026976,3.0,1.416139416139416,706.1451638187804,0.0587378357904544,0.019462735271837873,0.17120214439717985,1963.3699633699632,-1.0,88.01110166077264,1.4163792078651962,
2023-08-11 17:07:51.804000,-8.879518072289157,-0.6867469879518072,-4.0602409638554215,-0.6229307173513182,-8.763335377069282,-3.6468424279583074,3.0,1.416139416139416,706.1451638187804,-0.15931472524911067,-0.026571878095682785,0.11467863178136481,2180.9523809523807,-1.0,88.01110166077264,1.416375577775502,
2023-08-11 17:07:51.812000,-8.903614457831326,-0.674698795180723,-4.0361445783132535,-0.5959534028203556,-8.741263028816677,-3.632127529123237,3.0,1.416139416139416,706.1451638187804,-0.01957927859681871,-0.46687255987413345,0.03624497406911,2398.5347985347985,-1.0,88.01110166077264,1.4163718955045757,
2023-08-11 17:07:51.819000,-8.891566265060241,-0.674698795180723,-4.0361445783132535,-0.6180257510729613,-8.778050275904352,-3.637032495401594,3.0,1.4165834165834168,705.9238363892806,-0.3082570945749078,-0.6306159314725246,0.11083270205698983,2598.5347985347985,-1.0,88.01110166077264,1.416368157084026,
2023-08-11 17:07:51.827000,-8.891566265060241,-0.6867469879518072,-4.0,-0.6082158185162476,-8.807480073574494,-3.62722256284488,3.0,1.4165834165834168,705.9238363892806,0.029368917895228067,-0.658003612843075,0.19987180234252072,2769.9633699633696,-1.0,88.01110166077264,1.4163643589766268,
2023-08-11 17:07:51.835000,-8.867469879518072,-0.6867469879518072,-4.024096385542169,-0.6008583690987124,-8.817290006131207,-3.6100551808706314,3.0,1.4165834165834168,705.9238363892806,-0.32259192354757843,-1.0210360701590817,0.10500553580793673,2805.128205128205,-1.0,88.01110166077264,1.416360498115181,
2023-08-11 17:07:51.842000,-8.879518072289157,-0.6626506024096386,-4.024096385542169,-0.568976088289393,-8.802575107296137,-3.5977927651747392,3.0,1.4165834165834168,705.9238363892806,-0.4419322883281858,-0.9971446885379633,0.3164151273235824,2805.128205128205,-1.0,88.01110166077264,1.416356571781363,
2023-08-11 17:07:51.850000,-8.903614457831326,-0.6867469879518072,-4.024096385542169,-0.6180257510729613,-8.805027590435316,-3.602697731453096,3.0,1.4165834165834168,705.9238363892806,-0.07190723151331495,-1.2179942893770754,0.1144455451314027,2805.8608058608056,-1.0,88.01110166077264,1.4163525776223502,
2023-08-11 17:07:51.858000,-8.903614457831326,-0.674698795180723,-4.0120481927710845,-0.5738810545677498,-8.81238503985285,-3.585530349478847,3.0,1.417027417027417,705.7026476578411,-0.27212866383077905,-0.6862070974884912,0.2510343220092069,2805.128205128205,-1.0,88.01110166077264,1.416348513666397,
2023-08-11 17:07:51.865000,-8.91566265060241,-0.6867469879518072,-4.0,-0.6499080318822807,-8.802575107296137,-3.6002452483139176,3.0,1.417027417027417,705.7026476578411,-0.5749082221315771,-0.7116135423343621,0.4744478759979021,2806.5934065934066,-1.0,88.01110166077264,1.416344378486585,
2023-08-11 17:07:51.873000,-8.91566265060241,-0.6867469879518072,-4.0,-0.598405885959534,-8.778050275904352,-3.5904353157572038,3.0,1.416139416139416,706.1451638187804,-0.32690402657187806,-0.46081230697511777,0.1474273061010432,2805.8608058608056,-1.0,88.01110166077264,1.4163401712359631,
2023-08-11 17:07:51.881000,-8.903614457831326,-0.6987951807228916,-3.963855421686747,-0.6057633353770693,-8.834457388105456,-3.5634580012262416,3.0,1.416139416139416,706.1451638187804,-0.32352427014742685,0.037060777343977155,0.19264611619369498,2764.8351648351645,-1.0,88.01110166077264,1.416335891501388,
2023-08-11 17:07:51.888000,-8.91566265060241,-0.6987951807228916,-3.9759036144578315,-0.6253832004904966,-8.782955242182709,-3.6051502145922747,3.0,1.4165834165834168,705.9238363892806,-0.15500262222481276,-0.18786783986947114,-0.17772857059611927,2651.2820512820513,-1.0,88.01110166077264,1.4163315392315659,
2023-08-11 17:07:51.896000,-8.91566265060241,-0.674698795180723,-3.987951807228916,-0.5297363580625383,-8.753525444512569,-3.624770079705702,3.0,1.417027417027417,705.7026476578411,-0.3372763824951933,0.610920109550725,-0.08519317056115591,2499.6336996336995,-1.0,88.01110166077264,1.416327114737057,
2023-08-11 17:07:51.904000,-8.891566265060241,-0.710843373493976,-4.0120481927710845,-0.6204782342121398,-8.78050275904353,-3.6640098099325566,3.0,1.417027417027417,705.7026476578411,-0.18332265019520982,0.8563603519608421,0.03659460404405338,2324.5421245421244,-1.0,88.01110166077264,1.4163226188903488,
2023-08-11 17:07:51.911000,-8.903614457831326,-0.710843373493976,-4.0120481927710845,-0.6302881667688535,-8.792765174739424,-3.6223175965665235,3.0,1.417027417027417,705.7026476578411,-0.5779383485810858,0.8727929607831714,-0.007342229473807017,2137.7289377289376,-1.0,88.01110166077264,1.4163180530263366,
2023-08-11 17:07:51.919000,-8.903614457831326,-0.6987951807228916,-4.0120481927710845,-0.5861434702636419,-8.79767014101778,-3.6394849785407724,3.0,1.417027417027417,705.7026476578411,-0.11631023833110044,0.932579686498455,0.053027212866383,1947.2527472527472,681.732177734375,88.01110166077264,1.4163134188307192,
2023-08-11 17:07:51.927000,-8.891566265060241,-0.6987951807228916,-4.0361445783132535,-0.6180257510729613,-8.785407725321887,-3.6885346413243405,3.0,1.417027417027417,705.7026476578411,-0.11677641163102377,0.9324631431734742,0.05197832294155373,1763.3699633699632,-1.0,88.01110166077264,1.4163087186319205,
2023-08-11 17:07:51.934000,-8.891566265060241,-0.6987951807228916,-4.048192771084338,-0.5959534028203556,-8.790312691600246,-3.6885346413243405,3.0,1.417027417027417,705.7026476578411,0.06876056173882716,0.8716275275333613,0.29438843890216176,1583.150183150183,-1.0,88.01110166077264,1.4163039552444217,
2023-08-11 17:07:51.942000,-8.891566265060241,-0.710843373493976,-4.0361445783132535,-0.6695278969957081,-8.763335377069282,-3.637032495401594,3.0,1.417027417027417,705.7026476578411,0.08461045393625043,1.142241128139386,-0.13565643027795574,1414.6520146520145,-1.0,88.01110166077264,1.416299131842162,
2023-08-11 17:07:51.950000,-8.891566265060241,-0.6867469879518072,-4.048192771084338,-0.5640711220110362,-8.73635806253832,-3.614960147148988,3.0,1.417027417027417,705.7026476578411,0.18926635976924464,1.2733523687430803,0.17143523104714195,1258.6080586080586,-1.0,88.01110166077264,1.4162942521071897,
2023-08-11 17:07:51.957000,-8.867469879518072,-0.6987951807228916,-4.0361445783132535,-0.5616186388718577,-8.76578786020846,-3.676272225628449,3.0,1.417027417027417,705.7026476578411,0.3679272769652123,0.7879494201969576,0.10966726880717886,1117.2161172161173,-1.0,88.01110166077264,1.4162893202275286,
2023-08-11 17:07:51.965000,-8.903614457831326,-0.6987951807228916,-4.0361445783132535,-0.615573267933783,-8.832004904966277,-3.676272225628449,3.0,1.417027417027417,705.7026476578411,0.30324573160072316,0.792844239846163,0.001631606549734748,993.4065934065933,-1.0,88.01110166077264,1.4162843408935564,
2023-08-11 17:07:51.973000,-8.879518072289157,-0.6867469879518072,-4.024096385542169,-0.5959534028203556,-8.807480073574494,-3.656652360515021,3.0,1.417027417027417,705.7026476578411,0.19334537614358085,0.23098887011246394,-0.16549152147310758,887.1794871794871,-1.0,88.01110166077264,1.4162793192928698,
2023-08-11 17:07:51.980000,-8.903614457831326,-0.674698795180723,-4.048192771084338,-0.5714285714285714,-8.829552421827099,-3.686082158185162,3.0,1.417027417027417,705.7026476578411,-0.07015908163859894,0.43796981527883044,0.06374919876464077,800.0,-1.0,88.01110166077264,1.4162742609649037,
2023-08-11 17:07:51.988000,-8.855421686746988,-0.6626506024096386,-4.0120481927710845,-0.657265481299816,-8.807480073574494,-3.6517473942366645,3.0,1.417027417027417,705.7026476578411,0.06794475846395957,0.22982343686265383,-0.08997144688537975,733.3333333333333,-1.0,88.01110166077264,1.4162691719519107,
2023-08-11 17:07:51.996000,-8.891566265060241,-0.674698795180723,-4.0361445783132535,-0.5542611894543225,-8.773145309625995,-3.666462293071735,3.0,1.417027417027417,705.7026476578411,0.23495134316182106,0.22446244391352496,0.05069634636676193,684.9816849816849,-1.0,88.01110166077264,1.4162640587781805,
2023-08-11 17:07:52.003000,-8.879518072289157,-0.6867469879518072,-4.048192771084338,-0.5959534028203556,-8.770692826486817,-3.6223175965665235,3.0,1.417027417027417,705.7026476578411,0.01992890857176122,-0.14742730610104277,-0.11712604160596715,657.8754578754579,-1.0,88.01110166077264,1.4162589284489315,
2023-08-11 17:07:52.011000,-8.903614457831326,-0.674698795180723,-4.048192771084338,-0.5763335377069282,-8.805027590435316,-3.6811771919068055,3.0,1.417027417027417,705.7026476578411,-0.07109142823844736,-0.055824252665928276,-0.05594079599090955,650.5494505494505,-1.0,88.01110166077264,1.4162537885654956,
2023-08-11 17:07:52.018000,-8.891566265060241,-0.6867469879518072,-4.0602409638554215,-0.6082158185162476,-8.73635806253832,-3.6223175965665235,3.0,1.4174714174714174,705.4815974941268,0.022959035021269912,-0.011071615873200292,-0.13204358720354287,660.8058608058608,-1.0,88.01110166077264,1.4162486471623397,
2023-08-11 17:07:52.026000,-8.879518072289157,-0.6506024096385542,-4.048192771084338,-0.5542611894543225,-8.770692826486817,-3.6591048436541995,3.0,1.4165834165834168,705.9238363892806,0.20569896859157383,0.3982285414602871,-0.009206922673503872,690.8424908424907,-1.0,88.01110166077264,1.416243512841211,
2023-08-11 17:07:52.034000,-8.91566265060241,-0.6867469879518072,-4.024096385542169,-0.6548129981606376,-8.795217657878602,-3.656652360515021,3.0,1.417027417027417,705.7026476578411,0.08146378416176263,-0.14020161995221703,-0.06934327836373178,736.9963369963369,-1.0,88.01110166077264,1.4162383947553727,
2023-08-11 17:07:52.041000,-8.891566265060241,-0.674698795180723,-4.0602409638554215,-0.5248313917841815,-8.76578786020846,-3.5977927651747392,3.0,1.417027417027417,705.7026476578411,-0.2063982285414606,-0.10908455218227295,-0.2377483829613659,798.5347985347985,-1.0,88.01110166077264,1.4162333023806064,
2023-08-11 17:07:52.049000,-8.891566265060241,-0.6626506024096386,-4.0361445783132535,-0.5370938074800735,-8.819742489270386,-3.6345800122624157,3.0,1.4174714174714174,705.4815974941268,-0.20231921216712262,-0.22865800361284375,0.12959617737894052,870.3296703296703,-1.0,88.01110166077264,1.4162282455181592,
2023-08-11 17:07:52.057000,-8.903614457831326,-0.6626506024096386,-4.024096385542169,-0.6082158185162476,-8.805027590435316,-3.614960147148988,3.0,1.4174714174714174,705.4815974941268,-0.04638424334246317,-0.14742730610104277,0.0793660043121028,947.2527472527472,-1.0,88.01110166077264,1.4162232344348202,
2023-08-11 17:07:52.064000,-8.91566265060241,-0.6626506024096386,-4.048192771084338,-0.5763335377069282,-8.800122624156959,-3.5928877988963825,3.0,1.4174714174714174,705.4815974941268,-0.12272012120505858,-0.29532078550201063,0.046151156692500625,1027.8388278388277,-1.0,88.01110166077264,1.41621827986355,
2023-08-11 17:07:52.072000,-8.91566265060241,-0.6626506024096386,-4.0,-0.5763335377069282,-8.802575107296137,-3.5977927651747392,3.0,1.4174714174714174,705.4815974941268,-0.05920400909037948,-0.04661732999242484,0.013752112347765171,1104.029304029304,-1.0,88.01110166077264,1.4162133928437337,
2023-08-11 17:07:52.080000,-8.91566265060241,-0.674698795180723,-3.987951807228916,-0.6131207847946045,-8.726548129981605,-3.5340282035561,3.0,1.4174714174714174,705.4815974941268,0.2016199522172376,-0.34811491171843195,-0.20231921216712306,1179.4871794871794,-1.0,88.01110166077264,1.4162085846989816,
2023-08-11 17:07:52.087000,-8.891566265060241,-0.6867469879518072,-4.0120481927710845,-0.6548129981606376,-8.809932556713672,-3.654199877375843,3.0,1.417915417915418,705.2606857679662,-0.012353592447992964,-0.14369791970164908,-0.5388963347124293,1249.084249084249,-1.0,88.01110166077264,1.4162038668750365,
2023-08-11 17:07:52.095000,-8.891566265060241,-0.674698795180723,-3.987951807228916,-0.5370938074800735,-8.814837522992029,-3.585530349478847,3.0,1.417915417915418,705.2606857679662,-0.13320902045335295,0.0759862478876529,-0.2314550434123886,1313.5531135531135,-1.0,88.01110166077264,1.4161992512237709,
2023-08-11 17:07:52.103000,-8.91566265060241,-0.674698795180723,-4.0,-0.5885959534028203,-8.758430410790925,-3.5683629675045982,3.0,1.417915417915418,705.2606857679662,-0.2387972728861956,-0.14987471592564555,-0.1987063690927102,1364.8351648351647,-1.0,88.01110166077264,1.4161947501272212,
2023-08-11 17:07:52.110000,-8.891566265060241,-0.674698795180723,-4.0120481927710845,-0.5665236051502146,-8.792765174739424,-3.6517473942366645,3.0,1.417915417915418,705.2606857679662,0.12971272070392093,0.053493386166308075,-0.1661907814229939,1405.8608058608058,-1.0,88.01110166077264,1.4161903761850148,
2023-08-11 17:07:52.118000,-8.903614457831326,-0.6867469879518072,-4.0120481927710845,-0.5959534028203556,-8.75107296137339,-3.5806253832004904,3.0,1.417915417915418,705.2606857679662,-0.09894528290892109,-0.23192121671231236,-0.02494027154594717,1431.5018315018315,-1.0,88.01110166077264,1.4161861421891444,
2023-08-11 17:07:52.126000,-8.91566265060241,-0.674698795180723,-3.9759036144578315,-0.5885959534028203,-8.84181483752299,-3.5708154506437766,3.0,1.417915417915418,705.2606857679662,-0.05151214964162865,0.32177612027271085,0.03717732066895886,1449.8168498168498,-1.0,88.01110166077264,1.4161820610980835,
2023-08-11 17:07:52.133000,-8.891566265060241,-0.674698795180723,-4.0120481927710845,-0.5959534028203556,-8.834457388105456,-3.637032495401594,3.0,1.417915417915418,705.2606857679662,0.11759221490589136,0.39659693491055364,-0.03671114736903465,1455.6776556776556,-1.0,88.01110166077264,1.4161781460103275,
2023-08-11 17:07:52.141000,-8.903614457831326,-0.674698795180723,-4.0120481927710845,-0.6646229307173512,-8.753525444512569,-3.6100551808706314,3.0,1.4183594183594184,705.0399123493504,-0.18448808344501993,0.22784220033797614,0.029368917895227633,1456.4102564102564,-1.0,88.01110166077264,1.4161744101374167,
2023-08-11 17:07:52.149000,-8.903614457831326,-0.6867469879518072,-4.048192771084338,-0.645003065603924,-8.805027590435316,-3.5977927651747392,3.0,1.417915417915418,705.2606857679662,-0.21513897791504066,0.2713128605559115,0.07901637433715986,1447.6190476190475,-1.0,88.01110166077264,1.4161708669257922,
2023-08-11 17:07:52.156000,-8.91566265060241,-0.6987951807228916,-4.0,-0.6106683016554261,-8.824647455548742,-3.619865113427345,3.0,1.4183594183594184,705.0399123493504,-0.3221257502476551,-0.023774838296135765,0.06759512848901576,1431.5018315018315,-1.0,88.01110166077264,1.416167529901551,
2023-08-11 17:07:52.164000,-8.903614457831326,-0.6867469879518072,-4.0,-0.6425505824647455,-8.724095646842427,-3.6296750459840585,3.0,1.4183594183594184,705.0399123493504,-0.21420663131519224,0.35883689761668974,-0.12959617737894052,1408.7912087912086,-1.0,88.01110166077264,1.4161644126326458,
2023-08-11 17:07:52.172000,-8.903614457831326,-0.6987951807228916,-4.048192771084338,-0.6033108522378908,-8.834457388105456,-3.6125076640098097,3.0,1.4183594183594184,705.0399123493504,-0.1835557368451715,0.08111415418681839,0.07237340481323917,1380.2197802197802,-1.0,88.01110166077264,1.4161615288612683,
2023-08-11 17:07:52.179000,-8.891566265060241,-0.6987951807228916,-4.024096385542169,-0.6523605150214592,-8.802575107296137,-3.6394849785407724,3.0,1.4174714174714174,705.4815974941268,-0.18507080006992585,0.0941670065846981,-0.018064215372064367,1347.2527472527472,-1.0,88.01110166077264,1.4161588923383492,
2023-08-11 17:07:52.187000,-8.903614457831326,-0.6987951807228916,-4.024096385542169,-0.645003065603924,-8.748620478234212,-3.6174126302881664,3.0,1.417915417915418,705.2606857679662,-0.3082570945749078,0.09195268341005701,0.17912709049589193,1311.3553113553112,-1.0,88.01110166077264,1.4161565167757353,
2023-08-11 17:07:52.195000,-8.903614457831326,-0.6987951807228916,-4.024096385542169,-0.6302881667688535,-8.738810545677499,-3.6689147762109133,3.0,1.4183594183594184,705.0399123493504,-0.13996853330225537,-0.20115377891731254,-0.06561389196433763,1274.7252747252746,-1.0,88.01110166077264,1.4161544157455948,
2023-08-11 17:07:52.202000,-8.879518072289157,-0.6867469879518072,-4.048192771084338,-0.6302881667688535,-8.748620478234212,-3.632127529123237,3.0,1.4183594183594184,705.0399123493504,-0.14229939980187556,-0.19917254239263485,-0.06654623856418607,1241.7582417582416,-1.0,88.01110166077264,1.4161526026848548,
2023-08-11 17:07:52.210000,-8.879518072289157,-0.6987951807228916,-4.048192771084338,-0.6474555487431024,-8.78050275904353,-3.666462293071735,3.0,1.4188034188034189,704.8192771084337,-0.02051162519666714,-0.07715168113746301,-0.2976516520016317,1211.7216117216117,-1.0,88.01110166077264,1.416151090920539,
2023-08-11 17:07:52.218000,-8.867469879518072,-0.6867469879518072,-4.048192771084338,-0.6621704475781729,-8.760882893930104,-3.6051502145922747,3.0,1.4183594183594184,705.0399123493504,-0.03577880076918622,0.1052386224578984,-0.11351319853155428,1186.080586080586,-1.0,88.01110166077264,1.4161498938023886,
2023-08-11 17:07:52.225000,-8.879518072289157,-0.6987951807228916,-4.0361445783132535,-0.5812385039852851,-8.758430410790925,-3.6689147762109133,3.0,1.4183594183594184,705.0399123493504,-0.20371773206689614,-0.30860672454985205,-0.32585513664704835,1164.8351648351647,-1.0,88.01110166077264,1.4161490245485393,
2023-08-11 17:07:52.233000,-8.879518072289157,-0.6987951807228916,-4.048192771084338,-0.6082158185162476,-8.763335377069282,-3.6591048436541995,3.0,1.4183594183594184,705.0399123493504,0.027737311345492885,-0.12318629450498193,-0.3697919701649088,1142.1245421245421,-1.0,88.01110166077264,1.4161484960600343,
2023-08-11 17:07:52.241000,-8.891566265060241,-0.6867469879518072,-4.048192771084338,-0.6548129981606376,-8.75107296137339,-3.649294911097486,3.0,1.4183594183594184,705.0399123493504,0.027620768020512047,0.1968416758930129,-0.21304119806538085,1126.007326007326,-1.0,88.01110166077264,1.4161483210336132,
2023-08-11 17:07:52.248000,-8.867469879518072,-0.6987951807228916,-4.048192771084338,-0.5836909871244634,-8.763335377069282,-3.6100551808706314,3.0,1.4188034188034189,704.8192771084337,-0.2316881300623507,0.11875764815570147,-0.16420954489831577,1112.087912087912,-1.0,88.01110166077264,1.4161485119362016,
2023-08-11 17:07:52.256000,-8.867469879518072,-0.6987951807228916,-4.024096385542169,-0.6033108522378908,-8.807480073574494,-3.6394849785407724,3.0,1.4188034188034189,704.8192771084337,-0.42806363265544023,0.14882582600081629,0.03671114736903465,1104.029304029304,-1.0,88.01110166077264,1.416149081129166,
2023-08-11 17:07:52.264000,-8.891566265060241,-0.6867469879518072,-4.024096385542169,-0.5885959534028203,-8.726548129981605,-3.6419374616799507,3.0,1.4188034188034189,704.8192771084337,-0.39379989511100666,0.10150923605850469,-0.21991725423926364,1097.4358974358975,-1.0,88.01110166077264,1.4161500408656857,
2023-08-11 17:07:52.271000,-8.903614457831326,-0.6987951807228916,-4.024096385542169,-0.5861434702636419,-8.809932556713672,-3.649294911097486,3.0,1.4188034188034189,704.8192771084337,-0.023774838296135765,0.07015908163859894,-0.019229648621875334,1092.3076923076922,-1.0,88.01110166077264,1.4161514031297306,
2023-08-11 17:07:52.279000,-8.903614457831326,-0.6987951807228916,-4.0,-0.6351931330472103,-8.807480073574494,-3.607602697731453,3.0,1.4188034188034189,704.8192771084337,-0.21793601771458596,-0.05384301614125059,0.19602587261814575,1092.3076923076922,-1.0,88.01110166077264,1.4161531796145728,
2023-08-11 17:07:52.287000,-8.903614457831326,-0.6987951807228916,-4.024096385542169,-0.6204782342121398,-8.81238503985285,-3.5928877988963825,3.0,1.4188034188034189,704.8192771084337,-0.3187459938232039,-0.3737544432142646,0.42445078958102694,1093.040293040293,-1.0,88.01110166077264,1.4161553817020684,
2023-08-11 17:07:52.294000,-8.891566265060241,-0.6987951807228916,-4.0120481927710845,-0.6229307173513182,-8.778050275904352,-3.624770079705702,3.0,1.4188034188034189,704.8192771084337,-0.2681661907814237,-0.02051162519666714,0.22551133383835423,1095.970695970696,-1.0,88.01110166077264,1.4161580204427728,
2023-08-11 17:07:52.302000,-8.903614457831326,-0.6987951807228916,-4.0120481927710845,-0.6351931330472103,-8.760882893930104,-3.67381974248927,3.0,1.4192474192474194,704.5987799155325,-0.3562729444671061,-0.2316881300623507,0.17936017714585403,1101.098901098901,-1.0,88.01110166077264,1.4161611065368462,
2023-08-11 17:07:52.310000,-8.891566265060241,-0.6987951807228916,-4.0361445783132535,-0.5665236051502146,-8.741263028816677,-3.6394849785407724,3.0,1.4188034188034189,704.8192771084337,-0.13763766680263342,-0.5626711730085667,-0.004195559699318357,1106.9597069597069,-1.0,88.01110166077264,1.416164650603839,
2023-08-11 17:07:52.317000,-8.903614457831326,-0.7228915662650602,-4.0120481927710845,-0.598405885959534,-8.81238503985285,-3.619865113427345,3.0,1.4192474192474194,704.5987799155325,-0.2104772449157968,-0.2664180409067077,-0.26303828448225647,1110.6227106227107,-1.0,88.01110166077264,1.4161686628787022,
2023-08-11 17:07:52.325000,-8.93975903614458,-0.710843373493976,-4.0120481927710845,-0.6327406499080318,-8.787860208461066,-3.607602697731453,3.0,1.4192474192474194,704.5987799155325,-0.1772623972961942,-0.3674611036652873,-0.12423518442981163,1113.5531135531135,-1.0,88.01110166077264,1.4161731530579118,
2023-08-11 17:07:52.333000,-8.927710843373495,-0.710843373493976,-3.987951807228916,-0.6621704475781729,-8.84671980380135,-3.6591048436541995,3.0,1.4183594183594184,705.0399123493504,-0.3723559233144928,-0.28553114620360126,0.27119631723093063,1117.2161172161173,-1.0,88.01110166077264,1.4161781304548173,
2023-08-11 17:07:52.340000,-8.91566265060241,-0.7228915662650602,-3.987951807228916,-0.6474555487431024,-8.78050275904353,-3.6223175965665235,3.0,1.4188034188034189,704.8192771084337,-0.03169978439484827,-0.11258085193170499,0.04032399044344752,1116.4835164835165,-1.0,88.01110166077264,1.416183603985586,
2023-08-11 17:07:52.348000,-8.891566265060241,-0.710843373493976,-4.024096385542169,-0.7381974248927038,-8.785407725321887,-3.649294911097486,3.0,1.4188034188034189,704.8192771084337,-0.20080414894237003,-0.15616805547462287,0.2521997552590174,1113.5531135531135,-1.0,88.01110166077264,1.4161895822104806,
2023-08-11 17:07:52.356000,-8.891566265060241,-0.710843373493976,-4.024096385542169,-0.5935009196811771,-8.84671980380135,-3.6689147762109133,3.0,1.4192474192474194,704.5987799155325,-0.18507080006992585,-0.10873492220733044,0.29520424217702934,1109.1575091575091,-1.0,88.01110166077264,1.41619607319372,
2023-08-11 17:07:52.363000,-8.891566265060241,-0.7228915662650602,-4.024096385542169,-0.6376456161863887,-8.778050275904352,-3.5904353157572038,3.0,1.4192474192474194,704.5987799155325,0.016432608822329185,-0.049064739817027615,0.4151273235825418,1104.7619047619046,-1.0,88.01110166077264,1.4162030846518345,
2023-08-11 17:07:52.371000,-8.903614457831326,-0.6987951807228916,-4.0361445783132535,-0.5836909871244634,-8.807480073574494,-3.6125076640098097,3.0,1.4192474192474194,704.5987799155325,-0.1653749781481263,-0.14194976982693305,0.19754093584289967,1097.4358974358975,-1.0,88.01110166077264,1.4162106239645778,
2023-08-11 17:07:52.379000,-8.891566265060241,-0.6867469879518072,-4.0361445783132535,-0.5787860208461066,-8.832004904966277,-3.644389944819129,3.0,1.4196914196914197,704.3784206411259,-0.4239846162811023,-0.07039216828856061,0.31944525377309024,1093.040293040293,-1.0,88.01110166077264,1.4162186978886284,
2023-08-11 17:07:52.386000,-8.91566265060241,-0.6626506024096386,-4.024096385542169,-0.645003065603924,-8.787860208461066,-3.602697731453096,3.0,1.4192474192474194,704.5987799155325,-0.3142008041489426,0.39752928151040207,0.08927218693549344,1090.10989010989,-1.0,88.01110166077264,1.416227312719128,
2023-08-11 17:07:52.394000,-8.91566265060241,-0.6987951807228916,-4.0361445783132535,-0.6204782342121398,-8.800122624156959,-3.619865113427345,3.0,1.4196914196914197,704.3784206411259,-0.5099935901171262,0.05372647281626975,0.4560340306508944,1084.981684981685,-1.0,88.01110166077264,1.416236474441481,
2023-08-11 17:07:52.401000,-8.927710843373495,-0.6867469879518072,-4.0361445783132535,-0.5321888412017167,-8.817290006131207,-3.624770079705702,3.0,1.4196914196914197,704.3784206411259,-0.18611968999475512,-0.11840801818075895,0.28914398927801416,1083.5164835164835,-1.0,88.01110166077264,1.4162461886933135,
2023-08-11 17:07:52.409000,-8.927710843373495,-0.6987951807228916,-4.0361445783132535,-0.6253832004904966,-8.800122624156959,-3.6394849785407724,3.0,1.4196914196914197,704.3784206411259,-0.01876347532195112,0.08938873026047514,0.027620768020511614,1085.7142857142856,-1.0,88.01110166077264,1.4162564607700157,
2023-08-11 17:07:52.417000,-8.927710843373495,-0.6867469879518072,-4.0361445783132535,-0.5861434702636419,-8.807480073574494,-3.62722256284488,3.0,1.4196914196914197,704.3784206411259,-0.0051279062991672186,-0.11689295495600462,0.14882582600081584,1088.6446886446886,-1.0,88.01110166077264,1.4162672953436857,
2023-08-11 17:07:52.424000,-8.903614457831326,-0.6867469879518072,-4.0,-0.6253832004904966,-8.792765174739424,-3.624770079705702,3.0,1.4196914196914197,704.3784206411259,-0.004195559699318791,-0.5343511450381679,0.3013810384010254,1095.2380952380952,-1.0,88.01110166077264,1.4162786964806096,
2023-08-11 17:07:52.432000,-8.891566265060241,-0.674698795180723,-4.0,-0.6131207847946045,-8.755977927651747,-3.6640098099325566,3.0,1.4196914196914197,704.3784206411259,-0.2781889167297947,-0.5204824893654223,-0.018180758697045635,1107.6923076923076,-1.0,88.01110166077264,1.416290667787001,
2023-08-11 17:07:52.440000,-8.91566265060241,-0.6867469879518072,-4.0120481927710845,-0.5321888412017167,-8.758430410790925,-3.644389944819129,3.0,1.4201354201354202,704.1581991558543,-0.10838529223238792,-0.8128896917429052,0.02797039799545499,1127.4725274725274,-1.0,88.01110166077264,1.4163032125449675,
2023-08-11 17:07:52.447000,-8.891566265060241,-0.6867469879518072,-4.0120481927710845,-0.5567136725935009,-8.782955242182709,-3.6689147762109133,3.0,1.4196914196914197,704.3784206411259,-0.21478934794009644,-0.7645242118757642,-0.23331973661208544,1149.4505494505493,-1.0,88.01110166077264,1.4163163337006397,
2023-08-11 17:07:52.455000,-8.891566265060241,-0.674698795180723,-3.963855421686747,-0.6523605150214592,-8.741263028816677,-3.6223175965665235,3.0,1.4196914196914197,704.3784206411259,-0.16852164792261584,-0.7642911252258026,0.19474389604335393,1182.4175824175823,-1.0,88.01110166077264,1.4163300337465414,
2023-08-11 17:07:52.463000,-8.903614457831326,-0.6626506024096386,-3.963855421686747,-0.568976088289393,-8.805027590435316,-3.5536480686695278,3.0,1.4196914196914197,704.3784206411259,-0.2739933570304759,-0.7013577297360294,-0.2213157741390363,1235.164835164835,-1.0,88.01110166077264,1.4163443145519192,
2023-08-11 17:07:52.470000,-8.891566265060241,-0.674698795180723,-4.0,-0.5935009196811771,-8.778050275904352,-3.5291232372777435,3.0,1.4201354201354202,704.1581991558543,-0.3020802983509113,-0.592622807528699,0.05186177961657246,1311.3553113553112,-1.0,88.01110166077264,1.4163591773737514,
2023-08-11 17:07:52.478000,-8.91566265060241,-0.6987951807228916,-3.987951807228916,-0.6548129981606376,-8.800122624156959,-3.5536480686695278,3.0,1.4201354201354202,704.1581991558543,-0.3012644950760437,-0.5923897208787373,0.04894819649204591,1421.9780219780218,-1.0,88.01110166077264,1.4163746231555572,
2023-08-11 17:07:52.486000,-8.927710843373495,-0.6867469879518072,-3.987951807228916,-0.5885959534028203,-8.805027590435316,-3.556100551808706,3.0,1.4192474192474194,704.5987799155325,-0.06852747508886375,-0.11677641163102377,0.10593788240778515,1562.6373626373625,-1.0,88.01110166077264,1.4163906524112135,
2023-08-11 17:07:52.493000,-8.879518072289157,-0.6867469879518072,-3.987951807228916,-0.5297363580625383,-8.809932556713672,-3.5389331698344573,3.0,1.4196914196914197,704.3784206411259,-0.4517219276265952,-0.3174640172484112,-0.1118815919818191,1737.7289377289376,-1.0,88.01110166077264,1.4164072652270645,
2023-08-11 17:07:52.501000,-8.903614457831326,-0.6867469879518072,-3.951807228915663,-0.6106683016554261,-8.748620478234212,-3.632127529123237,3.0,1.4201354201354202,704.1581991558543,-0.4616281102499854,0.4796923256220497,-0.14556261290134592,1936.9963369963368,-1.0,88.01110166077264,1.4164244614577022,
2023-08-11 17:07:52.509000,-8.91566265060241,-0.6867469879518072,-3.951807228915663,-0.5959534028203556,-8.802575107296137,-3.5977927651747392,3.0,1.4201354201354202,704.1581991558543,-0.3361109492453815,0.9040265718780963,0.0045451896742613,2150.915750915751,-1.0,88.01110166077264,1.4164422405913206,
2023-08-11 17:07:52.516000,-8.903614457831326,-0.6626506024096386,-4.0,-0.5714285714285714,-8.792765174739424,-3.6002452483139176,3.0,1.4205794205794209,703.9381153305203,-0.11922382145562654,1.219276265951868,-0.19521006934327814,2367.032967032967,-1.0,88.01110166077264,1.4164606016579118,
2023-08-11 17:07:52.524000,-8.903614457831326,-0.6987951807228916,-4.0,-0.5567136725935009,-8.755977927651747,-3.619865113427345,3.0,1.4205794205794209,703.9381153305203,-0.2532486451838471,1.0604277140026808,0.0788998310121786,2572.8937728937726,-1.0,88.01110166077264,1.4164795432552524,
2023-08-11 17:07:52.532000,-8.903614457831326,-0.6987951807228916,-4.0,-0.645003065603924,-8.782955242182709,-3.573267933782955,3.0,1.4205794205794209,703.9381153305203,-0.20406736204183865,1.4080764524211877,0.12295320785502026,2755.3113553113553,-1.0,88.01110166077264,1.4164990637349746,
2023-08-11 17:07:52.539000,-8.891566265060241,-0.6867469879518072,-4.0,-0.6425505824647455,-8.79767014101778,-3.656652360515021,3.0,1.4205794205794209,703.9381153305203,-0.08088106753685671,0.9282675834741572,0.04323757356797407,2805.8608058608056,-1.0,88.01110166077264,1.4165191610595456,
2023-08-11 17:07:52.547000,-8.927710843373495,-0.674698795180723,-4.0120481927710845,-0.5616186388718577,-8.84181483752299,-3.5977927651747392,3.0,1.4210234210234212,703.718169036088,0.060952158965095496,0.8496008391119397,0.23961307616106275,2805.128205128205,-1.0,88.01110166077264,1.416539832680677,
2023-08-11 17:07:52.555000,-8.879518072289157,-0.674698795180723,-4.024096385542169,-0.6131207847946045,-8.763335377069282,-3.614960147148988,3.0,1.4210234210234212,703.718169036088,0.12260357788007775,0.22189849076394133,0.2816852164792263,2805.128205128205,-1.0,88.01110166077264,1.4165610758441345,
2023-08-11 17:07:52.562000,-8.903614457831326,-0.6867469879518072,-4.024096385542169,-0.6351931330472103,-8.763335377069282,-3.6517473942366645,3.0,1.4210234210234212,703.718169036088,-0.12155468795524675,0.054891906066079854,0.5054484004428645,2805.8608058608056,-1.0,88.01110166077264,1.4165828876181912,
2023-08-11 17:07:52.570000,-8.91566265060241,-0.6867469879518072,-4.0,-0.5665236051502146,-8.856529736358063,-3.607602697731453,3.0,1.4210234210234212,703.718169036088,-0.33646057922032574,-0.2649029776819533,0.13472408367810731,2805.8608058608056,-1.0,88.01110166077264,1.4166052647634455,
2023-08-11 17:07:52.578000,-8.903614457831326,-0.6626506024096386,-4.024096385542169,-0.6180257510729613,-8.787860208461066,-3.6296750459840585,3.0,1.4210234210234212,703.718169036088,-0.05780548919060597,-0.06398228541460245,0.31571586737369606,2805.8608058608056,-1.0,88.01110166077264,1.416628203880562,
2023-08-11 17:07:52.585000,-8.891566265060241,-0.6867469879518072,-3.987951807228916,-0.6082158185162476,-8.817290006131207,-3.6051502145922747,3.0,1.4214674214674214,703.4983601436826,-0.1934619194685617,0.04207214031816354,0.14602878620127013,2805.128205128205,-1.0,88.01110166077264,1.4166517013992672,
2023-08-11 17:07:52.593000,-8.903614457831326,-0.6867469879518072,-3.987951807228916,-0.5616186388718577,-8.782955242182709,-3.62722256284488,3.0,1.4214674214674214,703.4983601436826,-0.12913000407901673,-0.0078084027737316646,0.12936309072897842,2766.300366300366,-1.0,88.01110166077264,1.4166757534505743,
2023-08-11 17:07:52.601000,-8.891566265060241,-0.6987951807228916,-4.0,-0.6253832004904966,-8.82709993868792,-3.578172900061312,3.0,1.4214674214674214,703.4983601436826,-0.020161995221722892,0.32422353009731364,0.08227958743662936,2649.0842490842488,-1.0,88.01110166077264,1.4167003560588152,
2023-08-11 17:07:52.608000,-8.891566265060241,-0.710843373493976,-3.987951807228916,-0.5125689760882893,-8.787860208461066,-3.578172900061312,3.0,1.4214674214674214,703.4983601436826,-0.3252724200221429,0.40871744070858324,0.3560398578171436,2493.040293040293,-1.0,88.01110166077264,1.41672550514319,
2023-08-11 17:07:52.616000,-8.91566265060241,-0.6867469879518072,-3.963855421686747,-0.6253832004904966,-8.81238503985285,-3.5585530349478844,3.0,1.4214674214674214,703.4983601436826,-0.19998834566750243,0.6746693083153658,-0.028320027970397933,2312.8205128205127,-1.0,88.01110166077264,1.4167511963814585,
2023-08-11 17:07:52.624000,-8.903614457831326,-0.6867469879518072,-4.0120481927710845,-0.6302881667688535,-8.760882893930104,-3.6100551808706314,3.0,1.4214674214674214,703.4983601436826,-0.16980362449740677,0.7268807179068812,0.12458481440475501,2120.879120879121,-1.0,88.01110166077264,1.416777425084202,
2023-08-11 17:07:52.631000,-8.91566265060241,-0.6867469879518072,-3.9759036144578315,-0.5665236051502146,-8.778050275904352,-3.5757204169221333,3.0,1.421911421911422,703.2786885245902,-0.12388555445486868,0.91556436105122,0.24520715576015376,1925.2747252747251,712.371826171875,84.22567793342758,1.4168041862281497,
2023-08-11 17:07:52.639000,-8.891566265060241,-0.674698795180723,-3.987951807228916,-0.6008583690987124,-8.79767014101778,-3.595340282035561,3.0,1.4205794205794209,703.9381153305203,-0.1826233902453231,1.3502709632305818,0.04591807004253852,1733.3333333333333,-1.0,84.22567793342758,1.4168314747663011,
2023-08-11 17:07:52.647000,-8.91566265060241,-0.674698795180723,-4.0,-0.5542611894543225,-8.832004904966277,-3.5806253832004904,3.0,1.4210234210234212,703.718169036088,-0.39379989511100666,1.260532602995164,0.1395023600023307,1549.4505494505493,-1.0,84.22567793342758,1.4168592852134383,
2023-08-11 17:07:52.654000,-8.891566265060241,-0.674698795180723,-4.0120481927710845,-0.5444512568976088,-8.73635806253832,-3.5708154506437766,3.0,1.4214674214674214,703.4983601436826,0.007691859448750828,0.8975001456791556,0.12248703455509605,1380.952380952381,-1.0,84.22567793342758,1.4168876116041724,
2023-08-11 17:07:52.662000,-8.91566265060241,-0.674698795180723,-4.024096385542169,-0.5346413243408952,-8.819742489270386,-3.5462906192519923,3.0,1.4214674214674214,703.4983601436826,0.11607715168113703,0.8730260474331331,0.24299283258551352,1229.3040293040292,-1.0,84.22567793342758,1.4169164480884546,
2023-08-11 17:07:52.670000,-8.879518072289157,-0.6626506024096386,-4.0,-0.6106683016554261,-8.829552421827099,-3.624770079705702,3.0,1.4214674214674214,703.4983601436826,0.2829671930540177,0.4975234543441524,-0.047433133267291996,1095.2380952380952,-1.0,84.22567793342758,1.4169457888238877,
2023-08-11 17:07:52.677000,-8.879518072289157,-0.6385542168674699,-4.024096385542169,-0.5836909871244634,-8.802575107296137,-3.6640098099325566,3.0,1.421911421911422,703.2786885245902,0.4193228832818602,0.1687547345725775,-0.22900763358778625,978.7545787545787,-1.0,84.22567793342758,1.41697562784735,
2023-08-11 17:07:52.685000,-8.91566265060241,-0.6506024096385542,-4.024096385542169,-0.640098099325567,-8.807480073574494,-3.637032495401594,3.0,1.4214674214674214,703.4983601436826,0.0949828098595657,-0.0813472408367818,0.015733348872443296,883.5164835164835,-1.0,84.22567793342758,1.4170059592343176,
2023-08-11 17:07:52.693000,-8.879518072289157,-0.6506024096385542,-4.024096385542169,-0.5861434702636419,-8.78050275904353,-3.644389944819129,3.0,1.421911421911422,703.2786885245902,0.3996270613600606,-0.21793601771458596,-0.24369209253539986,808.7912087912088,-1.0,84.22567793342758,1.4170367769810277,
2023-08-11 17:07:52.700000,-8.903614457831326,-0.6506024096385542,-4.024096385542169,-0.6351931330472103,-8.800122624156959,-3.614960147148988,3.0,1.421911421911422,703.2786885245902,0.24462443913524784,-0.24590641571004052,-0.21199230814055114,755.3113553113552,-1.0,84.22567793342758,1.4170680748651905,
2023-08-11 17:07:52.708000,-8.867469879518072,-0.6265060240963856,-4.0,-0.5959534028203556,-8.768240343347639,-3.6689147762109133,3.0,1.4214674214674214,703.4983601436826,0.14066779325214213,-0.1496416292756839,-0.3644309772157799,720.8791208791208,-1.0,84.22567793342758,1.417099846774454,
2023-08-11 17:07:52.716000,-8.879518072289157,-0.674698795180723,-4.0120481927710845,-0.5885959534028203,-8.863887185775598,-3.644389944819129,3.0,1.421911421911422,703.2786885245902,0.17329992424683882,0.31268574092418827,-0.22481207388846788,704.7619047619047,-1.0,84.22567793342758,1.4171320865557457,
2023-08-11 17:07:52.723000,-8.891566265060241,-0.6626506024096386,-4.0,-0.551808706315144,-8.792765174739424,-3.614960147148988,3.0,1.421911421911422,703.2786885245902,-0.15861546529922566,0.4074354641337923,-0.33074995629625303,709.8901098901099,-1.0,84.22567793342758,1.4171647880028577,
2023-08-11 17:07:52.731000,-8.891566265060241,-0.674698795180723,-4.0120481927710845,-0.5616186388718577,-8.778050275904352,-3.5879828326180254,3.0,1.421911421911422,703.2786885245902,0.2890274459530333,0.9586853912942127,-0.4352893188042656,732.6007326007325,-1.0,84.22567793342758,1.4171979450242655,
2023-08-11 17:07:52.739000,-8.879518072289157,-0.6626506024096386,-4.024096385542169,-0.5640711220110362,-8.790312691600246,-3.614960147148988,3.0,1.421911421911422,703.2786885245902,0.15278829905017166,1.2472466639473228,-0.37049123011479507,767.7655677655678,-1.0,84.22567793342758,1.4172315515124259,
2023-08-11 17:07:52.746000,-8.879518072289157,-0.6626506024096386,-4.0361445783132535,-0.5493562231759657,-8.76578786020846,-3.607602697731453,3.0,1.4223554223554224,703.0591540502575,0.07924946098712153,1.4852281335586508,-0.6277023483479984,813.9194139194138,-1.0,84.22567793342758,1.4172656013511302,
2023-08-11 17:07:52.754000,-8.879518072289157,-0.6626506024096386,-4.0120481927710845,-0.5935009196811771,-8.775597792765174,-3.683629675045984,3.0,1.4223554223554224,703.0591540502575,0.08344502068644033,1.4788182506846925,-0.6210593788240777,872.5274725274725,-1.0,84.22567793342758,1.4173000885713798,
2023-08-11 17:07:52.761000,-8.891566265060241,-0.674698795180723,-4.048192771084338,-0.5763335377069282,-8.76578786020846,-3.6125076640098097,3.0,1.4223554223554224,703.0591540502575,0.11829147485577812,0.9226735038750649,-0.3559233144921623,942.8571428571428,-1.0,84.22567793342758,1.417335007379032,
2023-08-11 17:07:52.769000,-8.891566265060241,-0.674698795180723,-4.024096385542169,-0.568976088289393,-8.79767014101778,-3.6591048436541995,3.0,1.4223554223554224,703.0591540502575,0.2569780315832408,1.4988637025814346,-0.5808519317056114,1018.3150183150183,-1.0,84.22567793342758,1.417370352022625,
2023-08-11 17:07:52.777000,-8.927710843373495,-0.674698795180723,-4.0,-0.5297363580625383,-8.807480073574494,-3.62722256284488,3.0,1.4223554223554224,703.0591540502575,-0.10803566225744368,1.2168288561272653,-0.2575607482081463,1090.8424908424909,-1.0,84.22567793342758,1.4174061167992227,
2023-08-11 17:07:52.784000,-8.903614457831326,-0.6987951807228916,-4.0361445783132535,-0.6229307173513182,-8.773145309625995,-3.654199877375843,3.0,1.422799422799423,702.839756592292,-0.030650894470019004,1.0701008099761093,-0.39123594196142436,1161.1721611721612,-1.0,84.22567793342758,1.4174422961982067,
2023-08-11 17:07:52.792000,-8.891566265060241,-0.6867469879518072,-4.0602409638554215,-0.657265481299816,-8.770692826486817,-3.656652360515021,3.0,1.4214674214674214,703.4983601436826,0.09265194335994377,0.8794359303070912,-0.19194685624380867,1224.9084249084249,-1.0,84.22567793342758,1.4174788848956477,
2023-08-11 17:07:52.800000,-8.927710843373495,-0.6867469879518072,-4.0602409638554215,-0.568976088289393,-8.792765174739424,-3.6345800122624157,3.0,1.4223554223554224,703.0591540502575,-0.013519025697803066,0.8543791154361627,0.08344502068644033,1280.5860805860805,-1.0,84.22567793342758,1.41751587748149,
2023-08-11 17:07:52.807000,-8.91566265060241,-0.710843373493976,-4.0361445783132535,-0.6376456161863887,-8.785407725321887,-3.632127529123237,3.0,1.4223554223554224,703.0591540502575,0.20208612551716096,0.75520074587728,-0.06876056173882629,1331.135531135531,-1.0,84.22567793342758,1.417553268666156,
2023-08-11 17:07:52.815000,-8.93975903614458,-0.6867469879518072,-4.048192771084338,-0.6131207847946045,-8.84181483752299,-3.62722256284488,3.0,1.4223554223554224,703.0591540502575,0.017481498747158448,0.15255521240021,-0.08286230406153484,1377.2893772893772,-1.0,84.22567793342758,1.4175910534425604,
2023-08-11 17:07:52.823000,-8.891566265060241,-0.6867469879518072,-4.0361445783132535,-0.5836909871244634,-8.76578786020846,-3.632127529123237,3.0,1.422799422799423,702.839756592292,-0.2868131227783922,0.40603694423401876,0.23844764291125223,1412.4542124542124,-1.0,84.22567793342758,1.4176292266720516,
2023-08-11 17:07:52.830000,-8.903614457831326,-0.6867469879518072,-4.0120481927710845,-0.5885959534028203,-8.775597792765174,-3.6689147762109133,3.0,1.422799422799423,702.839756592292,0.09603169978439496,-0.03076743779499984,-0.02225977507138272,1438.095238095238,-1.0,84.22567793342758,1.4176677832548392,
2023-08-11 17:07:52.838000,-8.879518072289157,-0.6867469879518072,-4.048192771084338,-0.6033108522378908,-8.78050275904353,-3.695892090741876,3.0,1.422799422799423,702.839756592292,-0.055824252665928276,0.359885787541519,-0.005477536274109728,1451.2820512820513,-1.0,84.22567793342758,1.417706718299171,
2023-08-11 17:07:52.846000,-8.867469879518072,-0.6987951807228916,-4.0361445783132535,-0.5787860208461066,-8.746167995095034,-3.5879828326180254,3.0,1.4232434232434235,702.6204960224613,0.30988870112464295,0.28669657945341137,0.3921682885612728,1456.4102564102564,-1.0,84.22567793342758,1.4177460269810036,
2023-08-11 17:07:52.853000,-8.879518072289157,-0.6867469879518072,-4.048192771084338,-0.5787860208461066,-8.775597792765174,-3.62722256284488,3.0,1.4232434232434235,702.6204960224613,0.3817959326379579,0.21409008799020968,0.3609346774663483,1449.8168498168498,-1.0,84.22567793342758,1.4177857046906535,
2023-08-11 17:07:52.861000,-8.879518072289157,-0.6867469879518072,-4.024096385542169,-0.615573267933783,-8.79767014101778,-3.637032495401594,3.0,1.4232434232434235,702.6204960224613,0.05897092244041781,0.04859856651710253,0.26735038750655565,1430.7692307692307,-1.0,84.22567793342758,1.4178257470509394,
2023-08-11 17:07:52.869000,-8.903614457831326,-0.6867469879518072,-4.0361445783132535,-0.6131207847946045,-8.802575107296137,-3.656652360515021,3.0,1.4232434232434235,702.6204960224613,0.1798263504457778,0.31571586737369695,0.4808577588718607,1405.8608058608058,-1.0,84.22567793342758,1.4178661497753184,
2023-08-11 17:07:52.876000,-8.903614457831326,-0.6626506024096386,-4.0361445783132535,-0.6008583690987124,-8.760882893930104,-3.6615573267933783,3.0,1.4232434232434235,702.6204960224613,0.053143756191363835,0.4888992482955532,0.3128022842491695,1377.2893772893772,-1.0,84.22567793342758,1.4179069086638945,
2023-08-11 17:07:52.884000,-8.903614457831326,-0.674698795180723,-4.0361445783132535,-0.5959534028203556,-8.748620478234212,-3.67381974248927,3.0,1.4236874236874235,702.401372212693,0.0666627818891669,0.2350678864868019,0.20465007866674456,1342.8571428571427,-1.0,84.22567793342758,1.4179480197372907,
2023-08-11 17:07:52.892000,-8.903614457831326,-0.674698795180723,-4.024096385542169,-0.5567136725935009,-8.733905579399142,-3.6615573267933783,3.0,1.4236874236874235,702.401372212693,0.08006526426198912,0.06316648213973486,0.3724724666394732,1307.6923076923076,-1.0,84.22567793342758,1.4179894792210943,
2023-08-11 17:07:52.899000,-8.891566265060241,-0.674698795180723,-4.048192771084338,-0.615573267933783,-8.770692826486817,-3.6051502145922747,3.0,1.4236874236874235,702.401372212693,0.14043470660217872,0.0892721869354943,0.03239904434473502,1273.260073260073,-1.0,84.22567793342758,1.4180312834335203,
2023-08-11 17:07:52.907000,-8.891566265060241,-0.6626506024096386,-4.024096385542169,-0.5370938074800735,-8.805027590435316,-3.6468424279583074,3.0,1.4236874236874235,702.401372212693,-0.07586970456267034,0.47235009614824314,0.107802575607482,1240.2930402930401,-1.0,84.22567793342758,1.4180734287900343,
2023-08-11 17:07:52.915000,-8.891566265060241,-0.6506024096385542,-4.024096385542169,-0.5419987737584304,-8.773145309625995,-3.6640098099325566,3.0,1.4241314241314242,702.182385035074,-0.18250684692034225,0.32002797039799485,0.22935726356272962,1209.5238095238094,-1.0,84.22567793342758,1.418115911796787,
2023-08-11 17:07:52.922000,-8.867469879518072,-0.674698795180723,-4.0361445783132535,-0.5812385039852851,-8.782955242182709,-3.637032495401594,3.0,1.4236874236874235,702.401372212693,-0.031816327719829104,-0.044752636792727986,-0.016782238797272996,1183.8827838827838,-1.0,84.22567793342758,1.4181587291927211,
2023-08-11 17:07:52.930000,-8.891566265060241,-0.6626506024096386,-4.0120481927710845,-0.6180257510729613,-8.807480073574494,-3.6591048436541995,3.0,1.4236874236874235,702.401372212693,-0.06200104888992476,0.3876230988870119,-0.3674611036652877,1162.6373626373625,-1.0,84.22567793342758,1.4182018778143797,
2023-08-11 17:07:52.938000,-8.903614457831326,-0.6867469879518072,-4.048192771084338,-0.6082158185162476,-8.807480073574494,-3.649294911097486,3.0,1.4241314241314242,702.182385035074,-0.35149466814288144,0.20604859856651808,0.047899306567216214,1145.054945054945,-1.0,84.22567793342758,1.4182453544285916,
2023-08-11 17:07:52.945000,-8.879518072289157,-0.6867469879518072,-4.0,-0.5885959534028203,-8.706928264868179,-3.6002452483139176,3.0,1.4232434232434235,702.6204960224613,0.20231921216712262,0.3612843074412908,-0.5609230231338498,1128.2051282051282,-1.0,84.22567793342758,1.4182891560117745,
2023-08-11 17:07:52.953000,-8.879518072289157,-0.6987951807228916,-4.0120481927710845,-0.5640711220110362,-8.81238503985285,-3.6394849785407724,3.0,1.4232434232434235,702.6204960224613,0.06503117533943172,0.4563836606258373,0.037760037293863916,1116.4835164835165,-1.0,84.22567793342758,1.4183332797414092,
2023-08-11 17:07:52.961000,-8.903614457831326,-0.6626506024096386,-4.048192771084338,-0.6351931330472103,-8.73635806253832,-3.6296750459840585,3.0,1.4236874236874235,702.401372212693,-0.08565934386107969,0.6129013460754045,-0.2207330575141308,1106.9597069597069,-1.0,84.22567793342758,1.4183777226258754,
2023-08-11 17:07:52.968000,-8.903614457831326,-0.6867469879518072,-4.048192771084338,-0.5738810545677498,-8.743715511955855,-3.6296750459840585,3.0,1.4241314241314242,702.182385035074,-0.08111415418681839,0.749373579628226,-0.23343627993706673,1099.6336996336995,-1.0,84.22567793342758,1.418422481643766,
2023-08-11 17:07:52.976000,-8.879518072289157,-0.6867469879518072,-4.024096385542169,-0.5714285714285714,-8.778050275904352,-3.602697731453096,3.0,1.4241314241314242,702.182385035074,-0.09230231338500125,0.7322417108560101,0.10430627585805041,1095.970695970696,-1.0,84.22567793342758,1.4184675539139466,
2023-08-11 17:07:52.984000,-8.891566265060241,-0.6867469879518072,-4.0120481927710845,-0.6180257510729613,-8.817290006131207,-3.6296750459840585,3.0,1.4241314241314242,702.182385035074,-0.058388205815511886,0.711030825709458,-0.019812365246780383,1092.3076923076922,-1.0,84.22567793342758,1.418512936588221,
2023-08-11 17:07:52.991000,-8.903614457831326,-0.6867469879518072,-4.0361445783132535,-0.5787860208461066,-8.787860208461066,-3.624770079705702,3.0,1.4241314241314242,702.182385035074,-0.07248994813822088,0.8289726705902918,-0.12598333430452766,1093.040293040293,-1.0,84.22567793342758,1.4185586268507784,
2023-08-11 17:07:52.999000,-8.879518072289157,-0.6867469879518072,-4.0361445783132535,-0.657265481299816,-8.724095646842427,-3.6517473942366645,3.0,1.4241314241314242,702.182385035074,0.15884855194918732,0.8223297010663719,0.04230522696812521,1096.7032967032967,-1.0,84.22567793342758,1.418604621906873,
2023-08-11 17:07:53.007000,-8.91566265060241,-0.710843373493976,-4.0361445783132535,-0.6033108522378908,-8.792765174739424,-3.614960147148988,3.0,1.4241314241314242,702.182385035074,0.130178894003846,0.5408775712371069,-0.0644484587145271,1098.168498168498,-1.0,84.22567793342758,1.4186509189712873,
2023-08-11 17:07:53.014000,-8.91566265060241,-0.710843373493976,-4.048192771084338,-0.5714285714285714,-8.782955242182709,-3.6002452483139176,3.0,1.4241314241314242,702.182385035074,0.23751529631140295,0.6862070974884912,-0.1411339665520659,1101.8315018315018,-1.0,84.22567793342758,1.418697515256617,
2023-08-11 17:07:53.022000,-8.903614457831326,-0.7228915662650602,-4.0361445783132535,-0.5959534028203556,-8.807480073574494,-3.6419374616799507,3.0,1.4245754245754247,701.9635343618513,0.23646640638657368,0.6783986947147594,-0.14043470660217913,1104.7619047619046,-1.0,84.22567793342758,1.4187444079614024,
2023-08-11 17:07:53.030000,-8.903614457831326,-0.6867469879518072,-4.0361445783132535,-0.6008583690987124,-8.746167995095034,-3.6934396076026976,3.0,1.4245754245754247,701.9635343618513,-0.2524328419089795,0.029718547870170576,-0.018180758697045635,1109.89010989011,-1.0,84.22567793342758,1.418791594407419,
2023-08-11 17:07:53.037000,-8.903614457831326,-0.6867469879518072,-4.0602409638554215,-0.5763335377069282,-8.775597792765174,-3.654199877375843,3.0,1.4245754245754247,701.9635343618513,0.05768894586562513,0.4730493560981299,-0.0791329176621407,1111.3553113553112,-1.0,84.22567793342758,1.418839072049421,
2023-08-11 17:07:53.045000,-8.91566265060241,-0.674698795180723,-4.024096385542169,-0.5812385039852851,-8.787860208461066,-3.637032495401594,3.0,1.4245754245754247,701.9635343618513,-0.26140667793252126,0.35930307091661307,0.07365538138803097,1112.8205128205127,-1.0,84.22567793342758,1.4188868383258735,
2023-08-11 17:07:53.053000,-8.903614457831326,-0.674698795180723,-4.0361445783132535,-0.5738810545677498,-8.79767014101778,-3.6468424279583074,3.0,1.4245754245754247,701.9635343618513,-0.24439135248528618,-0.2572111182332042,0.0713245148884099,1110.6227106227107,-1.0,84.22567793342758,1.418934890648524,
2023-08-11 17:07:53.060000,-8.891566265060241,-0.6867469879518072,-4.072289156626506,-0.6082158185162476,-8.792765174739424,-3.6419374616799507,3.0,1.4245754245754247,701.9635343618513,-0.029019287920283823,-0.030301264495076495,-0.019812365246780383,1105.4945054945053,-1.0,84.22567793342758,1.4189832263920967,
2023-08-11 17:07:53.068000,-8.903614457831326,-0.6987951807228916,-4.024096385542169,-0.5836909871244634,-8.807480073574494,-3.614960147148988,3.0,1.4245754245754247,701.9635343618513,-0.21105996154070272,-0.06409882873958503,-0.11059961540702773,1101.098901098901,-1.0,84.22567793342758,1.4190318428841104,
2023-08-11 17:07:53.076000,-8.903614457831326,-0.674698795180723,-4.024096385542169,-0.6302881667688535,-8.711833231146535,-3.6468424279583074,3.0,1.4245754245754247,701.9635343618513,-0.02587261814579603,-0.35837072431676464,0.1502243459005885,1095.2380952380952,-1.0,84.22567793342758,1.419080737394816,
2023-08-11 17:07:53.083000,-8.903614457831326,-0.674698795180723,-4.0120481927710845,-0.5910484365419988,-8.702023298589822,-3.5879828326180254,3.0,1.4245754245754247,701.9635343618513,-0.2690985373812721,-0.5264261989394554,0.19509352601829733,1091.5750915750914,-1.0,84.22567793342758,1.419129907266009,
2023-08-11 17:07:53.091000,-8.879518072289157,-0.6626506024096386,-4.0361445783132535,-0.5787860208461066,-8.726548129981605,-3.6100551808706314,3.0,1.4245754245754247,701.9635343618513,-0.035196084144280305,-0.48179010547170825,0.05477536274109902,1090.10989010989,-1.0,84.22567793342758,1.4191793497420888,
2023-08-11 17:07:53.099000,-8.891566265060241,-0.674698795180723,-4.024096385542169,-0.5787860208461066,-8.81238503985285,-3.6345800122624157,3.0,1.4236874236874235,702.401372212693,-0.1100168987821231,-0.48179010547170825,0.21828564768952846,1089.3772893772893,-1.0,84.22567793342758,1.4192290618327432,
2023-08-11 17:07:53.106000,-8.879518072289157,-0.6626506024096386,-4.0120481927710845,-0.5346413243408952,-8.724095646842427,-3.607602697731453,3.0,1.4241314241314242,702.182385035074,0.22702639706310856,-0.06794475846395784,0.19963871569255862,1089.3772893772893,-1.0,84.22567793342758,1.4192790404313698,
2023-08-11 17:07:53.114000,-8.879518072289157,-0.6626506024096386,-4.024096385542169,-0.5616186388718577,-8.805027590435316,-3.6174126302881664,3.0,1.4245754245754247,701.9635343618513,-0.20266884214206687,0.0051279062991672186,0.12027271138045581,1089.3772893772893,-1.0,84.22567793342758,1.419329282231423,
2023-08-11 17:07:53.122000,-8.879518072289157,-0.710843373493976,-4.024096385542169,-0.598405885959534,-8.770692826486817,-3.6174126302881664,3.0,1.4245754245754247,701.9635343618513,-0.25989161470776695,0.3539420779674842,0.22492861721344917,1091.5750915750914,-1.0,84.22567793342758,1.4193797838865094,
2023-08-11 17:07:53.129000,-8.891566265060241,-0.6867469879518072,-4.024096385542169,-0.5665236051502146,-8.81238503985285,-3.619865113427345,3.0,1.4245754245754247,701.9635343618513,0.1396189033273111,0.6062583765514828,0.08554280053609929,1095.970695970696,-1.0,84.22567793342758,1.4194305420321518,
2023-08-11 17:07:53.137000,-8.855421686746988,-0.674698795180723,-3.987951807228916,-0.5763335377069282,-8.790312691600246,-3.656652360515021,3.0,1.4245754245754247,701.9635343618513,0.24637258900996387,0.7233844181574491,0.2377483829613659,1098.9010989010987,-1.0,84.22567793342758,1.4194815531377791,
2023-08-11 17:07:53.144000,-8.867469879518072,-0.674698795180723,-4.048192771084338,-0.5910484365419988,-8.814837522992029,-3.637032495401594,3.0,1.4245754245754247,701.9635343618513,0.3535924479925417,0.9622982343686274,0.08286230406153484,1108.4249084249084,-1.0,84.22567793342758,1.419532813358626,
2023-08-11 17:07:53.152000,-8.879518072289157,-0.6626506024096386,-4.024096385542169,-0.6302881667688535,-8.729000613120784,-3.614960147148988,3.0,1.4245754245754247,701.9635343618513,0.10652059903269108,0.9995920983625661,0.21968416758930112,1126.7399267399267,-1.0,84.22567793342758,1.4195843186854162,
2023-08-11 17:07:53.160000,-8.879518072289157,-0.6506024096385542,-4.048192771084338,-0.539546290619252,-8.782955242182709,-3.6615573267933783,3.0,1.4245754245754247,701.9635343618513,-0.0015150632247543454,0.9758172600664304,0.004661732999242571,1156.0439560439559,-1.0,84.22567793342758,1.419636065062436,
2023-08-11 17:07:53.167000,-8.891566265060241,-0.6626506024096386,-4.072289156626506,-0.5272838749233598,-8.741263028816677,-3.6713672593500917,3.0,1.425019425019425,701.7448200654308,0.16525843482314548,0.9957461686381917,-0.07144105821339074,1202.9304029304028,-1.0,84.22567793342758,1.4196880480900804,
2023-08-11 17:07:53.175000,-8.879518072289157,-0.6626506024096386,-4.0602409638554215,-0.5861434702636419,-8.81238503985285,-3.649294911097486,3.0,1.4245754245754247,701.9635343618513,0.2704970572810439,0.8351494668142883,-0.28588077617854424,1276.923076923077,-1.0,84.22567793342758,1.4197402633237879,
2023-08-11 17:07:53.183000,-8.91566265060241,-0.674698795180723,-4.0361445783132535,-0.6082158185162476,-8.768240343347639,-3.632127529123237,3.0,1.4245754245754247,701.9635343618513,0.31408426082396174,0.9789639298409182,-0.4513722976516518,1379.4871794871794,-1.0,84.22567793342758,1.4197927061259432,
2023-08-11 17:07:53.190000,-8.903614457831326,-0.6506024096385542,-4.048192771084338,-0.6621704475781729,-8.773145309625995,-3.6983445738810543,3.0,1.4245754245754247,701.9635343618513,0.5099935901171262,0.7553172892022608,-0.005594079599090998,1512.087912087912,-1.0,84.22567793342758,1.419845371368628,
2023-08-11 17:07:53.198000,-8.91566265060241,-0.6626506024096386,-4.072289156626506,-0.6204782342121398,-8.795217657878602,-3.67381974248927,3.0,1.4245754245754247,701.9635343618513,0.32177612027271085,0.8233785909912013,-0.11129887535691405,1679.8534798534797,-1.0,84.22567793342758,1.4198982537111198,
2023-08-11 17:07:53.206000,-8.903614457831326,-0.6867469879518072,-4.096385542168675,-0.6327406499080318,-8.824647455548742,-3.683629675045984,3.0,1.4245754245754247,701.9635343618513,0.05990326904026623,0.8275741506905183,-0.23331973661208544,1875.4578754578754,-1.0,84.22567793342758,1.4199513475895271,
2023-08-11 17:07:53.213000,-8.903614457831326,-0.6626506024096386,-4.0843373493975905,-0.6376456161863887,-8.782955242182709,-3.6468424279583074,3.0,1.425019425019425,701.7448200654308,0.029019287920283823,0.6789814113396654,-0.2170036711147371,2087.179487179487,-1.0,84.22567793342758,1.4200046472066106,
2023-08-11 17:07:53.221000,-8.91566265060241,-0.6626506024096386,-4.072289156626506,-0.5714285714285714,-8.802575107296137,-3.7106069895769465,3.0,1.4245754245754247,701.9635343618513,-0.18390536682011577,0.5018355573684521,-0.172017947672047,2302.5641025641025,-1.0,84.22567793342758,1.420058146671107,
2023-08-11 17:07:53.229000,-8.891566265060241,-0.6626506024096386,-4.096385542168675,-0.5616186388718577,-8.81238503985285,-3.656652360515021,3.0,1.425019425019425,701.7448200654308,0.016898782122254267,0.3579045510168413,0.13355865042829676,2506.9597069597066,-1.0,84.22567793342758,1.4201118398605699,
2023-08-11 17:07:53.236000,-8.891566265060241,-0.6626506024096386,-4.0843373493975905,-0.6106683016554261,-8.809932556713672,-3.67381974248927,3.0,1.425019425019425,701.7448200654308,-0.12097197133034257,-0.03239904434473502,0.038226210593788126,2691.5750915750914,-1.0,84.22567793342758,1.420165720402236,
2023-08-11 17:07:53.244000,-8.903614457831326,-0.6626506024096386,-4.0843373493975905,-0.5861434702636419,-8.790312691600246,-3.686082158185162,3.0,1.4254634254634255,701.5262420183772,0.01876347532195112,-0.31152030767437816,0.1875182098945282,2806.5934065934066,-1.0,84.22567793342758,1.4202197818246107,
2023-08-11 17:07:53.252000,-8.891566265060241,-0.6385542168674699,-4.072289156626506,-0.5763335377069282,-8.795217657878602,-3.676272225628449,3.0,1.425019425019425,701.7448200654308,-0.17842783054600603,-0.7387681370549508,0.01619952217236751,2806.5934065934066,-1.0,84.22567793342758,1.420274017560945,
2023-08-11 17:07:53.259000,-8.867469879518072,-0.674698795180723,-4.0361445783132535,-0.5935009196811771,-8.782955242182709,-3.6517473942366645,3.0,1.4245754245754247,701.9635343618513,0.02086125517160965,-1.2091369966785164,0.4877338150457431,2805.128205128205,-1.0,84.22567793342758,1.4203284210927318,
2023-08-11 17:07:53.267000,-8.879518072289157,-0.674698795180723,-4.0361445783132535,-0.5935009196811771,-8.667688534641323,-3.6713672593500917,3.0,1.4245754245754247,701.9635343618513,-0.28669657945341137,-1.0039042013868658,0.23961307616106275,2805.128205128205,-1.0,84.22567793342758,1.4203829854558918,
2023-08-11 17:07:53.275000,-8.855421686746988,-0.6626506024096386,-4.0,-0.5738810545677498,-8.763335377069282,-3.6468424279583074,3.0,1.425019425019425,701.7448200654308,-0.1794767204708353,-0.937940679447584,0.434123885554455,2805.128205128205,-1.0,84.22567793342758,1.4204377030766615,
2023-08-11 17:07:53.282000,-8.867469879518072,-0.6626506024096386,-4.0602409638554215,-0.627835683629675,-8.773145309625995,-3.6125076640098097,3.0,1.425019425019425,701.7448200654308,-0.3450847852689233,-0.964279470893305,0.12481790105471711,2805.128205128205,-1.0,84.22567793342758,1.4204925660645347,
2023-08-11 17:07:53.290000,-8.855421686746988,-0.674698795180723,-4.0361445783132535,-0.5419987737584304,-8.731453096259962,-3.7106069895769465,3.0,1.425019425019425,701.7448200654308,-0.3124526542742266,-1.0523862245789875,0.3080240079249461,2805.8608058608056,-1.0,84.22567793342758,1.420547566249022,
2023-08-11 17:07:53.298000,-8.867469879518072,-0.6867469879518072,-4.0602409638554215,-0.5935009196811771,-8.706928264868179,-3.6174126302881664,3.0,1.425019425019425,701.7448200654308,-0.3114037643493973,-1.0506380747042714,0.3083736378998895,2768.4981684981685,-1.0,84.22567793342758,1.4206026951852493,
2023-08-11 17:07:53.305000,-8.867469879518072,-0.6987951807228916,-4.024096385542169,-0.6180257510729613,-8.790312691600246,-3.585530349478847,3.0,1.425019425019425,701.7448200654308,-0.27947089330458563,-1.06147660392751,0.18507080006992585,2657.142857142857,-1.0,84.22567793342758,1.4206579441495903,
2023-08-11 17:07:53.313000,-8.879518072289157,-0.6867469879518072,-4.024096385542169,-0.5935009196811771,-8.714285714285714,-3.637032495401594,3.0,1.425019425019425,701.7448200654308,0.0874074937357957,-0.7074179826350451,-0.13612260357787995,2509.157509157509,-1.0,84.22567793342758,1.4207133041358853,
2023-08-11 17:07:53.321000,-8.879518072289157,-0.6987951807228916,-4.048192771084338,-0.6253832004904966,-8.773145309625995,-3.676272225628449,3.0,1.425019425019425,701.7448200654308,-0.08123069751179923,-0.3891381621117645,-0.18145795699551298,2333.333333333333,-1.0,84.22567793342758,1.4207687657135357,
2023-08-11 17:07:53.328000,-8.879518072289157,-0.710843373493976,-4.0361445783132535,-0.6376456161863887,-8.699570815450643,-3.678724708767627,3.0,1.425019425019425,701.7448200654308,0.0867082337859107,-0.08635860381096644,-0.1062875123827281,2147.9853479853477,-1.0,84.22567793342758,1.4208243191841037,
2023-08-11 17:07:53.336000,-8.891566265060241,-0.6987951807228916,-4.0602409638554215,-0.6106683016554261,-8.768240343347639,-3.6296750459840585,3.0,1.425019425019425,701.7448200654308,0.13146087057863695,0.5491521473107619,-0.04591807004253852,1961.172161172161,-1.0,84.22567793342758,1.4208799547070416,
2023-08-11 17:07:53.344000,-8.879518072289157,-0.6987951807228916,-4.0361445783132535,-0.5910484365419988,-8.782955242182709,-3.654199877375843,3.0,1.425019425019425,701.7448200654308,0.2659518676067826,0.9055416351028489,-0.0745877279878794,1779.4871794871794,712.371826171875,84.22567793342758,1.4209356621493971,
2023-08-11 17:07:53.351000,-8.891566265060241,-0.6987951807228916,-4.048192771084338,-0.5640711220110362,-8.817290006131207,-3.654199877375843,3.0,1.425019425019425,701.7448200654308,-0.025522988170851784,0.8329351436396472,0.39904434473515515,1607.3260073260071,-1.0,84.22567793342758,1.4209914310854732,
2023-08-11 17:07:53.359000,-8.891566265060241,-0.6867469879518072,-4.0361445783132535,-0.5959534028203556,-8.817290006131207,-3.6174126302881664,3.0,1.425019425019425,701.7448200654308,0.0045451896742613,0.7299108443563899,0.12260357788007688,1444.6886446886447,-1.0,84.22567793342758,1.4210472506584444,
2023-08-11 17:07:53.367000,-8.903614457831326,-0.6867469879518072,-4.0361445783132535,-0.6008583690987124,-8.81238503985285,-3.644389944819129,3.0,1.425019425019425,701.7448200654308,0.2635044577821798,1.0706835266010135,0.5356331216129597,1296.7032967032967,-1.0,84.22567793342758,1.421103109601811,
2023-08-11 17:07:53.374000,-8.891566265060241,-0.674698795180723,-4.096385542168675,-0.6425505824647455,-8.75107296137339,-3.656652360515021,3.0,1.4245754245754247,701.9635343618513,-0.28716275275333647,0.9359594429229062,0.2594254414078431,1166.3003663003662,-1.0,84.22567793342758,1.4211589963891735,
2023-08-11 17:07:53.382000,-8.903614457831326,-0.6626506024096386,-4.072289156626506,-0.5714285714285714,-8.763335377069282,-3.6591048436541995,3.0,1.425019425019425,701.7448200654308,0.15733348872443298,0.40452188100926445,-0.031583241069867866,1047.6190476190475,-1.0,84.22567793342758,1.4212148990863542,
2023-08-11 17:07:53.390000,-8.891566265060241,-0.6626506024096386,-4.0843373493975905,-0.615573267933783,-8.809932556713672,-3.6713672593500917,3.0,1.4245754245754247,701.9635343618513,0.19952217236757736,0.5951867606782826,0.16910436454752045,943.5897435897435,-1.0,84.22567793342758,1.4212708054811443,
2023-08-11 17:07:53.397000,-8.891566265060241,-0.6506024096385542,-4.096385542168675,-0.5910484365419988,-8.733905579399142,-3.678724708767627,3.0,1.4245754245754247,701.9635343618513,0.3185129071732422,0.08565934386107969,0.12225394790513394,857.8754578754579,-1.0,84.22567793342758,1.421326702957479,
2023-08-11 17:07:53.405000,-8.867469879518072,-0.6506024096385542,-4.1084337349397595,-0.5714285714285714,-8.755977927651747,-3.7277743715511953,3.0,1.4236874236874235,702.401372212693,0.34345317871918807,-0.22411281393858243,-0.0588543791154361,789.010989010989,-1.0,84.22567793342758,1.4213825783592138,
2023-08-11 17:07:53.413000,-8.867469879518072,-0.6506024096385542,-4.120481927710844,-0.539546290619252,-8.775597792765174,-3.708154506437768,3.0,1.4241314241314242,702.182385035074,0.11106578870695237,-0.5023017306683754,0.03496299749431863,743.5897435897435,-1.0,84.22567793342758,1.421438418259063,
2023-08-11 17:07:53.420000,-8.867469879518072,-0.6626506024096386,-4.0602409638554215,-0.5763335377069282,-8.76578786020846,-3.632127529123237,3.0,1.4241314241314242,702.182385035074,0.35499096789231344,-0.8530971388613718,0.44671056465240966,712.0879120879121,-1.0,84.22567793342758,1.421494209026301,
2023-08-11 17:07:53.428000,-8.855421686746988,-0.6506024096385542,-4.048192771084338,-0.522378908645003,-8.802575107296137,-3.6934396076026976,3.0,1.4241314241314242,702.182385035074,0.3223588368976168,-1.0347881825068466,-0.2735271837305517,700.3663003663003,-1.0,84.22567793342758,1.4215499366919233,
2023-08-11 17:07:53.436000,-8.867469879518072,-0.674698795180723,-4.1084337349397595,-0.5787860208461066,-8.758430410790925,-3.715511955855303,3.0,1.4245754245754247,701.9635343618513,0.28995979255288173,-1.0350212691568081,-0.1626944816735623,704.7619047619047,-1.0,84.22567793342758,1.4216055866965,
2023-08-11 17:07:53.443000,-8.879518072289157,-0.6626506024096386,-4.072289156626506,-0.5542611894543225,-8.778050275904352,-3.7204169221336603,3.0,1.4245754245754247,701.9635343618513,0.43890216187867886,-1.0962065147718671,0.005943709574033941,726.7399267399267,-1.0,84.22567793342758,1.4216611442132225,
2023-08-11 17:07:53.451000,-8.867469879518072,-0.6626506024096386,-4.072289156626506,-0.5885959534028203,-8.71919068056407,-3.713059472716125,3.0,1.4245754245754247,701.9635343618513,0.09941145620884616,-0.28891090262805247,-0.16222830837363808,762.6373626373626,-1.0,84.22567793342758,1.4217165943224326,
2023-08-11 17:07:53.459000,-8.867469879518072,-0.6626506024096386,-4.0602409638554215,-0.5861434702636419,-8.785407725321887,-3.6591048436541995,3.0,1.4245754245754247,701.9635343618513,0.15861546529922566,-0.1744653574966489,-0.31583241069867735,816.8498168498168,-1.0,84.22567793342758,1.4217719218787275,
2023-08-11 17:07:53.466000,-8.855421686746988,-0.6385542168674699,-4.0602409638554215,-0.5885959534028203,-8.729000613120784,-3.683629675045984,3.0,1.4245754245754247,701.9635343618513,0.06503117533943172,0.04591807004253809,-0.3276032865217644,883.5164835164835,-1.0,84.22567793342758,1.421827111517821,
2023-08-11 17:07:53.474000,-8.867469879518072,-0.674698795180723,-4.0602409638554215,-0.615573267933783,-8.758430410790925,-3.6591048436541995,3.0,1.4241314241314242,702.182385035074,-0.12027271138045581,0.14288211642678147,-0.14393100635161118,954.5787545787546,-1.0,84.22567793342758,1.4218821476644108,
2023-08-11 17:07:53.482000,-8.879518072289157,-0.6506024096385542,-4.0602409638554215,-0.5370938074800735,-8.731453096259962,-3.6468424279583074,3.0,1.4245754245754247,701.9635343618513,-0.060136355690227905,0.3314492162461394,-0.11223122195676248,1032.967032967033,-1.0,84.22567793342758,1.4219370143917633,
2023-08-11 17:07:53.489000,-8.867469879518072,-0.674698795180723,-4.0843373493975905,-0.5959534028203556,-8.81238503985285,-3.7007970570202326,3.0,1.4241314241314242,702.182385035074,-0.38214556261290217,0.41163102383310934,-0.1571004020744713,1110.6227106227107,-1.0,84.22567793342758,1.4219916955590122,
2023-08-11 17:07:53.497000,-8.867469879518072,-0.6506024096385542,-4.072289156626506,-0.5542611894543225,-8.743715511955855,-3.654199877375843,3.0,1.4245754245754247,701.9635343618513,-0.34881417166831696,0.464192063399569,0.3484645416933745,1186.8131868131868,-1.0,84.22567793342758,1.4220461748316895,
2023-08-11 17:07:53.505000,-8.891566265060241,-0.6626506024096386,-4.1084337349397595,-0.5665236051502146,-8.792765174739424,-3.7057020232985898,3.0,1.4241314241314242,702.182385035074,-0.3491638016432612,0.1636268282734103,0.03939164384359866,1257.8754578754579,-1.0,84.22567793342758,1.422100435682076,
2023-08-11 17:07:53.512000,-8.879518072289157,-0.6506024096385542,-4.1084337349397595,-0.5567136725935009,-8.775597792765174,-3.678724708767627,3.0,1.4245754245754247,701.9635343618513,-0.22749257036303192,0.024007924946099175,0.17516461744653566,1315.7509157509157,-1.0,84.22567793342758,1.4221544614115278,
2023-08-11 17:07:53.520000,-8.927710843373495,-0.6506024096385542,-4.0843373493975905,-0.6008583690987124,-8.748620478234212,-3.6885346413243405,3.0,1.4241314241314242,702.182385035074,-0.044752636792727986,-0.21816910436454764,-0.07062525493852358,1364.102564102564,-1.0,84.22567793342758,1.4222082351525895,
2023-08-11 17:07:53.527000,-8.891566265060241,-0.6385542168674699,-4.072289156626506,-0.5321888412017167,-8.790312691600246,-3.7057020232985898,3.0,1.4245754245754247,701.9635343618513,-0.06025289901520874,-0.5476370840860093,-0.056523512615815036,1404.3956043956043,-1.0,84.22567793342758,1.4222617398930664,
2023-08-11 17:07:53.535000,-8.879518072289157,-0.6626506024096386,-4.072289156626506,-0.5542611894543225,-8.770692826486817,-3.7302268546903736,3.0,1.4245754245754247,701.9635343618513,-0.24462443913524784,-0.6314317347473921,0.05116251966668614,1435.164835164835,-1.0,84.22567793342758,1.422314958479859,
2023-08-11 17:07:53.543000,-8.91566265060241,-0.6385542168674699,-4.0602409638554215,-0.5959534028203556,-8.75107296137339,-3.686082158185162,3.0,1.4245754245754247,701.9635343618513,0.13763766680263342,-0.6965794534118064,-0.16222830837363808,1452.014652014652,-1.0,84.22567793342758,1.4223678737939995,
2023-08-11 17:07:53.550000,-8.879518072289157,-0.6506024096385542,-4.0602409638554215,-0.5640711220110362,-8.854077253218884,-3.717964438994482,3.0,1.4245754245754247,701.9635343618513,-0.04696695996736735,-0.5204824893654223,0.1139793718314785,1456.4102564102564,-1.0,84.22567793342758,1.4224204686287105,
2023-08-11 17:07:53.558000,-8.903614457831326,-0.6626506024096386,-4.1084337349397595,-0.5616186388718577,-8.738810545677499,-3.715511955855303,3.0,1.4236874236874235,702.401372212693,0.36629567041547717,-0.5294563253889641,0.19113105296894106,1449.8168498168498,-1.0,84.22567793342758,1.4224727255683565,
2023-08-11 17:07:53.566000,-8.879518072289157,-0.6506024096385542,-4.048192771084338,-0.5787860208461066,-8.755977927651747,-3.62722256284488,3.0,1.4236874236874235,702.401372212693,-0.04754967659227327,-0.4514888409766335,0.22224812073888472,1431.5018315018315,-1.0,84.22567793342758,1.4225246270062624,
2023-08-11 17:07:53.573000,-8.879518072289157,-0.6506024096385542,-4.0843373493975905,-0.49294911097486205,-8.775597792765174,-3.6934396076026976,3.0,1.4241314241314242,702.182385035074,-0.04789930656721578,-0.4517219276265952,0.22434590058854367,1409.5238095238094,-1.0,84.22567793342758,1.4225761550888198,
2023-08-11 17:07:53.581000,-8.867469879518072,-0.674698795180723,-4.072289156626506,-0.5910484365419988,-8.785407725321887,-3.7228694052728386,3.0,1.4241314241314242,702.182385035074,0.011188159198181129,-0.5612726531087933,-0.020628168521647974,1385.3479853479853,-1.0,84.22567793342758,1.422627291882323,
2023-08-11 17:07:53.589000,-8.879518072289157,-0.674698795180723,-4.024096385542169,-0.5910484365419988,-8.763335377069282,-3.632127529123237,3.0,1.4241314241314242,702.182385035074,-0.3250393333721812,-0.14940854262572048,0.4857525785210654,1356.7765567765566,-1.0,84.22567793342758,1.4226780194225266,
2023-08-11 17:07:53.596000,-8.879518072289157,-0.6867469879518072,-4.072289156626506,-0.5738810545677498,-8.760882893930104,-3.717964438994482,3.0,1.4241314241314242,702.182385035074,-0.11013344210710395,-0.04521881009265133,0.16257793834858103,1326.007326007326,-1.0,84.22567793342758,1.4227283196154452,
2023-08-11 17:07:53.604000,-8.879518072289157,-0.674698795180723,-4.072289156626506,-0.5248313917841815,-8.733905579399142,-3.695892090741876,3.0,1.4245754245754247,701.9635343618513,0.25627877163335405,0.027271138045567803,0.10127614940854258,1293.7728937728937,-1.0,84.22567793342758,1.4227781744050099,
2023-08-11 17:07:53.612000,-8.867469879518072,-0.674698795180723,-4.072289156626506,-0.627835683629675,-8.733905579399142,-3.683629675045984,3.0,1.4241314241314242,702.182385035074,-0.20371773206689614,0.39181865858632897,-0.0667793252141486,1262.2710622710622,-1.0,84.22567793342758,1.4228275659414125,
2023-08-11 17:07:53.619000,-8.879518072289157,-0.674698795180723,-4.048192771084338,-0.615573267933783,-8.763335377069282,-3.6345800122624157,3.0,1.4241314241314242,702.182385035074,-0.26560223763184004,0.40312336110949265,0.16549152147310758,1230.03663003663,-1.0,84.22567793342758,1.422876476473356,
2023-08-11 17:07:53.627000,-8.891566265060241,-0.6867469879518072,-4.048192771084338,-0.6106683016554261,-8.778050275904352,-3.686082158185162,3.0,1.4241314241314242,702.182385035074,-0.24975234543441507,-0.13320902045335295,-0.0801818075869704,1200.0,-1.0,84.22567793342758,1.42292488807065,
2023-08-11 17:07:53.635000,-8.879518072289157,-0.6867469879518072,-4.072289156626506,-0.5959534028203556,-8.733905579399142,-3.654199877375843,3.0,1.4241314241314242,702.182385035074,-0.09638132975933747,0.022026688421421484,-0.18542043004486924,1169.9633699633698,-1.0,84.22567793342758,1.4229727828043743,
2023-08-11 17:07:53.642000,-8.867469879518072,-0.710843373493976,-4.072289156626506,-0.6180257510729613,-8.729000613120784,-3.632127529123237,3.0,1.4241314241314242,702.182385035074,-0.4171085601072191,0.08600897383602393,0.07750131111240595,1145.054945054945,-1.0,84.22567793342758,1.423020142916411,
2023-08-11 17:07:53.650000,-8.867469879518072,-0.6987951807228916,-4.048192771084338,-0.6376456161863887,-8.78050275904353,-3.686082158185162,3.0,1.4241314241314242,702.182385035074,-0.3389079890449268,-0.6409882873958398,-0.15162286580036113,1123.8095238095236,-1.0,84.22567793342758,1.4230669508403515,
2023-08-11 17:07:53.658000,-8.891566265060241,-0.6987951807228916,-4.0602409638554215,-0.6229307173513182,-8.795217657878602,-3.644389944819129,3.0,1.4241314241314242,702.182385035074,-0.15605151214964202,-0.7064856360351967,-0.08822329701066374,1106.227106227106,-1.0,84.22567793342758,1.4231131892230247,
2023-08-11 17:07:53.665000,-8.879518072289157,-0.6867469879518072,-4.0602409638554215,-0.6425505824647455,-8.729000613120784,-3.6615573267933783,3.0,1.4241314241314242,702.182385035074,-0.24637258900996387,-0.5298059553639066,-0.3765514830138103,1094.5054945054944,-1.0,84.22567793342758,1.423158840946573,
2023-08-11 17:07:53.673000,-8.867469879518072,-0.6867469879518072,-4.048192771084338,-0.5836909871244634,-8.78050275904353,-3.6394849785407724,3.0,1.4241314241314242,702.182385035074,0.046500786667444005,-0.7209370083328481,-0.18845055649437661,1088.6446886446886,-1.0,84.22567793342758,1.4232038891510512,
2023-08-11 17:07:53.681000,-8.879518072289157,-0.6867469879518072,-4.048192771084338,-0.5959534028203556,-8.763335377069282,-3.62722256284488,3.0,1.4241314241314242,702.182385035074,-0.21117650486568357,-0.7148767554338324,-0.00396247304935625,1084.981684981685,-1.0,84.22567793342758,1.4232483171186976,
2023-08-11 17:07:53.688000,-8.879518072289157,-0.6867469879518072,-4.072289156626506,-0.6376456161863887,-8.76578786020846,-3.6934396076026976,3.0,1.4236874236874235,702.401372212693,-0.0078084027737316646,-0.5585921566342288,0.10139269273352386,1082.7838827838827,-1.0,84.22567793342758,1.4232921084564651,
2023-08-11 17:07:53.696000,-8.855421686746988,-0.674698795180723,-4.072289156626506,-0.5567136725935009,-8.721643163703249,-3.637032495401594,3.0,1.4236874236874235,702.401372212693,0.008391119398635847,-0.5885437911543611,0.03985781714352331,1082.7838827838827,-1.0,84.22567793342758,1.4233352469593001,
2023-08-11 17:07:53.704000,-8.867469879518072,-0.6867469879518072,-4.0602409638554215,-0.5959534028203556,-8.819742489270386,-3.619865113427345,3.0,1.4241314241314242,702.182385035074,-0.018996561971912792,-0.35976924421653816,-0.08426082396130749,1082.7838827838827,-1.0,84.22567793342758,1.423377716483476,
2023-08-11 17:07:53.711000,-8.867469879518072,-0.6987951807228916,-4.0361445783132535,-0.5861434702636419,-8.763335377069282,-3.6468424279583074,3.0,1.422799422799423,702.839756592292,-0.09311811665986884,-0.07190723151331495,0.17446535749664935,1082.7838827838827,-1.0,84.22567793342758,1.4234195014052324,
2023-08-11 17:07:53.719000,-8.903614457831326,-0.6867469879518072,-4.0602409638554215,-0.5665236051502146,-8.790312691600246,-3.6591048436541995,3.0,1.4232434232434235,702.6204960224613,0.015733348872444163,-0.09090379348522774,0.13996853330225492,1088.6446886446886,-1.0,84.22567793342758,1.4234605864936432,
2023-08-11 17:07:53.727000,-8.891566265060241,-0.674698795180723,-4.096385542168675,-0.6351931330472103,-8.802575107296137,-3.654199877375843,3.0,1.4236874236874235,702.401372212693,0.10873492220733044,0.26012470135773036,-0.030650894470019438,1090.8424908424909,-1.0,84.22567793342758,1.423500956699086,
2023-08-11 17:07:53.734000,-8.879518072289157,-0.6867469879518072,-4.072289156626506,-0.5861434702636419,-8.790312691600246,-3.6345800122624157,3.0,1.4236874236874235,702.401372212693,-0.13740458015267176,-0.4289959792552887,0.13507371365305068,1093.7728937728937,-1.0,84.22567793342758,1.4235405973444426,
2023-08-11 17:07:53.742000,-8.903614457831326,-0.6867469879518072,-4.072289156626506,-0.6106683016554261,-8.863887185775598,-3.67381974248927,3.0,1.4236874236874235,702.401372212693,-0.027154594720586966,-0.10104306275858134,-0.15931472524911153,1094.5054945054944,-1.0,84.22567793342758,1.4235794941980762,
2023-08-11 17:07:53.750000,-8.91566265060241,-0.710843373493976,-4.0843373493975905,-0.6670754138565297,-8.787860208461066,-3.7277743715511953,3.0,1.4236874236874235,702.401372212693,-0.22411281393858243,-0.4145446069576372,-0.03880892721869361,1093.040293040293,-1.0,84.22567793342758,1.4236176333656045,
2023-08-11 17:07:53.757000,-8.903614457831326,-0.6867469879518072,-4.1084337349397595,-0.6474555487431024,-8.755977927651747,-3.6591048436541995,3.0,1.4236874236874235,702.401372212693,-0.05372647281626975,-0.21991725423926364,-0.3334304527708175,1092.3076923076922,-1.0,84.22567793342758,1.4236550014687077,
2023-08-11 17:07:53.765000,-8.879518072289157,-0.6867469879518072,-4.0843373493975905,-0.645003065603924,-8.778050275904352,-3.7326793378295524,3.0,1.4232434232434235,702.6204960224613,-0.15943126857409323,-0.4236349863061598,0.2443913524852866,1090.10989010989,-1.0,84.22567793342758,1.4236915857920738,
2023-08-11 17:07:53.773000,-8.879518072289157,-0.6987951807228916,-4.072289156626506,-0.6253832004904966,-8.836909871244634,-3.7057020232985898,3.0,1.4236874236874235,702.401372212693,-0.08088106753685671,-0.7062525493852332,-0.12679913757939523,1087.179487179487,-1.0,84.22567793342758,1.423727374003908,
2023-08-11 17:07:53.780000,-8.879518072289157,-0.6867469879518072,-4.0602409638554215,-0.6376456161863887,-8.770692826486817,-3.7326793378295524,3.0,1.4236874236874235,702.401372212693,-0.2919410290775594,-0.7379523337800832,0.14428063632655455,1085.7142857142856,-1.0,84.22567793342758,1.423762354301959,
2023-08-11 17:07:53.788000,-8.879518072289157,-0.6867469879518072,-4.0602409638554215,-0.5935009196811771,-8.763335377069282,-3.6394849785407724,3.0,1.4232434232434235,702.6204960224613,-0.015616805547461593,-0.9546063749198765,0.2783054600547755,1082.051282051282,-1.0,84.22567793342758,1.4237965154517405,
2023-08-11 17:07:53.796000,-8.879518072289157,-0.674698795180723,-4.048192771084338,-0.6253832004904966,-8.731453096259962,-3.67381974248927,3.0,1.4232434232434235,702.6204960224613,-0.07668550783753793,-0.7125458889342106,0.013285939047840959,1079.120879120879,-1.0,84.22567793342758,1.423829846536092,
2023-08-11 17:07:53.803000,-8.867469879518072,-0.674698795180723,-4.0361445783132535,-0.6131207847946045,-8.724095646842427,-3.666462293071735,3.0,1.4236874236874235,702.401372212693,-0.3806304993881478,-0.9469145154711257,0.16397645824835366,1078.3882783882784,-1.0,84.22567793342758,1.4238623370978163,
2023-08-11 17:07:53.811000,-8.867469879518072,-0.6626506024096386,-4.048192771084338,-0.5444512568976088,-8.755977927651747,-3.644389944819129,3.0,1.4232434232434235,702.6204960224613,-0.1792436338208736,-0.4314433890798897,0.19346191946856256,1077.6556776556777,-1.0,84.22567793342758,1.4238939774406947,
2023-08-11 17:07:53.819000,-8.879518072289157,-0.6626506024096386,-4.072289156626506,-0.6204782342121398,-8.746167995095034,-3.624770079705702,3.0,1.4236874236874235,702.401372212693,0.0680613017889404,-0.5312044752636784,0.52689237223938,1075.4578754578754,-1.0,84.22567793342758,1.4239247585142398,
2023-08-11 17:07:53.826000,-8.891566265060241,-0.674698795180723,-4.0361445783132535,-0.522378908645003,-8.760882893930104,-3.737584304107909,3.0,1.4232434232434235,702.6204960224613,0.11362974185653599,-0.5736262455567862,0.07901637433715986,1074.7252747252746,-1.0,84.22567793342758,1.4239546719153542,
2023-08-11 17:07:53.834000,-8.891566265060241,-0.6626506024096386,-4.048192771084338,-0.5812385039852851,-8.819742489270386,-3.6468424279583074,3.0,1.4232434232434235,702.6204960224613,0.4160596701823898,-0.2778392867548505,0.30872326787483245,1072.5274725274724,-1.0,84.22567793342758,1.423983709910247,
2023-08-11 17:07:53.842000,-8.891566265060241,-0.674698795180723,-4.072289156626506,-0.5370938074800735,-8.778050275904352,-3.624770079705702,3.0,1.4232434232434235,702.6204960224613,0.4137288036827696,-0.03333139094458345,0.1682885612726533,1073.9926739926739,-1.0,84.22567793342758,1.4240118651463618,
2023-08-11 17:07:53.849000,-8.903614457831326,-0.6506024096385542,-4.0361445783132535,-0.6057633353770693,-8.770692826486817,-3.624770079705702,3.0,1.4232434232434235,702.6204960224613,0.41023250393333754,-0.03193287104481168,0.166423868072956,1082.051282051282,-1.0,84.22567793342758,1.4240391309590428,
2023-08-11 17:07:53.857000,-8.891566265060241,-0.6626506024096386,-4.072289156626506,-0.539546290619252,-8.807480073574494,-3.632127529123237,3.0,1.4232434232434235,702.6204960224613,0.16525843482314548,0.2132742847153421,0.21339082804032378,1095.970695970696,-1.0,84.22567793342758,1.4240655013681272,
2023-08-11 17:07:53.865000,-8.867469879518072,-0.674698795180723,-4.048192771084338,-0.6302881667688535,-8.814837522992029,-3.7106069895769465,3.0,1.422799422799423,702.839756592292,0.1364722335528233,-0.1392692733523686,-0.0913699667851524,1120.8791208791208,-1.0,84.22567793342758,1.4240909709558618,
2023-08-11 17:07:53.872000,-8.879518072289157,-0.6626506024096386,-4.0602409638554215,-0.539546290619252,-8.795217657878602,-3.6983445738810543,3.0,1.422799422799423,702.839756592292,0.15127323582541732,-0.2154886078899832,-0.3639648039158557,1160.4395604395604,-1.0,84.22567793342758,1.4241155351487873,
2023-08-11 17:07:53.880000,-8.891566265060241,-0.6506024096385542,-4.0602409638554215,-0.5812385039852851,-8.782955242182709,-3.695892090741876,3.0,1.422799422799423,702.839756592292,0.19742439251791882,0.3369267525202491,0.2679331041314607,1219.7802197802198,-1.0,84.22567793342758,1.4241391900197737,
2023-08-11 17:07:53.888000,-8.91566265060241,-0.6626506024096386,-4.0602409638554215,-0.5836909871244634,-8.782955242182709,-3.676272225628449,3.0,1.422799422799423,702.839756592292,-0.04778276324223494,-0.16689004137288066,-0.02225977507138272,1300.3663003663003,-1.0,84.22567793342758,1.4241619321518957,
2023-08-11 17:07:53.895000,-8.903614457831326,-0.674698795180723,-4.072289156626506,-0.5861434702636419,-8.746167995095034,-3.7277743715511953,3.0,1.4232434232434235,702.6204960224613,0.28914398927801416,-0.4855194918711037,0.04009090379348541,1413.1868131868132,-1.0,84.22567793342758,1.4241837586494026,
2023-08-11 17:07:53.903000,-8.903614457831326,-0.674698795180723,-4.072289156626506,-0.568976088289393,-8.82709993868792,-3.6689147762109133,3.0,1.4232434232434235,702.6204960224613,0.13507371365304982,-0.5892430511042478,-0.11048307208204645,1561.1721611721612,-1.0,84.22567793342758,1.4242046673064042,
2023-08-11 17:07:53.910000,-8.891566265060241,-0.674698795180723,-4.072289156626506,-0.6204782342121398,-8.795217657878602,-3.715511955855303,3.0,1.422799422799423,702.839756592292,0.2421770293106468,-0.8903910028553107,0.30242992832585514,1739.194139194139,-1.0,84.22567793342758,1.4242246567743262,
2023-08-11 17:07:53.918000,-8.879518072289157,-0.6626506024096386,-4.048192771084338,-0.6082158185162476,-8.809932556713672,-3.6591048436541995,3.0,1.422799422799423,702.839756592292,0.14835965270089121,-0.7130120622341356,-0.24905308548452873,1939.194139194139,-1.0,84.22567793342758,1.4242437261318668,
2023-08-11 17:07:53.926000,-8.891566265060241,-0.6626506024096386,-4.072289156626506,-0.5370938074800735,-8.778050275904352,-3.656652360515021,3.0,1.422799422799423,702.839756592292,0.16129596177379008,-1.0113629741856531,0.09008799021036058,2153.113553113553,-1.0,84.22567793342758,1.4242618750179825,
2023-08-11 17:07:53.933000,-8.879518072289157,-0.674698795180723,-4.0843373493975905,-0.5861434702636419,-8.748620478234212,-3.717964438994482,3.0,1.422799422799423,702.839756592292,0.14474680962647835,-1.2949128838645767,0.13472408367810731,2364.8351648351645,-1.0,84.22567793342758,1.4242791037525324,
2023-08-11 17:07:53.941000,-8.879518072289157,-0.674698795180723,-4.0843373493975905,-0.5836909871244634,-8.760882893930104,-3.6885346413243405,3.0,1.422799422799423,702.839756592292,0.05174523629159206,-0.8706951809335128,0.43587203542917063,2561.172161172161,-1.0,84.22567793342758,1.4242954131993986,
2023-08-11 17:07:53.949000,-8.879518072289157,-0.6626506024096386,-4.0361445783132535,-0.6057633353770693,-8.738810545677499,-3.644389944819129,3.0,1.422799422799423,702.839756592292,0.21677058446477412,-1.0464425150049528,0.17295029427189543,2731.8681318681315,-1.0,84.22567793342758,1.424310804905355,
2023-08-11 17:07:53.956000,-8.867469879518072,-0.6626506024096386,-4.072289156626506,-0.5812385039852851,-8.760882893930104,-3.637032495401594,3.0,1.4232434232434235,702.6204960224613,0.21677058446477412,-0.9906182623390244,0.044752636792727556,2805.128205128205,-1.0,84.22567793342758,1.4243252810887124,
2023-08-11 17:07:53.964000,-8.879518072289157,-0.6506024096385542,-4.072289156626506,-0.5542611894543225,-8.768240343347639,-3.6615573267933783,3.0,1.4232434232434235,702.6204960224613,0.23098887011246394,-0.781772623972961,0.3953149583357614,2805.8608058608056,-1.0,84.22567793342758,1.4243388447763399,
2023-08-11 17:07:53.972000,-8.843373493975903,-0.6506024096385542,-4.048192771084338,-0.551808706315144,-8.706928264868179,-3.5977927651747392,3.0,1.422799422799423,702.839756592292,0.4271312860555918,-0.9702231804673381,0.32900180642153704,2805.128205128205,-1.0,84.22567793342758,1.424351499812407,
2023-08-11 17:07:53.979000,-8.879518072289157,-0.6385542168674699,-4.0361445783132535,-0.551808706315144,-8.758430410790925,-3.666462293071735,3.0,1.422799422799423,702.839756592292,0.1637433715983911,-0.6522929899190018,0.4157100402074473,2805.128205128205,-1.0,84.22567793342758,1.424363250419311,
2023-08-11 17:07:53.987000,-8.879518072289157,-0.6506024096385542,-4.048192771084338,-0.539546290619252,-8.856529736358063,-3.6591048436541995,3.0,1.422799422799423,702.839756592292,0.22283083736378978,-0.18413845347007743,0.3821455626129013,2805.8608058608056,-1.0,84.22567793342758,1.4243741013220486,
2023-08-11 17:07:53.995000,-8.867469879518072,-0.6265060240963856,-4.096385542168675,-0.5321888412017167,-8.755977927651747,-3.676272225628449,3.0,1.4232434232434235,702.6204960224613,0.0374104073189214,-0.07074179826350485,0.08833984033564457,2805.128205128205,-1.0,84.22567793342758,1.4243840579994325,
2023-08-11 17:07:54.002000,-8.855421686746988,-0.6265060240963856,-4.024096385542169,-0.5125689760882893,-8.746167995095034,-3.6640098099325566,3.0,1.4232434232434235,702.6204960224613,0.1128139385816684,0.30231338500087473,-0.08192995746168641,2777.289377289377,-1.0,84.22567793342758,1.4243931266684269,
2023-08-11 17:07:54.010000,-8.855421686746988,-0.6385542168674699,-4.0602409638554215,-0.5444512568976088,-8.741263028816677,-3.666462293071735,3.0,1.4232434232434235,702.6204960224613,0.3420546588194163,0.1687547345725775,0.009906182623390191,2676.190476190476,-1.0,84.22567793342758,1.4244013141509382,
2023-08-11 17:07:54.018000,-8.891566265060241,-0.6385542168674699,-4.072289156626506,-0.5640711220110362,-8.814837522992029,-3.6517473942366645,3.0,1.4223554223554224,703.0591540502575,-0.041372880368276785,0.7822387972728861,-0.44939106112697413,2528.205128205128,-1.0,84.22567793342758,1.4244086277401482,
2023-08-11 17:07:54.025000,-8.891566265060241,-0.6506024096385542,-4.048192771084338,-0.5591661557326794,-8.721643163703249,-3.703249540159411,3.0,1.4223554223554224,703.0591540502575,-0.2836664530039044,0.43039449915506045,-0.2950876988520481,2358.241758241758,-1.0,84.22567793342758,1.424415075311731,
2023-08-11 17:07:54.033000,-8.879518072289157,-0.6385542168674699,-4.0843373493975905,-0.5812385039852851,-8.778050275904352,-3.67381974248927,3.0,1.4223554223554224,703.0591540502575,-0.035545714119224546,0.44764291125225725,-0.4625604568498338,2175.8241758241757,-1.0,84.22567793342758,1.424420665083437,
2023-08-11 17:07:54.041000,-8.879518072289157,-0.6506024096385542,-4.0602409638554215,-0.5199264255058246,-8.787860208461066,-3.6517473942366645,3.0,1.4223554223554224,703.0591540502575,0.008507662723616683,0.3835440825126739,-0.18507080006992585,1992.6739926739926,-1.0,84.22567793342758,1.4244254054575722,
2023-08-11 17:07:54.048000,-8.891566265060241,-0.6265060240963856,-4.0843373493975905,-0.5370938074800735,-8.787860208461066,-3.7204169221336603,3.0,1.4223554223554224,703.0591540502575,0.008740749373580091,0.7965736262455568,-0.13915273002738776,1813.9194139194137,712.371826171875,84.22567793342758,1.4244293051704515,
2023-08-11 17:07:54.056000,-8.891566265060241,-0.6385542168674699,-4.1084337349397595,-0.5935009196811771,-8.733905579399142,-3.6689147762109133,3.0,1.4223554223554224,703.0591540502575,0.052327952916496244,0.42701474273060924,0.12132160130528508,1648.3516483516482,-1.0,84.22567793342758,1.424432373280816,
2023-08-11 17:07:54.064000,-8.879518072289157,-0.6626506024096386,-4.072289156626506,-0.539546290619252,-8.721643163703249,-3.6468424279583074,3.0,1.4223554223554224,703.0591540502575,0.26362100110716236,0.13192704387856202,0.10500553580793673,1494.5054945054944,-1.0,84.22567793342758,1.4244346191677262,
2023-08-11 17:07:54.071000,-8.891566265060241,-0.6506024096385542,-4.0602409638554215,-0.5469037400367872,-8.768240343347639,-3.713059472716125,3.0,1.4223554223554224,703.0591540502575,0.10850183555736877,0.17667968067129,0.10337392925820155,1355.3113553113553,-1.0,84.22567793342758,1.4244360526557718,
2023-08-11 17:07:54.079000,-8.891566265060241,-0.6385542168674699,-4.072289156626506,-0.5665236051502146,-8.78050275904353,-3.695892090741876,3.0,1.4223554223554224,703.0591540502575,0.10582133908280432,0.12924654740399757,-0.021094341821572188,1229.3040293040292,-1.0,84.22567793342758,1.4244366839909592,
2023-08-11 17:07:54.087000,-8.879518072289157,-0.6626506024096386,-4.072289156626506,-0.5665236051502146,-8.76578786020846,-3.695892090741876,3.0,1.4223554223554224,703.0591540502575,-0.18553697336985095,-0.01165433249810621,0.025289901520890546,1115.018315018315,-1.0,84.22567793342758,1.424436523677858,
2023-08-11 17:07:54.094000,-8.879518072289157,-0.6506024096385542,-4.0361445783132535,-0.5885959534028203,-8.753525444512569,-3.695892090741876,3.0,1.4223554223554224,703.0591540502575,0.2104772449157968,-0.3817959326379579,0.010605442573276513,1013.9194139194138,-1.0,84.22567793342758,1.4244355824759727,
2023-08-11 17:07:54.102000,-8.903614457831326,-0.6506024096385542,-4.0602409638554215,-0.5763335377069282,-8.743715511955855,-3.654199877375843,3.0,1.4223554223554224,703.0591540502575,0.39146902861138644,-0.2907755958277493,-0.24928617213449084,926.0073260073259,-1.0,84.22567793342758,1.4244338715238651,
2023-08-11 17:07:54.110000,-8.855421686746988,-0.6385542168674699,-4.072289156626506,-0.5567136725935009,-8.775597792765174,-3.654199877375843,3.0,1.4223554223554224,703.0591540502575,0.4636093467746631,-0.8569430685857463,0.08950527358545554,848.3516483516484,-1.0,84.22567793342758,1.4244314023143803,
2023-08-11 17:07:54.117000,-8.879518072289157,-0.674698795180723,-4.0843373493975905,-0.5812385039852851,-8.726548129981605,-3.6468424279583074,3.0,1.421911421911422,703.2786885245902,0.15605151214964202,-0.6980945166365591,-0.30720820465007853,789.7435897435897,-1.0,84.22567793342758,1.4244281866703137,
2023-08-11 17:07:54.125000,-8.867469879518072,-0.6506024096385542,-4.0602409638554215,-0.6082158185162476,-8.778050275904352,-3.6885346413243405,3.0,1.4223554223554224,703.0591540502575,0.1529048423751525,-0.6925004370374684,-0.30452770817551406,745.7875457875457,-1.0,84.22567793342758,1.4244242364325452,
2023-08-11 17:07:54.133000,-8.879518072289157,-0.6867469879518072,-4.072289156626506,-0.5738810545677498,-8.726548129981605,-3.637032495401594,3.0,1.421911421911422,703.2786885245902,0.37829963288852586,-0.607889983101218,-0.40790163743371605,719.4139194139194,-1.0,84.22567793342758,1.4244195635845518,
2023-08-11 17:07:54.140000,-8.879518072289157,-0.674698795180723,-4.0361445783132535,-0.5591661557326794,-8.78050275904353,-3.67381974248927,3.0,1.421911421911422,703.2786885245902,0.11642678165608127,-0.8119573451430567,-0.5267758289143988,709.1575091575091,-1.0,84.22567793342758,1.4244141803873416,
2023-08-11 17:07:54.148000,-8.867469879518072,-0.674698795180723,-4.072289156626506,-0.627835683629675,-8.731453096259962,-3.6125076640098097,3.0,1.421911421911422,703.2786885245902,0.16269448167356187,-0.524911135714701,-0.46034613367519356,716.4835164835164,-1.0,84.22567793342758,1.4244080991954629,
2023-08-11 17:07:54.156000,-8.891566265060241,-0.6867469879518072,-4.0843373493975905,-0.6327406499080318,-8.832004904966277,-3.6983445738810543,3.0,1.421911421911422,703.2786885245902,0.17889400384592938,-0.054891906066079854,-0.7161587320086242,742.1245421245421,-1.0,84.22567793342758,1.424401332571557,
2023-08-11 17:07:54.163000,-8.903614457831326,-0.6867469879518072,-4.0602409638554215,-0.5567136725935009,-8.758430410790925,-3.7106069895769465,3.0,1.421911421911422,703.2786885245902,0.20837946506613828,0.12190431793019099,-0.4803915855719365,779.4871794871794,-1.0,84.22567793342758,1.424393893262859,
2023-08-11 17:07:54.171000,-8.879518072289157,-0.6867469879518072,-4.0361445783132535,-0.5910484365419988,-8.738810545677499,-3.6811771919068055,3.0,1.4210234210234212,703.718169036088,-0.08379465066138284,-0.038575840568731506,-0.522813355865043,832.2344322344322,-1.0,84.22567793342758,1.424385794039683,
2023-08-11 17:07:54.179000,-8.867469879518072,-0.674698795180723,-4.072289156626506,-0.5812385039852851,-8.709380748007357,-3.686082158185162,3.0,1.4214674214674214,703.4983601436826,-0.21980071091428283,0.2146728046151156,-0.5349338616630734,893.7728937728937,-1.0,84.22567793342758,1.4243770478114528,
2023-08-11 17:07:54.186000,-8.91566265060241,-0.6867469879518072,-4.0843373493975905,-0.6082158185162476,-8.76578786020846,-3.7204169221336603,3.0,1.4214674214674214,703.4983601436826,-0.21653749781481246,-0.08472699726123126,-0.19742439251791838,964.8351648351647,-1.0,84.22567793342758,1.4243676676591066,
2023-08-11 17:07:54.194000,-8.903614457831326,-0.6867469879518072,-4.0843373493975905,-0.5714285714285714,-8.824647455548742,-3.6909871244635193,3.0,1.4214674214674214,703.4983601436826,-0.21292465474039957,-0.07528698793776616,-0.07750131111240595,1037.3626373626373,-1.0,84.22567793342758,1.4243576665472044,
2023-08-11 17:07:54.202000,-8.879518072289157,-0.6626506024096386,-4.048192771084338,-0.6106683016554261,-8.694665849172287,-3.683629675045984,3.0,1.4214674214674214,703.4983601436826,-0.16199522172367511,-0.44915797447701156,-0.15360410232503927,1107.6923076923076,-1.0,84.22567793342758,1.424347057334258,
2023-08-11 17:07:54.209000,-8.903614457831326,-0.6626506024096386,-4.048192771084338,-0.5248313917841815,-8.787860208461066,-3.67381974248927,3.0,1.4214674214674214,703.4983601436826,-0.18914981644426382,-0.40731892080881144,-0.26047433133267284,1174.3589743589744,-1.0,84.22567793342758,1.4243358529005787,
2023-08-11 17:07:54.217000,-8.891566265060241,-0.6626506024096386,-4.0361445783132535,-0.5125689760882893,-8.785407725321887,-3.614960147148988,3.0,1.4214674214674214,703.4983601436826,-0.2180525610395668,-0.7472757997785675,-0.3369267525202495,1235.164835164835,-1.0,84.22567793342758,1.4243240659887622,
2023-08-11 17:07:54.225000,-8.891566265060241,-0.6385542168674699,-4.024096385542169,-0.5542611894543225,-8.785407725321887,-3.6517473942366645,3.0,1.421911421911422,703.2786885245902,-0.26222248120738884,-1.1161354233436283,0.28961016257793837,1292.3076923076922,-1.0,84.22567793342758,1.4243117093427207,
2023-08-11 17:07:54.232000,-8.903614457831326,-0.6626506024096386,-4.048192771084338,-0.5836909871244634,-8.84671980380135,-3.678724708767627,3.0,1.4214674214674214,703.4983601436826,0.11980653808053073,-1.2696229823436866,0.20942835499096799,1342.8571428571427,-1.0,84.22567793342758,1.424298795826479,
2023-08-11 17:07:54.240000,-8.903614457831326,-0.674698795180723,-4.048192771084338,-0.5567136725935009,-8.733905579399142,-3.5830778663396687,3.0,1.4214674214674214,703.4983601436826,-0.11024998543208478,-0.919060660800652,0.10162577938348596,1382.4175824175823,-1.0,84.22567793342758,1.4242853381494025,
2023-08-11 17:07:54.248000,-8.891566265060241,-0.6867469879518072,-4.0361445783132535,-0.5567136725935009,-8.71919068056407,-3.649294911097486,3.0,1.4214674214674214,703.4983601436826,-0.18693549326962272,-1.0777926694248585,-0.23506788648680146,1408.7912087912086,-1.0,84.22567793342758,1.42427134897632,
2023-08-11 17:07:54.255000,-8.91566265060241,-0.6626506024096386,-4.048192771084338,-0.5493562231759657,-8.79767014101778,-3.6100551808706314,3.0,1.4214674214674214,703.4983601436826,-0.12458481440475544,-0.7182565118582837,-0.14055124992716042,1425.6410256410256,-1.0,84.22567793342758,1.4242568408893113,
2023-08-11 17:07:54.263000,-8.879518072289157,-0.6626506024096386,-4.048192771084338,-0.5812385039852851,-8.758430410790925,-3.6468424279583074,3.0,1.4214674214674214,703.4983601436826,0.18005943709573946,-0.3493968882932229,-0.0327486743196784,1432.9670329670328,-1.0,84.22567793342758,1.4242418262432444,
2023-08-11 17:07:54.271000,-8.891566265060241,-0.6626506024096386,-4.048192771084338,-0.5199264255058246,-8.733905579399142,-3.624770079705702,3.0,1.4214674214674214,703.4983601436826,-0.08099761086183756,-0.4144280636326546,-0.0748208146378415,1427.106227106227,-1.0,84.22567793342758,1.4242263172990037,
2023-08-11 17:07:54.278000,-8.879518072289157,-0.6626506024096386,-4.0120481927710845,-0.6008583690987124,-8.782955242182709,-3.666462293071735,3.0,1.4214674214674214,703.4983601436826,-0.15919818192412982,-0.11106578870695237,-0.39321717848610205,1410.2564102564102,-1.0,84.22567793342758,1.4242103262084271,
2023-08-11 17:07:54.286000,-8.891566265060241,-0.6626506024096386,-4.0361445783132535,-0.5763335377069282,-8.733905579399142,-3.676272225628449,3.0,1.4214674214674214,703.4983601436826,-0.09859565293397857,0.28203484645416926,-0.38704038226210596,1386.080586080586,-1.0,84.22567793342758,1.4241938648614951,
2023-08-11 17:07:54.293000,-8.879518072289157,-0.674698795180723,-4.048192771084338,-0.5616186388718577,-8.785407725321887,-3.6125076640098097,3.0,1.4214674214674214,703.4983601436826,0.02132742847153473,0.10698677233261442,-0.383194452537731,1361.1721611721612,-1.0,84.22567793342758,1.4241769448936619,
2023-08-11 17:07:54.301000,-8.891566265060241,-0.674698795180723,-4.048192771084338,-0.5665236051502146,-8.758430410790925,-3.6713672593500917,3.0,1.4214674214674214,703.4983601436826,0.1100168987821231,0.5126740865916907,-0.39321717848610205,1328.2051282051282,-1.0,84.22567793342758,1.424159577821812,
2023-08-11 17:07:54.309000,-8.879518072289157,-0.6626506024096386,-4.048192771084338,-0.6106683016554261,-8.738810545677499,-3.67381974248927,3.0,1.4214674214674214,703.4983601436826,-0.03100052444496325,0.4419322883281858,-0.31152030767437816,1295.2380952380952,-1.0,84.22567793342758,1.4241417750321415,
2023-08-11 17:07:54.316000,-8.879518072289157,-0.6867469879518072,-4.048192771084338,-0.6033108522378908,-8.790312691600246,-3.656652360515021,3.0,1.4214674214674214,703.4983601436826,0.07353883806305013,0.4020744711846634,-0.09393391993473557,1264.4688644688645,-1.0,84.22567793342758,1.4241235477692455,
2023-08-11 17:07:54.324000,-8.891566265060241,-0.674698795180723,-4.072289156626506,-0.6082158185162476,-8.778050275904352,-3.6713672593500917,3.0,1.4205794205794209,703.9381153305203,0.3174640172484112,0.4872676417458197,-0.38424334246256026,1232.2344322344322,-1.0,84.22567793342758,1.4241049069876648,
2023-08-11 17:07:54.332000,-8.879518072289157,-0.6867469879518072,-4.0361445783132535,-0.6253832004904966,-8.84671980380135,-3.6517473942366645,3.0,1.4205794205794209,703.9381153305203,0.2681661907814237,-0.021210885146553893,-0.16887127789755835,1200.0,-1.0,84.22567793342758,1.4240858634814237,
2023-08-11 17:07:54.339000,-8.879518072289157,-0.6626506024096386,-4.048192771084338,-0.615573267933783,-8.800122624156959,-3.6689147762109133,3.0,1.4210234210234212,703.718169036088,0.41897325330691765,-0.18763475321950945,-0.1530213857001342,1170.6959706959706,-1.0,84.22567793342758,1.424066427642304,
2023-08-11 17:07:54.347000,-8.903614457831326,-0.6867469879518072,-4.0602409638554215,-0.6253832004904966,-8.746167995095034,-3.7057020232985898,3.0,1.4210234210234212,703.718169036088,0.26362100110716236,-0.17994289377075864,0.0463842433424623,1143.5897435897434,-1.0,84.22567793342758,1.4240466094727924,
2023-08-11 17:07:54.355000,-8.927710843373495,-0.674698795180723,-4.0361445783132535,-0.6204782342121398,-8.809932556713672,-3.6615573267933783,3.0,1.4210234210234212,703.718169036088,0.6295670415476953,-0.16945399452246426,-0.30557659810034377,1120.14652014652,-1.0,84.22567793342758,1.4240264188975853,
2023-08-11 17:07:54.362000,-8.891566265060241,-0.6987951807228916,-4.048192771084338,-0.6302881667688535,-8.809932556713672,-3.5928877988963825,3.0,1.4210234210234212,703.718169036088,0.18134141367053214,-0.0983625662840169,-0.05582425266592871,1099.6336996336995,-1.0,84.22567793342758,1.4240058654795904,
2023-08-11 17:07:54.370000,-8.903614457831326,-0.6987951807228916,-4.0602409638554215,-0.5836909871244634,-8.817290006131207,-3.6811771919068055,3.0,1.4210234210234212,703.718169036088,0.21001107161587346,-0.2421770293106468,-0.03904201386865572,1086.4468864468863,-1.0,84.22567793342758,1.423984958434763,
2023-08-11 17:07:54.378000,-8.903614457831326,-0.6987951807228916,-4.0361445783132535,-0.6376456161863887,-8.807480073574494,-3.6419374616799507,3.0,1.4210234210234212,703.718169036088,0.39310063516112165,-0.5042829671930549,-0.2635044577821807,1075.4578754578754,-1.0,84.22567793342758,1.4239637067754862,
2023-08-11 17:07:54.385000,-8.891566265060241,-0.6867469879518072,-4.024096385542169,-0.6106683016554261,-8.790312691600246,-3.6345800122624157,3.0,1.4210234210234212,703.718169036088,0.32632130994697217,-0.3224753802225976,-0.16770584464774782,1068.131868131868,-1.0,84.22567793342758,1.423942119167033,
2023-08-11 17:07:54.393000,-8.903614457831326,-0.6987951807228916,-4.024096385542169,-0.6082158185162476,-8.763335377069282,-3.6713672593500917,3.0,1.4210234210234212,703.718169036088,0.1259833343045272,0.0067595128489024,-0.22749257036303278,1064.4688644688645,-1.0,84.22567793342758,1.4239202039442773,
2023-08-11 17:07:54.401000,-8.879518072289157,-0.6867469879518072,-4.0361445783132535,-0.6008583690987124,-8.809932556713672,-3.6517473942366645,3.0,1.4210234210234212,703.718169036088,0.1259833343045272,0.014451372297651493,-0.2242293572635624,1063.7362637362637,-1.0,84.22567793342758,1.4238979692571057,
2023-08-11 17:07:54.408000,-8.891566265060241,-0.674698795180723,-4.0361445783132535,-0.5714285714285714,-8.760882893930104,-3.619865113427345,3.0,1.4210234210234212,703.718169036088,0.55439659693491,0.29310646232736953,0.2519666686090553,1068.8644688644688,-1.0,84.22567793342758,1.4238754230678246,
2023-08-11 17:07:54.416000,-8.867469879518072,-0.6867469879518072,-4.048192771084338,-0.6033108522378908,-8.768240343347639,-3.7007970570202326,3.0,1.4210234210234212,703.718169036088,0.5828331682302896,0.20092069226735085,0.11246430860672459,1073.9926739926739,-1.0,84.22567793342758,1.4238525731498117,
2023-08-11 17:07:54.424000,-8.879518072289157,-0.674698795180723,-4.048192771084338,-0.5640711220110362,-8.817290006131207,-3.676272225628449,3.0,1.4210234210234212,703.718169036088,0.44134957170327993,0.38214556261290217,-0.025289901520890546,1080.5860805860805,-1.0,84.22567793342758,1.4238294269486513,
2023-08-11 17:07:54.431000,-8.891566265060241,-0.674698795180723,-4.048192771084338,-0.6033108522378908,-8.819742489270386,-3.6394849785407724,3.0,1.4205794205794209,703.9381153305203,0.40964978730843166,0.04020744711846669,-0.18938290309422548,1090.10989010989,-1.0,84.22567793342758,1.4238059916036048,
2023-08-11 17:07:54.439000,-8.891566265060241,-0.6626506024096386,-4.048192771084338,-0.6793378295524218,-8.75107296137339,-3.708154506437768,3.0,1.4210234210234212,703.718169036088,0.1794767204708353,0.187984383194452,0.5430918944117475,1098.9010989010987,-1.0,84.22567793342758,1.4237822739485584,
2023-08-11 17:07:54.447000,-8.903614457831326,-0.6626506024096386,-4.0361445783132535,-0.5640711220110362,-8.800122624156959,-3.713059472716125,3.0,1.4210234210234212,703.718169036088,0.28669657945341137,0.1361226035778808,0.11048307208204645,1101.8315018315018,-1.0,84.22567793342758,1.4237582806417182,
2023-08-11 17:07:54.454000,-8.891566265060241,-0.6867469879518072,-4.048192771084338,-0.5812385039852851,-8.790312691600246,-3.5806253832004904,3.0,1.4210234210234212,703.718169036088,0.08892255696055006,0.252083211934037,0.23203776003729407,1104.029304029304,-1.0,84.22567793342758,1.423734018189351,
