Shimmer_F5D4_Timestamp_FormattedUnix_CAL,Shimmer_F5D4_Accel_LN_X_CAL,Shimmer_F5D4_Accel_LN_Y_CAL,Shimmer_F5D4_Accel_LN_Z_CAL,Shimmer_F5D4_Accel_WR_X_CAL,Shimmer_F5D4_Accel_WR_Y_CAL,Shimmer_F5D4_Accel_WR_Z_CAL,Shimmer_F5D4_GSR_Range_CAL,Shimmer_F5D4_GSR_Skin_Conductance_CAL,Shimmer_F5D4_GSR_Skin_Resistance_CAL,Shimmer_F5D4_Gyro_X_CAL,Shimmer_F5D4_Gyro_Y_CAL,Shimmer_F5D4_Gyro_Z_CAL,Shimmer_F5D4_PPG_A13_CAL,Shimmer_F5D4_PPG_IBI_CAL,Shimmer_F5D4_PPGtoHR_CAL,Shimmer_F5D4_GSR_Skin_Conductance_LPF_CAL,
yyyy/mm/dd hh:mm:ss.000,m/(s^2),m/(s^2),m/(s^2),m/(s^2),m/(s^2),m/(s^2),no_units,uS,kOhms,deg/s,deg/s,deg/s,mV,ms,BPM,uS,
2023-08-10 18:37:58.803000,-8.409638554216867,0.1927710843373494,-5.0602409638554215,0.3163703249540159,-8.292458614347026,-4.730839975475169,2.0,1.9435897435897438,514.5118733509235,-0.15313792902511592,-0.33622749257036233,-0.0553580793660045,1331.135531135531,-1.0,53.28563297829092,1.9475151219288234,
2023-08-10 18:37:58.810000,-8.397590361445783,0.20481927710843376,-5.048192771084338,0.24279583077866337,-8.243408951563458,-4.676885346413243,2.0,1.9435897435897438,514.5118733509235,0.13787075345259683,-0.3189790804731656,-0.3293514363964804,1332.6007326007325,-1.0,53.28563297829092,1.9474965239656894,
2023-08-10 18:37:58.818000,-8.409638554216867,0.21686746987951808,-5.0120481927710845,0.3163703249540159,-8.312078479460453,-4.735744941753525,2.0,1.9435897435897438,514.5118733509235,-0.10826874890740709,-0.06980945166365643,-0.2045335353417633,1328.2051282051282,-1.0,53.28563297829092,1.9474773180800127,
2023-08-10 18:37:58.826000,-8.409638554216867,0.1927710843373494,-5.048192771084338,0.3261802575107296,-8.231146535867566,-4.691600245248313,2.0,1.9435897435897438,514.5118733509235,0.3504457782180522,0.0666627818891669,-0.004778276324223407,1322.3443223443223,-1.0,53.28563297829092,1.9474574997865155,
2023-08-10 18:37:58.833000,-8.421686746987952,0.1927710843373494,-5.0361445783132535,0.2722256284488044,-8.204169221336603,-4.6695278969957075,2.0,1.9450549450549453,514.1242937853107,-0.13950236000233027,-0.39042013868655717,0.20861255171610038,1315.018315018315,-1.0,53.28563297829092,1.9474370653105542,
2023-08-10 18:37:58.841000,-8.409638554216867,0.18072289156626506,-5.0602409638554215,0.3163703249540159,-8.204169221336603,-4.733292458614347,2.0,1.9450549450549453,514.1242937853107,-0.06165141891498225,-0.18949944641920632,0.00780840277373123,1308.4249084249084,-1.0,53.28563297829092,1.947416011690632,
2023-08-10 18:37:58.849000,-8.409638554216867,0.20481927710843376,-5.024096385542169,0.3041079092581238,-8.258123850398528,-4.723482526057633,2.0,1.9435897435897438,514.5118733509235,-0.016432608822329185,-0.4018413845347,-0.007575316123769124,1304.0293040293038,-1.0,53.28563297829092,1.9473943373712068,
2023-08-10 18:37:58.856000,-8.409638554216867,0.1927710843373494,-5.0361445783132535,0.2844880441446965,-8.238503985285101,-4.689147762109135,2.0,1.9435897435897438,514.5118733509235,0.07447118466289857,-0.0026804964745644456,0.06852747508886418,1300.3663003663003,-1.0,53.28563297829092,1.9473720412831492,
2023-08-10 18:37:58.864000,-8.433734939759036,0.1927710843373494,-5.024096385542169,0.34825260576333533,-8.221336603310851,-4.738197424892704,2.0,1.9450549450549453,514.1242937853107,-0.13973544665229368,-0.18542043004486836,-0.21875182098945267,1295.970695970696,-1.0,53.28563297829092,1.9473491228004995,
2023-08-10 18:37:58.872000,-8.409638554216867,0.18072289156626506,-5.048192771084338,0.3114653586756591,-8.253218884120171,-4.779889638258736,2.0,1.9435897435897438,514.5118733509235,0.13565643027795574,-0.014917545597576574,-0.20278538546704727,1292.3076923076922,-1.0,53.28563297829092,1.94732558271216,
2023-08-10 18:37:58.879000,-8.421686746987952,0.1927710843373494,-5.048192771084338,0.26486817903126914,-8.258123850398528,-4.716125076640098,2.0,1.9450549450549453,514.1242937853107,-0.017481498747158448,-0.0621175922149056,0.028669657945341313,1289.3772893772893,-1.0,53.28563297829092,1.9473014228195942,
2023-08-10 18:37:58.887000,-8.421686746987952,0.1927710843373494,-5.0361445783132535,0.29675045984058857,-8.27038626609442,-4.701410177805028,2.0,1.9450549450549453,514.1242937853107,-0.13705495017772923,6.992599498867545E-4,-0.36885962356506036,1290.10989010989,-1.0,53.28563297829092,1.947276645920059,
2023-08-10 18:37:58.895000,-8.409638554216867,0.1927710843373494,-5.0361445783132535,0.2844880441446965,-8.213979153893316,-4.762722256284488,2.0,1.9435897435897438,514.5118733509235,-0.1086183788823496,0.0023308664996219363,0.03030126449507606,1294.5054945054944,-1.0,53.28563297829092,1.947251256349138,
2023-08-10 18:37:58.902000,-8.421686746987952,0.20481927710843376,-5.0361445783132535,0.30656039239730226,-8.258123850398528,-4.664622930717351,2.0,1.9435897435897438,514.5118733509235,-0.06316648213973486,-0.12062234135539832,-0.13915273002738776,1298.9010989010987,-1.0,53.28563297829092,1.947225259044897,
2023-08-10 18:37:58.910000,-8.409638554216867,0.18072289156626506,-5.0361445783132535,0.2893930104230533,-8.272838749233598,-4.772532188841201,2.0,1.9450549450549453,514.1242937853107,-0.12341938115494361,-0.31816327719829796,0.07470427131286067,1304.0293040293038,-1.0,53.28563297829092,1.9471986594875934,
2023-08-10 18:37:58.918000,-8.421686746987952,0.18072289156626506,-5.048192771084338,0.2673206621704476,-8.25567136725935,-4.689147762109135,2.0,1.9450549450549453,514.1242937853107,0.09008799021036015,-0.23903035953615728,0.04580152671755725,1306.227106227106,1126.007080078125,53.28563297829092,1.9471714646536527,
2023-08-10 18:37:58.925000,-8.409638554216867,0.18072289156626506,-5.048192771084338,0.2918454935622317,-8.27038626609442,-4.691600245248313,2.0,1.9450549450549453,514.1242937853107,-0.10943418215721719,0.14451372297651666,-0.06048598566517085,1305.4945054945053,-1.0,53.28563297829092,1.9471436830877087,
2023-08-10 18:37:58.933000,-8.409638554216867,0.1927710843373494,-5.0361445783132535,0.27467811158798283,-8.27038626609442,-4.706315144083384,2.0,1.9435897435897438,514.5118733509235,0.11875764815570147,-0.3609346774663483,0.10943418215721676,1303.2967032967033,-1.0,53.28563297829092,1.9471153244465087,
2023-08-10 18:37:58.940000,-8.409638554216867,0.1927710843373494,-5.0361445783132535,0.30656039239730226,-8.248313917841815,-4.698957694665849,2.0,1.9450549450549453,514.1242937853107,-0.17201794767204787,-0.12808111415418746,-0.10500553580793673,1301.8315018315018,-1.0,53.28563297829092,1.9470863990049796,
2023-08-10 18:37:58.948000,-8.409638554216867,0.20481927710843376,-5.0120481927710845,0.2722256284488044,-8.211526670754138,-4.72838749233599,2.0,1.9421245421245423,514.9000377216145,-0.23297010663714163,-0.18868364314433872,-0.028086941320435828,1301.098901098901,-1.0,53.28563297829092,1.9470569180723567,
2023-08-10 18:37:58.956000,-8.421686746987952,0.1927710843373494,-5.0361445783132535,0.2820355610055181,-8.277743715511955,-4.671980380134887,2.0,1.9435897435897438,514.5118733509235,-0.2483538255346433,-0.3721228366645294,-0.0885729269856071,1301.098901098901,-1.0,53.28563297829092,1.947026893981752,
2023-08-10 18:37:58.963000,-8.409638554216867,0.1927710843373494,-5.048192771084338,0.24034334763948498,-8.243408951563458,-4.686695278969957,2.0,1.9435897435897438,514.5118733509235,-0.003962473049355383,-0.28110249985432084,-0.1030242992832586,1301.098901098901,-1.0,53.28563297829092,1.9469963399021257,
2023-08-10 18:37:58.971000,-8.397590361445783,0.1927710843373494,-5.024096385542169,0.2820355610055181,-8.30226854690374,-4.674432863274065,2.0,1.9435897435897438,514.5118733509235,-0.06619660858924355,-0.07855020103723478,-0.011304702523162832,1301.098901098901,-1.0,53.28563297829092,1.946965269854555,
2023-08-10 18:37:58.979000,-8.433734939759036,0.1927710843373494,-5.048192771084338,0.33108522378908645,-8.182096873083998,-4.730839975475169,2.0,1.9435897435897438,514.5118733509235,0.08577588718606226,0.030883981119980676,0.049181283142008016,1301.8315018315018,-1.0,53.28563297829092,1.9469336983011052,
2023-08-10 18:37:58.986000,-8.397590361445783,0.1927710843373494,-5.048192771084338,0.3139178418148375,-8.243408951563458,-4.708767627222563,2.0,1.9435897435897438,514.5118733509235,0.13146087057863695,-0.07365538138803097,0.03286521764465924,1303.2967032967033,-1.0,53.28563297829092,1.9469016406084578,
2023-08-10 18:37:58.994000,-8.409638554216867,0.18072289156626506,-5.048192771084338,0.3507050889025138,-8.233599019006745,-4.748007357449417,2.0,1.9435897435897438,514.5118733509235,0.02330866499621242,-0.17714585397121335,0.12295320785502026,1302.5641025641025,-1.0,53.28563297829092,1.9468691130153741,
2023-08-10 18:37:59.002000,-8.409638554216867,0.18072289156626506,-5.0361445783132535,0.3384426732066217,-8.27038626609442,-4.671980380134887,2.0,1.9435897435897438,514.5118733509235,-0.1287803741040725,0.053493386166308075,0.12283666453003898,1299.6336996336995,-1.0,53.28563297829092,1.9468361325967678,
2023-08-10 18:37:59.009000,-8.421686746987952,0.1927710843373494,-5.048192771084338,0.29429797670141017,-8.243408951563458,-4.745554874310239,2.0,1.9435897435897438,514.5118733509235,-0.03671114736903465,0.06945982168871218,0.09276848668492503,1297.4358974358975,-1.0,53.28563297829092,1.9468027172245497,
2023-08-10 18:37:59.017000,-8.421686746987952,0.1927710843373494,-5.0361445783132535,0.3114653586756591,-8.233599019006745,-4.72838749233599,2.0,1.9435897435897438,514.5118733509235,-0.1117650486568374,-0.007225686148825746,-0.15092360585047482,1294.5054945054944,-1.0,53.28563297829092,1.9467688855253833,
2023-08-10 18:37:59.025000,-8.421686746987952,0.18072289156626506,-5.048192771084338,0.3016554261189454,-8.265481299816063,-4.755364806866953,2.0,1.9435897435897438,514.5118733509235,-0.20290192879202854,-0.17714585397121335,-0.08973836023541765,1290.8424908424909,-1.0,53.28563297829092,1.9467346568355233,
2023-08-10 18:37:59.032000,-8.421686746987952,0.1927710843373494,-5.0120481927710845,0.26241569589209074,-8.285101164929491,-4.63519313304721,2.0,1.9435897435897438,514.5118733509235,-0.01934619194685704,-0.14766039275100445,0.018297302022026472,1289.3772893772893,-1.0,53.28563297829092,1.9467000511529349,
2023-08-10 18:37:59.040000,-8.433734939759036,0.20481927710843376,-5.0120481927710845,0.27467811158798283,-8.267933782955241,-4.713672593500919,2.0,1.9435897435897438,514.5118733509235,-0.2350678864868019,-0.11584406503117535,0.0961482431093758,1291.5750915750914,-1.0,53.28563297829092,1.9466650890868815,
2023-08-10 18:37:59.048000,-8.421686746987952,0.1927710843373494,-5.0361445783132535,0.25015328019619865,-8.19435928877989,-4.686695278969957,2.0,1.9435897435897438,514.5118733509235,-0.14416409300157415,-0.17842783054600603,0.03461336751937525,1295.2380952380952,-1.0,53.28563297829092,1.9466297918052131,
2023-08-10 18:37:59.055000,-8.3855421686747,0.18072289156626506,-5.024096385542169,0.2893930104230533,-8.231146535867566,-4.762722256284488,2.0,1.9435897435897438,514.5118733509235,-0.05197832294155373,-0.28378299632888526,-0.008740749373579658,1296.7032967032967,-1.0,53.28563297829092,1.946594180979563,
2023-08-10 18:37:59.063000,-8.409638554216867,0.14457831325301207,-5.024096385542169,0.27467811158798283,-8.307173513182097,-4.698957694665849,2.0,1.9435897435897438,514.5118733509235,0.1307616106287519,0.04067362041839003,0.1441640930015733,1298.168498168498,-1.0,53.28563297829092,1.9465582787287092,
2023-08-10 18:37:59.071000,-8.433734939759036,0.18072289156626506,-5.024096385542169,0.2893930104230533,-8.265481299816063,-4.676885346413243,2.0,1.9435897435897438,514.5118733509235,0.13041198065380769,0.0427714002680503,0.14521298292640297,1301.098901098901,-1.0,53.28563297829092,1.9465221075603434,
2023-08-10 18:37:59.078000,-8.433734939759036,0.18072289156626506,-5.0602409638554215,0.3041079092581238,-8.280196198651133,-4.733292458614347,2.0,1.9435897435897438,514.5118733509235,-0.05326029951634467,-0.4281801759804211,-0.15943126857409237,1303.2967032967033,-1.0,53.28563297829092,1.9464856903115022,
2023-08-10 18:37:59.086000,-8.433734939759036,0.16867469879518074,-5.024096385542169,0.27713059472716123,-8.258123850398528,-4.713672593500919,2.0,1.9435897435897438,514.5118733509235,0.05465881941611818,-0.25429753510867636,0.11631023833109956,1303.2967032967033,-1.0,53.28563297829092,1.9464490500879268,
2023-08-10 18:37:59.094000,-8.421686746987952,0.16867469879518074,-5.024096385542169,0.2795830778663397,-8.236051502145923,-4.659717964438994,2.0,1.9435897435897438,514.5118733509235,-0.15954781189907408,0.16152904842375176,-0.11526134840626986,1304.7619047619046,-1.0,53.28563297829092,1.9464122102026264,
2023-08-10 18:37:59.101000,-8.409638554216867,0.1927710843373494,-4.9879518072289155,0.32127529123237275,-8.324340895156345,-4.689147762109135,2.0,1.9421245421245423,514.9000377216145,-0.31012178777460464,-0.2366994930365371,-0.2959035021269157,1306.9597069597069,-1.0,53.28563297829092,1.9463751941139114,
2023-08-10 18:37:59.109000,-8.433734939759036,0.21686746987951808,-4.9879518072289155,0.39975475168608215,-8.290006131207848,-4.63519313304721,2.0,1.9435897435897438,514.5118733509235,0.056756599265776704,-0.18973253306916799,-0.2347182565118581,1311.3553113553112,-1.0,53.28563297829092,1.9463380253283868,
2023-08-10 18:37:59.117000,-8.409638554216867,0.20481927710843376,-5.0,0.29675045984058857,-8.27038626609442,-4.645003065603924,2.0,1.9435897435897438,514.5118733509235,-0.06631315191422439,-0.051861779616572894,-0.06514771866441342,1317.216117216117,-1.0,53.28563297829092,1.9463007272341202,
2023-08-10 18:37:59.124000,-8.421686746987952,0.21686746987951808,-5.0602409638554215,0.30901287553648066,-8.307173513182097,-4.713672593500919,2.0,1.9435897435897438,514.5118733509235,-0.06619660858924355,-0.11386282850649766,-0.019812365246780383,1322.3443223443223,-1.0,53.28563297829092,1.9462633231421398,
2023-08-10 18:37:59.132000,-8.433734939759036,0.1927710843373494,-5.0361445783132535,0.25260576333537704,-8.263028816676885,-4.752912323727774,2.0,1.9435897435897438,514.5118733509235,-0.14288211642678147,0.08565934386107969,0.07353883806305013,1323.8095238095236,-1.0,53.28563297829092,1.9462258362586837,
2023-08-10 18:37:59.140000,-8.433734939759036,0.1927710843373494,-5.024096385542169,0.3261802575107296,-8.285101164929491,-4.718577559779276,2.0,1.9435897435897438,514.5118733509235,-0.15605151214964202,0.0712079715634282,0.16607423809801306,1323.076923076923,-1.0,53.28563297829092,1.9461882896235385,
2023-08-10 18:37:59.147000,-8.433734939759036,0.16867469879518074,-5.0361445783132535,0.22317596566523604,-8.30226854690374,-4.674432863274065,2.0,1.9435897435897438,514.5118733509235,0.12097197133034257,0.040557077093409194,-0.09579861313443286,1320.14652014652,-1.0,53.28563297829092,1.9461507060495535,
2023-08-10 18:37:59.155000,-8.421686746987952,0.16867469879518074,-5.0843373493975905,0.3408951563458001,-8.201716738197424,-4.716125076640098,2.0,1.9435897435897438,514.5118733509235,0.2706136006060247,-0.04859856651710253,0.04370374686789829,1316.4835164835165,-1.0,53.28563297829092,1.946113108063602,
2023-08-10 18:37:59.163000,-8.397590361445783,0.18072289156626506,-5.072289156626506,0.31882280809319435,-8.22624156958921,-4.713672593500919,2.0,1.9435897435897438,514.5118733509235,0.07027562496357977,-0.2897267059029201,0.34869762834333656,1312.8205128205127,-1.0,53.28563297829092,1.9460755178492586,
2023-08-10 18:37:59.170000,-8.409638554216867,0.20481927710843376,-5.0602409638554215,0.3041079092581238,-8.265481299816063,-4.691600245248313,2.0,1.9435897435897438,514.5118733509235,0.12994580735388434,-0.3136180875240367,0.01083852922323862,1309.1575091575091,-1.0,53.28563297829092,1.9460379571914561,
2023-08-10 18:37:59.178000,-8.3855421686747,0.20481927710843376,-5.0602409638554215,0.269773145309626,-8.260576333537706,-4.716125076640098,2.0,1.9435897435897438,514.5118733509235,-0.13006235067886518,-0.06538080531437596,0.27084668725598726,1306.9597069597069,-1.0,53.28563297829092,1.9460004474233634,
2023-08-10 18:37:59.186000,-8.397590361445783,0.18072289156626506,-5.072289156626506,0.2673206621704476,-8.17964438994482,-4.686695278969957,2.0,1.9435897435897438,514.5118733509235,-0.11269739525668582,-0.24613950236000218,-0.006759512848901533,1310.6227106227104,-1.0,53.28563297829092,1.9459630093757208,
2023-08-10 18:37:59.193000,-8.3855421686747,0.1927710843373494,-5.048192771084338,0.24770079705702022,-8.236051502145923,-4.730839975475169,2.0,1.9435897435897438,514.5118733509235,-0.11013344210710395,0.106054425732766,0.007342229473807017,1320.8791208791208,-1.0,53.28563297829092,1.9459256633288615,
2023-08-10 18:37:59.201000,-8.397590361445783,0.1927710843373494,-5.0120481927710845,0.30656039239730226,-8.191906805640711,-4.721030042918454,2.0,1.9435897435897438,514.5118733509235,-0.1715517743721228,0.48738418507080056,0.2804032399044345,1341.3919413919414,-1.0,53.28563297829092,1.945888428967609,
2023-08-10 18:37:59.209000,-8.44578313253012,0.20481927710843376,-5.048192771084338,0.30901287553648066,-8.292458614347026,-4.652360515021459,2.0,1.9435897435897438,514.5118733509235,-0.09405046325971728,0.16432608822329706,0.12318629450498236,1380.2197802197802,-1.0,53.28563297829092,1.9458513253392635,
2023-08-10 18:37:59.216000,-8.44578313253012,0.1927710843373494,-5.024096385542169,0.27467811158798283,-8.341508277130595,-4.667075413856529,2.0,1.9435897435897438,514.5118733509235,-0.1835557368451715,0.3796981527882994,0.2415943126857409,1438.095238095238,-1.0,53.28563297829092,1.9458143708148228,
2023-08-10 18:37:59.224000,-8.409638554216867,0.18072289156626506,-5.0,0.33108522378908645,-8.297363580625383,-4.642550582464746,2.0,1.9435897435897438,514.5118733509235,-0.060952158965095496,-0.10908455218227295,0.2093118116659867,1514.2857142857142,-1.0,53.28563297829092,1.9457775830536173,
2023-08-10 18:37:59.232000,-8.433734939759036,0.20481927710843376,-4.9879518072289155,0.32127529123237275,-8.304721030042918,-4.725935009196811,2.0,1.9435897435897438,514.5118733509235,-0.0759862478876529,-0.13775421012761427,0.2541809917836955,1608.7912087912086,-1.0,53.28563297829092,1.9457409789714872,
2023-08-10 18:37:59.239000,-8.44578313253012,0.18072289156626506,-5.024096385542169,0.2844880441446965,-8.275291232372776,-4.654812998160637,2.0,1.9435897435897438,514.5118733509235,-0.03135015441990576,-0.11502826175630776,-0.00769185944874996,1717.9487179487178,-1.0,53.28563297829092,1.9457045747125976,
2023-08-10 18:37:59.247000,-8.409638554216867,0.1927710843373494,-5.0120481927710845,0.33108522378908645,-8.238503985285101,-4.706315144083384,2.0,1.9435897435897438,514.5118733509235,0.014334828972670657,-0.021793601771458074,-0.03542917079424284,1834.4322344322343,-1.0,53.28563297829092,1.9456683856250312,
2023-08-10 18:37:59.255000,-8.397590361445783,0.18072289156626506,-5.024096385542169,0.3139178418148375,-8.17964438994482,-4.752912323727774,2.0,1.9421245421245423,514.9000377216145,-0.2914748557776361,-0.265136064331915,-0.12400209777984952,1946.5201465201465,-1.0,53.28563297829092,1.9456324262401836,
2023-08-10 18:37:59.262000,-8.3855421686747,0.18072289156626506,-5.072289156626506,0.3114653586756591,-8.272838749233598,-4.787247087676272,2.0,1.9435897435897438,514.5118733509235,-0.061068702290076333,0.044752636792727986,0.10617096905774727,2049.8168498168498,-1.0,53.28563297829092,1.9455967097633824,
2023-08-10 18:37:59.270000,-8.397590361445783,0.16867469879518074,-5.0361445783132535,0.3016554261189454,-8.233599019006745,-4.718577559779276,2.0,1.9435897435897438,514.5118733509235,0.014451372297651493,-0.34928034496824206,-0.002447409824602339,2137.7289377289376,-1.0,53.28563297829092,1.9455612484815776,
2023-08-10 18:37:59.278000,-8.397590361445783,0.1927710843373494,-5.048192771084338,0.30901287553648066,-8.24095646842428,-4.679337829552422,2.0,1.9435897435897438,514.5118733509235,-0.1210885146553234,0.15465299224986853,0.07365538138803097,2205.128205128205,-1.0,53.28563297829092,1.9455260542789496,
2023-08-10 18:37:59.285000,-8.409638554216867,0.20481927710843376,-5.024096385542169,0.34334763948497854,-8.260576333537706,-4.730839975475169,2.0,1.9435897435897438,514.5118733509235,0.016082978847386676,-0.014684458947613166,0.40627003088398134,2248.3516483516482,-1.0,53.28563297829092,1.9454911381734805,
2023-08-10 18:37:59.293000,-8.44578313253012,0.18072289156626506,-5.024096385542169,0.2599632127529123,-8.267933782955241,-4.735744941753525,2.0,1.9435897435897438,514.5118733509235,0.16922090787250085,0.4139618903327313,0.4942602412446825,2264.4688644688645,-1.0,53.28563297829092,1.9454565103152985,
2023-08-10 18:37:59.300000,-8.433734939759036,0.20481927710843376,-5.0120481927710845,0.2550582464745555,-8.250766400980993,-4.730839975475169,2.0,1.9421245421245423,514.9000377216145,-0.32026105704795826,0.08868947031058838,-0.13763766680263387,2254.945054945055,-1.0,53.28563297829092,1.9454221799888993,
2023-08-10 18:37:59.308000,-8.433734939759036,0.18072289156626506,-5.024096385542169,0.299202942979767,-8.275291232372776,-4.671980380134887,2.0,1.9435897435897438,514.5118733509235,0.01876347532195112,0.653924596468737,0.060952158965095066,2220.5128205128203,-1.0,53.28563297829092,1.9453881551265064,
2023-08-10 18:37:59.316000,-8.457831325301205,0.18072289156626506,-5.0,0.2452483139178418,-8.265481299816063,-4.686695278969957,2.0,1.9435897435897438,514.5118733509235,-0.026105704795757703,0.46407552007458813,-0.07633587786259542,2167.7655677655675,-1.0,53.28563297829092,1.9453544427382892,
2023-08-10 18:37:59.323000,-8.44578313253012,0.16867469879518074,-4.9879518072289155,0.2599632127529123,-8.324340895156345,-4.6621704475781724,2.0,1.9435897435897438,514.5118733509235,0.005477536274109728,0.0949828098595657,0.09416700658469768,2100.3663003663,-1.0,53.28563297829092,1.9453210494502313,
2023-08-10 18:37:59.331000,-8.433734939759036,0.18072289156626506,-5.048192771084338,0.2550582464745555,-8.326793378295523,-4.698957694665849,2.0,1.9435897435897438,514.5118733509235,0.18786783986947114,-0.24112813938581582,-0.04230522696812521,2022.7106227106226,-1.0,53.28563297829092,1.9452879810624955,
2023-08-10 18:37:59.339000,-8.457831325301205,0.1927710843373494,-5.048192771084338,0.2893930104230533,-8.275291232372776,-4.703862660944206,2.0,1.9435897435897438,514.5118733509235,-0.3006817784511395,-0.06911019171376967,-0.22539479051337338,1939.194139194139,-1.0,53.28563297829092,1.945255242569059,
2023-08-10 18:37:59.346000,-8.421686746987952,0.1927710843373494,-5.0361445783132535,0.26486817903126914,-8.282648681790313,-4.713672593500919,2.0,1.9435897435897438,514.5118733509235,-0.2954373288269915,-0.06701241186411114,-0.22411281393858157,1855.6776556776556,-1.0,53.28563297829092,1.9452228381805683,
2023-08-10 18:37:59.354000,-8.409638554216867,0.20481927710843376,-5.048192771084338,0.2918454935622317,-8.199264255058246,-4.725935009196811,2.0,1.9435897435897438,514.5118733509235,0.05955363906532199,0.055707709340947445,-0.25336518850882794,1775.8241758241757,-1.0,53.28563297829092,1.945190771350258,
2023-08-10 18:37:59.362000,-8.409638554216867,0.1927710843373494,-5.048192771084338,0.30656039239730226,-8.263028816676885,-4.679337829552422,2.0,1.9435897435897438,514.5118733509235,-0.24369209253539942,0.0858924305110431,-0.48050812889691735,1701.8315018315018,-1.0,53.28563297829092,1.9451590448027523,
2023-08-10 18:37:59.369000,-8.3855421686747,0.20481927710843376,-5.0602409638554215,0.2820355610055181,-8.267933782955241,-4.733292458614347,2.0,1.9435897435897438,514.5118733509235,-0.2421770293106468,-0.006060252899015646,-0.3392576190198706,1635.164835164835,-1.0,53.28563297829092,1.9451276605655525,
2023-08-10 18:37:59.377000,-8.361445783132531,0.20481927710843376,-5.0361445783132535,0.2673206621704476,-8.206621704475781,-4.733292458614347,2.0,1.9435897435897438,514.5118733509235,-0.22457898723850578,-0.18984907639414883,-0.04731658994231116,1573.6263736263736,-1.0,53.28563297829092,1.945096620002983,
2023-08-10 18:37:59.385000,-8.397590361445783,0.18072289156626506,-5.048192771084338,0.269773145309626,-8.206621704475781,-4.76026977314531,2.0,1.9435897435897438,514.5118733509235,-0.2371656663364604,0.11549443505623284,-0.07831711438727354,1518.6813186813185,-1.0,53.28563297829092,1.9450659238524102,
2023-08-10 18:37:59.392000,-8.3855421686747,0.1927710843373494,-5.0361445783132535,0.30656039239730226,-8.238503985285101,-4.686695278969957,2.0,1.9435897435897438,514.5118733509235,0.23903035953615728,0.17539770409649733,0.027620768020511614,1471.062271062271,-1.0,53.28563297829092,1.9450355722624642,
2023-08-10 18:37:59.400000,-8.397590361445783,0.18072289156626506,-5.0361445783132535,0.3041079092581238,-8.250766400980993,-4.76026977314531,2.0,1.9421245421245423,514.9000377216145,-0.14544606957636508,0.3851756890624091,0.16689004137288022,1435.164835164835,-1.0,53.28563297829092,1.9450055648330506,
2023-08-10 18:37:59.408000,-8.409638554216867,0.1927710843373494,-5.024096385542169,0.3384426732066217,-8.243408951563458,-4.642550582464746,2.0,1.9421245421245423,514.9000377216145,0.08496008391119467,0.19789056581784217,0.10418973253306914,1408.058608058608,-1.0,53.28563297829092,1.9449759001642302,
2023-08-10 18:37:59.415000,-8.433734939759036,0.1927710843373494,-5.0120481927710845,0.3408951563458001,-8.297363580625383,-4.694052728387492,2.0,1.9421245421245423,514.9000377216145,-0.03659460404405381,0.3321484761960261,0.16420954489831577,1388.278388278388,-1.0,53.28563297829092,1.9449465762847145,
2023-08-10 18:37:59.423000,-8.44578313253012,0.20481927710843376,-5.024096385542169,0.2844880441446965,-8.265481299816063,-4.706315144083384,2.0,1.9421245421245423,514.9000377216145,-0.26560223763184004,0.1466115028261752,0.11829147485577769,1376.5567765567764,-1.0,53.28563297829092,1.9449175906229017,
2023-08-10 18:37:59.431000,-8.433734939759036,0.18072289156626506,-5.0,0.3654199877375843,-8.272838749233598,-4.671980380134887,2.0,1.9421245421245423,514.9000377216145,-0.23040615348755977,-0.1885670998193579,0.04102325039333384,1371.4285714285713,-1.0,53.28563297829092,1.9448889396241855,
2023-08-10 18:37:59.438000,-8.421686746987952,0.20481927710843376,-5.0120481927710845,0.3163703249540159,-8.294911097486205,-4.698957694665849,2.0,1.9421245421245423,514.9000377216145,-0.48645183847095214,-0.12493444437969795,0.010605442573276513,1372.8937728937728,-1.0,53.28563297829092,1.944860619739195,
2023-08-10 18:37:59.446000,-8.44578313253012,0.1927710843373494,-5.0361445783132535,0.27467811158798283,-8.343960760269773,-4.713672593500919,2.0,1.9435897435897438,514.5118733509235,-0.17586387739642242,-0.22947380688771132,-0.1131635685566109,1375.091575091575,-1.0,53.28563297829092,1.9448326269360803,
2023-08-10 18:37:59.454000,-8.421686746987952,0.1927710843373494,-5.048192771084338,0.2452483139178418,-8.238503985285101,-4.721030042918454,2.0,1.9421245421245423,514.9000377216145,-0.1899656197191314,-0.36244974069110264,0.05698968591573925,1376.5567765567764,-1.0,53.28563297829092,1.944804956808951,
2023-08-10 18:37:59.461000,-8.397590361445783,0.20481927710843376,-5.072289156626506,0.32127529123237275,-8.294911097486205,-4.767627222562845,2.0,1.9435897435897438,514.5118733509235,-0.18973253306916799,-0.1905483363440356,-0.26198939455742676,1378.7545787545787,-1.0,53.28563297829092,1.9447776046856105,
2023-08-10 18:37:59.469000,-8.3855421686747,0.1927710843373494,-5.048192771084338,0.2722256284488044,-8.199264255058246,-4.701410177805028,2.0,1.9435897435897438,514.5118733509235,-0.06503117533943172,-0.23565060311170608,-0.3208437736728629,1378.021978021978,-1.0,53.28563297829092,1.9447505656303756,
2023-08-10 18:37:59.477000,-8.3855421686747,0.1927710843373494,-5.0361445783132535,0.25015328019619865,-8.25567136725935,-4.723482526057633,2.0,1.9435897435897438,514.5118733509235,0.1636268282734103,-0.05127906299166698,0.033447934269564716,1370.6959706959706,-1.0,53.28563297829092,1.9447238350083524,
2023-08-10 18:37:59.484000,-8.3855421686747,0.18072289156626506,-5.024096385542169,0.3237277743715512,-8.343960760269773,-4.689147762109135,2.0,1.9435897435897438,514.5118733509235,0.17912709049589104,0.33133267292115853,0.2794708933045861,1357.5091575091574,-1.0,53.28563297829092,1.9446974080660888,
2023-08-10 18:37:59.492000,-8.421686746987952,0.1927710843373494,-5.0361445783132535,0.2452483139178418,-8.228694052728388,-4.679337829552422,2.0,1.9435897435897438,514.5118733509235,0.32888526309655575,0.3290018064215366,0.1254006176796226,1341.3919413919414,-1.0,53.28563297829092,1.9446712799693389,
2023-08-10 18:37:59.500000,-8.421686746987952,0.1927710843373494,-5.0361445783132535,0.3531575720416922,-8.265481299816063,-4.698957694665849,2.0,1.9421245421245423,514.9000377216145,0.344035895344094,0.21980071091428283,0.2777227434298701,1325.2747252747251,-1.0,53.28563297829092,1.9446454458398872,
2023-08-10 18:37:59.507000,-8.44578313253012,0.21686746987951808,-5.048192771084338,0.328632740649908,-8.297363580625383,-4.711220110361741,2.0,1.9421245421245423,514.9000377216145,0.3572052910669546,-0.009556552648447682,0.0018646931996968547,1311.3553113553112,-1.0,53.28563297829092,1.9446199007564735,
2023-08-10 18:37:59.515000,-8.46987951807229,0.21686746987951808,-5.0120481927710845,0.3605150214592274,-8.314530962599632,-4.735744941753525,2.0,1.9421245421245423,514.9000377216145,0.11106578870695237,0.21945108093933857,0.016549152147310887,1301.098901098901,-1.0,53.28563297829092,1.9445946391919917,
2023-08-10 18:37:59.523000,-8.44578313253012,0.22891566265060243,-5.024096385542169,0.299202942979767,-8.275291232372776,-4.679337829552422,2.0,1.9421245421245423,514.9000377216145,-0.17912709049589104,-0.23833109958627052,0.10826874890740623,1293.7728937728937,-1.0,53.28563297829092,1.9445696550777822,
2023-08-10 18:37:59.530000,-8.44578313253012,0.21686746987951808,-5.024096385542169,0.3507050889025138,-8.267933782955241,-4.689147762109135,2.0,1.9435897435897438,514.5118733509235,-0.1006934327836371,0.08600897383602393,-0.15185595245032324,1292.3076923076922,-1.0,53.28563297829092,1.9445449423211192,
2023-08-10 18:37:59.538000,-8.421686746987952,0.21686746987951808,-5.0361445783132535,0.34580012262415694,-8.25567136725935,-4.657265481299816,2.0,1.9421245421245423,514.9000377216145,-0.07050871161354318,-0.2200337975642445,-0.2720121205057982,1295.2380952380952,-1.0,53.28563297829092,1.9445204953204993,
2023-08-10 18:37:59.546000,-8.409638554216867,0.18072289156626506,-5.0361445783132535,0.3261802575107296,-8.285101164929491,-4.6621704475781724,2.0,1.9421245421245423,514.9000377216145,0.09941145620884616,-0.2348347998368385,-0.0553580793660045,1300.3663003663003,-1.0,53.28563297829092,1.944496308565541,
2023-08-10 18:37:59.553000,-8.409638554216867,0.1927710843373494,-5.048192771084338,0.25015328019619865,-8.238503985285101,-4.676885346413243,2.0,1.9435897435897438,514.5118733509235,0.08286230406153441,-0.11094924538197154,0.0045451896742613,1309.89010989011,-1.0,53.28563297829092,1.9444723761305798,
2023-08-10 18:37:59.561000,-8.421686746987952,0.20481927710843376,-5.0602409638554215,0.2844880441446965,-8.196811771919068,-4.716125076640098,2.0,1.9406593406593406,515.2887882219705,-0.055707709340947445,-0.1579162053493389,0.08029835091195167,1322.3443223443223,-1.0,53.28563297829092,1.9444486926416187,
2023-08-10 18:37:59.569000,-8.397590361445783,0.18072289156626506,-5.048192771084338,0.29429797670141017,-8.22624156958921,-4.703862660944206,2.0,1.9406593406593406,515.2887882219705,-0.09964454285880783,0.2235300973136765,-0.026804964745644023,1336.9963369963368,-1.0,53.28563297829092,1.9444252528351036,
2023-08-10 18:37:59.576000,-8.409638554216867,0.20481927710843376,-5.0120481927710845,0.3114653586756591,-8.216431637032494,-4.6327406499080315,2.0,1.9421245421245423,514.9000377216145,0.007225686148825746,0.1003438028086946,-0.08775712371073952,1353.113553113553,-1.0,53.28563297829092,1.9444020509057158,
2023-08-10 18:37:59.584000,-8.409638554216867,0.18072289156626506,-5.024096385542169,0.25260576333537704,-8.211526670754138,-4.694052728387492,2.0,1.9421245421245423,514.9000377216145,-0.1610628751238267,0.12959617737894008,0.00396247304935625,1367.032967032967,-1.0,53.28563297829092,1.944379080973013,
2023-08-10 18:37:59.592000,-8.421686746987952,0.1927710843373494,-5.0361445783132535,0.269773145309626,-8.24095646842428,-4.730839975475169,2.0,1.9421245421245423,514.9000377216145,-0.2206165141891504,-0.29986597517627195,0.005477536274109728,1380.2197802197802,-1.0,53.28563297829092,1.9443563372260702,
2023-08-10 18:37:59.599000,-8.397590361445783,0.16867469879518074,-5.0120481927710845,0.3629675045984059,-8.304721030042918,-4.637645616186388,2.0,1.9435897435897438,514.5118733509235,-0.15733348872443298,-0.0848435405862121,-0.04207214031816311,1389.7435897435896,-1.0,53.28563297829092,1.9443338139612993,
2023-08-10 18:37:59.607000,-8.421686746987952,0.16867469879518074,-5.0361445783132535,0.22562844880441446,-8.253218884120171,-4.69650521152667,2.0,1.9421245421245423,514.9000377216145,-0.0037293863993937094,-0.23611677641163117,-0.08740749373579615,1394.8717948717947,-1.0,53.28563297829092,1.9443115060760325,
2023-08-10 18:37:59.615000,-8.397590361445783,0.18072289156626506,-5.0120481927710845,0.2795830778663397,-8.196811771919068,-4.69650521152667,2.0,1.9421245421245423,514.9000377216145,0.04032399044344752,-0.06573043528931848,-0.10209195268341018,1398.5347985347985,-1.0,53.28563297829092,1.9442894086469884,
2023-08-10 18:37:59.622000,-8.433734939759036,0.1566265060240964,-5.0120481927710845,0.2599632127529123,-8.263028816676885,-4.649908031882281,2.0,1.9421245421245423,514.9000377216145,0.04160596701823846,-0.06386574208962162,-0.10185886603344807,1399.2673992673992,-1.0,53.28563297829092,1.9442675164028664,
2023-08-10 18:37:59.630000,-8.421686746987952,0.16867469879518074,-5.0120481927710845,0.30901287553648066,-8.22624156958921,-4.706315144083384,2.0,1.9421245421245423,514.9000377216145,0.16479226152322038,0.13495717032806898,-0.07202377483829622,1397.8021978021977,-1.0,53.28563297829092,1.944245824178209,
2023-08-10 18:37:59.638000,-8.421686746987952,0.1927710843373494,-5.0361445783132535,0.27713059472716123,-8.265481299816063,-4.671980380134887,2.0,1.9421245421245423,514.9000377216145,0.24182739933570255,0.18215721694539974,0.08227958743662936,1395.6043956043954,-1.0,53.28563297829092,1.9442243269078026,
2023-08-10 18:37:59.645000,-8.421686746987952,0.18072289156626506,-5.0,0.25260576333537704,-8.260576333537706,-4.664622930717351,2.0,1.9421245421245423,514.9000377216145,0.1188741914806823,0.21222539479051283,0.25126740865916897,1391.2087912087911,-1.0,53.28563297829092,1.9442030196196618,
2023-08-10 18:37:59.653000,-8.433734939759036,0.1927710843373494,-5.0361445783132535,0.2795830778663397,-8.218884120171673,-4.6817903126916,2.0,1.9421245421245423,514.9000377216145,0.3012644950760437,0.2419439426606834,0.03799312394382602,1384.6153846153845,-1.0,53.28563297829092,1.9441818974267233,
2023-08-10 18:37:59.661000,-8.433734939759036,0.18072289156626506,-5.0361445783132535,0.30901287553648066,-8.245861434702636,-4.671980380134887,2.0,1.9421245421245423,514.9000377216145,0.14579569955130758,0.17936017714585445,-0.11491171843132691,1373.6263736263736,-1.0,53.28563297829092,1.9441609555174857,
2023-08-10 18:37:59.668000,-8.433734939759036,0.1927710843373494,-5.048192771084338,0.2722256284488044,-8.27038626609442,-4.698957694665849,2.0,1.9421245421245423,514.9000377216145,-0.0078084027737316646,0.2096614416409292,-0.08204650078666725,1364.102564102564,-1.0,53.28563297829092,1.9441401891457093,
2023-08-10 18:37:59.676000,-8.433734939759036,0.1927710843373494,-5.024096385542169,0.21091354996934394,-8.233599019006745,-4.689147762109135,2.0,1.9421245421245423,514.9000377216145,-0.11456208845638441,-0.35300973136763575,0.023075578346250313,1356.7765567765566,-1.0,53.28563297829092,1.9441195936194133,
2023-08-10 18:37:59.683000,-8.433734939759036,0.18072289156626506,-5.024096385542169,0.30901287553648066,-8.307173513182097,-4.691600245248313,2.0,1.9421245421245423,514.9000377216145,0.008158032748674174,-0.3024299283258555,-0.08309539071149695,1348.7179487179487,-1.0,53.28563297829092,1.9440991642893297,
2023-08-10 18:37:59.691000,-8.421686746987952,0.18072289156626506,-5.048192771084338,0.23789086450030655,-8.285101164929491,-4.711220110361741,2.0,1.9421245421245423,514.9000377216145,0.052561039566459654,0.14474680962647835,-0.2961365887768778,1339.194139194139,-1.0,53.28563297829092,1.9440788965370226,
2023-08-10 18:37:59.699000,-8.433734939759036,0.20481927710843376,-5.048192771084338,0.23789086450030655,-8.24095646842428,-4.723482526057633,2.0,1.9421245421245423,514.9000377216145,-0.16094633179884585,0.005360992949128891,0.1941611794184489,1329.6703296703297,-1.0,53.28563297829092,1.9440587857628535,
2023-08-10 18:37:59.706000,-8.421686746987952,0.1927710843373494,-5.048192771084338,0.3139178418148375,-8.290006131207848,-4.69650521152667,2.0,1.9421245421245423,514.9000377216145,0.2678165608064794,-0.07085834158848568,0.008391119398636281,1321.6117216117216,-1.0,53.28563297829092,1.9440388273739961,
2023-08-10 18:37:59.714000,-8.409638554216867,0.18072289156626506,-5.0361445783132535,0.328632740649908,-8.27038626609442,-4.716125076640098,2.0,1.9406593406593406,515.2887882219705,0.05384301614125059,-0.14556261290134592,0.23378590991200965,1317.9487179487178,-1.0,53.28563297829092,1.9440190167726856,
2023-08-10 18:37:59.722000,-8.409638554216867,0.16867469879518074,-5.0361445783132535,0.26486817903126914,-8.250766400980993,-4.689147762109135,2.0,1.9406593406593406,515.2887882219705,-0.02132742847153473,0.22154886078899882,0.0013985198997726411,1317.9487179487178,-1.0,53.28563297829092,1.9439993493100798,
2023-08-10 18:37:59.729000,-8.421686746987952,0.18072289156626506,-5.024096385542169,0.2673206621704476,-8.290006131207848,-4.701410177805028,2.0,1.9406593406593406,515.2887882219705,0.1922964862187516,-0.20651477186644143,0.014451372297651493,1317.216117216117,-1.0,53.28563297829092,1.9439798201360898,
2023-08-10 18:37:59.737000,-8.433734939759036,0.18072289156626506,-5.0120481927710845,0.3163703249540159,-8.248313917841815,-4.647455548743102,2.0,1.9406593406593406,515.2887882219705,-0.20465007866674456,0.14649495950119434,0.06060252899015212,1315.7509157509157,-1.0,53.28563297829092,1.9439604241533495,
2023-08-10 18:37:59.745000,-8.409638554216867,0.1927710843373494,-5.024096385542169,0.2918454935622317,-8.319435928877988,-4.664622930717351,2.0,1.9421245421245423,514.9000377216145,-0.06316648213973486,0.14323174640172398,0.07552007458772783,1315.7509157509157,-1.0,53.28563297829092,1.9439411560056585,
2023-08-10 18:37:59.752000,-8.421686746987952,0.18072289156626506,-5.0,0.3114653586756591,-8.267933782955241,-4.755364806866953,2.0,1.9421245421245423,514.9000377216145,-0.13857001340248185,0.15779966202435805,0.04498572344268966,1315.7509157509157,-1.0,53.28563297829092,1.9439220101010988,
2023-08-10 18:37:59.760000,-8.44578313253012,0.18072289156626506,-5.0,0.22562844880441446,-8.309625996321275,-4.6817903126916,2.0,1.9421245421245423,514.9000377216145,6.992599498867545E-4,0.36874308024007996,0.13868655672746355,1318.6813186813185,-1.0,53.28563297829092,1.9439029807398513,
2023-08-10 18:37:59.768000,-8.457831325301205,0.16867469879518074,-5.0120481927710845,0.3507050889025138,-8.309625996321275,-4.689147762109135,2.0,1.9421245421245423,514.9000377216145,-0.09102033681020859,0.30650894470019174,-0.12318629450498236,1320.8791208791208,-1.0,53.28563297829092,1.9438840621389013,
2023-08-10 18:37:59.775000,-8.421686746987952,0.1927710843373494,-5.024096385542169,0.30901287553648066,-8.307173513182097,-4.689147762109135,2.0,1.9421245421245423,514.9000377216145,-0.1048889924829559,0.060602528990151255,-0.04661732999242484,1322.3443223443223,-1.0,53.28563297829092,1.943865248423667,
2023-08-10 18:37:59.783000,-8.433734939759036,0.20481927710843376,-5.0120481927710845,0.2722256284488044,-8.236051502145923,-4.694052728387492,2.0,1.9421245421245423,514.9000377216145,-0.08729095041081487,0.13740458015267176,0.13705495017772837,1325.2747252747251,-1.0,53.28563297829092,1.9438465336214967,
2023-08-10 18:37:59.791000,-8.433734939759036,0.1927710843373494,-5.0361445783132535,0.27467811158798283,-8.299816063764561,-4.701410177805028,2.0,1.9421245421245423,514.9000377216145,0.1281976574791683,0.23157158673736986,0.18180758697045635,1330.4029304029302,-1.0,53.28563297829092,1.9438279121150768,
2023-08-10 18:37:59.798000,-8.421686746987952,0.1927710843373494,-5.024096385542169,0.30901287553648066,-8.285101164929491,-4.671980380134887,2.0,1.9421245421245423,514.9000377216145,0.2795874366295665,0.36582949711555207,0.36454752054076117,1334.7985347985348,-1.0,53.28563297829092,1.943809378115012,
2023-08-10 18:37:59.806000,-8.421686746987952,0.1927710843373494,-5.0120481927710845,0.27713059472716123,-8.33169834457388,-4.706315144083384,2.0,1.9421245421245423,514.9000377216145,0.13973544665229368,0.01048889924829611,-0.018996561971913226,1336.9963369963368,-1.0,53.28563297829092,1.9437909256965342,
2023-08-10 18:37:59.814000,-8.421686746987952,0.16867469879518074,-5.0361445783132535,0.25015328019619865,-8.238503985285101,-4.718577559779276,2.0,1.9421245421245423,514.9000377216145,-0.12167123128022758,0.22224812073888384,0.07237340481323917,1337.7289377289376,-1.0,53.28563297829092,1.9437725487687492,
2023-08-10 18:37:59.821000,-8.409638554216867,0.18072289156626506,-5.0361445783132535,0.3384426732066217,-8.282648681790313,-4.708767627222563,2.0,1.9421245421245423,514.9000377216145,0.20127032224229335,-0.08659169046092811,0.19148068294388446,1337.7289377289376,-1.0,53.28563297829092,1.9437542406576542,
2023-08-10 18:37:59.829000,-8.409638554216867,0.18072289156626506,-5.048192771084338,0.3237277743715512,-8.265481299816063,-4.713672593500919,2.0,1.9421245421245423,514.9000377216145,0.13822038342753934,0.0057106229240714,-0.025289901520890546,1338.4615384615383,-1.0,53.28563297829092,1.9437359950626656,
2023-08-10 18:37:59.837000,-8.433734939759036,0.20481927710843376,-5.0361445783132535,0.2599632127529123,-8.243408951563458,-4.664622930717351,2.0,1.9421245421245423,514.9000377216145,0.018064215372064367,0.17469844414661231,0.23436862653691515,1339.9267399267399,-1.0,53.28563297829092,1.9437178055400444,
2023-08-10 18:37:59.844000,-8.409638554216867,0.1927710843373494,-5.024096385542169,0.2893930104230533,-8.307173513182097,-4.706315144083384,2.0,1.9421245421245423,514.9000377216145,-0.04382029019287956,0.36944234018996497,0.005127906299166785,1340.6593406593406,-1.0,53.28563297829092,1.9436996655507512,
2023-08-10 18:37:59.852000,-8.409638554216867,0.20481927710843376,-5.0361445783132535,0.2844880441446965,-8.25567136725935,-4.6817903126916,2.0,1.9421245421245423,514.9000377216145,0.29229065905250196,0.15197249577530408,0.06619660858924312,1338.4615384615383,-1.0,53.28563297829092,1.9436815688989,
2023-08-10 18:37:59.860000,-8.433734939759036,0.18072289156626506,-5.024096385542169,0.26486817903126914,-8.243408951563458,-4.735744941753525,2.0,1.9421245421245423,514.9000377216145,0.32084377367286243,0.08717440708583403,-0.13285939047841044,1339.194139194139,-1.0,53.28563297829092,1.9436635092589674,
2023-08-10 18:37:59.867000,-8.433734939759036,0.18072289156626506,-5.0361445783132535,0.3114653586756591,-8.258123850398528,-4.735744941753525,2.0,1.9406593406593406,515.2887882219705,0.21245848144047624,0.4228191830312922,0.25033506205932055,1339.194139194139,-1.0,53.28563297829092,1.9436454797396578,
2023-08-10 18:37:59.875000,-8.433734939759036,0.20481927710843376,-5.0602409638554215,0.24770079705702022,-8.248313917841815,-4.706315144083384,2.0,1.9406593406593406,515.2887882219705,0.01165433249810621,0.08274576073655357,-0.1502243459005885,1336.9963369963368,-1.0,53.28563297829092,1.9436274733977978,
2023-08-10 18:37:59.883000,-8.433734939759036,0.20481927710843376,-5.0361445783132535,0.35561005518087063,-8.304721030042918,-4.713672593500919,2.0,1.9406593406593406,515.2887882219705,0.0587378357904544,0.28086941320435915,0.01724841209719721,1336.263736263736,-1.0,53.28563297829092,1.9436094835452986,
2023-08-10 18:37:59.890000,-8.433734939759036,0.20481927710843376,-5.024096385542169,0.2869405272838749,-8.22378908645003,-4.689147762109135,2.0,1.9406593406593406,515.2887882219705,-0.04836547986714086,0.37025814346483255,0.15465299224986895,1334.7985347985348,-1.0,53.28563297829092,1.9435915032480011,
2023-08-10 18:37:59.898000,-8.44578313253012,0.18072289156626506,-5.024096385542169,0.24770079705702022,-8.312078479460453,-4.721030042918454,2.0,1.9421245421245423,514.9000377216145,-0.04871510984208337,0.36781073364023154,0.15057397587553187,1336.9963369963368,-1.0,53.28563297829092,1.9435735253522852,
2023-08-10 18:37:59.906000,-8.433734939759036,0.20481927710843376,-5.024096385542169,0.31882280809319435,-8.280196198651133,-4.659717964438994,2.0,1.9406593406593406,515.2887882219705,0.18017598042072205,0.16689004137288066,0.04265485694306859,1339.194139194139,-1.0,53.28563297829092,1.9435555425466533,
2023-08-10 18:37:59.913000,-8.409638554216867,0.18072289156626506,-5.0120481927710845,0.2869405272838749,-8.329245861434702,-4.676885346413243,2.0,1.9421245421245423,514.9000377216145,-0.08088106753685671,-0.06398228541460245,-0.004661732999242571,1339.9267399267399,-1.0,53.28563297829092,1.9435375474932763,
2023-08-10 18:37:59.921000,-8.421686746987952,0.20481927710843376,-4.9879518072289155,0.3016554261189454,-8.280196198651133,-4.733292458614347,2.0,1.9421245421245423,514.9000377216145,-0.21828564768952846,-0.03507954081929947,0.08740749373579615,1339.9267399267399,-1.0,53.28563297829092,1.9435195327863353,
2023-08-10 18:37:59.929000,-8.433734939759036,0.1927710843373494,-5.024096385542169,0.37768240343347637,-8.280196198651133,-4.686695278969957,2.0,1.9421245421245423,514.9000377216145,-0.0018646931996968547,0.26898199405629125,0.13274284715342918,1337.7289377289376,-1.0,53.28563297829092,1.9435014915426492,
2023-08-10 18:37:59.936000,-8.409638554216867,0.18072289156626506,-5.024096385542169,0.2844880441446965,-8.265481299816063,-4.664622930717351,2.0,1.9421245421245423,514.9000377216145,-0.12446827107977461,0.17667968067129,0.07004253831361809,1334.7985347985348,-1.0,53.28563297829092,1.9434834169405397,
2023-08-10 18:37:59.944000,-8.409638554216867,0.1927710843373494,-5.0120481927710845,0.2550582464745555,-8.233599019006745,-4.716125076640098,2.0,1.9406593406593406,515.2887882219705,0.2288910902628054,0.08123069751179923,0.039624730493560766,1331.135531135531,-1.0,53.28563297829092,1.9434653018289003,
2023-08-10 18:37:59.952000,-8.409638554216867,0.1927710843373494,-5.0361445783132535,0.24770079705702022,-8.324340895156345,-4.69650521152667,2.0,1.9406593406593406,515.2887882219705,0.08880601363556921,0.15616805547462287,0.1299458073538839,1327.4725274725274,-1.0,53.28563297829092,1.943447139215461,
2023-08-10 18:37:59.959000,-8.397590361445783,0.18072289156626506,-5.048192771084338,0.2918454935622317,-8.280196198651133,-4.689147762109135,2.0,1.9421245421245423,514.9000377216145,0.2851815162286588,0.09265194335994377,-0.08519317056115591,1320.14652014652,-1.0,53.28563297829092,1.9434289217006084,
2023-08-10 18:37:59.967000,-8.421686746987952,0.18072289156626506,-5.048192771084338,0.2673206621704476,-8.218884120171673,-4.738197424892704,2.0,1.9406593406593406,515.2887882219705,0.15931472524911067,0.08927218693549256,0.20465007866674456,1311.3553113553112,-1.0,53.28563297829092,1.9434106424908417,
2023-08-10 18:37:59.975000,-8.409638554216867,0.20481927710843376,-5.0361445783132535,0.3237277743715512,-8.253218884120171,-4.701410177805028,2.0,1.9421245421245423,514.9000377216145,-0.024823728220966765,0.22399627061359986,-0.026921508070625294,1304.0293040293038,-1.0,53.28563297829092,1.9433922954290768,
2023-08-10 18:37:59.982000,-8.409638554216867,0.1927710843373494,-5.0,0.2844880441446965,-8.336603310852237,-4.684242795830778,2.0,1.9421245421245423,514.9000377216145,0.2041839053668195,0.130178894003846,-0.04230522696812521,1298.9010989010987,-1.0,53.28563297829092,1.9433738740416568,
2023-08-10 18:37:59.990000,-8.44578313253012,0.18072289156626506,-5.024096385542169,0.2820355610055181,-8.321888412017167,-4.706315144083384,2.0,1.9421245421245423,514.9000377216145,-0.13227667385350453,0.06841093176388291,0.17190140434706616,1298.168498168498,-1.0,53.28563297829092,1.9433553721646304,
2023-08-10 18:37:59.998000,-8.433734939759036,0.18072289156626506,-5.0361445783132535,0.2599632127529123,-8.339055793991417,-4.664622930717351,2.0,1.9406593406593406,515.2887882219705,-0.14521298292640342,-0.11584406503117535,0.20115377891731254,1296.7032967032967,-1.0,53.28563297829092,1.9433367844654712,
2023-08-10 18:38:00.005000,-8.409638554216867,0.20481927710843376,-5.048192771084338,0.2452483139178418,-8.343960760269773,-4.738197424892704,2.0,1.9421245421245423,514.9000377216145,-0.1741157275217064,0.11269739525668582,-0.05920400909037948,1296.7032967032967,-1.0,53.28563297829092,1.9433181059121738,
2023-08-10 18:38:00.013000,-8.433734939759036,0.18072289156626506,-5.048192771084338,0.299202942979767,-8.326793378295523,-4.708767627222563,2.0,1.9421245421245423,514.9000377216145,-0.3108210477244914,-0.14731076277606195,-0.11910727813064528,1296.7032967032967,-1.0,53.28563297829092,1.943299331734213,
2023-08-10 18:38:00.021000,-8.397590361445783,0.18072289156626506,-5.048192771084338,0.29429797670141017,-8.233599019006745,-4.716125076640098,2.0,1.9406593406593406,515.2887882219705,-0.4763125691975985,0.03752695064390224,0.29450498222714305,1295.970695970696,-1.0,53.28563297829092,1.9432804575213494,
2023-08-10 18:38:00.028000,-8.421686746987952,0.1927710843373494,-5.024096385542169,0.3261802575107296,-8.265481299816063,-4.725935009196811,2.0,1.9406593406593406,515.2887882219705,-0.045684983392576414,0.06771167181399616,-0.04498572344268966,1295.970695970696,-1.0,53.28563297829092,1.9432614792865681,
2023-08-10 18:38:00.036000,-8.397590361445783,0.1927710843373494,-5.0361445783132535,0.24770079705702022,-8.245861434702636,-4.711220110361741,2.0,1.9406593406593406,515.2887882219705,-0.12283666453003943,-0.17842783054600603,-0.13717149350270966,1294.5054945054944,-1.0,53.28563297829092,1.9432423933191547,
2023-08-10 18:38:00.044000,-8.433734939759036,0.20481927710843376,-5.048192771084338,0.24770079705702022,-8.28755364806867,-4.691600245248313,2.0,1.9406593406593406,515.2887882219705,-0.030068177845113085,0.40195792785968254,-0.10570479575782304,1292.3076923076922,-1.0,53.28563297829092,1.9432231957517903,
2023-08-10 18:38:00.051000,-8.433734939759036,0.1927710843373494,-5.024096385542169,0.3041079092581238,-8.280196198651133,-4.684242795830778,2.0,1.9406593406593406,515.2887882219705,0.10617096905774683,-0.029485461220208904,0.09405046325971683,1288.6446886446886,-1.0,53.28563297829092,1.9432038830735132,
2023-08-10 18:38:00.059000,-8.421686746987952,0.18072289156626506,-5.0120481927710845,0.30901287553648066,-8.31698344573881,-4.711220110361741,2.0,1.9421245421245423,514.9000377216145,-0.3228250101975401,0.18308956354524816,0.03228250101975418,1284.9816849816848,-1.0,53.28563297829092,1.9431844521478516,
2023-08-10 18:38:00.066000,-8.421686746987952,0.18072289156626506,-5.0361445783132535,0.3163703249540159,-8.267933782955241,-4.723482526057633,2.0,1.9421245421245423,514.9000377216145,-0.10663714235767191,0.026804964745644456,-0.21257502476545664,1282.051282051282,-1.0,53.28563297829092,1.9431649007213811,
2023-08-10 18:38:00.074000,-8.397590361445783,0.1927710843373494,-5.0361445783132535,0.328632740649908,-8.25567136725935,-4.6817903126916,2.0,1.9406593406593406,515.2887882219705,-0.028086941320435394,-0.06479808868947004,0.12575024765456555,1280.5860805860805,1164.306640625,51.53281610400503,1.943145227509515,
2023-08-10 18:38:00.082000,-8.397590361445783,0.1927710843373494,-5.024096385542169,0.2918454935622317,-8.24095646842428,-4.664622930717351,2.0,1.9406593406593406,515.2887882219705,0.1414835965270097,0.2259775071382793,0.1409008799021038,1282.051282051282,-1.0,51.53281610400503,1.9431254312627828,
2023-08-10 18:38:00.089000,-8.409638554216867,0.1927710843373494,-5.0361445783132535,0.2918454935622317,-8.285101164929491,-4.713672593500919,2.0,1.9406593406593406,515.2887882219705,-0.05803857584056938,0.0071091428238449095,0.3520773847677873,1282.051282051282,-1.0,51.53281610400503,1.9431055107096962,
2023-08-10 18:38:00.097000,-8.421686746987952,0.20481927710843376,-5.024096385542169,0.27713059472716123,-8.248313917841815,-4.6695278969957075,2.0,1.9406593406593406,515.2887882219705,0.11118233203193321,0.05069634636676106,-0.0011654332498105342,1283.5164835164835,-1.0,51.53281610400503,1.9430854650222993,
2023-08-10 18:38:00.105000,-8.421686746987952,0.18072289156626506,-5.0,0.2844880441446965,-8.265481299816063,-4.750459840588595,2.0,1.9406593406593406,515.2887882219705,0.27748965677990794,0.06654623856418607,-0.0023308664996210685,1286.4468864468863,-1.0,51.53281610400503,1.9430652938213935,
2023-08-10 18:38:00.112000,-8.397590361445783,0.1927710843373494,-5.0361445783132535,0.2893930104230533,-8.265481299816063,-4.698957694665849,2.0,1.9421245421245423,514.9000377216145,-0.04720004661733076,0.09451663655964061,0.08670823378590982,1288.6446886446886,-1.0,51.53281610400503,1.9430449971792962,
2023-08-10 18:38:00.120000,-8.409638554216867,0.20481927710843376,-5.024096385542169,0.26486817903126914,-8.297363580625383,-4.691600245248313,2.0,1.9421245421245423,514.9000377216145,0.01503408892255741,0.12260357788007775,0.08391119398636454,1290.10989010989,-1.0,51.53281610400503,1.943024576112822,
2023-08-10 18:38:00.128000,-8.421686746987952,0.20481927710843376,-5.0361445783132535,0.24034334763948498,-8.27038626609442,-4.698957694665849,2.0,1.9406593406593406,515.2887882219705,0.24380863586038026,0.28891090262805247,0.08239613076161063,1288.6446886446886,-1.0,51.53281610400503,1.9430040326533677,
2023-08-10 18:38:00.135000,-8.421686746987952,0.1927710843373494,-5.0361445783132535,0.2722256284488044,-8.282648681790313,-4.694052728387492,2.0,1.9406593406593406,515.2887882219705,0.18075869704562622,0.10232503933337228,0.004894819649204678,1283.5164835164835,-1.0,51.53281610400503,1.94298336889745,
2023-08-10 18:38:00.143000,-8.397590361445783,0.20481927710843376,-5.024096385542169,0.2795830778663397,-8.263028816676885,-4.782342121397915,2.0,1.9406593406593406,515.2887882219705,0.025989161470776866,0.04079016374337087,0.279820523279529,1279.120879120879,-1.0,51.53281610400503,1.9429625869338798,
2023-08-10 18:38:00.151000,-8.433734939759036,0.18072289156626506,-5.0120481927710845,0.299202942979767,-8.292458614347026,-4.725935009196811,2.0,1.9406593406593406,515.2887882219705,0.1165433249810621,-0.17306683759687713,-0.01153778917312494,1274.7252747252746,-1.0,51.53281610400503,1.9429416892937623,
2023-08-10 18:38:00.158000,-8.457831325301205,0.18072289156626506,-5.048192771084338,0.25015328019619865,-8.28755364806867,-4.740649908031882,2.0,1.9406593406593406,515.2887882219705,0.08635860381096644,0.3167647572985262,-0.07365538138803097,1273.260073260073,-1.0,51.53281610400503,1.9429206789403781,
2023-08-10 18:38:00.166000,-8.421686746987952,0.18072289156626506,-5.0602409638554215,0.32127529123237275,-8.351318209687308,-4.725935009196811,2.0,1.9406593406593406,515.2887882219705,0.02703805139560613,-0.0680613017889404,0.29322300565235127,1273.260073260073,-1.0,51.53281610400503,1.94289955925691,
2023-08-10 18:38:00.174000,-8.421686746987952,0.20481927710843376,-5.0602409638554215,0.2869405272838749,-8.27038626609442,-4.659717964438994,2.0,1.9391941391941392,515.6781261805818,0.027737311345492885,-0.07015908163859894,0.29322300565235127,1273.9926739926739,-1.0,51.53281610400503,1.9428783340320985,
2023-08-10 18:38:00.181000,-8.409638554216867,0.16867469879518074,-5.0,0.2918454935622317,-8.290006131207848,-4.725935009196811,2.0,1.9406593406593406,515.2887882219705,0.33424625604568464,0.1259833343045272,-0.07575316123768994,1277.6556776556777,-1.0,51.53281610400503,1.9428570074091425,
2023-08-10 18:38:00.189000,-8.421686746987952,0.18072289156626506,-5.0361445783132535,0.2722256284488044,-8.285101164929491,-4.671980380134887,2.0,1.9406593406593406,515.2887882219705,0.3158324106986778,-0.2118757648155703,-0.04300448691801197,1282.7838827838827,-1.0,51.53281610400503,1.9428355837628994,
2023-08-10 18:38:00.197000,-8.433734939759036,0.1927710843373494,-5.0361445783132535,0.30901287553648066,-8.309625996321275,-4.72838749233599,2.0,1.9406593406593406,515.2887882219705,0.06864401841384458,-0.15162286580036158,-0.058388205815511886,1288.6446886446886,-1.0,51.53281610400503,1.94281406824125,
2023-08-10 18:38:00.204000,-8.433734939759036,0.16867469879518074,-5.048192771084338,0.2893930104230533,-8.184549356223176,-4.748007357449417,2.0,1.9406593406593406,515.2887882219705,0.037060777343977155,-0.15022434590058806,0.1707359710972552,1294.5054945054944,-1.0,51.53281610400503,1.9427924667099175,
2023-08-10 18:38:00.212000,-8.421686746987952,0.16867469879518074,-5.024096385542169,0.26486817903126914,-8.312078479460453,-4.63519313304721,2.0,1.9406593406593406,515.2887882219705,-0.010022725948371029,0.037293863993940565,-0.1494085426257209,1295.970695970696,-1.0,51.53281610400503,1.9427707847820723,
2023-08-10 18:38:00.220000,-8.409638554216867,0.16867469879518074,-5.024096385542169,0.20846106683016552,-8.27038626609442,-4.708767627222563,2.0,1.9406593406593406,515.2887882219705,0.0048948196492038095,0.20569896859157383,-0.11712604160596715,1295.2380952380952,-1.0,51.53281610400503,1.942749027863832,
2023-08-10 18:38:00.227000,-8.409638554216867,0.18072289156626506,-5.0120481927710845,0.299202942979767,-8.206621704475781,-4.708767627222563,2.0,1.9406593406593406,515.2887882219705,0.15640114212458453,-0.037760037293863916,-0.023075578346250313,1295.2380952380952,-1.0,51.53281610400503,1.9427272016191508,
2023-08-10 18:38:00.235000,-8.397590361445783,0.16867469879518074,-5.0,0.3041079092581238,-8.204169221336603,-4.686695278969957,2.0,1.9406593406593406,515.2887882219705,-0.4098828739583933,0.11386282850649766,0.23798146961132802,1296.7032967032967,-1.0,51.53281610400503,1.9427053119411486,
2023-08-10 18:38:00.243000,-8.409638554216867,0.21686746987951808,-5.024096385542169,0.3163703249540159,-8.294911097486205,-4.723482526057633,2.0,1.9406593406593406,515.2887882219705,-0.1475438494260236,0.26408717440708573,0.11572752170619408,1299.6336996336995,-1.0,51.53281610400503,1.9426833649227395,
2023-08-10 18:38:00.250000,-8.421686746987952,0.20481927710843376,-5.0120481927710845,0.2795830778663397,-8.321888412017167,-4.647455548743102,2.0,1.9406593406593406,515.2887882219705,-0.14637841617621353,0.18425499679505827,-0.16024707184895995,1302.5641025641025,-1.0,51.53281610400503,1.9426613668267587,
2023-08-10 18:38:00.258000,-8.433734939759036,0.20481927710843376,-5.0120481927710845,0.3139178418148375,-8.282648681790313,-4.698957694665849,2.0,1.9406593406593406,515.2887882219705,0.08414428063632708,0.6247887652234723,-0.03741040731892097,1303.2967032967033,-1.0,51.53281610400503,1.9426393240557838,
2023-08-10 18:38:00.266000,-8.457831325301205,0.1927710843373494,-5.072289156626506,0.3139178418148375,-8.292458614347026,-4.674432863274065,2.0,1.9406593406593406,515.2887882219705,0.11211467863178164,0.17458190082162975,-0.1299458073538839,1301.8315018315018,-1.0,51.53281610400503,1.9426172431218622,
2023-08-10 18:38:00.273000,-8.457831325301205,0.1927710843373494,-5.0361445783132535,0.26241569589209074,-8.250766400980993,-4.698957694665849,2.0,1.9406593406593406,515.2887882219705,0.15686731542450963,0.20336810209195189,-0.1131635685566109,1298.9010989010987,-1.0,51.53281610400503,1.9425951306163212,
2023-08-10 18:38:00.281000,-8.44578313253012,0.18072289156626506,-5.0361445783132535,0.3016554261189454,-8.28755364806867,-4.721030042918454,2.0,1.9406593406593406,515.2887882219705,0.1865858632946802,0.5495017772857061,-0.26525260765689623,1294.5054945054944,-1.0,51.53281610400503,1.9425729936377503,
2023-08-10 18:38:00.289000,-8.421686746987952,0.21686746987951808,-5.0120481927710845,0.26486817903126914,-8.263028816676885,-4.703862660944206,2.0,1.9406593406593406,515.2887882219705,0.2150224345900581,-0.0802983509119508,-0.14078433657712253,1293.040293040293,-1.0,51.53281610400503,1.942550839237459,
2023-08-10 18:38:00.296000,-8.397590361445783,0.20481927710843376,-5.0843373493975905,0.33353770692826484,-8.265481299816063,-4.784794604537094,2.0,1.9406593406593406,515.2887882219705,0.0916030534351145,-0.09591515645941413,-0.02995163452013268,1293.040293040293,-1.0,51.53281610400503,1.942528673969609,
2023-08-10 18:38:00.304000,-8.421686746987952,0.1927710843373494,-5.072289156626506,0.3139178418148375,-8.299816063764561,-4.713672593500919,2.0,1.9406593406593406,515.2887882219705,-0.014451372297651493,-0.3676941903152489,-0.041372880368276785,1290.8424908424909,-1.0,51.53281610400503,1.942506504355328,
2023-08-10 18:38:00.312000,-8.3855421686747,0.20481927710843376,-5.0843373493975905,0.29429797670141017,-8.272838749233598,-4.738197424892704,2.0,1.9406593406593406,515.2887882219705,-0.18448808344501993,-0.05967018239030283,0.21735330108968004,1290.10989010989,-1.0,51.53281610400503,1.9424843368551838,
2023-08-10 18:38:00.319000,-8.3855421686747,0.20481927710843376,-5.0602409638554215,0.25260576333537704,-8.253218884120171,-4.718577559779276,2.0,1.9406593406593406,515.2887882219705,-0.35067886486801386,-0.07027562496357977,0.1550026222248119,1295.2380952380952,-1.0,51.53281610400503,1.9424621778428428,
2023-08-10 18:38:00.327000,-8.3855421686747,0.1927710843373494,-5.096385542168675,0.24770079705702022,-8.228694052728388,-4.691600245248313,2.0,1.9391941391941392,515.6781261805818,-0.16479226152322038,-0.005827166249052237,0.3821455626129013,1307.6923076923076,-1.0,51.53281610400503,1.9424400335800882,
2023-08-10 18:38:00.335000,-8.397590361445783,0.18072289156626506,-5.0361445783132535,0.2820355610055181,-8.329245861434702,-4.671980380134887,2.0,1.9391941391941392,515.6781261805818,-0.2396130761610632,0.29963288852631026,0.2729444671056466,1332.6007326007325,-1.0,51.53281610400503,1.9424179101585446,
2023-08-10 18:38:00.342000,-8.409638554216867,0.18072289156626506,-5.0602409638554215,0.33108522378908645,-8.277743715511955,-4.730839975475169,2.0,1.9391941391941392,515.6781261805818,-0.12924654740399757,0.3559233144921619,-0.03496299749431863,1375.8241758241757,-1.0,51.53281610400503,1.9423958133384034,
2023-08-10 18:38:00.350000,-8.421686746987952,0.1927710843373494,-5.024096385542169,0.35561005518087063,-8.292458614347026,-4.647455548743102,2.0,1.9406593406593406,515.2887882219705,0.0071091428238449095,0.260357788007692,0.08554280053609929,1440.2930402930401,-1.0,51.53281610400503,1.9423737484922967,
2023-08-10 18:38:00.358000,-8.46987951807229,0.21686746987951808,-5.0120481927710845,0.3016554261189454,-8.329245861434702,-4.645003065603924,2.0,1.9406593406593406,515.2887882219705,-0.33086649962123343,-0.24672221898490812,0.12878037410407336,1521.6117216117216,-1.0,51.53281610400503,1.9423517210772543,
2023-08-10 18:38:00.365000,-8.457831325301205,0.1927710843373494,-5.0,0.29675045984058857,-8.282648681790313,-4.735744941753525,2.0,1.9406593406593406,515.2887882219705,-0.12924654740399757,-9.323465998484274E-4,-0.22551133383835423,1619.7802197802196,-1.0,51.53281610400503,1.9423297366869494,
2023-08-10 18:38:00.373000,-8.433734939759036,0.1927710843373494,-5.0120481927710845,0.25260576333537704,-8.31698344573881,-4.698957694665849,2.0,1.9406593406593406,515.2887882219705,-0.1604801584989225,0.044752636792727986,0.10815220558242539,1732.6007326007325,-1.0,51.53281610400503,1.9423078001224612,
2023-08-10 18:38:00.381000,-8.433734939759036,0.20481927710843376,-5.0361445783132535,0.2575107296137339,-8.263028816676885,-4.689147762109135,2.0,1.9406593406593406,515.2887882219705,-0.23728220966144126,-0.20068760561738744,-0.032981760969640506,1852.0146520146518,-1.0,51.53281610400503,1.9422859154476613,
2023-08-10 18:38:00.388000,-8.409638554216867,0.1927710843373494,-5.0120481927710845,0.26486817903126914,-8.231146535867566,-4.723482526057633,2.0,1.9406593406593406,515.2887882219705,0.2973020220266883,-0.1250509877046788,0.1344909970281452,1968.4981684981683,-1.0,51.53281610400503,1.9422640869253327,
2023-08-10 18:38:00.396000,-8.409638554216867,0.21686746987951808,-5.024096385542169,0.21827099938687922,-8.14530962599632,-4.691600245248313,2.0,1.9406593406593406,515.2887882219705,-0.19521006934327773,-0.215605151214964,0.1019754093584289,2072.5274725274726,-1.0,51.53281610400503,1.9422423189379536,
2023-08-10 18:38:00.404000,-8.373493975903616,0.20481927710843376,-5.0602409638554215,0.2918454935622317,-8.191906805640711,-4.740649908031882,2.0,1.9406593406593406,515.2887882219705,0.08297884738651524,0.09195268341005701,0.07050871161354232,2162.6373626373625,-1.0,51.53281610400503,1.9422206150320418,
2023-08-10 18:38:00.411000,-8.373493975903616,0.16867469879518074,-5.024096385542169,0.328632740649908,-8.280196198651133,-4.735744941753525,2.0,1.9406593406593406,515.2887882219705,-0.13239321717848537,-0.12027271138045581,0.11665986830604294,2234.4322344322345,-1.0,51.53281610400503,1.9421989784401155,
2023-08-10 18:38:00.419000,-8.409638554216867,0.1566265060240964,-5.0120481927710845,0.2869405272838749,-8.258123850398528,-4.708767627222563,2.0,1.9406593406593406,515.2887882219705,0.0067595128489024,0.09521589650952737,0.17726239729619506,2283.5164835164833,-1.0,51.53281610400503,1.9421774120427868,
2023-08-10 18:38:00.427000,-8.3855421686747,0.1566265060240964,-5.048192771084338,0.26486817903126914,-8.275291232372776,-4.711220110361741,2.0,1.9406593406593406,515.2887882219705,-0.08507662723617551,0.55439659693491,0.3600023308664994,2306.9597069597066,-1.0,51.53281610400503,1.9421559179448658,
2023-08-10 18:38:00.434000,-8.409638554216867,0.18072289156626506,-5.0120481927710845,0.23543838136112813,-8.260576333537706,-4.711220110361741,2.0,1.9406593406593406,515.2887882219705,0.11211467863178164,0.138453470077501,0.15931472524911153,2306.227106227106,-1.0,51.53281610400503,1.9421344984251856,
2023-08-10 18:38:00.442000,-8.433734939759036,0.1927710843373494,-5.0361445783132535,0.2795830778663397,-8.250766400980993,-4.708767627222563,2.0,1.9406593406593406,515.2887882219705,0.03321484761960261,0.4101159606083567,0.3565060311170678,2281.3186813186812,-1.0,51.53281610400503,1.942113155871325,
2023-08-10 18:38:00.449000,-8.457831325301205,0.18072289156626506,-5.0120481927710845,0.269773145309626,-8.351318209687308,-4.676885346413243,2.0,1.9406593406593406,515.2887882219705,0.02925237457024723,0.405337684284132,0.35347590466755996,2235.164835164835,-1.0,51.53281610400503,1.9420918918380334,
2023-08-10 18:38:00.457000,-8.433734939759036,0.16867469879518074,-5.0,0.2918454935622317,-8.280196198651133,-4.706315144083384,2.0,1.9406593406593406,515.2887882219705,-0.1250509877046788,0.41501078025756055,0.3037119049006469,2171.428571428571,-1.0,51.53281610400503,1.94207070712545,
2023-08-10 18:38:00.465000,-8.433734939759036,0.20481927710843376,-5.048192771084338,0.31882280809319435,-8.248313917841815,-4.708767627222563,2.0,1.9406593406593406,515.2887882219705,0.057572402540644295,0.11817493153079728,0.08764058038575825,2095.238095238095,-1.0,51.53281610400503,1.9420496022804026,
2023-08-10 18:38:00.472000,-8.44578313253012,0.1927710843373494,-5.0361445783132535,0.2599632127529123,-8.282648681790313,-4.723482526057633,2.0,1.9406593406593406,515.2887882219705,0.2235300973136765,0.16071324514888416,0.008158032748674174,2011.7216117216117,-1.0,51.53281610400503,1.9420285780654554,
2023-08-10 18:38:00.480000,-8.421686746987952,0.1927710843373494,-5.0602409638554215,0.2893930104230533,-8.221336603310851,-4.711220110361741,2.0,1.9391941391941392,515.6781261805818,-0.4200221432317469,-0.10279121263329563,-0.3612843074412912,1922.344322344322,-1.0,51.53281610400503,1.94200763494743,
2023-08-10 18:38:00.488000,-8.409638554216867,0.1927710843373494,-5.048192771084338,0.29429797670141017,-8.267933782955241,-4.735744941753525,2.0,1.9391941391941392,515.6781261805818,0.07283957811316338,0.0340306508944702,-0.19089796631897896,1834.4322344322343,-1.0,51.53281610400503,1.9419867731153797,
2023-08-10 18:38:00.495000,-8.421686746987952,0.1927710843373494,-5.048192771084338,0.33108522378908645,-8.204169221336603,-4.701410177805028,2.0,1.9391941391941392,515.6781261805818,-0.04859856651710253,0.03531262746926114,0.025872618145795594,1746.5201465201465,-1.0,51.53281610400503,1.9419659923263302,
2023-08-10 18:38:00.503000,-8.421686746987952,0.21686746987951808,-5.0843373493975905,0.2820355610055181,-8.260576333537706,-4.762722256284488,2.0,1.9406593406593406,515.2887882219705,0.10687022900763359,0.17399918419672555,0.3009148651011012,1664.4688644688645,-1.0,51.53281610400503,1.9419452914678672,
2023-08-10 18:38:00.511000,-8.397590361445783,0.20481927710843376,-5.0361445783132535,0.2550582464745555,-8.265481299816063,-4.676885346413243,2.0,1.9406593406593406,515.2887882219705,0.09335120330983052,0.05127906299166698,0.05594079599090955,1591.2087912087911,-1.0,51.53281610400503,1.9419246695620767,
2023-08-10 18:38:00.518000,-8.421686746987952,0.20481927710843376,-5.048192771084338,0.2673206621704476,-8.280196198651133,-4.752912323727774,2.0,1.9391941391941392,515.6781261805818,-0.026804964745644456,0.26362100110716236,0.11607715168113746,1526.7399267399267,-1.0,51.53281610400503,1.9419041258569647,
2023-08-10 18:38:00.526000,-8.421686746987952,0.20481927710843376,-5.0602409638554215,0.3139178418148375,-8.28755364806867,-4.716125076640098,2.0,1.9406593406593406,515.2887882219705,0.08111415418681839,0.3539420779674842,0.08426082396130749,1471.7948717948716,-1.0,51.53281610400503,1.9418836589012243,
2023-08-10 18:38:00.534000,-8.421686746987952,0.20481927710843376,-5.072289156626506,0.34825260576333533,-8.292458614347026,-4.755364806866953,2.0,1.9406593406593406,515.2887882219705,-0.1956762426432028,0.4095332439834508,0.3129188275741508,1425.6410256410256,-1.0,51.53281610400503,1.9418632669910412,
2023-08-10 18:38:00.541000,-8.421686746987952,0.20481927710843376,-5.0361445783132535,0.2575107296137339,-8.314530962599632,-4.706315144083384,2.0,1.9406593406593406,515.2887882219705,-0.11864110483072063,0.5434415243866905,-0.02703805139560613,1390.4761904761904,-1.0,51.53281610400503,1.941842948721784,
2023-08-10 18:38:00.549000,-8.421686746987952,0.18072289156626506,-5.0361445783132535,0.32127529123237275,-8.258123850398528,-4.654812998160637,2.0,1.9391941391941392,515.6781261805818,-0.1335586504282972,0.09381737660975387,-0.07528698793776573,1364.8351648351647,-1.0,51.53281610400503,1.941822702557445,
2023-08-10 18:38:00.557000,-8.409638554216867,0.1927710843373494,-5.0361445783132535,0.34580012262415694,-8.201716738197424,-4.725935009196811,2.0,1.9406593406593406,515.2887882219705,-0.00967309597342852,0.04440300681778374,-0.07575316123768994,1347.985347985348,-1.0,51.53281610400503,1.9418025263659018,
2023-08-10 18:38:00.564000,-8.421686746987952,0.16867469879518074,-5.0120481927710845,0.2722256284488044,-8.238503985285101,-4.679337829552422,2.0,1.9391941391941392,515.6781261805818,0.15896509527416816,-0.33960724899481354,-0.1062875123827281,1339.194139194139,-1.0,51.53281610400503,1.9417824178677798,
2023-08-10 18:38:00.572000,-8.421686746987952,0.18072289156626506,-5.024096385542169,0.2722256284488044,-8.258123850398528,-4.698957694665849,2.0,1.9391941391941392,515.6781261805818,0.08099761086183756,-0.15616805547462287,-0.15127323582541818,1336.9963369963368,-1.0,51.53281610400503,1.9417623746969934,
2023-08-10 18:38:00.580000,-8.421686746987952,0.16867469879518074,-5.048192771084338,0.29429797670141017,-8.245861434702636,-4.733292458614347,2.0,1.9406593406593406,515.2887882219705,0.35440825126740927,-0.0170153254472351,-0.36466406386574196,1339.9267399267399,-1.0,51.53281610400503,1.9417423938989546,
2023-08-10 18:38:00.587000,-8.421686746987952,0.1927710843373494,-5.0602409638554215,0.23053341508277128,-8.233599019006745,-4.686695278969957,2.0,1.9391941391941392,515.6781261805818,0.18378882349513492,0.04382029019287956,0.04906473981702718,1342.8571428571427,-1.0,51.53281610400503,1.9417224729038638,
2023-08-10 18:38:00.595000,-8.409638554216867,0.1927710843373494,-5.0602409638554215,0.3041079092581238,-8.275291232372776,-4.671980380134887,2.0,1.9391941391941392,515.6781261805818,0.3185129071732422,0.44030068177845066,-0.18087524037060793,1343.5897435897434,-1.0,51.53281610400503,1.9417026091282845,
2023-08-10 18:38:00.603000,-8.397590361445783,0.18072289156626506,-5.048192771084338,0.269773145309626,-8.238503985285101,-4.757817290006131,2.0,1.9391941391941392,515.6781261805818,0.28378299632888526,0.2961365887768782,0.3084901812248703,1343.5897435897434,-1.0,51.53281610400503,1.9416827994718884,
2023-08-10 18:38:00.610000,-8.409638554216867,0.16867469879518074,-5.0602409638554215,0.2844880441446965,-8.236051502145923,-4.72838749233599,2.0,1.9391941391941392,515.6781261805818,0.2955538721519723,0.29205757240254027,0.07621933453761415,1341.3919413919414,-1.0,51.53281610400503,1.941663040796255,
2023-08-10 18:38:00.618000,-8.421686746987952,0.18072289156626506,-5.0361445783132535,0.27467811158798283,-8.258123850398528,-4.694052728387492,2.0,1.9391941391941392,515.6781261805818,0.14043470660217872,0.3936833517860258,0.13542334362799363,1335.5311355311355,-1.0,51.53281610400503,1.9416433299447604,
2023-08-10 18:38:00.626000,-8.409638554216867,0.1927710843373494,-5.0361445783132535,0.2918454935622317,-8.280196198651133,-4.716125076640098,2.0,1.9406593406593406,515.2887882219705,0.15476953557484935,0.2515004953091311,-0.004428646349280464,1331.135531135531,-1.0,51.53281610400503,1.9416236637613402,
2023-08-10 18:38:00.633000,-8.44578313253012,0.1927710843373494,-5.024096385542169,0.3384426732066217,-8.290006131207848,-4.698957694665849,2.0,1.9391941391941392,515.6781261805818,0.138453470077501,0.4309772157799664,0.2842491696288095,1326.7399267399267,-1.0,51.53281610400503,1.9416040396006924,
2023-08-10 18:38:00.641000,-8.44578313253012,0.21686746987951808,-5.0361445783132535,0.35806253832004903,-8.299816063764561,-4.679337829552422,2.0,1.9391941391941392,515.6781261805818,0.138453470077501,0.09148651011013366,-0.024474098246022955,1323.8095238095236,-1.0,51.53281610400503,1.9415844553819337,
2023-08-10 18:38:00.649000,-8.433734939759036,0.20481927710843376,-5.024096385542169,0.3408951563458001,-8.294911097486205,-4.740649908031882,2.0,1.9391941391941392,515.6781261805818,-0.22737602703805107,0.15185595245032324,0.021443971796515564,1322.3443223443223,-1.0,51.53281610400503,1.9415649085538855,
2023-08-10 18:38:00.656000,-8.421686746987952,0.22891566265060243,-5.024096385542169,0.34580012262415694,-8.309625996321275,-4.74310239117106,2.0,1.9391941391941392,515.6781261805818,-0.08752403706077655,0.12038925470543665,-0.038575840568731506,1322.3443223443223,-1.0,51.53281610400503,1.9415453961459503,
2023-08-10 18:38:00.664000,-8.409638554216867,0.20481927710843376,-5.024096385542169,0.25015328019619865,-8.294911097486205,-4.711220110361741,2.0,1.9391941391941392,515.6781261805818,-0.11526134840626943,-0.2312219567624256,-0.17609696404638409,1323.8095238095236,-1.0,51.53281610400503,1.9415259152727904,
2023-08-10 18:38:00.672000,-8.3855421686747,0.1927710843373494,-5.048192771084338,0.2893930104230533,-8.250766400980993,-4.701410177805028,2.0,1.9391941391941392,515.6781261805818,-0.037060777343977155,-0.18367228017015408,-0.14579569955130803,1326.007326007326,-1.0,51.53281610400503,1.9415064631448544,
2023-08-10 18:38:00.679000,-8.397590361445783,0.1927710843373494,-5.072289156626506,0.35806253832004903,-8.294911097486205,-4.708767627222563,2.0,1.9391941391941392,515.6781261805818,0.16152904842375176,0.12330283782996276,-0.054425732766155636,1330.4029304029302,-1.0,51.53281610400503,1.9414870370773858,
2023-08-10 18:38:00.687000,-8.397590361445783,0.20481927710843376,-5.048192771084338,0.3261802575107296,-8.250766400980993,-4.657265481299816,2.0,1.9391941391941392,515.6781261805818,-0.03915855719363742,0.07248994813822088,-0.1614125050987705,1337.7289377289376,-1.0,51.53281610400503,1.9414676344979347,
2023-08-10 18:38:00.695000,-8.397590361445783,0.21686746987951808,-5.0602409638554215,0.3384426732066217,-8.243408951563458,-4.713672593500919,2.0,1.9391941391941392,515.6781261805818,-0.02365829497115493,0.12924654740399757,-0.05465881941611774,1346.5201465201465,-1.0,51.53281610400503,1.94144825295237,
2023-08-10 18:38:00.702000,-8.397590361445783,0.20481927710843376,-5.048192771084338,0.3237277743715512,-8.290006131207848,-4.811771919068057,2.0,1.9391941391941392,515.6781261805818,-0.099527999533827,0.3873900122370485,-0.05722277256570135,1353.8461538461538,-1.0,51.53281610400503,1.941428890109415,
2023-08-10 18:38:00.710000,-8.433734939759036,0.1927710843373494,-5.0361445783132535,0.27713059472716123,-8.370938074800735,-4.701410177805028,2.0,1.9391941391941392,515.6781261805818,-0.1611794184488075,0.33715983917021075,0.020278538546704597,1360.4395604395604,-1.0,51.53281610400503,1.9414095437637413,
2023-08-10 18:38:00.718000,-8.421686746987952,0.18072289156626506,-5.0120481927710845,0.3359901900674433,-8.245861434702636,-4.706315144083384,2.0,1.9391941391941392,515.6781261805818,0.10150923605850469,0.011887419148067882,-0.011071615873200727,1365.5677655677655,-1.0,51.53281610400503,1.9413902118376691,
2023-08-10 18:38:00.725000,-8.421686746987952,0.1927710843373494,-5.048192771084338,0.30901287553648066,-8.263028816676885,-4.745554874310239,2.0,1.9391941391941392,515.6781261805818,0.10104306275858134,0.0090903793485226,-0.009906182623390191,1368.4981684981683,-1.0,51.53281610400503,1.9413708923815194,
2023-08-10 18:38:00.733000,-8.433734939759036,0.1927710843373494,-5.0361445783132535,0.2795830778663397,-8.30226854690374,-4.723482526057633,2.0,1.9391941391941392,515.6781261805818,0.008391119398635847,-0.03671114736903465,-0.04102325039333384,1368.4981684981683,-1.0,51.53281610400503,1.9413515835726871,
2023-08-10 18:38:00.741000,-8.433734939759036,0.18072289156626506,-5.0361445783132535,0.2452483139178418,-8.196811771919068,-4.708767627222563,2.0,1.9391941391941392,515.6781261805818,0.024940271545947603,-0.07015908163859894,0.12668259425441397,1367.032967032967,-1.0,51.53281610400503,1.9413322837135059,
2023-08-10 18:38:00.748000,-8.409638554216867,0.1566265060240964,-5.0120481927710845,0.27713059472716123,-8.267933782955241,-4.698957694665849,2.0,1.9391941391941392,515.6781261805818,-0.17539770409649733,-0.1922964862187516,0.01864693199696985,1367.032967032967,-1.0,51.53281610400503,1.9413129912279958,
2023-08-10 18:38:00.756000,-8.3855421686747,0.16867469879518074,-5.0602409638554215,0.27467811158798283,-8.238503985285101,-4.701410177805028,2.0,1.9391941391941392,515.6781261805818,0.1611794184488075,-0.11502826175630776,-0.2258609638132976,1368.4981684981683,-1.0,51.53281610400503,1.9412937046575645,
2023-08-10 18:38:00.764000,-8.397590361445783,0.16867469879518074,-5.0361445783132535,0.26241569589209074,-8.329245861434702,-4.703862660944206,2.0,1.9391941391941392,515.6781261805818,-0.299283258551366,-0.06876056173882716,-0.07179068818833412,1372.161172161172,-1.0,51.53281610400503,1.9412744226557754,
2023-08-10 18:38:00.771000,-8.421686746987952,0.18072289156626506,-5.0361445783132535,0.2893930104230533,-8.236051502145923,-4.733292458614347,2.0,1.9391941391941392,515.6781261805818,0.31350154419905585,-0.005943709574034809,-0.04032399044344752,1373.6263736263736,-1.0,51.53281610400503,1.941255143982286,
2023-08-10 18:38:00.779000,-8.409638554216867,0.1566265060240964,-5.0361445783132535,0.26241569589209074,-8.260576333537706,-4.72838749233599,2.0,1.9391941391941392,515.6781261805818,0.05069634636676106,0.2544140784336572,0.0652642619893947,1373.6263736263736,-1.0,51.53281610400503,1.9412358674960484,
2023-08-10 18:38:00.787000,-8.421686746987952,0.18072289156626506,-5.024096385542169,0.34825260576333533,-8.24095646842428,-4.757817290006131,2.0,1.9377289377289375,516.0680529300568,-0.08810675368568247,0.15978089854903574,0.3996270613600606,1368.4981684981683,-1.0,51.53281610400503,1.94121659214791,
2023-08-10 18:38:00.794000,-8.409638554216867,0.1927710843373494,-5.072289156626506,0.24279583077866337,-8.314530962599632,-4.706315144083384,2.0,1.9391941391941392,515.6781261805818,0.18646931996969937,0.2954373288269915,0.2748091603053435,1362.6373626373625,-1.0,51.53281610400503,1.9411973169379146,
2023-08-10 18:38:00.802000,-8.421686746987952,0.1927710843373494,-5.024096385542169,0.3114653586756591,-8.28755364806867,-4.652360515021459,2.0,1.9391941391941392,515.6781261805818,-0.04323757356797364,0.11013344210710395,-0.07773439776236805,1355.3113553113553,-1.0,51.53281610400503,1.9411780408023767,
2023-08-10 18:38:00.810000,-8.433734939759036,0.20481927710843376,-5.0120481927710845,0.29429797670141017,-8.31698344573881,-4.6621704475781724,2.0,1.9391941391941392,515.6781261805818,-0.3769011129887541,-0.2101276149408543,0.19975525901753988,1347.985347985348,-1.0,51.53281610400503,1.9411587627087277,
2023-08-10 18:38:00.817000,-8.421686746987952,0.21686746987951808,-5.024096385542169,0.29675045984058857,-8.265481299816063,-4.733292458614347,2.0,1.9391941391941392,515.6781261805818,0.03904201386865485,0.12586679097954637,-0.0010488899248296977,1339.194139194139,-1.0,51.53281610400503,1.9411394816803902,
2023-08-10 18:38:00.825000,-8.409638554216867,0.1927710843373494,-5.0361445783132535,0.26241569589209074,-8.243408951563458,-4.689147762109135,2.0,1.9391941391941392,515.6781261805818,-0.09976108618378868,0.0029135831245261186,0.1515063224753803,1331.135531135531,-1.0,51.53281610400503,1.9411201967868812,
2023-08-10 18:38:00.832000,-8.397590361445783,0.20481927710843376,-5.0843373493975905,0.2722256284488044,-8.221336603310851,-4.767627222562845,2.0,1.9391941391941392,515.6781261805818,-0.051861779616572894,-0.18250684692034225,-0.16945399452246382,1320.8791208791208,-1.0,51.53281610400503,1.9411009071340808,
2023-08-10 18:38:00.840000,-8.397590361445783,0.20481927710843376,-5.0361445783132535,0.3139178418148375,-8.30226854690374,-4.718577559779276,2.0,1.9391941391941392,515.6781261805818,-0.050579803041780225,0.015849892197425,0.07528698793776573,1310.6227106227104,-1.0,51.53281610400503,1.9410816123126546,
2023-08-10 18:38:00.848000,-8.409638554216867,0.20481927710843376,-5.0602409638554215,0.30901287553648066,-8.204169221336603,-4.69650521152667,2.0,1.9391941391941392,515.6781261805818,0.056640055940795866,-0.2287745469378246,0.19800710914282388,1303.2967032967033,-1.0,51.53281610400503,1.9410623118639139,
2023-08-10 18:38:00.855000,-8.397590361445783,0.1927710843373494,-5.048192771084338,0.3801348865726548,-8.290006131207848,-4.6621704475781724,2.0,1.9391941391941392,515.6781261805818,0.11677641163102377,0.12540061767962304,-0.002563953149583175,1296.7032967032967,-1.0,51.53281610400503,1.9410430048502287,
2023-08-10 18:38:00.863000,-8.421686746987952,0.1927710843373494,-5.024096385542169,0.2918454935622317,-8.280196198651133,-4.787247087676272,2.0,1.9391941391941392,515.6781261805818,-0.08053143756191421,-0.2728279237806658,0.08892255696055006,1293.040293040293,-1.0,51.53281610400503,1.9410236903392486,
2023-08-10 18:38:00.871000,-8.409638554216867,0.1927710843373494,-5.0361445783132535,0.33108522378908645,-8.245861434702636,-4.767627222562845,2.0,1.9391941391941392,515.6781261805818,-0.26082396130761537,-0.1188741914806823,0.3614008507662725,1287.9120879120878,-1.0,51.53281610400503,1.9410043673962496,
2023-08-10 18:38:00.878000,-8.44578313253012,0.1927710843373494,-5.0602409638554215,0.2918454935622317,-8.28755364806867,-4.713672593500919,2.0,1.9391941391941392,515.6781261805818,-0.07412155468795606,0.005943709574034809,0.2377483829613659,1282.7838827838827,-1.0,51.53281610400503,1.9409850350773814,
2023-08-10 18:38:00.886000,-8.421686746987952,0.18072289156626506,-5.0602409638554215,0.2207234825260576,-8.282648681790313,-4.708767627222563,2.0,1.9391941391941392,515.6781261805818,-0.1956762426432028,-0.2849484295786954,0.0814637841617622,1279.120879120879,-1.0,51.53281610400503,1.9409656924239322,
2023-08-10 18:38:00.894000,-8.421686746987952,0.1566265060240964,-5.0602409638554215,0.24279583077866337,-8.292458614347026,-4.657265481299816,2.0,1.9391941391941392,515.6781261805818,0.01992890857176122,0.008041489423693338,0.18716857991958524,1281.3186813186812,-1.0,51.53281610400503,1.9409463384576906,
2023-08-10 18:38:00.901000,-8.44578313253012,0.16867469879518074,-5.0120481927710845,0.24034334763948498,-8.341508277130595,-4.689147762109135,2.0,1.9391941391941392,515.6781261805818,-0.07225686148825747,-0.1279645708292049,-0.10384010255812619,1286.4468864468863,-1.0,51.53281610400503,1.940926972177519,
2023-08-10 18:38:00.909000,-8.44578313253012,0.16867469879518074,-5.024096385542169,0.22562844880441446,-8.282648681790313,-4.684242795830778,2.0,1.9391941391941392,515.6781261805818,-0.07214031816327662,-0.1865858632946802,0.29438843890216176,1290.10989010989,-1.0,51.53281610400503,1.9409075925571968,
2023-08-10 18:38:00.917000,-8.44578313253012,0.1566265060240964,-5.024096385542169,0.2575107296137339,-8.31698344573881,-4.674432863274065,2.0,1.9391941391941392,515.6781261805818,-0.0397412738185416,-0.03251558766971586,0.3070916613250977,1293.040293040293,-1.0,51.53281610400503,1.9408881985446007,
2023-08-10 18:38:00.924000,-8.433734939759036,0.1566265060240964,-5.0361445783132535,0.3016554261189454,-8.275291232372776,-4.69650521152667,2.0,1.9391941391941392,515.6781261805818,-0.22329701066371485,-0.23250393333721828,0.05978672571528453,1295.2380952380952,-1.0,51.53281610400503,1.9408687890622927,
2023-08-10 18:38:00.932000,-8.433734939759036,0.14457831325301207,-5.0,0.2673206621704476,-8.314530962599632,-4.694052728387492,2.0,1.9391941391941392,515.6781261805818,-0.29963288852631026,-0.12540061767962304,0.30359536157566563,1296.7032967032967,-1.0,51.53281610400503,1.9408493630095391,
2023-08-10 18:38:00.940000,-8.421686746987952,0.16867469879518074,-5.0120481927710845,0.24770079705702022,-8.324340895156345,-4.686695278969957,2.0,1.9377289377289375,516.0680529300568,-0.49589184779441725,0.07482081463784107,0.19474389604335393,1297.4358974358975,-1.0,51.53281610400503,1.9408299197236751,
2023-08-10 18:38:00.947000,-8.44578313253012,0.16867469879518074,-5.0120481927710845,0.2795830778663397,-8.260576333537706,-4.630288166768853,2.0,1.9391941391941392,515.6781261805818,-0.41675893013227655,-0.2767903968300212,0.3763183963638482,1301.8315018315018,-1.0,51.53281610400503,1.9408104584251573,
2023-08-10 18:38:00.955000,-8.397590361445783,0.18072289156626506,-5.0120481927710845,0.24034334763948498,-8.238503985285101,-4.686695278969957,2.0,1.9391941391941392,515.6781261805818,-0.41186411048307275,-0.18367228017015408,0.2661849542567451,1308.4249084249084,-1.0,51.53281610400503,1.9407909781561372,
2023-08-10 18:38:00.963000,-8.409638554216867,0.14457831325301207,-5.024096385542169,0.19374616799509503,-8.312078479460453,-4.679337829552422,2.0,1.9391941391941392,515.6781261805818,-0.4538197074762537,-0.3654798671406096,0.14229939980187642,1312.8205128205127,-1.0,51.53281610400503,1.9407714783165402,
2023-08-10 18:38:00.970000,-8.421686746987952,0.16867469879518074,-5.024096385542169,0.25015328019619865,-8.216431637032494,-4.701410177805028,2.0,1.9377289377289375,516.0680529300568,-0.38704038226210596,0.049064739817027615,0.4146611502826176,1318.6813186813185,-1.0,51.53281610400503,1.940751958217975,
2023-08-10 18:38:00.978000,-8.397590361445783,0.18072289156626506,-5.0120481927710845,0.2893930104230533,-8.275291232372776,-4.713672593500919,2.0,1.9377289377289375,516.0680529300568,-0.6117359128255926,-0.07388846803799265,0.36652875706543925,1322.3443223443223,-1.0,51.53281610400503,1.9407324166036546,
2023-08-10 18:38:00.986000,-8.397590361445783,0.1566265060240964,-5.0,0.2329858982219497,-8.248313917841815,-4.713672593500919,2.0,1.9391941391941392,515.6781261805818,-0.7750131111240603,0.41582658353242813,0.3627993706660451,1326.7399267399267,-1.0,51.53281610400503,1.9407128511317022,
2023-08-10 18:38:00.993000,-8.433734939759036,0.16867469879518074,-5.0361445783132535,0.2207234825260576,-8.250766400980993,-4.721030042918454,2.0,1.9391941391941392,515.6781261805818,-0.5535807936600424,0.2904259658528051,0.3894877920867083,1331.135531135531,-1.0,51.53281610400503,1.9406932598593702,
2023-08-10 18:38:01.001000,-8.44578313253012,0.18072289156626506,-5.0361445783132535,0.29429797670141017,-8.321888412017167,-4.725935009196811,2.0,1.9377289377289375,516.0680529300568,-0.5500844939106121,0.2876289260532598,0.38704038226210596,1338.4615384615383,-1.0,51.53281610400503,1.9406736412871308,
2023-08-10 18:38:01.009000,-8.44578313253012,0.18072289156626506,-5.048192771084338,0.25015328019619865,-8.31698344573881,-4.652360515021459,2.0,1.9391941391941392,515.6781261805818,-0.8367810733640235,0.40557077093409544,0.5222306392401375,1347.2527472527472,-1.0,51.53281610400503,1.940653992997678,
2023-08-10 18:38:01.016000,-8.44578313253012,0.1927710843373494,-5.0602409638554215,0.2673206621704476,-8.304721030042918,-4.6817903126916,2.0,1.9391941391941392,515.6781261805818,-0.5718780956820702,0.3258551366470488,0.18110832702057003,1353.8461538461538,-1.0,51.53281610400503,1.9406343125804215,
2023-08-10 18:38:01.024000,-8.421686746987952,0.20481927710843376,-5.0361445783132535,0.33353770692826484,-8.236051502145923,-4.701410177805028,2.0,1.9391941391941392,515.6781261805818,-0.7680205116251964,0.12260357788007775,0.36116776411631035,1358.974358974359,-1.0,51.53281610400503,1.9406145981686198,
2023-08-10 18:38:01.032000,-8.397590361445783,0.20481927710843376,-5.0602409638554215,0.328632740649908,-8.211526670754138,-4.787247087676272,2.0,1.9391941391941392,515.6781261805818,-1.0708000699259943,0.090204533535341,0.10022725948371332,1364.8351648351647,-1.0,51.53281610400503,1.9405948479947686,
2023-08-10 18:38:01.039000,-8.361445783132531,0.21686746987951808,-5.048192771084338,0.31882280809319435,-8.19435928877989,-4.723482526057633,2.0,1.9391941391941392,515.6781261805818,-1.032107686032282,0.027737311345492885,0.1745819008216302,1369.9633699633698,-1.0,51.53281610400503,1.940575060862938,
2023-08-10 18:38:01.047000,-8.3855421686747,0.24096385542168675,-5.0602409638554215,0.3531575720416922,-8.231146535867566,-4.738197424892704,2.0,1.9391941391941392,515.6781261805818,-0.9789639298409182,0.33028378299632927,-0.13402482372822097,1374.3589743589744,-1.0,51.53281610400503,1.9405552360970977,
2023-08-10 18:38:01.055000,-8.397590361445783,0.21686746987951808,-5.048192771084338,0.2820355610055181,-8.20907418761496,-4.752912323727774,2.0,1.9391941391941392,515.6781261805818,-1.3987529864227035,0.37538604976399975,-0.11945690810558822,1377.2893772893772,-1.0,51.53281610400503,1.9405353730693744,
2023-08-10 18:38:01.062000,-8.373493975903616,0.24096385542168675,-5.072289156626506,0.3384426732066217,-8.245861434702636,-4.762722256284488,2.0,1.9391941391941392,515.6781261805818,-1.0508711613542332,0.2642037177320666,-0.0271545947205874,1378.7545787545787,-1.0,51.53281610400503,1.9405154712212584,
2023-08-10 18:38:01.070000,-8.3855421686747,0.22891566265060243,-5.072289156626506,0.34825260576333533,-8.22378908645003,-4.725935009196811,2.0,1.9391941391941392,515.6781261805818,-1.0599615407027558,0.506613833692675,-0.0428879435930307,1380.2197802197802,-1.0,51.53281610400503,1.9404955296271407,
2023-08-10 18:38:01.078000,-8.3855421686747,0.22891566265060243,-5.0602409638554215,0.3629675045984059,-8.221336603310851,-4.721030042918454,2.0,1.9391941391941392,515.6781261805818,-0.7008915564361043,0.7154594720587384,0.04650078666744357,1383.8827838827838,-1.0,51.53281610400503,1.9404755475409172,
2023-08-10 18:38:01.085000,-8.409638554216867,0.26506024096385544,-5.0602409638554215,0.3114653586756591,-8.280196198651133,-4.703862660944206,2.0,1.9391941391941392,515.6781261805818,-0.9546063749198765,0.5250276790396836,0.19882291241769104,1386.080586080586,-1.0,51.53281610400503,1.940455524838566,
2023-08-10 18:38:01.093000,-8.421686746987952,0.2530120481927711,-5.0602409638554215,0.3825873697118332,-8.260576333537706,-4.752912323727774,2.0,1.9377289377289375,516.0680529300568,-0.6707068352660104,0.384010255812599,0.19742439251791838,1388.278388278388,-1.0,51.53281610400503,1.9404354610895669,
2023-08-10 18:38:01.101000,-8.433734939759036,0.26506024096385544,-5.048192771084338,0.3948497854077253,-8.258123850398528,-4.703862660944206,2.0,1.9377289377289375,516.0680529300568,-1.1385117417399924,0.12027271138045581,-0.06188450556494371,1391.2087912087911,-1.0,51.53281610400503,1.9404153560689323,
2023-08-10 18:38:01.108000,-8.44578313253012,0.24096385542168675,-5.024096385542169,0.37522992029429797,-8.304721030042918,-4.733292458614347,2.0,1.9391941391941392,515.6781261805818,-1.0212691568090435,0.14894236932579713,-0.04708350329234884,1395.6043956043954,-1.0,51.53281610400503,1.9403952100602115,
2023-08-10 18:38:01.116000,-8.433734939759036,0.2530120481927711,-5.0602409638554215,0.31882280809319435,-8.341508277130595,-4.711220110361741,2.0,1.9391941391941392,515.6781261805818,-0.9035603985781712,0.13169395722860036,-0.23087232678748332,1399.2673992673992,-1.0,51.53281610400503,1.9403750233830215,
2023-08-10 18:38:01.124000,-8.457831325301205,0.2530120481927711,-5.048192771084338,0.3825873697118332,-8.258123850398528,-4.723482526057633,2.0,1.9377289377289375,516.0680529300568,-0.6822446244391358,0.099527999533827,-0.25989161470776734,1399.2673992673992,-1.0,51.53281610400503,1.9403547965507995,
2023-08-10 18:38:01.131000,-8.44578313253012,0.24096385542168675,-5.024096385542169,0.33108522378908645,-8.277743715511955,-4.716125076640098,2.0,1.9391941391941392,515.6781261805818,-0.6147660392751013,0.26630149758172683,-0.19707476254297543,1398.5347985347985,-1.0,51.53281610400503,1.9403345298305525,
2023-08-10 18:38:01.139000,-8.421686746987952,0.24096385542168675,-5.0120481927710845,0.3678724708767627,-8.253218884120171,-4.718577559779276,2.0,1.9377289377289375,516.0680529300568,-0.4696695996736787,0.18880018646931956,0.1553522521997553,1396.3369963369962,-1.0,51.53281610400503,1.940314223222278,
2023-08-10 18:38:01.147000,-8.397590361445783,0.2530120481927711,-5.0120481927710845,0.34580012262415694,-8.272838749233598,-4.721030042918454,2.0,1.9391941391941392,515.6781261805818,-0.4787599790222013,0.03414719421945104,-0.07563661791270909,1394.8717948717947,-1.0,51.53281610400503,1.9402938770318527,
2023-08-10 18:38:01.154000,-8.397590361445783,0.2530120481927711,-5.0361445783132535,0.299202942979767,-8.272838749233598,-4.686695278969957,2.0,1.9391941391941392,515.6781261805818,-0.3209603169978433,-0.18087524037060707,0.4605792203251557,1396.3369963369962,-1.0,51.53281610400503,1.9402734922691165,
2023-08-10 18:38:01.162000,-8.397590361445783,0.2530120481927711,-5.0602409638554215,0.3016554261189454,-8.304721030042918,-4.645003065603924,2.0,1.9391941391941392,515.6781261805818,-0.04148942369325762,-0.06001981236524707,0.54775362741099,1397.069597069597,-1.0,51.53281610400503,1.9402530706936816,
2023-08-10 18:38:01.170000,-8.3855421686747,0.22891566265060243,-5.048192771084338,0.27713059472716123,-8.280196198651133,-4.721030042918454,2.0,1.9391941391941392,515.6781261805818,-0.17656313734630918,0.2926402890274462,0.09941145620884552,1397.8021978021977,-1.0,51.53281610400503,1.9402326143693334,
2023-08-10 18:38:01.177000,-8.397590361445783,0.24096385542168675,-5.0361445783132535,0.3114653586756591,-8.233599019006745,-4.723482526057633,2.0,1.9391941391941392,515.6781261805818,-0.2805197832294149,0.22749257036303192,0.09999417283375078,1395.6043956043954,-1.0,51.53281610400503,1.9402121256751659,
2023-08-10 18:38:01.185000,-8.397590361445783,0.24096385542168675,-5.0361445783132535,0.3139178418148375,-8.243408951563458,-4.74310239117106,2.0,1.9391941391941392,515.6781261805818,-0.20045451896742578,0.4376201853038862,-0.08262921741157274,1391.2087912087911,-1.0,51.53281610400503,1.9401916073155125,
2023-08-10 18:38:01.192000,-8.421686746987952,0.24096385542168675,-5.048192771084338,0.3384426732066217,-8.285101164929491,-4.738197424892704,2.0,1.9377289377289375,516.0680529300568,-0.16444263154827787,-0.008857292698560929,0.22189849076394155,1386.8131868131868,-1.0,51.53281610400503,1.940171062328614,
2023-08-10 18:38:01.200000,-8.397590361445783,0.21686746987951808,-5.0602409638554215,0.34334763948497854,-8.258123850398528,-4.721030042918454,2.0,1.9391941391941392,515.6781261805818,-0.3272536565468206,0.0340306508944702,0.24951925878445297,1383.150183150183,-1.0,51.53281610400503,1.9401504936013045,
2023-08-10 18:38:01.208000,-8.409638554216867,0.22891566265060243,-5.048192771084338,0.33108522378908645,-8.25567136725935,-4.779889638258736,2.0,1.9391941391941392,515.6781261805818,-0.10896800885729212,0.3060427714002684,0.23098887011246438,1381.6849816849815,1156.646728515625,51.87409303184612,1.9401299042954985,
2023-08-10 18:38:01.215000,-8.421686746987952,0.22891566265060243,-5.072289156626506,0.31882280809319435,-8.285101164929491,-4.750459840588595,2.0,1.9377289377289375,516.0680529300568,0.015849892197425,0.026338791445719375,0.2448575257852108,1383.150183150183,-1.0,51.87409303184612,1.9401092983772834,
2023-08-10 18:38:01.223000,-8.421686746987952,0.24096385542168675,-5.0602409638554215,0.33353770692826484,-8.280196198651133,-4.770079705702023,2.0,1.9377289377289375,516.0680529300568,-0.4560340306508948,-0.08192995746168598,0.2103607015908164,1385.3479853479853,-1.0,51.87409303184612,1.9400886796689483,
2023-08-10 18:38:01.231000,-8.421686746987952,0.24096385542168675,-5.0361445783132535,0.34825260576333533,-8.199264255058246,-4.777437155119558,2.0,1.9391941391941392,515.6781261805818,0.12924654740399757,-0.20336810209195189,-0.006876056173882803,1386.8131868131868,-1.0,51.87409303184612,1.9400680517779334,
2023-08-10 18:38:01.238000,-8.3855421686747,0.21686746987951808,-5.0602409638554215,0.3384426732066217,-8.245861434702636,-4.74310239117106,2.0,1.9391941391941392,515.6781261805818,-0.5101101334421071,0.08647514713594728,-0.11491171843132691,1386.8131868131868,-1.0,51.87409303184612,1.9400474190415156,
2023-08-10 18:38:01.246000,-8.409638554216867,0.24096385542168675,-5.0602409638554215,0.37768240343347637,-8.238503985285101,-4.706315144083384,2.0,1.936263736263736,516.4585698070375,-0.4465940213274297,0.008857292698560929,-0.3880892721869357,1387.5457875457876,-1.0,51.87409303184612,1.940026786591076,
2023-08-10 18:38:01.254000,-8.409638554216867,0.22891566265060243,-5.0602409638554215,0.33353770692826484,-8.294911097486205,-4.757817290006131,2.0,1.9377289377289375,516.0680529300568,-0.2441582658353245,-0.09754676300914931,-0.003612843074412873,1386.8131868131868,-1.0,51.87409303184612,1.940006159362402,
2023-08-10 18:38:01.261000,-8.361445783132531,0.22891566265060243,-5.096385542168675,0.34825260576333533,-8.248313917841815,-4.76026977314531,2.0,1.9377289377289375,516.0680529300568,-0.22644368043820265,0.2237631839636382,-0.03636151739409127,1385.3479853479853,-1.0,51.87409303184612,1.9399855423709906,
2023-08-10 18:38:01.269000,-8.361445783132531,0.21686746987951808,-5.096385542168675,0.34334763948497854,-8.282648681790313,-4.784794604537094,2.0,1.9377289377289375,516.0680529300568,-0.31396771749898095,-0.11048307208204645,0.09999417283375078,1385.3479853479853,-1.0,51.87409303184612,1.9399649411933972,
2023-08-10 18:38:01.277000,-8.373493975903616,0.24096385542168675,-5.0843373493975905,0.30901287553648066,-8.211526670754138,-4.833844267320662,2.0,1.9377289377289375,516.0680529300568,-0.30895635452479453,-0.10966726880717886,0.0971971330342055,1383.150183150183,-1.0,51.87409303184612,1.939944361497848,
2023-08-10 18:38:01.284000,-8.3855421686747,0.21686746987951808,-5.096385542168675,0.34334763948497854,-8.282648681790313,-4.789699570815451,2.0,1.9391941391941392,515.6781261805818,-0.30359536157566563,-0.2918244857525786,0.07924946098712198,1379.4871794871794,-1.0,51.87409303184612,1.9399238085723831,
2023-08-10 18:38:01.292000,-8.397590361445783,0.22891566265060243,-5.096385542168675,0.3948497854077253,-8.250766400980993,-4.777437155119558,2.0,1.9391941391941392,515.6781261805818,-0.35906998426665143,0.15605151214964202,-0.06188450556494371,1377.2893772893772,-1.0,51.87409303184612,1.9399032878684366,
2023-08-10 18:38:01.300000,-8.373493975903616,0.22891566265060243,-5.132530120481928,0.3384426732066217,-8.250766400980993,-4.797057020232986,2.0,1.9377289377289375,516.0680529300568,-0.4291125225802695,-0.014917545597576574,0.012703222422935909,1375.091575091575,-1.0,51.87409303184612,1.9398828055428132,
2023-08-10 18:38:01.307000,-8.409638554216867,0.24096385542168675,-5.144578313253012,0.3629675045984059,-8.260576333537706,-4.733292458614347,2.0,1.9377289377289375,516.0680529300568,-0.7437795000291355,-0.0015150632247543454,-0.04988054309189434,1374.3589743589744,-1.0,51.87409303184612,1.9398623674883748,
2023-08-10 18:38:01.315000,-8.421686746987952,0.2530120481927711,-5.096385542168675,0.33353770692826484,-8.238503985285101,-4.706315144083384,2.0,1.9377289377289375,516.0680529300568,-0.3545247945923901,0.08600897383602393,-0.020511625196666706,1375.8241758241757,-1.0,51.87409303184612,1.9398419792423862,
2023-08-10 18:38:01.323000,-8.409638554216867,0.2530120481927711,-5.072289156626506,0.3654199877375843,-8.243408951563458,-4.767627222562845,2.0,1.9377289377289375,516.0680529300568,-0.7938931297709924,-0.22178194743896051,-0.019928908571761654,1375.8241758241757,-1.0,51.87409303184612,1.9398216464187994,
2023-08-10 18:38:01.330000,-8.409638554216867,0.24096385542168675,-5.048192771084338,0.4218270999386879,-8.243408951563458,-4.740649908031882,2.0,1.9377289377289375,516.0680529300568,-0.7120797156342872,-0.43575549210418935,0.10232503933337228,1374.3589743589744,-1.0,51.87409303184612,1.9398013746816343,
2023-08-10 18:38:01.338000,-8.397590361445783,0.21686746987951808,-5.0602409638554215,0.3114653586756591,-8.243408951563458,-4.718577559779276,2.0,1.9377289377289375,516.0680529300568,-1.1943359944059206,-0.5407610279121261,-0.18681894994464188,1374.3589743589744,-1.0,51.87409303184612,1.9397811697174847,
2023-08-10 18:38:01.346000,-8.361445783132531,0.22891566265060243,-5.072289156626506,0.3408951563458001,-8.228694052728388,-4.748007357449417,2.0,1.9377289377289375,516.0680529300568,-1.1390944583648965,-0.41361226035778875,-0.23028961016257785,1376.5567765567764,-1.0,51.87409303184612,1.939761037207344,
2023-08-10 18:38:01.353000,-8.373493975903616,0.20481927710843376,-5.0602409638554215,0.29429797670141017,-8.213979153893316,-4.748007357449417,2.0,1.9377289377289375,516.0680529300568,-1.434531787191888,-0.5312044752636784,-0.36734456034030644,1379.4871794871794,-1.0,51.87409303184612,1.9397409827978964,
2023-08-10 18:38:01.361000,-8.3855421686747,0.20481927710843376,-5.072289156626506,0.3114653586756591,-8.228694052728388,-4.757817290006131,2.0,1.9377289377289375,516.0680529300568,-0.9632305809684758,-0.2821513897791501,-0.5787541518559526,1383.150183150183,-1.0,51.87409303184612,1.9397210120724866,
2023-08-10 18:38:01.369000,-8.373493975903616,0.18072289156626506,-5.0602409638554215,0.26486817903126914,-8.140404659717964,-4.723482526057633,2.0,1.9377289377289375,516.0680529300568,-0.8949361925295737,-0.5884272478293802,-0.4981061709690577,1383.8827838827838,-1.0,51.87409303184612,1.9397011305219287,
2023-08-10 18:38:01.376000,-8.3855421686747,0.18072289156626506,-5.048192771084338,0.3114653586756591,-8.213979153893316,-4.674432863274065,2.0,1.9377289377289375,516.0680529300568,-1.3294097080589704,-0.41722510343220165,-0.22224812073888472,1383.150183150183,-1.0,51.87409303184612,1.9396813435153533,
2023-08-10 18:38:01.384000,-8.397590361445783,0.21686746987951808,-5.0120481927710845,0.29429797670141017,-8.248313917841815,-4.718577559779276,2.0,1.9377289377289375,516.0680529300568,-0.9210418973253314,-0.3080240079249461,-0.25126740865916897,1382.4175824175823,-1.0,51.87409303184612,1.939661656271281,
2023-08-10 18:38:01.392000,-8.397590361445783,0.20481927710843376,-5.024096385542169,0.3408951563458001,-8.285101164929491,-4.676885346413243,2.0,1.9377289377289375,516.0680529300568,-0.8674319678340424,-0.4763125691975985,-0.2963696754268399,1382.4175824175823,-1.0,51.87409303184612,1.9396420738291056,
2023-08-10 18:38:01.399000,-8.409638554216867,0.24096385542168675,-5.0,0.3629675045984059,-8.243408951563458,-4.647455548743102,2.0,1.936263736263736,516.4585698070375,-1.008565934386108,-0.18472117009498334,-0.2787716333546995,1383.150183150183,-1.0,51.87409303184612,1.9396226010211723,
2023-08-10 18:38:01.407000,-8.421686746987952,0.2530120481927711,-5.0120481927710845,0.3408951563458001,-8.272838749233598,-4.674432863274065,2.0,1.9377289377289375,516.0680529300568,-1.167531029660276,-0.44566167472757956,-0.3073247479750598,1383.8827838827838,-1.0,51.87409303184612,1.9396032424108456,
2023-08-10 18:38:01.415000,-8.457831325301205,0.24096385542168675,-5.0,0.34825260576333533,-8.28755364806867,-4.698957694665849,2.0,1.9377289377289375,516.0680529300568,-0.5444904143115198,0.0916030534351145,-0.2595419847328244,1383.8827838827838,-1.0,51.87409303184612,1.9395840026195603,
2023-08-10 18:38:01.422000,-8.421686746987952,0.2530120481927711,-5.0120481927710845,0.3163703249540159,-8.282648681790313,-4.676885346413243,2.0,1.9377289377289375,516.0680529300568,-0.736903443855254,-0.018064215372064367,-0.3186294504982226,1384.6153846153845,-1.0,51.87409303184612,1.939564886337892,
2023-08-10 18:38:01.430000,-8.44578313253012,0.2530120481927711,-5.0120481927710845,0.3408951563458001,-8.285101164929491,-4.69650521152667,2.0,1.9377289377289375,516.0680529300568,-0.8809509935318456,-0.06421537206456586,-0.40731892080881055,1382.4175824175823,-1.0,51.87409303184612,1.9395458978469862,
2023-08-10 18:38:01.438000,-8.409638554216867,0.2530120481927711,-5.024096385542169,0.328632740649908,-8.30226854690374,-4.723482526057633,2.0,1.9377289377289375,516.0680529300568,-0.6275858050230176,0.030883981119980676,-0.17329992424683882,1380.2197802197802,-1.0,51.87409303184612,1.939527040540817,
2023-08-10 18:38:01.445000,-8.433734939759036,0.24096385542168675,-5.0120481927710845,0.39975475168608215,-8.299816063764561,-4.6695278969957075,2.0,1.9377289377289375,516.0680529300568,-0.527242002214323,-0.41221374045801523,-0.20208612551716096,1373.6263736263736,-1.0,51.87409303184612,1.9395083174324703,
2023-08-10 18:38:01.453000,-8.421686746987952,0.2530120481927711,-5.0361445783132535,0.30901287553648066,-8.31698344573881,-4.706315144083384,2.0,1.9377289377289375,516.0680529300568,-0.18390536682011402,-0.4376201853038862,-0.09171959676009576,1367.032967032967,-1.0,51.87409303184612,1.9394897310997217,
2023-08-10 18:38:01.461000,-8.3855421686747,0.24096385542168675,-5.024096385542169,0.38749233599019006,-8.263028816676885,-4.74310239117106,2.0,1.9377289377289375,516.0680529300568,-0.5759571120564064,-0.8902744595303298,-0.44018413845347026,1361.904761904762,-1.0,51.87409303184612,1.9394712832439516,
2023-08-10 18:38:01.468000,-8.373493975903616,0.22891566265060243,-5.0602409638554215,0.3384426732066217,-8.243408951563458,-4.74310239117106,2.0,1.9377289377289375,516.0680529300568,-0.35545714119223853,-0.4385525319037346,-0.2672338441815746,1360.4395604395604,-1.0,51.87409303184612,1.939452975164352,
2023-08-10 18:38:01.476000,-8.373493975903616,0.2530120481927711,-5.048192771084338,0.26486817903126914,-8.19435928877989,-4.671980380134887,2.0,1.9377289377289375,516.0680529300568,-0.31839636384825964,-0.17563079074646074,-0.12773148417924365,1366.3003663003662,-1.0,51.87409303184612,1.9394348077417627,
2023-08-10 18:38:01.484000,-8.397590361445783,0.2530120481927711,-5.0361445783132535,0.39975475168608215,-8.265481299816063,-4.694052728387492,2.0,1.9377289377289375,516.0680529300568,-0.005477536274111463,-0.2960200454518974,-0.005127906299166568,1382.4175824175823,-1.0,51.87409303184612,1.9394167818828263,
2023-08-10 18:38:01.491000,-8.421686746987952,0.27710843373493976,-5.048192771084338,0.3948497854077253,-8.253218884120171,-4.716125076640098,2.0,1.9377289377289375,516.0680529300568,-0.050929433016724465,0.025289901520890112,0.2969523920517454,1413.1868131868132,-1.0,51.87409303184612,1.93939889844158,
2023-08-10 18:38:01.499000,-8.409638554216867,0.26506024096385544,-5.0602409638554215,0.4095646842427958,-8.243408951563458,-4.750459840588595,2.0,1.9377289377289375,516.0680529300568,0.04510226676767223,-0.08227958743663023,0.18577006001981217,1460.07326007326,-1.0,51.87409303184612,1.9393811572647175,
2023-08-10 18:38:01.507000,-8.433734939759036,0.28915662650602414,-5.0120481927710845,0.34334763948497854,-8.314530962599632,-4.730839975475169,2.0,1.9377289377289375,516.0680529300568,0.13950236000233027,0.26898199405629125,-0.1519724957753045,1526.7399267399267,-1.0,51.87409303184612,1.9393635577146346,
2023-08-10 18:38:01.514000,-8.433734939759036,0.27710843373493976,-5.048192771084338,0.3727774371551195,-8.27038626609442,-4.701410177805028,2.0,1.9377289377289375,516.0680529300568,0.11223122195676248,-0.037876580618844746,-0.149175455975759,1610.989010989011,-1.0,51.87409303184612,1.9393460986327902,
2023-08-10 18:38:01.522000,-8.481927710843374,0.26506024096385544,-5.0361445783132535,0.41201716738197425,-8.28755364806867,-4.716125076640098,2.0,1.9377289377289375,516.0680529300568,-0.0981294796340535,-0.25173358195909273,-0.17877746052094876,1705.4945054945053,-1.0,51.87409303184612,1.9393287779172927,
2023-08-10 18:38:01.530000,-8.433734939759036,0.27710843373493976,-5.024096385542169,0.3654199877375843,-8.245861434702636,-4.752912323727774,2.0,1.9377289377289375,516.0680529300568,-0.20092069226735085,0.04148942369325762,-0.5130237165666336,1807.3260073260071,-1.0,51.87409303184612,1.9393115930165907,
2023-08-10 18:38:01.537000,-8.3855421686747,0.26506024096385544,-5.0843373493975905,0.3801348865726548,-8.285101164929491,-4.679337829552422,2.0,1.9377289377289375,516.0680529300568,0.46127848027504287,-0.10955072548219803,-0.23425208321193386,1909.8901098901097,-1.0,51.87409303184612,1.9392945413913503,
2023-08-10 18:38:01.545000,-8.421686746987952,0.28915662650602414,-5.072289156626506,0.3801348865726548,-8.196811771919068,-4.765174739423666,2.0,1.9377289377289375,516.0680529300568,-0.07447118466289857,-0.39636384826059023,-0.5054484004428645,2007.3260073260071,-1.0,51.87409303184612,1.9392776199963477,
2023-08-10 18:38:01.553000,-8.3855421686747,0.27710843373493976,-5.0602409638554215,0.42427958307786634,-8.233599019006745,-4.752912323727774,2.0,1.936263736263736,516.4585698070375,-0.0712079715634282,-0.3898374220616513,-0.5023017306683758,2090.10989010989,-1.0,51.87409303184612,1.9392608248693721,
2023-08-10 18:38:01.560000,-8.3855421686747,0.26506024096385544,-5.0843373493975905,0.3973022685469037,-8.206621704475781,-4.735744941753525,2.0,1.9377289377289375,516.0680529300568,0.06934327836373134,-0.11188159198181996,-0.25522988170852523,2156.776556776557,-1.0,51.87409303184612,1.9392441516014676,
2023-08-10 18:38:01.568000,-8.373493975903616,0.2530120481927711,-5.072289156626506,0.32127529123237275,-8.248313917841815,-4.721030042918454,2.0,1.9377289377289375,516.0680529300568,0.1029077559582782,-0.18751820989452864,-0.1626944816735623,2202.9304029304026,-1.0,51.87409303184612,1.9392275957054885,
2023-08-10 18:38:01.575000,-8.373493975903616,0.26506024096385544,-5.072289156626506,0.30656039239730226,-8.204169221336603,-4.740649908031882,2.0,1.9377289377289375,516.0680529300568,-0.09148651011013366,-0.4792261523221264,-0.3306334129712722,2227.106227106227,-1.0,51.87409303184612,1.9392111526704436,
2023-08-10 18:38:01.583000,-8.373493975903616,0.27710843373493976,-5.072289156626506,0.3654199877375843,-8.216431637032494,-4.74310239117106,2.0,1.9377289377289375,516.0680529300568,-0.22387972728861905,-0.20243575549210346,-0.268632364081347,2231.5018315018315,-1.0,51.87409303184612,1.939194817527728,
2023-08-10 18:38:01.591000,-8.409638554216867,0.26506024096385544,-5.024096385542169,0.3678724708767627,-8.27038626609442,-4.738197424892704,2.0,1.9377289377289375,516.0680529300568,-0.0019812365246776914,0.30231338500087473,-0.3155993240487152,2218.3150183150183,-1.0,51.87409303184612,1.9391785848773355,
2023-08-10 18:38:01.598000,-8.421686746987952,0.2530120481927711,-5.0361445783132535,0.3703249540159411,-8.267933782955241,-4.701410177805028,2.0,1.9377289377289375,516.0680529300568,0.20173649554221845,0.16246139502360019,0.26688421420663144,2186.813186813187,-1.0,51.87409303184612,1.9391624484582464,
2023-08-10 18:38:01.606000,-8.421686746987952,0.26506024096385544,-5.0602409638554215,0.33108522378908645,-8.304721030042918,-4.674432863274065,2.0,1.9377289377289375,516.0680529300568,0.08437736728628875,0.011421245848144537,-0.11864110483072063,2137.7289377289376,-1.0,51.87409303184612,1.9391464012458601,
2023-08-10 18:38:01.614000,-8.409638554216867,0.2530120481927711,-5.024096385542169,0.33353770692826484,-8.290006131207848,-4.733292458614347,2.0,1.9377289377289375,516.0680529300568,0.12038925470543665,0.13530680030301323,-0.13111124060369442,2076.190476190476,-1.0,51.87409303184612,1.9391304364302409,
2023-08-10 18:38:01.621000,-8.421686746987952,0.2530120481927711,-5.0361445783132535,0.39239730226854685,-8.24095646842428,-4.740649908031882,2.0,1.9377289377289375,516.0680529300568,0.21735330108968004,0.2429928325855144,-0.053609929491288046,2008.058608058608,-1.0,51.87409303184612,1.9391145473789064,
2023-08-10 18:38:01.629000,-8.409638554216867,0.2530120481927711,-5.0361445783132535,0.3678724708767627,-8.24095646842428,-4.730839975475169,2.0,1.9377289377289375,516.0680529300568,0.06817784511392125,-0.03100052444496325,-0.17469844414661145,1932.6007326007325,-1.0,51.87409303184612,1.9390987271807028,
2023-08-10 18:38:01.637000,-8.397590361445783,0.22891566265060243,-5.0361445783132535,0.33353770692826484,-8.231146535867566,-4.721030042918454,2.0,1.9377289377289375,516.0680529300568,-0.07971563428704662,-0.090204533535341,-0.5096439601421828,1858.6080586080584,-1.0,51.87409303184612,1.9390829686837439,
2023-08-10 18:38:01.644000,-8.397590361445783,0.22891566265060243,-5.0602409638554215,0.3016554261189454,-8.265481299816063,-4.787247087676272,2.0,1.9377289377289375,516.0680529300568,-0.16549152147310714,-0.22387972728861905,-0.5192005127906301,1786.080586080586,-1.0,51.87409303184612,1.9390672645345952,
2023-08-10 18:38:01.652000,-8.3855421686747,0.2530120481927711,-5.096385542168675,0.3629675045984059,-8.236051502145923,-4.755364806866953,2.0,1.9377289377289375,516.0680529300568,0.13111124060369442,-0.023192121671231584,-0.5309713886137172,1716.4835164835163,-1.0,51.87409303184612,1.9390516067606371,
2023-08-10 18:38:01.660000,-8.3855421686747,0.26506024096385544,-5.048192771084338,0.3850398528510116,-8.258123850398528,-4.748007357449417,2.0,1.9377289377289375,516.0680529300568,-0.0658469786142993,-0.2510343220092077,-0.28273410640405555,1652.7472527472526,-1.0,51.87409303184612,1.9390359868784481,
2023-08-10 18:38:01.667000,-8.421686746987952,0.26506024096385544,-5.0843373493975905,0.299202942979767,-8.265481299816063,-4.708767627222563,2.0,1.9377289377289375,516.0680529300568,0.10617096905774683,-0.09568206980945246,-0.47957578229706893,1594.8717948717947,-1.0,51.87409303184612,1.9390203968818704,
2023-08-10 18:38:01.675000,-8.409638554216867,0.2530120481927711,-5.0361445783132535,0.3114653586756591,-8.27038626609442,-4.708767627222563,2.0,1.9377289377289375,516.0680529300568,0.45987996037526935,-0.12738185420430073,0.04160596701823933,1545.7875457875457,-1.0,51.87409303184612,1.939004829213455,
2023-08-10 18:38:01.683000,-8.409638554216867,0.22891566265060243,-5.0602409638554215,0.33108522378908645,-8.290006131207848,-4.772532188841201,2.0,1.9377289377289375,516.0680529300568,0.017598042072139285,-0.05162869296660949,-0.34170502884447296,1505.4945054945053,-1.0,51.87409303184612,1.9389892763157313,
2023-08-10 18:38:01.690000,-8.409638554216867,0.24096385542168675,-5.0602409638554215,0.3629675045984059,-8.265481299816063,-4.750459840588595,2.0,1.9377289377289375,516.0680529300568,-0.20604859856651808,0.08694132043587237,-0.23285356331216167,1475.4578754578754,-1.0,51.87409303184612,1.9389737306752715,
2023-08-10 18:38:01.698000,-8.421686746987952,0.24096385542168675,-5.0602409638554215,0.3261802575107296,-8.282648681790313,-4.676885346413243,2.0,1.9377289377289375,516.0680529300568,0.028553114620360476,-0.20336810209195189,-0.3088398111998137,1455.6776556776556,-1.0,51.87409303184612,1.9389581848666435,
2023-08-10 18:38:01.706000,-8.409638554216867,0.26506024096385544,-5.0602409638554215,0.31882280809319435,-8.260576333537706,-4.671980380134887,2.0,1.936263736263736,516.4585698070375,0.03251558766971586,-0.2619893945574272,-0.5360992949128839,1441.7582417582416,-1.0,51.87409303184612,1.9389426315960523,
2023-08-10 18:38:01.713000,-8.409638554216867,0.24096385542168675,-5.048192771084338,0.39239730226854685,-8.233599019006745,-4.730839975475169,2.0,1.936263736263736,516.4585698070375,-0.2541809917836955,-0.44030068177845066,-0.48680146844589467,1435.8974358974358,-1.0,51.87409303184612,1.9389270637096605,
2023-08-10 18:38:01.721000,-8.409638554216867,0.22891566265060243,-5.0361445783132535,0.3605150214592274,-8.24095646842428,-4.664622930717351,2.0,1.9377289377289375,516.0680529300568,-0.5238622457898718,-0.08321193403647865,-0.7578812423518444,1432.9670329670328,-1.0,51.87409303184612,1.938911473638656,
2023-08-10 18:38:01.729000,-8.3855421686747,0.22891566265060243,-5.0361445783132535,0.3654199877375843,-8.245861434702636,-4.762722256284488,2.0,1.9377289377289375,516.0680529300568,-0.22457898723850578,-0.06712895518909198,-0.569081055882524,1431.5018315018315,-1.0,51.87409303184612,1.938895853964545,
2023-08-10 18:38:01.736000,-8.397590361445783,0.22891566265060243,-5.024096385542169,0.27467811158798283,-8.221336603310851,-4.694052728387492,2.0,1.936263736263736,516.4585698070375,-0.4160596701823898,0.13204358720354287,-0.7786259541984732,1432.9670329670328,-1.0,51.87409303184612,1.9388801980174866,
2023-08-10 18:38:01.744000,-8.3855421686747,0.22891566265060243,-5.0361445783132535,0.35561005518087063,-8.199264255058246,-4.706315144083384,2.0,1.9377289377289375,516.0680529300568,-0.22504516053843088,-0.12866383077909166,-0.4066196608589238,1437.3626373626373,-1.0,51.87409303184612,1.9388644989628758,
2023-08-10 18:38:01.752000,-8.397590361445783,0.24096385542168675,-5.072289156626506,0.3041079092581238,-8.285101164929491,-4.757817290006131,2.0,1.9377289377289375,516.0680529300568,-0.29485461220208553,0.009323465998484274,-0.662082629217412,1439.5604395604394,-1.0,51.87409303184612,1.9388487502575051,
2023-08-10 18:38:01.759000,-8.397590361445783,0.22891566265060243,-5.0602409638554215,0.3408951563458001,-8.20907418761496,-4.691600245248313,2.0,1.9377289377289375,516.0680529300568,-0.3655964104655904,0.099527999533827,-0.5805023017306681,1438.8278388278388,-1.0,51.87409303184612,1.9388329462081262,
2023-08-10 18:38:01.767000,-8.397590361445783,0.22891566265060243,-5.0602409638554215,0.3850398528510116,-8.297363580625383,-4.716125076640098,2.0,1.9377289377289375,516.0680529300568,-0.1889167297943004,0.22015034088922533,-0.5929724375036424,1438.8278388278388,-1.0,51.87409303184612,1.9388170815452777,
2023-08-10 18:38:01.775000,-8.397590361445783,0.22891566265060243,-5.0602409638554215,0.3605150214592274,-8.189454322501533,-4.755364806866953,2.0,1.9377289377289375,516.0680529300568,-0.3070916613250977,0.35545714119223853,-0.19194685624380822,1421.9780219780218,-1.0,51.87409303184612,1.9388011514531134,
2023-08-10 18:38:01.782000,-8.397590361445783,0.22891566265060243,-5.0602409638554215,0.35806253832004903,-8.245861434702636,-4.708767627222563,2.0,1.9377289377289375,516.0680529300568,-0.3433366353942073,0.30697511800011684,-0.6028786201270325,1409.5238095238094,-1.0,51.87409303184612,1.9387851515972259,
2023-08-10 18:38:01.790000,-8.421686746987952,0.2530120481927711,-5.0602409638554215,0.3531575720416922,-8.336603310852237,-4.770079705702023,2.0,1.9377289377289375,516.0680529300568,-0.13693840685274666,0.0012819765747909368,-0.5823669949303649,1395.6043956043954,-1.0,51.87409303184612,1.9387690781503626,
