Shimmer_F5D4_Timestamp_FormattedUnix_CAL,Shimmer_F5D4_Accel_LN_X_CAL,Shimmer_F5D4_Accel_LN_Y_CAL,Shimmer_F5D4_Accel_LN_Z_CAL,Shimmer_F5D4_Accel_WR_X_CAL,Shimmer_F5D4_Accel_WR_Y_CAL,Shimmer_F5D4_Accel_WR_Z_CAL,Shimmer_F5D4_GSR_Range_CAL,Shimmer_F5D4_GSR_Skin_Conductance_CAL,Shimmer_F5D4_GSR_Skin_Resistance_CAL,Shimmer_F5D4_Gyro_X_CAL,Shimmer_F5D4_Gyro_Y_CAL,Shimmer_F5D4_Gyro_Z_CAL,Shimmer_F5D4_PPG_A13_CAL,Shimmer_F5D4_PPG_IBI_CAL,Shimmer_F5D4_PPGtoHR_CAL,Shimmer_F5D4_GSR_Skin_Conductance_LPF_CAL,
yyyy/mm/dd hh:mm:ss.000,m/(s^2),m/(s^2),m/(s^2),m/(s^2),m/(s^2),m/(s^2),no_units,uS,kOhms,deg/s,deg/s,deg/s,mV,ms,BPM,uS,
2023-08-09 18:17:45.123000,0.22891566265060243,9.674698795180724,0.12048192771084337,10.089515634580012,0.5045984058859595,0.6474555487431024,2.0,3.5362637362637366,282.7843380981976,-0.23833109958627052,0.4436804382029019,-0.15978089854903574,1304.7619047619046,-1.0,62.16657180800607,3.5463535527568593,
2023-08-09 18:17:45.130000,0.21686746987951808,9.686746987951807,0.13253012048192772,10.133660331085224,0.5364806866952789,0.6842427958307786,2.0,3.5347985347985347,282.9015544041451,0.08274576073655357,0.29089213915273016,-0.09754676300914844,1301.098901098901,-1.0,62.16657180800607,3.546250840357388,
2023-08-09 18:17:45.138000,0.16867469879518074,9.66265060240964,0.08433734939759037,10.099325567136725,0.4702636419374617,0.6719803801348866,2.0,3.5362637362637366,282.7843380981976,-0.27119631723093063,0.10756948895752033,0.07050871161354232,1295.970695970696,-1.0,62.16657180800607,3.5461484148287714,
2023-08-09 18:17:45.146000,0.1927710843373494,9.66265060240964,0.0963855421686747,10.096873083997547,0.502145922746781,0.6989576946658491,2.0,3.5347985347985347,282.9015544041451,-0.22551133383835423,-0.1964920459180704,0.03880892721869361,1293.040293040293,-1.0,62.16657180800607,3.546046255462478,
2023-08-09 18:17:45.153000,0.20481927710843376,9.650602409638555,0.04819277108433735,10.111587982832617,0.41385652973635806,0.6744328632740649,2.0,3.5362637362637366,282.7843380981976,-0.04253831361808689,-0.027271138045567803,0.298350911951518,1290.10989010989,-1.0,62.16657180800607,3.5459443410227065,
2023-08-09 18:17:45.161000,0.20481927710843376,9.674698795180724,0.08433734939759037,10.136112814224402,0.5561005518087063,0.6989576946658491,2.0,3.5362637362637366,282.7843380981976,-0.05733931589068263,-0.05722277256570179,0.06911019171376967,1288.6446886446886,-1.0,62.16657180800607,3.545842649778102,
2023-08-09 18:17:45.169000,0.2530120481927711,9.674698795180724,0.08433734939759037,10.057633353770692,0.5732679337829553,0.6989576946658491,2.0,3.5347985347985347,282.9015544041451,-0.05815511916555022,-0.39403298176097007,0.33051686964629096,1287.9120879120878,-1.0,62.16657180800607,3.545741160098223,
2023-08-09 18:17:45.176000,0.28915662650602414,9.66265060240964,0.07228915662650603,10.143470263641937,0.5144083384426732,0.5935009196811771,2.0,3.5347985347985347,282.9015544041451,-0.3779500029135834,-0.16525843482314548,0.16549152147310758,1287.9120879120878,-1.0,62.16657180800607,3.545639849577147,
2023-08-09 18:17:45.184000,0.28915662650602414,9.674698795180724,0.060240963855421686,10.09196811771919,0.5708154506437768,0.6229307173513182,2.0,3.5347985347985347,282.9015544041451,-0.052211409591515406,-0.16677349804789982,0.1672396713478236,1288.6446886446886,-1.0,62.16657180800607,3.545538695038182,
2023-08-09 18:17:45.192000,0.3132530120481928,9.674698795180724,0.060240963855421686,10.12139791538933,0.5536480686695279,0.6376456161863887,2.0,3.5347985347985347,282.9015544041451,-0.09603169978439496,0.03414719421945104,-0.06025289901520874,1287.9120879120878,-1.0,62.16657180800607,3.5454376730657113,
2023-08-09 18:17:45.199000,0.28915662650602414,9.674698795180724,0.060240963855421686,10.123850398528509,0.6713672593500919,0.6204782342121398,2.0,3.5347985347985347,282.9015544041451,-0.2600081580327495,0.5082454402424103,0.1554687955247361,1286.4468864468863,-1.0,62.16657180800607,3.545336760538963,
2023-08-09 18:17:45.207000,0.27710843373493976,9.698795180722891,0.03614457831325302,10.116492949110974,0.5928877988963825,0.6302881667688535,2.0,3.5347985347985347,282.9015544041451,-0.5153545830662551,0.7647572985257277,0.311636850999359,1283.5164835164835,-1.0,62.16657180800607,3.5452359346424713,
2023-08-09 18:17:45.215000,0.2530120481927711,9.686746987951807,0.08433734939759037,10.111587982832617,0.5168608215818516,0.6033108522378908,2.0,3.5347985347985347,282.9015544041451,-0.27795583007983304,1.1276732125167537,0.23471825651185851,1280.5860805860805,-1.0,62.16657180800607,3.545135172457094,
2023-08-09 18:17:45.222000,0.26506024096385544,9.674698795180724,0.0963855421686747,10.067443286327405,0.5168608215818516,0.6842427958307786,2.0,3.5347985347985347,282.9015544041451,-0.6851582075636619,0.8470368859623562,0.44880834450206863,1282.051282051282,-1.0,62.16657180800607,3.5450344510446112,
2023-08-09 18:17:45.230000,0.22891566265060243,9.674698795180724,0.10843373493975904,10.131207847946046,0.5217657878602084,0.6474555487431024,2.0,3.5347985347985347,282.9015544041451,-0.6189615989744184,0.5836489715051572,0.372006293339549,1283.5164835164835,-1.0,62.16657180800607,3.5449337475330656,
2023-08-09 18:17:45.238000,0.24096385542168675,9.686746987951807,0.10843373493975904,10.126302881667687,0.5462906192519926,0.6719803801348866,2.0,3.5347985347985347,282.9015544041451,-0.3377425557951167,0.6434356972204409,0.20185303886719885,1284.2490842490843,-1.0,62.16657180800607,3.544833039202689,
2023-08-09 18:17:45.245000,0.24096385542168675,9.686746987951807,0.10843373493975904,10.096873083997547,0.5536480686695279,0.6597179644389944,2.0,3.5347985347985347,282.9015544041451,-0.33226501952100695,0.6400559407959914,0.20033797564244493,1282.051282051282,-1.0,62.16657180800607,3.5447323035722516,
2023-08-09 18:17:45.253000,0.2530120481927711,9.674698795180724,0.07228915662650603,10.116492949110974,0.6149601471489883,0.6597179644389944,2.0,3.5347985347985347,282.9015544041451,-0.5580094400093228,0.22504516053843088,0.4890157916205349,1279.120879120879,-1.0,62.16657180800607,3.54463151848567,
2023-08-09 18:17:45.261000,0.27710843373493976,9.674698795180724,0.10843373493975904,10.087063151440834,0.5855303494788473,0.6597179644389944,2.0,3.5318681318681313,283.13627878033606,-0.16059670182390334,0.03985781714352244,0.28821164267816574,1276.923076923077,-1.0,62.16657180800607,3.5445306621986434,
2023-08-09 18:17:45.268000,0.30120481927710846,9.674698795180724,0.0963855421686747,10.12139791538933,0.6198651134273452,0.6989576946658491,2.0,3.5318681318681313,283.13627878033606,-0.6021793601771467,0.19357846279354426,0.3331973661208554,1276.923076923077,-1.0,62.16657180800607,3.5444297129377555,
2023-08-09 18:17:45.276000,0.3132530120481928,9.66265060240964,0.10843373493975904,10.074800735744942,0.5855303494788473,0.6719803801348866,2.0,3.533333333333333,283.0188679245283,-0.4139618903327313,0.23891381621117644,0.35941961424159435,1279.120879120879,-1.0,62.16657180800607,3.5443286487750334,
2023-08-09 18:17:45.284000,0.30120481927710846,9.674698795180724,0.12048192771084337,10.10668301655426,0.5806253832004905,0.6916002452483139,2.0,3.533333333333333,283.0188679245283,-0.3055765981003433,0.15919818192412982,-0.06992599498863683,1284.2490842490843,-1.0,62.16657180800607,3.5442274486225545,
2023-08-09 18:17:45.291000,0.3132530120481928,9.66265060240964,0.12048192771084337,10.099325567136725,0.5511955855303494,0.7234825260576333,2.0,3.533333333333333,283.0188679245283,-0.36711147369034475,-0.008740749373580091,-0.22201503408892262,1288.6446886446886,-1.0,62.16657180800607,3.544126092380884,
2023-08-09 18:17:45.299000,0.28915662650602414,9.66265060240964,0.13253012048192772,10.072348252605762,0.5977927651747393,0.7063151440833844,2.0,3.533333333333333,283.0188679245283,-0.47328244274809156,-0.0692267350387505,-0.23506788648680146,1294.5054945054944,-1.0,62.16657180800607,3.544024560102392,
2023-08-09 18:17:45.307000,0.27710843373493976,9.650602409638555,0.12048192771084337,10.069895769466584,0.5340282035561005,0.6768853464132434,2.0,3.533333333333333,283.0188679245283,-0.3229415535225227,0.43622166540411444,-0.050113629741856444,1296.7032967032967,-1.0,62.16657180800607,3.5439228321352996,
2023-08-09 18:17:45.314000,0.2530120481927711,9.66265060240964,0.1566265060240964,10.050275904353157,0.595340282035561,0.6940527283874923,2.0,3.533333333333333,283.0188679245283,-0.11153196200687572,0.28098595652934,0.013169395722859687,1295.2380952380952,-1.0,62.16657180800607,3.543820890144263,
2023-08-09 18:17:45.322000,0.26506024096385544,9.66265060240964,0.12048192771084337,10.136112814224402,0.49478847332924586,0.6719803801348866,2.0,3.533333333333333,283.0188679245283,0.08414428063632708,-0.02051162519666714,-0.6106870229007634,1291.5750915750914,-1.0,62.16657180800607,3.5437187171112683,
2023-08-09 18:17:45.330000,0.24096385542168675,9.674698795180724,0.12048192771084337,10.07725321888412,0.5340282035561005,0.6793378295524218,2.0,3.533333333333333,283.0188679245283,0.20325155876697107,0.10547170910786008,-0.359069984266651,1287.179487179487,-1.0,62.16657180800607,3.543616296913349,
2023-08-09 18:17:45.337000,0.24096385542168675,9.650602409638555,0.14457831325301207,10.074800735744942,0.5536480686695279,0.7504598405885959,2.0,3.533333333333333,283.0188679245283,0.21164267816560864,-0.05897092244041781,-0.44577821805256124,1282.7838827838827,-1.0,62.16657180800607,3.5435136143901156,
2023-08-09 18:17:45.345000,0.24096385542168675,9.650602409638555,0.08433734939759037,10.099325567136725,0.4702636419374617,0.6695278969957081,2.0,3.533333333333333,283.0188679245283,-0.15884855194918732,-0.40766855078375397,-0.24019579278596825,1281.3186813186812,-1.0,62.16657180800607,3.543410655408368,
2023-08-09 18:17:45.353000,0.22891566265060243,9.66265060240964,0.07228915662650603,10.10668301655426,0.5119558553034947,0.6646229307173512,2.0,3.533333333333333,283.0188679245283,0.2960200454518974,-0.749956296253132,0.01165433249810621,1283.5164835164835,-1.0,62.16657180800607,3.5433074069235864,
2023-08-09 18:17:45.360000,0.21686746987951808,9.66265060240964,0.08433734939759037,10.084610668301655,0.5438381361128142,0.6351931330472103,2.0,3.533333333333333,283.0188679245283,0.5963521939280927,-1.0464425150049528,-0.10873492220733044,1284.2490842490843,-1.0,62.16657180800607,3.543203857038289,
2023-08-09 18:17:45.368000,0.22891566265060243,9.686746987951807,0.060240963855421686,10.150827713059472,0.5266707541385652,0.6327406499080318,2.0,3.5318681318681313,283.13627878033606,0.4523046442515011,-1.3704329584523047,-0.13670532020278542,1283.5164835164835,-1.0,62.16657180800607,3.543099995057075,
2023-08-09 18:17:45.376000,0.21686746987951808,9.686746987951807,0.060240963855421686,10.10668301655426,0.5168608215818516,0.6302881667688535,2.0,3.533333333333333,283.0188679245283,0.23495134316182106,-1.7852106520599036,-0.13239321717848623,1281.3186813186812,-1.0,62.16657180800607,3.542995811045651,
2023-08-09 18:17:45.383000,0.24096385542168675,9.66265060240964,0.08433734939759037,10.145922746781116,0.5217657878602084,0.657265481299816,2.0,3.5318681318681313,283.13627878033606,0.24742147893479485,-1.0041372880368276,-0.09836256628401603,1279.120879120879,-1.0,62.16657180800607,3.5428912967574377,
2023-08-09 18:17:45.391000,0.2530120481927711,9.66265060240964,0.04819277108433735,10.111587982832617,0.5315757204169221,0.6523605150214592,2.0,3.533333333333333,283.0188679245283,0.4412330283782991,-0.9008799021036068,0.05326029951634554,1276.923076923077,-1.0,62.16657180800607,3.5427864456428813,
2023-08-09 18:17:45.399000,0.26506024096385544,9.674698795180724,0.024096385542168676,10.158185162477007,0.51931330472103,0.5910484365419988,2.0,3.533333333333333,283.0188679245283,0.5132568032165966,-0.8620709748849136,0.006876056173882369,1276.923076923077,-1.0,62.16657180800607,3.5426812519063757,
2023-08-09 18:17:45.406000,0.26506024096385544,9.66265060240964,0.012048192771084338,10.163090128755364,0.5781729000613121,0.6082158185162476,2.0,3.533333333333333,283.0188679245283,0.08123069751179923,-1.160421886836431,-0.03845929724375023,1278.3882783882782,-1.0,62.16657180800607,3.5425757115964975,
2023-08-09 18:17:45.414000,0.22891566265060243,9.650602409638555,0.024096385542168676,10.0453709380748,0.5683629675045984,0.5910484365419988,2.0,3.5304029304029307,283.2537870927578,0.08076452421187588,-0.8469203426373754,0.06957636501369388,1279.8534798534797,-1.0,62.16657180800607,3.5424698221471203,
2023-08-09 18:17:45.422000,0.2530120481927711,9.63855421686747,0.024096385542168676,10.09196811771919,0.5634580012262416,0.598405885959534,2.0,3.5318681318681313,283.13627878033606,-0.04183905366820187,-0.9937649321135139,0.31420080414894214,1280.5860805860805,-1.0,62.16657180800607,3.5423635819145374,
2023-08-09 18:17:45.429000,0.21686746987951808,9.650602409638555,0.012048192771084338,10.155732679337829,0.5585530349478847,0.5861434702636419,2.0,3.5318681318681313,283.13627878033606,-0.04242177029310605,-1.1266243225919226,0.06724549851407281,1279.120879120879,-1.0,62.16657180800607,3.542256990907486,
2023-08-09 18:17:45.437000,0.22891566265060243,9.66265060240964,-0.012048192771084338,10.109135499693439,0.49969343960760265,0.6033108522378908,2.0,3.5318681318681313,283.13627878033606,0.2160713245148891,-0.9191772041256345,0.21758638773964215,1277.6556776556777,-1.0,62.16657180800607,3.5421500508071913,
2023-08-09 18:17:45.445000,0.20481927710843376,9.650602409638555,-0.03614457831325302,10.10668301655426,0.4923359901900674,0.5150214592274678,2.0,3.5318681318681313,283.13627878033606,-0.1827399335703039,-0.5912242876289254,-0.04335411689295491,1276.1904761904761,-1.0,62.16657180800607,3.5420427645264008,
2023-08-09 18:17:45.452000,0.21686746987951808,9.710843373493976,-0.04819277108433735,10.1704475781729,0.5168608215818516,0.510116492949111,2.0,3.5318681318681313,283.13627878033606,-0.33308082279587453,-0.7863178136472241,0.14101742322708463,1273.9926739926739,-1.0,62.16657180800607,3.5419351362209315,
2023-08-09 18:17:45.460000,0.20481927710843376,9.72289156626506,-0.024096385542168676,10.18516247700797,0.5389331698344574,0.5444512568976088,2.0,3.5318681318681313,283.13627878033606,-0.5132568032165966,-0.7667385350504053,-0.21024415826583512,1273.260073260073,-1.0,62.16657180800607,3.5418271712959126,
2023-08-09 18:17:45.467000,0.21686746987951808,9.734939759036145,0.0,10.18516247700797,0.5389331698344574,0.510116492949111,2.0,3.5318681318681313,283.13627878033606,-0.9661441640930019,-0.716974535283491,0.12656605092943313,1271.062271062271,-1.0,62.16657180800607,3.541718876406875,
2023-08-09 18:17:45.475000,0.21686746987951808,9.74698795180723,-0.012048192771084338,10.180257510729612,0.5413856529736357,0.5150214592274678,2.0,3.5318681318681313,283.13627878033606,-1.3839519841501078,-0.954256744944934,0.09335120330983052,1269.5970695970695,-1.0,62.16657180800607,3.5416102589979497,
2023-08-09 18:17:45.483000,0.21686746987951808,9.734939759036145,-0.024096385542168676,10.165542611894542,0.5585530349478847,0.5567136725935009,2.0,3.5318681318681313,283.13627878033606,-2.180758697045626,-0.8523978789114851,0.12225394790513394,1269.5970695970695,-1.0,62.16657180800607,3.5415013278182315,
2023-08-09 18:17:45.490000,0.21686746987951808,9.72289156626506,-0.012048192771084338,10.177805027590434,0.47516860821581847,0.5714285714285714,2.0,3.5318681318681313,283.13627878033606,-1.839170211526135,-0.7513548161529054,0.12003962473049327,1272.5274725274724,-1.0,62.16657180800607,3.541392093329504,
2023-08-09 18:17:45.498000,0.20481927710843376,9.686746987951807,-0.04819277108433735,10.116492949110974,0.5511955855303494,0.5567136725935009,2.0,3.5318681318681313,283.13627878033606,-2.068877105063808,-1.0474914049297819,0.33074995629625303,1275.4578754578754,-1.0,62.16657180800607,3.541282567196384,
2023-08-09 18:17:45.506000,0.22891566265060243,9.674698795180724,-0.012048192771084338,10.148375229920294,0.5315757204169221,0.5763335377069282,2.0,3.5318681318681313,283.13627878033606,-2.0192296486218746,-0.7624264320261057,0.3265543965969347,1277.6556776556777,-1.0,62.16657180800607,3.541172762264956,
2023-08-09 18:17:45.513000,0.26506024096385544,9.686746987951807,0.024096385542168676,10.18761496014715,0.5487431023911711,0.5591661557326794,2.0,3.5318681318681313,283.13627878033606,-2.59716799720296,-0.7577646990268636,0.5838820581551193,1279.120879120879,-1.0,62.16657180800607,3.541062692537444,
2023-08-09 18:17:45.521000,0.28915662650602414,9.686746987951807,0.03614457831325302,10.082158185162477,0.6174126302881667,0.5787860208461066,2.0,3.5318681318681313,283.13627878033606,-2.5750247654565577,-0.7538022259775065,0.5785210652059904,1279.120879120879,949.8291015625,63.169258450070686,3.5409523736011,
2023-08-09 18:17:45.529000,0.30120481927710846,9.710843373493976,0.07228915662650603,10.165542611894542,0.6394849785407725,0.6106683016554261,2.0,3.5318681318681313,283.13627878033606,-2.0509294330167243,-0.4324922790047207,0.6940155002622224,1280.5860805860805,-1.0,63.169258450070686,3.5408418225285203,
2023-08-09 18:17:45.536000,0.3373493975903615,9.72289156626506,0.08433734939759037,10.197424892703863,0.6517473942366646,0.7112201103617413,2.0,3.5304029304029307,283.2537870927578,-2.826292174115727,-0.3725890099644545,0.22830837363789994,1282.7838827838827,-1.0,63.169258450070686,3.5407310568958543,
2023-08-09 18:17:45.544000,0.3132530120481928,9.710843373493976,0.13253012048192772,10.116492949110974,0.595340282035561,0.7578172900061312,2.0,3.5318681318681313,283.13627878033606,-2.296835848726765,0.4178078200571058,0.4694365130237166,1284.2490842490843,-1.0,63.169258450070686,3.5406200947805195,
2023-08-09 18:17:45.552000,0.2530120481927711,9.698795180722891,0.14457831325301207,10.116492949110974,0.6002452483139178,0.7283874923359902,2.0,3.5304029304029307,283.2537870927578,-2.3365771225453047,0.7625429753510866,0.1421828564768956,1287.9120879120878,-1.0,63.169258450070686,3.5405089551070077,
2023-08-09 18:17:45.559000,0.21686746987951808,9.686746987951807,0.14457831325301207,10.123850398528509,0.47516860821581847,0.7602697731453096,2.0,3.5318681318681313,283.13627878033606,-2.1626944816735634,1.122778392867548,0.2903094225278247,1292.3076923076922,-1.0,63.169258450070686,3.5403976576710248,
2023-08-09 18:17:45.567000,0.18072289156626506,9.66265060240964,0.18072289156626506,10.133660331085224,0.48252605763335377,0.7014101778050276,2.0,3.528937728937729,283.37139298318453,-2.523862245789872,0.6259541984732824,0.5784045218810091,1296.7032967032967,-1.0,63.169258450070686,3.540286223479905,
2023-08-09 18:17:45.575000,0.1927710843373494,9.674698795180724,0.18072289156626506,10.082158185162477,0.4334763948497854,0.7529123237277743,2.0,3.5304029304029307,283.2537870927578,-2.396247304935611,0.16467571819823956,0.4472932812773147,1302.5641025641025,-1.0,63.169258450070686,3.540174674212142,
2023-08-09 18:17:45.582000,0.18072289156626506,9.63855421686747,0.18072289156626506,10.033108522378908,0.502145922746781,0.7014101778050276,2.0,3.5304029304029307,283.2537870927578,-1.9022201503408889,-0.16770584464774824,0.8224462443913524,1309.89010989011,-1.0,63.169258450070686,3.5400630315353494,
2023-08-09 18:17:45.590000,0.1927710843373494,9.614457831325302,0.22891566265060243,10.067443286327405,0.4678111587982832,0.7357449417535254,2.0,3.5304029304029307,283.2537870927578,-2.070625254938524,-0.8472699726123196,0.8565934386108034,1323.8095238095236,-1.0,63.169258450070686,3.53995131807101,
2023-08-09 18:17:45.598000,0.26506024096385544,9.614457831325302,0.21686746987951808,10.033108522378908,0.5536480686695279,0.7995095033721643,2.0,3.5304029304029307,283.2537870927578,-1.7355631956179718,-1.215313792902511,0.8000699259949888,1347.985347985348,-1.0,63.169258450070686,3.5398395568467476,
2023-08-09 18:17:45.605000,0.30120481927710846,9.63855421686747,0.21686746987951808,10.10668301655426,0.6174126302881667,0.8019619865113427,2.0,3.5304029304029307,283.2537870927578,-1.6318396363848242,-1.2485286405221137,0.713361692209079,1381.6849816849815,-1.0,63.169258450070686,3.539727771274306,
2023-08-09 18:17:45.613000,0.3253012048192771,9.650602409638555,0.18072289156626506,10.116492949110974,0.5928877988963825,0.7553648068669527,2.0,3.5304029304029307,283.2537870927578,-1.4059786725715275,-1.2568032165957685,0.765806188450556,1421.9780219780218,-1.0,63.169258450070686,3.5396159855145855,
2023-08-09 18:17:45.621000,0.3614457831325301,9.66265060240964,0.1927710843373494,10.116492949110974,0.6885346413243408,0.7774371551195585,2.0,3.5304029304029307,283.2537870927578,-0.8592739350853683,-0.8532136821863526,0.772332614649496,1465.201465201465,-1.0,63.169258450070686,3.5395042234704053,
2023-08-09 18:17:45.628000,0.3734939759036145,9.674698795180724,0.22891566265060243,10.15328019619865,0.6909871244635193,0.8338442673206621,2.0,3.5304029304029307,283.2537870927578,-0.9867723326146498,-0.49857234426898167,0.6580036128430741,1514.2857142857142,-1.0,63.169258450070686,3.5393925092541143,
2023-08-09 18:17:45.636000,0.3855421686746988,9.698795180722891,0.21686746987951808,10.118945432250152,0.7179644389944819,0.7651747394236664,2.0,3.5304029304029307,283.2537870927578,-0.7628926053260291,-0.45650020395081814,1.0943418215721694,1564.8351648351647,-1.0,63.169258450070686,3.539280867550738,
2023-08-09 18:17:45.644000,0.3614457831325301,9.674698795180724,0.21686746987951808,10.150827713059472,0.6615573267933783,0.7406499080318822,2.0,3.5304029304029307,283.2537870927578,-1.0735971097255397,0.12155468795524675,0.5651185828331686,1619.047619047619,-1.0,63.169258450070686,3.539169323067913,
2023-08-09 18:17:45.651000,0.3373493975903615,9.674698795180724,0.24096385542168675,10.082158185162477,0.6517473942366646,0.82158185162477,2.0,3.5304029304029307,283.2537870927578,-0.6941320435872054,0.013752112347764738,0.40685274750888634,1677.6556776556774,-1.0,63.169258450070686,3.539057900478843,
2023-08-09 18:17:45.659000,0.3253012048192771,9.674698795180724,0.21686746987951808,10.114040465971796,0.5119558553034947,0.82158185162477,2.0,3.5304029304029307,283.2537870927578,-0.590874657653983,-0.21409008799020968,0.5238622457898727,1738.4615384615383,-1.0,63.169258450070686,3.538946624365924,
2023-08-09 18:17:45.667000,0.28915662650602414,9.674698795180724,0.24096385542168675,10.10668301655426,0.5462906192519926,0.7798896382587369,2.0,3.528937728937729,283.37139298318453,-0.5305052153137917,-0.3017306683759688,0.6729211584406506,1799.2673992673992,-1.0,63.169258450070686,3.5388355191654886,
2023-08-09 18:17:45.674000,0.28915662650602414,9.674698795180724,0.2530120481927711,10.177805027590434,0.6664622930717351,0.8093194359288779,2.0,3.5304029304029307,283.2537870927578,-0.532369908513492,-0.8479692325622046,0.2992832585513669,1853.4798534798533,-1.0,63.169258450070686,3.5387246081633994,
2023-08-09 18:17:45.682000,0.30120481927710846,9.674698795180724,0.21686746987951808,10.101778050275904,0.5879828326180258,0.7921520539546291,2.0,3.528937728937729,283.37139298318453,-0.18332265019521157,-1.4331332672921162,0.6617329992424682,1900.3663003663003,-1.0,63.169258450070686,3.5386139143886086,
2023-08-09 18:17:45.690000,0.3253012048192771,9.698795180722891,0.16867469879518074,10.10668301655426,0.5511955855303494,0.7553648068669527,2.0,3.5304029304029307,283.2537870927578,-0.4622108268748913,-1.467280461511567,0.48866616164559196,1936.263736263736,-1.0,63.169258450070686,3.5385034610161576,
2023-08-09 18:17:45.697000,0.30120481927710846,9.674698795180724,0.16867469879518074,10.163090128755364,0.6100551808706315,0.745554874310239,2.0,3.528937728937729,283.37139298318453,-0.2515004953091311,-1.7140026804964752,0.37923197948837517,1958.974358974359,-1.0,63.169258450070686,3.538393270789664,
2023-08-09 18:17:45.705000,0.3253012048192771,9.674698795180724,0.16867469879518074,10.114040465971796,0.6689147762109136,0.7234825260576333,2.0,3.5304029304029307,283.2537870927578,0.15616805547462287,-1.4549268690635742,0.36221665404114006,1971.4285714285713,-1.0,63.169258450070686,3.5382833660084545,
2023-08-09 18:17:45.713000,0.3493975903614458,9.698795180722891,0.14457831325301207,10.12139791538933,0.6860821581851625,0.7161250766400981,2.0,3.5304029304029307,283.2537870927578,0.04428646349280464,-1.915855719363673,0.38972087873667044,1977.2893772893772,-1.0,63.169258450070686,3.538173768447918,
2023-08-09 18:17:45.720000,0.3614457831325301,9.698795180722891,0.16867469879518074,10.20232985898222,0.700797057020233,0.7480073574494175,2.0,3.527472527472528,283.4890965732087,-0.26700075753161184,-2.0090903793485224,0.44787599790221977,1969.9633699633698,-1.0,63.169258450070686,3.538064499845086,
2023-08-09 18:17:45.728000,0.3734939759036145,9.686746987951807,0.1566265060240964,10.111587982832617,0.7572041692213366,0.7431023911710607,2.0,3.527472527472528,283.4890965732087,0.26315482780723554,-1.9923081405512508,0.3364605792203249,1950.18315018315,-1.0,63.169258450070686,3.537955580877351,
2023-08-09 18:17:45.736000,0.42168674698795183,9.686746987951807,0.16867469879518074,10.09196811771919,0.6885346413243408,0.7602697731453096,2.0,3.527472527472528,283.4890965732087,-0.09579861313443329,-1.7007167414486322,0.4686207097488488,1919.4139194139193,-1.0,63.169258450070686,3.5378470309186962,
2023-08-09 18:17:45.743000,0.44578313253012053,9.710843373493976,0.12048192771084337,10.0453709380748,0.7473942366646229,0.7308399754751685,2.0,3.528937728937729,283.37139298318453,0.3886719888118412,-1.6113280111881587,0.5573101800594368,1883.5164835164833,-1.0,63.169258450070686,3.5377388684278337,
2023-08-09 18:17:45.751000,0.44578313253012053,9.686746987951807,0.12048192771084337,10.165542611894542,0.7326793378295524,0.6646229307173512,2.0,3.528937728937729,283.37139298318453,0.05698968591573838,-1.9813530680030296,0.7356214672804617,1844.6886446886447,-1.0,63.169258450070686,3.5376311114082384,
2023-08-09 18:17:45.759000,0.46987951807228917,9.686746987951807,0.0963855421686747,10.114040465971796,0.7621091354996934,0.6597179644389944,2.0,3.528937728937729,283.37139298318453,0.1865858632946802,-1.9998834566750174,0.7436629567041548,1802.197802197802,-1.0,63.169258450070686,3.5375237774502204,
2023-08-09 18:17:45.766000,0.44578313253012053,9.686746987951807,0.10843373493975904,10.07725321888412,0.7841814837522991,0.7259350091968118,2.0,3.528937728937729,283.37139298318453,0.07039216828856235,-1.938814754384941,0.5071965503175803,1758.974358974359,-1.0,63.169258450070686,3.537416883251219,
2023-08-09 18:17:45.774000,0.4819277108433735,9.66265060240964,0.14457831325301207,10.099325567136725,0.8234212139791538,0.7725321888412017,2.0,3.527472527472528,283.4890965732087,0.04440300681778548,-1.8472117009498266,0.5444904143115207,1714.2857142857142,-1.0,63.169258450070686,3.537310444597459,
2023-08-09 18:17:45.782000,0.4819277108433735,9.674698795180724,0.1566265060240964,10.064990803188227,0.7596566523605149,0.7185775597792765,2.0,3.528937728937729,283.37139298318453,0.21513897791503894,-2.1999883456675007,0.6273527183730546,1671.0622710622708,-1.0,63.169258450070686,3.5372044758565804,
2023-08-09 18:17:45.789000,0.46987951807228917,9.66265060240964,0.18072289156626506,10.089515634580012,0.7743715511955855,0.7406499080318822,2.0,3.527472527472528,283.4890965732087,0.09708058970922596,-2.305226968125399,0.5109259367169744,1627.8388278388277,-1.0,63.169258450070686,3.537098990387185,
2023-08-09 18:17:45.797000,0.4819277108433735,9.650602409638555,0.18072289156626506,10.089515634580012,0.7596566523605149,0.7676272225628449,2.0,3.527472527472528,283.4890965732087,0.10139269273352212,-2.286113862828507,0.5030009906182626,1585.3479853479853,-1.0,63.169258450070686,3.5369940005635896,
2023-08-09 18:17:45.805000,0.46987951807228917,9.650602409638555,0.18072289156626506,10.07725321888412,0.7719190680564071,0.7725321888412017,2.0,3.527472527472528,283.4890965732087,0.27189557718081736,-2.4051045976341685,0.28238447642911263,1545.7875457875457,-1.0,63.169258450070686,3.5368895172420416,
2023-08-09 18:17:45.812000,0.4819277108433735,9.626506024096386,0.18072289156626506,10.096873083997547,0.847946045370938,0.7847946045370937,2.0,3.527472527472528,283.4890965732087,0.1801759804207203,-2.828273410640407,0.4738651593729966,1511.3553113553112,-1.0,63.169258450070686,3.5367855506712025,
2023-08-09 18:17:45.820000,0.46987951807228917,9.63855421686747,0.16867469879518074,10.096873083997547,0.7964438994481913,0.733292458614347,2.0,3.527472527472528,283.4890965732087,0.6238564186236238,-3.3080822795874374,0.040790163743371737,1481.3186813186812,-1.0,63.169258450070686,3.536682109965264,
2023-08-09 18:17:45.828000,0.4819277108433735,9.66265060240964,0.18072289156626506,10.064990803188227,0.8160637645616186,0.6989576946658491,2.0,3.527472527472528,283.4890965732087,0.5920400909037931,-3.704446127848026,-0.39088631198648116,1457.8754578754579,-1.0,63.169258450070686,3.5365792031424492,
2023-08-09 18:17:45.835000,0.5180722891566265,9.650602409638555,0.1927710843373494,10.020846106683017,0.8920907418761496,0.7087676272225628,2.0,3.527472527472528,283.4890965732087,0.6524095332439827,-3.578928966843425,-0.4827224520715571,1437.3626373626373,-1.0,63.169258450070686,3.5364768375551265,
2023-08-09 18:17:45.843000,0.5301204819277109,9.66265060240964,0.18072289156626506,10.079705702023299,0.9313304721030042,0.7676272225628449,2.0,3.527472527472528,283.4890965732087,0.680379931239439,-2.692966610337392,-0.55870869995921,1418.3150183150183,-1.0,63.169258450070686,3.53637501940972,
2023-08-09 18:17:45.850000,0.4819277108433735,9.650602409638555,0.18072289156626506,10.057633353770692,0.7817290006131208,0.7749846719803801,2.0,3.527472527472528,283.4890965732087,0.736320727230348,-3.260532602995164,-1.0772099527999537,1402.197802197802,-1.0,63.169258450070686,3.5362737537822606,
2023-08-09 18:17:45.858000,0.42168674698795183,9.66265060240964,0.22891566265060243,10.116492949110974,0.6640098099325566,0.7798896382587369,2.0,3.527472527472528,283.4890965732087,1.0217353301089684,-4.171435231047144,-1.4819649204591807,1386.080586080586,-1.0,63.169258450070686,3.5361730446369095,
2023-08-09 18:17:45.866000,0.3734939759036145,9.650602409638555,0.20481927710843376,10.094420600858369,0.6321275291232372,0.8313917841814837,2.0,3.527472527472528,283.4890965732087,1.2908338674902406,-4.190198706369093,-1.0770934094749722,1372.8937728937728,-1.0,63.169258450070686,3.5360728948474263,
2023-08-09 18:17:45.873000,0.3253012048192771,9.626506024096386,0.20481927710843376,10.01348865726548,0.5634580012262416,0.7651747394236664,2.0,3.527472527472528,283.4890965732087,1.0663714235767157,-3.5537556086475126,-0.9796631897908045,1364.8351648351647,-1.0,63.169258450070686,3.535973306221586,
2023-08-09 18:17:45.881000,0.26506024096385544,9.66265060240964,0.16867469879518074,10.069895769466584,0.6026977314530962,0.7431023911710607,2.0,3.5260073260073255,283.606897984625,1.669483130353709,-4.75613309247713,-1.065089447001923,1361.904761904762,-1.0,63.169258450070686,3.5358742799864014,
2023-08-09 18:17:45.889000,0.2530120481927711,9.674698795180724,0.14457831325301207,10.165542611894542,0.5487431023911711,0.6940527283874923,2.0,3.527472527472528,283.4890965732087,1.8417341646757186,-6.51488840976633,-1.057980304178078,1363.3699633699632,-1.0,63.169258450070686,3.5357758162583792,
2023-08-09 18:17:45.896000,0.30120481927710846,9.674698795180724,0.14457831325301207,10.072348252605762,0.5806253832004905,0.6940527283874923,2.0,3.527472527472528,283.4890965732087,1.7806654623856422,-7.01870520365946,-0.8900413728803681,1364.102564102564,-1.0,63.169258450070686,3.5356779140086885,
2023-08-09 18:17:45.904000,0.3253012048192771,9.63855421686747,0.13253012048192772,10.047823421213979,0.6468424279583077,0.6866952789699571,2.0,3.5260073260073255,283.606897984625,1.7806654623856422,-7.491987646407551,-0.7984383194452537,1365.5677655677655,-1.0,63.169258450070686,3.5355805716270963,
2023-08-09 18:17:45.912000,0.3855421686746988,9.66265060240964,0.060240963855421686,10.111587982832617,0.6934396076026977,0.6548129981606376,2.0,3.5260073260073255,283.606897984625,2.0249402715459475,-7.965270089155643,-0.5236291591399101,1367.7655677655678,-1.0,63.169258450070686,3.5354837860123194,
2023-08-09 18:17:45.919000,0.4096385542168675,9.674698795180724,0.07228915662650603,10.072348252605762,0.730226854690374,0.5861434702636419,2.0,3.527472527472528,283.4890965732087,2.48295553872152,-8.49962123419381,-0.9205757240254063,1371.4285714285713,-1.0,63.169258450070686,3.535387552084886,
2023-08-09 18:17:45.927000,0.43373493975903615,9.710843373493976,0.060240963855421686,10.111587982832617,0.7596566523605149,0.5935009196811771,2.0,3.5260073260073255,283.606897984625,2.5745585921566345,-8.804964745644192,-1.1190490064681544,1376.5567765567764,-1.0,63.169258450070686,3.535291864302096,
2023-08-09 18:17:45.935000,0.46987951807228917,9.710843373493976,0.03614457831325302,10.10668301655426,0.7670141017780502,0.568976088289393,2.0,3.5260073260073255,283.606897984625,1.750131111240604,-9.00343802808694,-0.7831711438727346,1378.7545787545787,-1.0,63.169258450070686,3.5351967166992373,
2023-08-09 18:17:45.942000,0.5180722891566265,9.72289156626506,0.0,10.160637645616186,0.8234212139791538,0.48068669527896996,2.0,3.5260073260073255,283.606897984625,1.8722685158207566,-8.896567799079307,-0.7679039683002155,1380.952380952381,-1.0,63.169258450070686,3.535102101914886,
2023-08-09 18:17:45.950000,0.49397590361445787,9.710843373493976,0.012048192771084338,10.079705702023299,0.8160637645616186,0.5836909871244634,2.0,3.5260073260073255,283.606897984625,1.551657828797856,-8.560689936483888,-0.8442398461628109,1380.952380952381,-1.0,63.169258450070686,3.5350080116930394,
2023-08-09 18:17:45.958000,0.46987951807228917,9.710843373493976,-0.024096385542168676,10.15328019619865,0.7964438994481913,0.5125689760882893,2.0,3.5260073260073255,283.606897984625,1.9638715692558713,-8.209544898315949,-0.6457665637200628,1380.952380952381,-1.0,63.169258450070686,3.534914436928501,
2023-08-09 18:17:45.965000,0.4819277108433735,9.698795180722891,-0.03614457831325302,10.145922746781116,0.7645616186388718,0.5346413243408952,2.0,3.5260073260073255,283.606897984625,1.5058563020802986,-7.904201386865567,-0.7679039683002155,1381.6849816849815,-1.0,63.169258450070686,3.53482136771335,
2023-08-09 18:17:45.973000,0.46987951807228917,9.686746987951807,-0.04819277108433735,10.09196811771919,0.6738197424892703,0.5076640098099325,2.0,3.5260073260073255,283.606897984625,1.4295204242177033,-7.873667035720528,-0.7373696171551773,1382.4175824175823,-1.0,63.169258450070686,3.5347287933844367,
2023-08-09 18:17:45.981000,0.42168674698795183,9.674698795180724,-0.03614457831325302,10.123850398528509,0.7106069895769466,0.5076640098099325,2.0,3.5260073260073255,283.606897984625,1.3531845463551078,-8.163743371598391,-0.6304993881475437,1383.8827838827838,-1.0,63.169258450070686,3.534636702571878,
2023-08-09 18:17:45.988000,0.39759036144578314,9.674698795180724,-0.012048192771084338,10.18270999386879,0.6958920907418761,0.5297363580625383,2.0,3.5245421245421245,283.7247973394305,1.0936425616222833,-9.00343802808694,-0.9053085484528872,1385.3479853479853,-1.0,63.169258450070686,3.5345450832484997,
2023-08-09 18:17:45.996000,0.42168674698795183,9.674698795180724,0.012048192771084338,10.094420600858369,0.7081545064377682,0.5321888412017167,2.0,3.5260073260073255,283.606897984625,0.8188334013169399,-9.201911310529688,-0.7984383194452537,1384.6153846153845,-1.0,63.169258450070686,3.534453922287527,
2023-08-09 18:17:46.004000,0.4096385542168675,9.698795180722891,0.0,10.131207847946046,0.7547516860821581,0.5812385039852851,2.0,3.5245421245421245,283.7247973394305,0.6203601188741918,-9.950002913583123,-0.5388963347124293,1378.7545787545787,-1.0,63.169258450070686,3.534363205934309,
2023-08-09 18:17:46.011000,0.4096385542168675,9.698795180722891,-0.012048192771084338,10.116492949110974,0.6983445738810545,0.5640711220110362,2.0,3.5260073260073255,283.606897984625,0.17761202727113842,-10.469086883048773,-0.8137054950177727,1370.6959706959706,-1.0,63.169258450070686,3.5342729198902108,
2023-08-09 18:17:46.019000,0.43373493975903615,9.698795180722891,-0.012048192771084338,10.109135499693439,0.7424892703862661,0.5444512568976088,2.0,3.5260073260073255,283.606897984625,0.4524211875764819,-11.064506730377017,-0.7221024415826582,1361.1721611721612,-1.0,63.169258450070686,3.5341830493275026,
2023-08-09 18:17:46.027000,0.45783132530120485,9.674698795180724,0.0,10.118945432250152,0.7670141017780502,0.5640711220110362,2.0,3.523076923076923,283.8427947598253,-0.036128430744128734,-11.232445661674726,-0.5999650370025056,1351.6483516483515,-1.0,63.169258450070686,3.53409357900905,
2023-08-09 18:17:46.034000,0.46987951807228917,9.674698795180724,-0.012048192771084338,10.111587982832617,0.7253218884120172,0.5763335377069282,2.0,3.5245421245421245,283.7247973394305,0.14707767612610026,-10.957636501369382,-0.676300914865101,1344.3223443223442,-1.0,63.169258450070686,3.5340044928813126,
2023-08-09 18:17:46.042000,0.46987951807228917,9.674698795180724,0.012048192771084338,10.09196811771919,0.7204169221336603,0.6057633353770693,2.0,3.5245421245421245,283.7247973394305,-0.28040323990443405,-10.728628867781596,-0.5846978614299865,1339.194139194139,-1.0,63.169258450070686,3.533915774830493,
2023-08-09 18:17:46.050000,0.45783132530120485,9.66265060240964,-0.012048192771084338,10.12139791538933,0.7792765174739423,0.6008583690987124,2.0,3.5245421245421245,283.7247973394305,-0.11246430860672414,-11.110308257094573,-0.15721694539945213,1334.065934065934,-1.0,63.169258450070686,3.533827408733635,
2023-08-09 18:17:46.057000,0.46987951807228917,9.674698795180724,0.04819277108433735,10.055180870631514,0.7719190680564071,0.6302881667688535,2.0,3.5245421245421245,283.7247973394305,-0.4330749956296249,-11.247712837247246,-0.3709574034147193,1325.2747252747251,-1.0,63.169258450070686,3.533739377595785,
2023-08-09 18:17:46.065000,0.44578313253012053,9.686746987951807,0.07228915662650603,10.07725321888412,0.730226854690374,0.6229307173513182,2.0,3.5245421245421245,283.7247973394305,-0.3262047666219913,-11.598857875415185,-0.4778276324223529,1317.216117216117,-1.0,63.169258450070686,3.5336516636695925,
2023-08-09 18:17:46.073000,0.43373493975903615,9.674698795180724,0.060240963855421686,10.128755364806866,0.7449417535254445,0.7283874923359902,2.0,3.5245421245421245,283.7247973394305,-0.3262047666219913,-11.598857875415185,-0.4778276324223529,1310.6227106227104,-1.0,63.169258450070686,3.533564248995476,
2023-08-09 18:17:46.080000,0.4096385542168675,9.698795180722891,0.07228915662650603,10.165542611894542,0.7106069895769466,0.6768853464132434,2.0,3.5245421245421245,283.7247973394305,0.20814637841617661,-11.797331157857933,-0.4778276324223529,1307.6923076923076,-1.0,63.169258450070686,3.533477115449243,
2023-08-09 18:17:46.088000,0.4096385542168675,9.686746987951807,0.08433734939759037,10.040465971796444,0.7032495401594113,0.6131207847946045,2.0,3.5245421245421245,283.7247973394305,-0.2498688887593959,-11.888934211293048,-0.5846978614299865,1304.7619047619046,-1.0,63.169258450070686,3.5333902447898256,
2023-08-09 18:17:46.096000,0.4096385542168675,9.674698795180724,0.060240963855421686,10.079705702023299,0.6934396076026977,0.6768853464132434,2.0,3.5245421245421245,283.7247973394305,-0.12773148417924324,-12.316415127323582,-0.24881999883456662,1304.7619047619046,-1.0,63.169258450070686,3.5333036191650624,
2023-08-09 18:17:46.103000,0.39759036144578314,9.674698795180724,0.0963855421686747,10.109135499693439,0.6664622930717351,0.7014101778050276,2.0,3.5245421245421245,283.7247973394305,0.10127614940854301,-12.804964745644192,-0.30988870112464295,1304.0293040293038,-1.0,63.169258450070686,3.5332172210924835,
2023-08-09 18:17:46.111000,0.39759036144578314,9.674698795180724,0.08433734939759037,10.13856529736358,0.713059472716125,0.6499080318822807,2.0,3.5245421245421245,283.7247973394305,0.05547462269098577,-12.881300623506787,-0.20301847211700938,1304.7619047619046,-1.0,63.169258450070686,3.533131033019178,
2023-08-09 18:17:46.119000,0.4096385542168675,9.674698795180724,0.0963855421686747,10.074800735744942,0.7081545064377682,0.6695278969957081,2.0,3.5245421245421245,283.7247973394305,-0.5552124002097776,-13.6904609288503,-0.4625604568498338,1306.9597069597069,-1.0,63.169258450070686,3.5330450369159947,
2023-08-09 18:17:46.126000,0.4096385542168675,9.66265060240964,0.12048192771084337,10.141017780502759,0.7670141017780502,0.6940527283874923,2.0,3.523076923076923,283.8427947598253,0.284482256278772,-14.224812073888467,-0.03507954081929947,1309.1575091575091,-1.0,63.169258450070686,3.5329592148542814,
2023-08-09 18:17:46.134000,0.43373493975903615,9.686746987951807,0.13253012048192772,10.064990803188227,0.7792765174739423,0.6989576946658491,2.0,3.5245421245421245,283.7247973394305,-0.02086125517160965,-14.66756016549152,-0.30988870112464295,1309.1575091575091,-1.0,63.169258450070686,3.5328735485276446,
2023-08-09 18:17:46.142000,0.45783132530120485,9.674698795180724,0.10843373493975904,10.118945432250152,0.8087063151440833,0.6940527283874923,2.0,3.523076923076923,283.8427947598253,0.19287920284365753,-15.232445661674726,-0.0961482431093758,1309.89010989011,-1.0,63.169258450070686,3.5327880197562878,
2023-08-09 18:17:46.149000,0.4819277108433735,9.674698795180724,0.08433734939759037,10.096873083997547,0.7694665849172286,0.6523605150214592,2.0,3.523076923076923,283.8427947598253,0.25394790513373383,-15.125575432667093,-0.2946215255521239,1308.4249084249084,-1.0,63.169258450070686,3.5327026109909565,
2023-08-09 18:17:46.157000,0.4819277108433735,9.686746987951807,0.0963855421686747,10.038013488657265,0.7375843041079092,0.7185775597792765,2.0,3.523076923076923,283.8427947598253,0.10127614940854301,-15.782063982285415,-0.26408717440708573,1308.4249084249084,-1.0,63.169258450070686,3.5326173043407985,
2023-08-09 18:17:46.165000,0.46987951807228917,9.66265060240964,0.08433734939759037,10.09196811771919,0.806253832004905,0.7259350091968118,2.0,3.5245421245421245,283.7247973394305,0.05547462269098577,-16.19427772274343,-0.5236291591399101,1304.7619047619046,-1.0,63.169258450070686,3.5325320820759556,
2023-08-09 18:17:46.172000,0.45783132530120485,9.650602409638555,0.0963855421686747,10.069895769466584,0.7375843041079092,0.6376456161863887,2.0,3.5245421245421245,283.7247973394305,0.26921508070625294,-16.285880776178544,-0.5541635102849483,1300.3663003663003,-1.0,63.169258450070686,3.532446927163883,
2023-08-09 18:17:46.180000,0.45783132530120485,9.650602409638555,0.10843373493975904,10.094420600858369,0.7964438994481913,0.6523605150214592,2.0,3.5216117216117215,283.96089036821303,0.04020744711846669,-16.423285356331217,-0.3709574034147193,1293.040293040293,-1.0,63.169258450070686,3.532361823384326,
2023-08-09 18:17:46.188000,0.45783132530120485,9.63855421686747,0.07228915662650603,10.018393623543838,0.7768240343347639,0.6376456161863887,2.0,3.5216117216117215,283.96089036821303,0.17761202727113842,-16.972903676941904,-0.26408717440708573,1289.3772893772893,-1.0,63.169258450070686,3.532276754849214,
2023-08-09 18:17:46.195000,0.43373493975903615,9.66265060240964,0.0963855421686747,10.07725321888412,0.7326793378295524,0.6253832004904966,2.0,3.523076923076923,283.8427947598253,0.04020744711846669,-17.53778917312511,-0.20301847211700938,1289.3772893772893,-1.0,63.169258450070686,3.532191705313039,
2023-08-09 18:17:46.203000,0.44578313253012053,9.650602409638555,0.08433734939759037,10.079705702023299,0.7939914163090128,0.7014101778050276,2.0,3.523076923076923,283.8427947598253,0.23868072956121478,-18.20954489831595,-0.4778276324223529,1293.7728937728937,-1.0,63.169258450070686,3.5321066587074843,
2023-08-09 18:17:46.211000,0.45783132530120485,9.66265060240964,0.10843373493975904,10.12139791538933,0.7670141017780502,0.6499080318822807,2.0,3.523076923076923,283.8427947598253,0.024940271545947603,-18.02633879144572,-0.5236291591399101,1295.970695970696,-1.0,63.169258450070686,3.532021599743493,
2023-08-09 18:17:46.218000,0.46987951807228917,9.674698795180724,0.08433734939759037,10.131207847946046,0.7768240343347639,0.6229307173513182,2.0,3.523076923076923,283.8427947598253,0.26921508070625294,-18.545422760911368,-0.5846978614299865,1298.168498168498,-1.0,63.169258450070686,3.5319365134941343,
2023-08-09 18:17:46.226000,0.4819277108433735,9.66265060240964,0.0963855421686747,10.104230533415082,0.7670141017780502,0.6842427958307786,2.0,3.523076923076923,283.8427947598253,0.23868072956121478,-19.06450673037702,-0.7221024415826582,1297.4358974358975,-1.0,63.169258450070686,3.5318513854338907,
2023-08-09 18:17:46.233000,0.4819277108433735,9.674698795180724,0.08433734939759037,10.126302881667687,0.730226854690374,0.6621704475781729,2.0,3.523076923076923,283.8427947598253,0.024940271545947603,-19.156109783812134,-0.41675893013227655,1293.040293040293,-1.0,63.169258450070686,3.5317662014766595,
2023-08-09 18:17:46.241000,0.49397590361445787,9.674698795180724,0.08433734939759037,10.126302881667687,0.7572041692213366,0.6082158185162476,2.0,3.523076923076923,283.8427947598253,0.14707767612610026,-19.079773905949537,-0.8289726705902918,1290.8424908424909,-1.0,63.169258450070686,3.531680948012455,
2023-08-09 18:17:46.249000,0.4819277108433735,9.66265060240964,0.08433734939759037,10.15328019619865,0.7915389331698344,0.6768853464132434,2.0,3.523076923076923,283.8427947598253,0.17761202727113842,-19.308781539537325,-0.6610337392925819,1291.5750915750914,-1.0,63.169258450070686,3.531595611942898,
2023-08-09 18:17:46.256000,0.45783132530120485,9.674698795180724,0.08433734939759037,10.12139791538933,0.7498467198038014,0.6474555487431024,2.0,3.523076923076923,283.8427947598253,0.13181050055358118,-19.629392226560224,-0.9511100751704444,1292.3076923076922,-1.0,63.169258450070686,3.531510180715597,
2023-08-09 18:17:46.264000,0.43373493975903615,9.674698795180724,0.12048192771084337,10.096873083997547,0.7939914163090128,0.6670754138565297,2.0,3.523076923076923,283.8427947598253,0.3455509585688484,-20.19427772274343,-0.9816444263154827,1295.2380952380952,-1.0,63.169258450070686,3.531424642357417,
2023-08-09 18:17:46.272000,0.4819277108433735,9.686746987951807,0.14457831325301207,10.131207847946046,0.789086450030656,0.6327406499080318,2.0,3.523076923076923,283.8427947598253,0.25394790513373383,-20.163743371598393,-0.7679039683002155,1299.6336996336995,-1.0,63.169258450070686,3.5313389855067845,
2023-08-09 18:17:46.279000,0.45783132530120485,9.686746987951807,0.12048192771084337,10.055180870631514,0.7768240343347639,0.6768853464132434,2.0,3.523076923076923,283.8427947598253,0.33028378299632927,-20.575957112056408,-1.02744595303304,1304.0293040293038,-1.0,63.169258450070686,3.5312531994450236,
2023-08-09 18:17:46.287000,0.43373493975903615,9.698795180722891,0.10843373493975904,10.101778050275904,0.7375843041079092,0.6916002452483139,2.0,3.523076923076923,283.8427947598253,0.25394790513373383,-20.91183497465183,-1.1190490064681544,1307.6923076923076,-1.0,63.169258450070686,3.5311672745847082,
2023-08-09 18:17:46.295000,0.4096385542168675,9.686746987951807,0.07228915662650603,10.096873083997547,0.700797057020233,0.6523605150214592,2.0,3.523076923076923,283.8427947598253,0.25394790513373383,-21.18664413495717,-1.1343161820406735,1310.6227106227104,-1.0,63.169258450070686,3.5310812019742115,
2023-08-09 18:17:46.302000,0.4096385542168675,9.674698795180724,0.10843373493975904,10.12139791538933,0.6738197424892703,0.645003065603924,2.0,3.5216117216117215,283.96089036821303,0.284482256278772,-21.614125050987706,-1.4243925179185362,1312.8205128205127,-1.0,63.169258450070686,3.5309949729054684,
2023-08-09 18:17:46.310000,0.4096385542168675,9.674698795180724,0.10843373493975904,10.082158185162477,0.7547516860821581,0.6621704475781729,2.0,3.5216117216117215,283.96089036821303,0.08600897383602393,-21.52252199755259,-0.9511100751704444,1313.5531135531135,-1.0,63.169258450070686,3.530908579399399,
2023-08-09 18:17:46.318000,0.39759036144578314,9.698795180722891,0.07228915662650603,10.099325567136725,0.7179644389944819,0.7136725935009196,2.0,3.5216117216117215,283.96089036821303,0.25394790513373383,-22.011071615873202,-1.2869879377658644,1315.7509157509157,-1.0,63.169258450070686,3.5308220136354698,
2023-08-09 18:17:46.325000,0.4096385542168675,9.674698795180724,0.0963855421686747,10.082158185162477,0.7204169221336603,0.6793378295524218,2.0,3.5216117216117215,283.96089036821303,0.284482256278772,-22.102674669308314,-1.2869879377658644,1318.6813186813185,-1.0,63.169258450070686,3.5307352684669957,
2023-08-09 18:17:46.333000,0.45783132530120485,9.674698795180724,0.13253012048192772,10.13856529736358,0.6934396076026977,0.6548129981606376,2.0,3.52014652014652,284.0790842872008,0.00967309597342852,-22.14847619602587,-0.7526367927276963,1319.4139194139193,-1.0,63.169258450070686,3.530648337865393,
2023-08-09 18:17:46.341000,0.46987951807228917,9.674698795180724,0.10843373493975904,10.089515634580012,0.7743715511955855,0.6719803801348866,2.0,3.52014652014652,284.0790842872008,-0.02086125517160965,-22.34694947846862,-1.1953848843307497,1320.14652014652,-1.0,63.169258450070686,3.5305612164146916,
2023-08-09 18:17:46.348000,0.44578313253012053,9.66265060240964,0.14457831325301207,10.126302881667687,0.7253218884120172,0.6817903126916002,2.0,3.5216117216117215,283.96089036821303,-0.02086125517160965,-22.34694947846862,-1.1953848843307497,1318.6813186813185,-1.0,63.169258450070686,3.5304738991923372,
2023-08-09 18:17:46.356000,0.44578313253012053,9.66265060240964,0.14457831325301207,10.087063151440834,0.7253218884120172,0.703862660944206,2.0,3.52014652014652,284.0790842872008,0.07074179826350485,-22.56068993648389,-1.2869879377658644,1314.2857142857142,-1.0,63.169258450070686,3.5303863822443695,
2023-08-09 18:17:46.364000,0.43373493975903615,9.66265060240964,0.14457831325301207,10.09196811771919,0.7743715511955855,0.762722256284488,2.0,3.5216117216117215,283.96089036821303,0.20814637841617661,-22.591224287628926,-1.3327894644834215,1309.89010989011,-1.0,63.169258450070686,3.5302986621793266,
2023-08-09 18:17:46.371000,0.42168674698795183,9.674698795180724,0.20481927710843376,10.096873083997547,0.6738197424892703,0.7112201103617413,2.0,3.5216117216117215,283.96089036821303,0.37608530971388654,-22.637025814346483,-1.2106520599032689,1304.7619047619046,-1.0,63.169258450070686,3.5302107356902095,
2023-08-09 18:17:46.379000,0.42168674698795183,9.674698795180724,0.1566265060240964,10.128755364806866,0.7866339668914776,0.7578172900061312,2.0,3.5216117216117215,283.96089036821303,0.46768836314900103,-22.86603344793427,-1.439659693491055,1302.5641025641025,-1.0,63.169258450070686,3.5301226006191944,
2023-08-09 18:17:46.387000,0.42168674698795183,9.686746987951807,0.14457831325301207,10.15328019619865,0.713059472716125,0.7308399754751685,2.0,3.52014652014652,284.0790842872008,0.26921508070625294,-22.896567799079307,-1.439659693491055,1303.2967032967033,-1.0,63.169258450070686,3.5300342554755986,
2023-08-09 18:17:46.394000,0.4096385542168675,9.686746987951807,0.1566265060240964,10.133660331085224,0.7204169221336603,0.7381974248927038,2.0,3.52014652014652,284.0790842872008,0.20814637841617661,-22.759163218926638,-1.5617970980712077,1305.4945054945053,-1.0,63.169258450070686,3.529945698987007,
2023-08-09 18:17:46.402000,0.39759036144578314,9.66265060240964,0.18072289156626506,10.064990803188227,0.6738197424892703,0.8019619865113427,2.0,3.5216117216117215,283.96089036821303,0.4829555387215201,-23.278247188392285,-1.6381329759338032,1304.7619047619046,-1.0,63.169258450070686,3.529856930457862,
2023-08-09 18:17:46.410000,0.3734939759036145,9.66265060240964,0.1927710843373494,10.133660331085224,0.713059472716125,0.7921520539546291,2.0,3.5216117216117215,283.96089036821303,0.42188683643144376,-23.03397237923198,-1.8671406095215894,1304.0293040293038,-1.0,63.169258450070686,3.5297679502304584,
2023-08-09 18:17:46.417000,0.3493975903614458,9.650602409638555,0.20481927710843376,10.09196811771919,0.6321275291232372,0.7700797057020232,2.0,3.5216117216117215,283.96089036821303,0.4066196608589247,-23.827865509002972,-1.4701940446360933,1302.5641025641025,-1.0,63.169258450070686,3.529678759758151,
2023-08-09 18:17:46.425000,0.3493975903614458,9.66265060240964,0.20481927710843376,10.09196811771919,0.6762722256284488,0.7602697731453096,2.0,3.52014652014652,284.0790842872008,0.5745585921566346,-23.980537264728163,-2.294621525552124,1301.8315018315018,-1.0,63.169258450070686,3.5295893611521194,
2023-08-09 18:17:46.433000,0.3493975903614458,9.710843373493976,0.1927710843373494,10.123850398528509,0.6811771919068056,0.7136725935009196,2.0,3.52014652014652,284.0790842872008,1.2310471417749551,-24.53015558533885,-2.141949769826933,1301.8315018315018,-1.0,63.169258450070686,3.5294997566921285,
2023-08-09 18:17:46.440000,0.3614457831325301,9.686746987951807,0.18072289156626506,10.13856529736358,0.6296750459840589,0.7185775597792765,2.0,3.52014652014652,284.0790842872008,1.002039508187169,-25.3698502418274,-1.7450032049414368,1301.8315018315018,-1.0,63.169258450070686,3.5294099487567014,
2023-08-09 18:17:46.448000,0.3734939759036145,9.674698795180724,0.16867469879518074,10.0453709380748,0.6787247087676271,0.7431023911710607,2.0,3.52014652014652,284.0790842872008,0.9562379814696117,-25.644659402132742,-1.9587436629567039,1301.098901098901,-1.0,63.169258450070686,3.529319940734718,
2023-08-09 18:17:46.456000,0.3855421686746988,9.650602409638555,0.1566265060240964,10.082158185162477,0.7351318209687308,0.7308399754751685,2.0,3.5216117216117215,283.96089036821303,0.6661616455917491,-25.72099527999534,-1.8671406095215894,1301.8315018315018,-1.0,63.169258450070686,3.5292297364947083,
2023-08-09 18:17:46.463000,0.3855421686746988,9.626506024096386,0.12048192771084337,10.040465971796444,0.6738197424892703,0.7774371551195585,2.0,3.52014652014652,284.0790842872008,1.002039508187169,-25.87366703572053,-2.1877512965444903,1301.098901098901,-1.0,63.169258450070686,3.529139340907412,
2023-08-09 18:17:46.471000,0.3734939759036145,9.602409638554217,0.14457831325301207,10.079705702023299,0.6566523605150214,0.762722256284488,2.0,3.52014652014652,284.0790842872008,1.3073830196375507,-26.102674669308314,-2.172484120971971,1299.6336996336995,-1.0,63.169258450070686,3.5290487593842115,
2023-08-09 18:17:46.479000,0.3373493975903615,9.614457831325302,0.1566265060240964,10.038013488657265,0.6419374616799509,0.7308399754751685,2.0,3.5216117216117215,283.96089036821303,1.5211234776528177,-26.072140318163278,-2.370957403414719,1299.6336996336995,-1.0,63.169258450070686,3.52895799737978,
2023-08-09 18:17:46.486000,0.3493975903614458,9.626506024096386,0.14457831325301207,10.0453709380748,0.6787247087676271,0.7529123237277743,2.0,3.5186813186813186,284.19737663960024,1.1089097371948025,-26.163743371598393,-2.1877512965444903,1297.4358974358975,957.489013671875,62.66390438247012,3.5288670612997124,
2023-08-09 18:17:46.494000,0.3734939759036145,9.650602409638555,0.13253012048192772,10.118945432250152,0.7228694052728387,0.703862660944206,2.0,3.52014652014652,284.0790842872008,1.7043295845230468,-26.087407493735796,-2.2182856476895285,1295.2380952380952,-1.0,62.66390438247012,3.528775958070861,
2023-08-09 18:17:46.502000,0.3373493975903615,9.674698795180724,0.14457831325301207,10.111587982832617,0.6394849785407725,0.6768853464132434,2.0,3.5186813186813186,284.19737663960024,1.6432608822329704,-25.950002913583123,-2.126682594254414,1293.7728937728937,-1.0,62.66390438247012,3.5286846953831814,
2023-08-09 18:17:46.509000,0.28915662650602414,9.698795180722891,0.13253012048192772,10.136112814224402,0.5855303494788473,0.7234825260576333,2.0,3.52014652014652,284.0790842872008,1.3531845463551078,-26.056873142590756,-2.0045451896742614,1294.5054945054944,-1.0,62.66390438247012,3.5285932807327485,
2023-08-09 18:17:46.517000,0.2530120481927711,9.686746987951807,0.0963855421686747,10.111587982832617,0.5340282035561005,0.6744328632740649,2.0,3.52014652014652,284.0790842872008,1.6127265310879322,-25.644659402132742,-2.111415418681895,1296.7032967032967,-1.0,62.66390438247012,3.528501721903855,
2023-08-09 18:17:46.525000,0.20481927710843376,9.674698795180724,0.0963855421686747,10.067443286327405,0.5340282035561005,0.6327406499080318,2.0,3.52014652014652,284.0790842872008,1.4142532486451842,-25.736262455567857,-2.0045451896742614,1299.6336996336995,-1.0,62.66390438247012,3.5284100274497856,
2023-08-09 18:17:46.532000,0.16867469879518074,9.686746987951807,0.10843373493975904,10.023298589822195,0.48743102391171056,0.6302881667688535,2.0,3.5186813186813186,284.19737663960024,1.3226501952100698,-26.240079249460987,-1.8824077850941086,1305.4945054945053,-1.0,62.66390438247012,3.5283182062592418,
2023-08-09 18:17:46.540000,0.13253012048192772,9.66265060240964,0.13253012048192772,10.094420600858369,0.41385652973635806,0.6376456161863887,2.0,3.5186813186813186,284.19737663960024,1.4295204242177033,-26.34694947846862,-1.8824077850941086,1313.5531135531135,-1.0,62.66390438247012,3.528226267017776,
2023-08-09 18:17:46.548000,0.16867469879518074,9.66265060240964,0.0963855421686747,10.09196811771919,0.42857142857142855,0.6376456161863887,2.0,3.5186813186813186,284.19737663960024,1.6585280578054895,-26.53015558533885,-1.3785909912009788,1321.6117216117216,-1.0,62.66390438247012,3.5281342177008304,
2023-08-09 18:17:46.555000,0.16867469879518074,9.674698795180724,0.07228915662650603,10.104230533415082,0.502145922746781,0.5861434702636419,2.0,3.5186813186813186,284.19737663960024,1.6279937066604513,-26.621758638773965,-1.3633238156284597,1332.6007326007325,-1.0,62.66390438247012,3.52804206696231,
2023-08-09 18:17:46.563000,0.1927710843373494,9.674698795180724,0.04819277108433735,10.052728387492335,0.4580012262415696,0.5714285714285714,2.0,3.5186813186813186,284.19737663960024,1.5058563020802986,-26.927102150224346,-1.3633238156284597,1350.9157509157508,-1.0,62.66390438247012,3.5279498240470044,
2023-08-09 18:17:46.571000,0.1927710843373494,9.674698795180724,0.0,10.09196811771919,0.43838136112814224,0.5714285714285714,2.0,3.5186813186813186,284.19737663960024,0.8951692791795354,-26.133209020453354,-1.3785909912009788,1375.8241758241757,-1.0,62.66390438247012,3.52785749828166,
2023-08-09 18:17:46.578000,0.1927710843373494,9.674698795180724,0.0,10.101778050275904,0.5315757204169221,0.5861434702636419,2.0,3.5186813186813186,284.19737663960024,1.215779966202436,-26.102674669308314,-0.874774197307849,1406.5934065934066,-1.0,62.66390438247012,3.5277650990580165,
2023-08-09 18:17:46.586000,0.1927710843373494,9.698795180722891,-0.024096385542168676,10.072348252605762,0.5364806866952789,0.5174739423666462,2.0,3.5186813186813186,284.19737663960024,0.9409708058970926,-25.705728104422818,-0.9053085484528872,1445.4212454212454,-1.0,62.66390438247012,3.52767263581534,
2023-08-09 18:17:46.593000,0.21686746987951808,9.698795180722891,0.0,10.143470263641937,0.48743102391171056,0.5542611894543225,2.0,3.5186813186813186,284.19737663960024,0.8646349280344972,-25.247712837247246,-0.3404230522696811,1487.179487179487,-1.0,62.66390438247012,3.527580118022648,
2023-08-09 18:17:46.601000,0.20481927710843376,9.686746987951807,0.0,10.089515634580012,0.5364806866952789,0.5714285714285714,2.0,3.5186813186813186,284.19737663960024,0.8493677524619782,-24.957636501369386,-0.3556902278422002,1531.135531135531,-1.0,62.66390438247012,3.5274875551608478,
2023-08-09 18:17:46.609000,0.2530120481927711,9.66265060240964,-0.024096385542168676,10.094420600858369,0.5781729000613121,0.5640711220110362,2.0,3.5186813186813186,284.19737663960024,0.7577646990268636,-24.652292989919,-0.3404230522696811,1574.3589743589744,-1.0,62.66390438247012,3.5273949567049785,
2023-08-09 18:17:46.616000,0.28915662650602414,9.674698795180724,0.024096385542168676,10.0453709380748,0.6370324954015941,0.5665236051502146,2.0,3.5186813186813186,284.19737663960024,0.37608530971388654,-24.011071615873202,-0.14194976982693305,1618.3150183150183,-1.0,62.66390438247012,3.527302332106763,
2023-08-09 18:17:46.624000,0.28915662650602414,9.650602409638555,-0.024096385542168676,10.082158185162477,0.607602697731453,0.5836909871244634,2.0,3.5186813186813186,284.19737663960024,0.37608530971388654,-24.011071615873202,-0.14194976982693305,1665.9340659340658,-1.0,62.66390438247012,3.5272096907776764,
2023-08-09 18:17:46.632000,0.30120481927710846,9.698795180722891,-0.012048192771084338,10.069895769466584,0.5610055180870631,0.5297363580625383,2.0,3.5186813186813186,284.19737663960024,0.33028378299632927,-24.438552531903735,0.30079832177612037,1712.087912087912,-1.0,62.66390438247012,3.527117042530599,
2023-08-09 18:17:46.639000,0.3132530120481928,9.710843373493976,-0.012048192771084338,10.158185162477007,0.5806253832004905,0.5763335377069282,2.0,3.517216117216117,284.3157675484274,0.4524211875764819,-24.514888409766332,0.11759221490589136,1758.2417582417581,-1.0,62.66390438247012,3.5270243970393613,
2023-08-09 18:17:46.647000,0.28915662650602414,9.686746987951807,0.012048192771084338,10.155732679337829,0.5904353157572041,0.568976088289393,2.0,3.517216117216117,284.3157675484274,0.16234485169861934,-24.469086883048774,0.025989161470776866,1802.197802197802,-1.0,62.66390438247012,3.5269317638264788,
2023-08-09 18:17:46.655000,0.27710843373493976,9.710843373493976,-0.012048192771084338,10.118945432250152,0.5904353157572041,0.5910484365419988,2.0,3.517216117216117,284.3157675484274,-0.5704795757822967,-24.86603344793427,0.010721985898257782,1841.0256410256409,-1.0,62.66390438247012,3.526839152077618,
2023-08-09 18:17:46.662000,0.30120481927710846,9.686746987951807,0.0,10.101778050275904,0.5561005518087063,0.5787860208461066,2.0,3.5186813186813186,284.19737663960024,-0.3262047666219913,-24.575957112056408,0.025989161470776866,1872.5274725274724,-1.0,62.66390438247012,3.5267465697143554,
2023-08-09 18:17:46.670000,0.28915662650602414,9.72289156626506,0.024096385542168676,10.15328019619865,0.6713672593500919,0.5567136725935009,2.0,3.517216117216117,284.3157675484274,-0.6162811024998539,-24.469086883048774,-0.019812365246780383,1895.2380952380952,-1.0,62.66390438247012,3.5266540248908624,
2023-08-09 18:17:46.678000,0.3132530120481928,9.72289156626506,0.024096385542168676,10.158185162477007,0.5928877988963825,0.5861434702636419,2.0,3.517216117216117,284.3157675484274,-0.38727346891206765,-24.301147951751062,0.33133267292115853,1907.6923076923076,-1.0,62.66390438247012,3.5265615255234106,
2023-08-09 18:17:46.685000,0.3373493975903615,9.72289156626506,0.03614457831325302,10.15328019619865,0.6174126302881667,0.598405885959534,2.0,3.517216117216117,284.3157675484274,-0.646815453644892,-24.53015558533885,0.1786609171959677,1912.087912087912,-1.0,62.66390438247012,3.526469078786454,
2023-08-09 18:17:46.693000,0.3493975903614458,9.72289156626506,0.060240963855421686,10.15328019619865,0.7106069895769466,0.5714285714285714,2.0,3.517216117216117,284.3157675484274,-0.9216246139502355,-24.88130062350679,-0.0961482431093758,1905.4945054945053,-1.0,62.66390438247012,3.526376691523342,
2023-08-09 18:17:46.701000,0.3855421686746988,9.710843373493976,0.060240963855421686,10.163090128755364,0.6591048436541999,0.640098099325567,2.0,3.517216117216117,284.3157675484274,-1.4559757589884035,-25.110308257094577,0.07179068818833412,1891.5750915750914,-1.0,62.66390438247012,3.5262843698122417,
2023-08-09 18:17:46.708000,0.3734939759036145,9.674698795180724,0.08433734939759037,10.055180870631514,0.6885346413243408,0.645003065603924,2.0,3.517216117216117,284.3157675484274,-1.8529223238738997,-25.15610978381213,-0.14194976982693305,1871.7948717948716,-1.0,62.66390438247012,3.5261921199049087,
2023-08-09 18:17:46.716000,0.3734939759036145,9.66265060240964,0.12048192771084337,10.163090128755364,0.6272225628448804,0.6793378295524218,2.0,3.517216117216117,284.3157675484274,-1.2575024765456555,-24.972903676941904,-0.40149175455975744,1847.6190476190475,-1.0,62.66390438247012,3.526099948149709,
2023-08-09 18:17:46.724000,0.3614457831325301,9.674698795180724,0.0963855421686747,10.094420600858369,0.700797057020233,0.6646229307173512,2.0,3.517216117216117,284.3157675484274,-1.4559757589884035,-24.972903676941904,-0.7984383194452537,1819.047619047619,-1.0,62.66390438247012,3.5260078604957186,
2023-08-09 18:17:46.731000,0.3614457831325301,9.674698795180724,0.0963855421686747,10.118945432250152,0.7179644389944819,0.7063151440833844,2.0,3.517216117216117,284.3157675484274,-1.5017772857059608,-25.06450673037702,-0.6152322125750246,1786.8131868131868,-1.0,62.66390438247012,3.525915862491116,
2023-08-09 18:17:46.739000,0.3734939759036145,9.674698795180724,0.10843373493975904,10.111587982832617,0.6321275291232372,0.7381974248927038,2.0,3.517216117216117,284.3157675484274,-1.5017772857059608,-25.125575432667095,-0.493094807994872,1752.3809523809523,-1.0,62.66390438247012,3.525823959283426,
2023-08-09 18:17:46.747000,0.39759036144578314,9.650602409638555,0.18072289156626506,10.094420600858369,0.6713672593500919,0.7185775597792765,2.0,3.517216117216117,284.3157675484274,-1.7613192704387852,-25.247712837247246,-0.40149175455975744,1715.018315018315,-1.0,62.66390438247012,3.5257321556216157,
2023-08-09 18:17:46.754000,0.3734939759036145,9.650602409638555,0.20481927710843376,10.074800735744942,0.7106069895769466,0.7308399754751685,2.0,3.5157509157509157,284.4342571369035,-1.4254414078433653,-25.079773905949537,-0.5846978614299865,1675.4578754578754,-1.0,62.66390438247012,3.52564045586024,
2023-08-09 18:17:46.762000,0.3734939759036145,9.650602409638555,0.16867469879518074,10.096873083997547,0.6958920907418761,0.7553648068669527,2.0,3.517216117216117,284.3157675484274,-1.1506322475380217,-24.927102150224346,-0.493094807994872,1635.8974358974358,-1.0,62.66390438247012,3.525548863472985,
2023-08-09 18:17:46.770000,0.3734939759036145,9.650602409638555,0.1927710843373494,10.109135499693439,0.6860821581851625,0.7406499080318822,2.0,3.5157509157509157,284.4342571369035,-0.9216246139502355,-25.400384592972436,-0.6304993881475437,1597.069597069597,-1.0,62.66390438247012,3.525457381481592,
2023-08-09 18:17:46.777000,0.3253012048192771,9.66265060240964,0.24096385542168675,10.133660331085224,0.6640098099325566,0.7896995708154506,2.0,3.517216117216117,284.3157675484274,-0.8758230872326783,-25.171376959384652,-0.43202610570479566,1561.1721611721612,-1.0,62.66390438247012,3.5253660124983237,
2023-08-09 18:17:46.785000,0.3373493975903615,9.63855421686747,0.21686746987951808,10.10668301655426,0.6223175965665235,0.8142244022072348,2.0,3.517216117216117,284.3157675484274,-1.0437620185303882,-25.84313268457549,-0.5236291591399101,1530.4029304029302,-1.0,62.66390438247012,3.525274758700942,
2023-08-09 18:17:46.793000,0.3373493975903615,9.650602409638555,0.26506024096385544,10.118945432250152,0.5659104843654199,0.86817903126916,2.0,3.5142857142857142,284.5528455284553,-0.997960491812831,-26.20954489831595,-0.508361983567391,1504.0293040293038,-1.0,62.66390438247012,3.5251836223719475,
2023-08-09 18:17:46.800000,0.3132530120481928,9.66265060240964,0.20481927710843376,10.072348252605762,0.6125076640098099,0.7872470876762722,2.0,3.5157509157509157,284.4342571369035,-0.3109375910494722,-26.34694947846862,-0.7831711438727346,1484.2490842490843,-1.0,62.66390438247012,3.5250926053876426,
2023-08-09 18:17:46.808000,0.30120481927710846,9.674698795180724,0.24096385542168675,10.128755364806866,0.6100551808706315,0.7725321888412017,2.0,3.5157509157509157,284.4342571369035,0.19287920284365753,-26.80496474564419,-0.6457665637200628,1468.131868131868,-1.0,62.66390438247012,3.5250017094509074,
2023-08-09 18:17:46.816000,0.28915662650602414,9.650602409638555,0.22891566265060243,10.089515634580012,0.5585530349478847,0.8485591661557327,2.0,3.5157509157509157,284.4342571369035,-0.14299865975176232,-26.37748382961366,-0.676300914865101,1452.7472527472526,-1.0,62.66390438247012,3.524910935654816,
2023-08-09 18:17:46.823000,0.27710843373493976,9.66265060240964,0.26506024096385544,10.111587982832617,0.6296750459840589,0.8313917841814837,2.0,3.5157509157509157,284.4342571369035,-0.0666627818891669,-26.743896043354116,-0.9969116018880018,1439.5604395604394,-1.0,62.66390438247012,3.5248202841164296,
2023-08-09 18:17:46.831000,0.28915662650602414,9.650602409638555,0.24096385542168675,10.101778050275904,0.5511955855303494,0.8779889638258737,2.0,3.5157509157509157,284.4342571369035,0.3150166074238102,-26.68282734106404,-0.8900413728803681,1427.8388278388277,-1.0,62.66390438247012,3.5247297544901186,
2023-08-09 18:17:46.839000,0.28915662650602414,9.674698795180724,0.2530120481927711,10.141017780502759,0.6125076640098099,0.7946045370938074,2.0,3.5157509157509157,284.4342571369035,0.6508944700192301,-27.201911310529688,-0.9663772507429635,1419.047619047619,-1.0,62.66390438247012,3.524639345989517,
2023-08-09 18:17:46.846000,0.3132530120481928,9.686746987951807,0.27710843373493976,10.114040465971796,0.624770079705702,0.7970570202329859,2.0,3.5157509157509157,284.4342571369035,1.002039508187169,-27.21717848610221,-0.5846978614299865,1411.7216117216117,-1.0,62.66390438247012,3.524549057410676,
2023-08-09 18:17:46.854000,0.3253012048192771,9.674698795180724,0.2530120481927711,10.074800735744942,0.5830778663396688,0.8068669527896996,2.0,3.5157509157509157,284.4342571369035,0.7272303478818254,-26.91183497465183,-0.69156809043762,1406.5934065934066,-1.0,62.66390438247012,3.5244588871565585,
2023-08-09 18:17:46.862000,0.3132530120481928,9.66265060240964,0.24096385542168675,10.087063151440834,0.5536480686695279,0.7995095033721643,2.0,3.5157509157509157,284.4342571369035,1.002039508187169,-26.988170852514422,-0.8900413728803681,1402.9304029304028,-1.0,62.66390438247012,3.524368833262784,
2023-08-09 18:17:46.869000,0.3132530120481928,9.66265060240964,0.21686746987951808,10.10668301655426,0.6738197424892703,0.8559166155732679,2.0,3.5157509157509157,284.4342571369035,1.2310471417749551,-26.820231921216713,-1.057980304178078,1400.0,-1.0,62.66390438247012,3.5242788934247082,
2023-08-09 18:17:46.877000,0.28915662650602414,9.66265060240964,0.21686746987951808,10.067443286327405,0.5242182709993869,0.7995095033721643,2.0,3.5157509157509157,284.4342571369035,1.2768486684925124,-26.972903676941904,-0.7373696171551773,1397.069597069597,-1.0,62.66390438247012,3.524189065025788,
2023-08-09 18:17:46.885000,0.2530120481927711,9.66265060240964,0.20481927710843376,10.07725321888412,0.6002452483139178,0.7553648068669527,2.0,3.5142857142857142,284.5528455284553,1.3531845463551078,-26.88130062350679,-0.69156809043762,1394.139194139194,-1.0,62.66390438247012,3.5240993451672527,
2023-08-09 18:17:46.892000,0.2530120481927711,9.63855421686747,0.1927710843373494,10.111587982832617,0.5168608215818516,0.8068669527896996,2.0,3.5157509157509157,284.4342571369035,1.4295204242177033,-26.86603344793427,-0.9053085484528872,1391.9413919413919,-1.0,62.66390438247012,3.524009730206409,
2023-08-09 18:17:46.900000,0.24096385542168675,9.63855421686747,0.22891566265060243,10.101778050275904,0.5511955855303494,0.8068669527896996,2.0,3.5142857142857142,284.5528455284553,1.4295204242177033,-26.86603344793427,-0.9053085484528872,1389.0109890109889,-1.0,62.66390438247012,3.5239202162093606,
2023-08-09 18:17:46.908000,0.24096385542168675,9.66265060240964,0.20481927710843376,10.069895769466584,0.5610055180870631,0.7872470876762722,2.0,3.5157509157509157,284.4342571369035,1.398986073072665,-26.927102150224346,-0.676300914865101,1386.8131868131868,-1.0,62.66390438247012,3.5238307994741946,
2023-08-09 18:17:46.915000,0.26506024096385544,9.686746987951807,0.16867469879518074,10.084610668301655,0.5561005518087063,0.7995095033721643,2.0,3.5142857142857142,284.5528455284553,1.7348639356680848,-26.759163218926638,-0.9358428995979254,1385.3479853479853,-1.0,62.66390438247012,3.5237414760025745,
2023-08-09 18:17:46.923000,0.1927710843373494,9.686746987951807,0.14457831325301207,10.109135499693439,0.5242182709993869,0.7283874923359902,2.0,3.5157509157509157,284.4342571369035,1.8875356913932757,-26.606491463201444,-0.7221024415826582,1383.150183150183,-1.0,62.66390438247012,3.5236522416036276,
2023-08-09 18:17:46.931000,0.20481927710843376,9.674698795180724,0.1566265060240964,10.0453709380748,0.507050889025138,0.6940527283874923,2.0,3.5142857142857142,284.5528455284553,1.7806654623856422,-26.53015558533885,-0.85950702173533,1380.2197802197802,-1.0,62.66390438247012,3.523563091859313,
2023-08-09 18:17:46.938000,0.18072289156626506,9.66265060240964,0.13253012048192772,10.067443286327405,0.507050889025138,0.6817903126916002,2.0,3.5157509157509157,284.4342571369035,1.8111998135306804,-26.637025814346483,-1.2106520599032689,1373.6263736263736,-1.0,62.66390438247012,3.5234740217714964,
2023-08-09 18:17:46.946000,0.18072289156626506,9.66265060240964,0.12048192771084337,10.096873083997547,0.502145922746781,0.6744328632740649,2.0,3.5128205128205128,284.6715328467153,2.2081463784161763,-26.285880776178544,-0.8137054950177727,1363.3699633699632,-1.0,62.66390438247012,3.523385026253449,
2023-08-09 18:17:46.954000,0.16867469879518074,9.66265060240964,0.07228915662650603,10.099325567136725,0.5045984058859595,0.6302881667688535,2.0,3.5128205128205128,284.6715328467153,1.765398286813123,-26.453819707476253,-1.1801177087582306,1355.3113553113553,-1.0,62.66390438247012,3.5232961006220402,
2023-08-09 18:17:46.961000,0.1927710843373494,9.674698795180724,0.07228915662650603,10.089515634580012,0.47271612507664007,0.6474555487431024,2.0,3.5128205128205128,284.6715328467153,1.8264669891031995,-26.575957112056408,-0.9816444263154827,1348.7179487179487,-1.0,62.66390438247012,3.5232072394408385,
2023-08-09 18:17:46.969000,0.21686746987951808,9.686746987951807,0.07228915662650603,10.126302881667687,0.4629061925199264,0.6621704475781729,2.0,3.5142857142857142,284.5528455284553,1.6890624089505277,-26.453819707476253,-1.057980304178078,1345.7875457875457,-1.0,62.66390438247012,3.5231184365539625,
2023-08-09 18:17:46.976000,0.18072289156626506,9.686746987951807,0.08433734939759037,10.133660331085224,0.5340282035561005,0.645003065603924,2.0,3.5142857142857142,284.5528455284553,1.8111998135306804,-26.102674669308314,-0.9663772507429635,1342.1245421245421,-1.0,62.66390438247012,3.5230296861017236,
2023-08-09 18:17:46.984000,0.1927710843373494,9.686746987951807,0.04819277108433735,10.15328019619865,0.4236664622930717,0.6204782342121398,2.0,3.5142857142857142,284.5528455284553,1.5821921799428942,-25.84313268457549,-1.225919235475788,1339.9267399267399,-1.0,62.66390438247012,3.5229409826222122,
2023-08-09 18:17:46.992000,0.18072289156626506,9.674698795180724,0.07228915662650603,10.13856529736358,0.5168608215818516,0.5591661557326794,2.0,3.5142857142857142,284.5528455284553,1.4447875997902224,-25.308781539537325,-1.1495833576131926,1338.4615384615383,-1.0,62.66390438247012,3.5228523206274587,
2023-08-09 18:17:46.999000,0.18072289156626506,9.698795180722891,0.03614457831325302,10.136112814224402,0.4800735744941753,0.5714285714285714,2.0,3.5142857142857142,284.5528455284553,1.3684517219276269,-24.575957112056408,-1.393858166773498,1336.9963369963368,-1.0,62.66390438247012,3.5227636946371534,
2023-08-09 18:17:47.007000,0.1566265060240964,9.686746987951807,0.04819277108433735,10.089515634580012,0.47516860821581847,0.5812385039852851,2.0,3.5128205128205128,284.6715328467153,1.017306683759688,-24.514888409766332,-1.3022551133383833,1336.263736263736,-1.0,62.66390438247012,3.522675099212096,
2023-08-09 18:17:47.015000,0.14457831325301207,9.686746987951807,0.03614457831325302,10.074800735744942,0.42857142857142855,0.6229307173513182,2.0,3.5142857142857142,284.5528455284553,1.017306683759688,-24.117941844880836,-0.9663772507429635,1334.7985347985348,-1.0,62.66390438247012,3.5225865284946685,
2023-08-09 18:17:47.022000,0.10843373493975904,9.66265060240964,0.024096385542168676,10.074800735744942,0.41876149601471485,0.598405885959534,2.0,3.5128205128205128,284.6715328467153,0.9562379814696117,-23.858399860148012,-0.874774197307849,1330.4029304029302,-1.0,62.66390438247012,3.522497976662156,
2023-08-09 18:17:47.030000,0.13253012048192772,9.686746987951807,0.012048192771084338,10.116492949110974,0.3402820355610055,0.5444512568976088,2.0,3.5128205128205128,284.6715328467153,0.6203601188741918,-23.125575432667095,-0.9663772507429635,1322.3443223443223,-1.0,62.66390438247012,3.522409437991155,
2023-08-09 18:17:47.038000,0.0963855421686747,9.674698795180724,0.012048192771084338,10.150827713059472,0.41385652973635806,0.6376456161863887,2.0,3.5128205128205128,284.6715328467153,0.5745585921566346,-23.293514363964803,-1.393858166773498,1315.018315018315,-1.0,62.66390438247012,3.522320906359184,
2023-08-09 18:17:47.045000,0.08433734939759037,9.674698795180724,0.03614457831325302,10.038013488657265,0.4114040465971796,0.6057633353770693,2.0,3.5128205128205128,284.6715328467153,0.5287570654390773,-23.049239554804497,-1.241186411048307,1307.6923076923076,-1.0,62.66390438247012,3.5222323757284144,
2023-08-09 18:17:47.053000,0.07228915662650603,9.650602409638555,0.024096385542168676,10.118945432250152,0.354996934396076,0.6008583690987124,2.0,3.5128205128205128,284.6715328467153,0.5440242410115964,-22.71336169220908,-1.1343161820406735,1304.0293040293038,-1.0,62.66390438247012,3.5221438401707044,
2023-08-09 18:17:47.061000,0.07228915662650603,9.66265060240964,0.024096385542168676,10.143470263641937,0.3427345187001839,0.5885959534028203,2.0,3.5128205128205128,284.6715328467153,0.3913524852864056,-22.19427772274343,-1.5159955713536506,1301.098901098901,-1.0,62.66390438247012,3.522055293891821,
2023-08-09 18:17:47.068000,0.060240963855421686,9.686746987951807,-0.024096385542168676,10.111587982832617,0.3525444512568976,0.5272838749233598,2.0,3.5128205128205128,284.6715328467153,0.5440242410115964,-21.797331157857933,-1.1648505331857117,1299.6336996336995,-1.0,62.66390438247012,3.5219667312549072,
2023-08-09 18:17:47.076000,0.07228915662650603,9.66265060240964,-0.012048192771084338,10.109135499693439,0.3672593500919681,0.5738810545677498,2.0,3.5128205128205128,284.6715328467153,0.07074179826350485,-21.84313268457549,-1.3633238156284597,1298.9010989010987,-1.0,62.66390438247012,3.5218781472611047,
2023-08-09 18:17:47.084000,0.04819277108433735,9.66265060240964,0.0,10.052728387492335,0.30104230533415083,0.568976088289393,2.0,3.5128205128205128,284.6715328467153,0.07074179826350485,-21.201911310529688,-1.1953848843307497,1298.168498168498,-1.0,62.66390438247012,3.521789537046551,
2023-08-09 18:17:47.091000,0.03614457831325302,9.66265060240964,0.0,10.099325567136725,0.3500919681177192,0.5272838749233598,2.0,3.5142857142857142,284.5528455284553,0.33028378299632927,-20.988170852514422,-1.1495833576131926,1299.6336996336995,-1.0,62.66390438247012,3.5217008959406275,
2023-08-09 18:17:47.099000,0.0963855421686747,9.674698795180724,0.0,10.136112814224402,0.36971183323114654,0.598405885959534,2.0,3.5113553113553118,284.79031921552263,-0.28040323990443405,-20.072140318163278,-1.057980304178078,1303.2967032967033,-1.0,62.66390438247012,3.5216122199464985,
2023-08-09 18:17:47.107000,0.08433734939759037,9.686746987951807,0.012048192771084338,10.067443286327405,0.32311465358675656,0.5370938074800735,2.0,3.5113553113553118,284.79031921552263,-0.051395606316647816,-19.629392226560224,-1.1037818308956353,1306.9597069597069,-1.0,62.66390438247012,3.5215235053424148,
2023-08-09 18:17:47.114000,0.04819277108433735,9.686746987951807,0.012048192771084338,10.123850398528509,0.39178418148375227,0.5640711220110362,2.0,3.5128205128205128,284.6715328467153,-0.20406736204183865,-19.629392226560224,-0.85950702173533,1311.3553113553112,-1.0,62.66390438247012,3.5214347480040997,
2023-08-09 18:17:47.122000,0.03614457831325302,9.698795180722891,0.024096385542168676,10.128755364806866,0.3133047210300429,0.5419987737584304,2.0,3.5128205128205128,284.6715328467153,-0.47887652234718214,-18.988170852514422,-1.1801177087582306,1316.4835164835165,-1.0,62.66390438247012,3.5213459439171126,
2023-08-09 18:17:47.130000,0.024096385542168676,9.66265060240964,0.012048192771084338,10.09196811771919,0.31085223789086447,0.6082158185162476,2.0,3.5128205128205128,284.6715328467153,-0.6773498047899302,-18.423285356331217,-0.7526367927276963,1320.8791208791208,-1.0,62.66390438247012,3.521257089757259,
2023-08-09 18:17:47.137000,0.012048192771084338,9.674698795180724,0.04819277108433735,10.116492949110974,0.3182096873083997,0.5567136725935009,2.0,3.5128205128205128,284.6715328467153,-0.6926169803624493,-18.102674669308318,-0.9969116018880018,1324.5421245421244,-1.0,62.66390438247012,3.5211681824523318,
2023-08-09 18:17:47.145000,-0.012048192771084338,9.686746987951807,0.04819277108433735,10.116492949110974,0.2618025751072961,0.6180257510729613,2.0,3.5128205128205128,284.6715328467153,-0.49414369791970125,-17.70572810442282,-1.1801177087582306,1323.076923076923,-1.0,62.66390438247012,3.5210792192009768,
2023-08-09 18:17:47.153000,-0.012048192771084338,9.686746987951807,0.060240963855421686,10.109135499693439,0.2740649908031882,0.6597179644389944,2.0,3.5128205128205128,284.6715328467153,-0.7842200337975638,-17.52252199755259,-0.7831711438727346,1320.14652014652,-1.0,62.66390438247012,3.520990197490896,
2023-08-09 18:17:47.160000,-0.012048192771084338,9.698795180722891,0.07228915662650603,10.07725321888412,0.296137339055794,0.598405885959534,2.0,3.5128205128205128,284.6715328467153,-0.8300215605151211,-17.171376959384652,-0.6610337392925819,1315.7509157509157,-1.0,62.66390438247012,3.520901115116449,
2023-08-09 18:17:47.168000,0.0,9.674698795180724,0.07228915662650603,10.15328019619865,0.24463519313304719,0.6376456161863887,2.0,3.5128205128205128,284.6715328467153,-0.8910902628051974,-16.85076627236175,-0.508361983567391,1312.087912087912,-1.0,62.66390438247012,3.5208119701957954,
2023-08-09 18:17:47.176000,-0.024096385542168676,9.674698795180724,0.10843373493975904,10.09196811771919,0.3182096873083997,0.7112201103617413,2.0,3.5113553113553118,284.79031921552263,-0.8605559116601592,-16.652292989919005,-0.6610337392925819,1306.9597069597069,-1.0,62.66390438247012,3.5207227611876153,
2023-08-09 18:17:47.183000,0.012048192771084338,9.674698795180724,0.12048192771084337,10.126302881667687,0.2936848559166156,0.6376456161863887,2.0,3.5128205128205128,284.6715328467153,-0.8605559116601592,-16.652292989919005,-0.6610337392925819,1305.4945054945053,-1.0,62.66390438247012,3.5206334864148596,
2023-08-09 18:17:47.191000,0.012048192771084338,9.66265060240964,0.08433734939759037,10.067443286327405,0.2593500919681177,0.6621704475781729,2.0,3.5128205128205128,284.6715328467153,-0.9368917895227546,-16.04160596701824,-0.7831711438727346,1304.0293040293038,-1.0,62.66390438247012,3.5205441445014176,
2023-08-09 18:17:47.199000,0.0,9.650602409638555,0.12048192771084337,10.082158185162477,0.2814224402207235,0.7259350091968118,2.0,3.5128205128205128,284.6715328467153,-0.9368917895227546,-15.308781539537321,-0.4778276324223529,1304.0293040293038,-1.0,62.66390438247012,3.520454734912661,
2023-08-09 18:17:47.206000,-0.024096385542168676,9.650602409638555,0.10843373493975904,10.035561005518087,0.27896995708154504,0.7087676272225628,2.0,3.5113553113553118,284.79031921552263,-0.6010139269273348,-15.201911310529688,-0.493094807994872,1302.5641025641025,-1.0,62.66390438247012,3.5203652579707976,
2023-08-09 18:17:47.214000,-0.024096385542168676,9.626506024096386,0.12048192771084337,10.023298589822195,0.2470876762722256,0.6965052115266707,2.0,3.5113553113553118,284.79031921552263,-0.7384185070800066,-14.34694947846862,-0.4625604568498338,1302.5641025641025,-1.0,62.66390438247012,3.520275713852482,
2023-08-09 18:17:47.222000,-0.03614457831325302,9.674698795180724,0.13253012048192772,10.145922746781116,0.24954015941140403,0.7357449417535254,2.0,3.5113553113553118,284.79031921552263,-0.5246780490647394,-13.995804440300681,-0.3862245789872384,1303.2967032967033,-1.0,62.66390438247012,3.5201861025688386,
2023-08-09 18:17:47.229000,0.0,9.674698795180724,0.14457831325301207,10.123850398528509,0.25199264255058246,0.6744328632740649,2.0,3.5128205128205128,284.6715328467153,-0.47887652234718214,-13.797331157857933,0.04125633704329595,1303.2967032967033,-1.0,62.66390438247012,3.5200964244003075,
2023-08-09 18:17:47.237000,-0.012048192771084338,9.686746987951807,0.1566265060240964,10.160637645616186,0.22746781115879827,0.7185775597792765,2.0,3.5113553113553118,284.79031921552263,-0.29567041547695316,-13.415651768544956,-0.05034671639181855,1304.0293040293038,-1.0,62.66390438247012,3.520006680435072,
2023-08-09 18:17:47.245000,-0.03614457831325302,9.698795180722891,0.14457831325301207,10.064990803188227,0.23482526057633352,0.6523605150214592,2.0,3.5113553113553118,284.79031921552263,-0.7689528582250448,-12.896567799079307,-0.23355282326204754,1306.227106227106,-1.0,62.66390438247012,3.519916872124166,
2023-08-09 18:17:47.252000,-0.012048192771084338,9.710843373493976,0.1566265060240964,10.136112814224402,0.3525444512568976,0.6891477621091354,2.0,3.5098901098901094,284.909204758923,-0.631548278072373,-12.438552531903735,-0.06561389196433763,1308.4249084249084,-1.0,62.66390438247012,3.5198270003436383,
2023-08-09 18:17:47.260000,0.0,9.698795180722891,0.12048192771084337,10.055180870631514,0.31085223789086447,0.703862660944206,2.0,3.5098901098901094,284.909204758923,-0.5857467513548157,-11.720995279995337,-0.0045451896742613,1309.89010989011,-1.0,62.66390438247012,3.519737066775752,
2023-08-09 18:17:47.268000,-0.012048192771084338,9.686746987951807,0.14457831325301207,10.229307173513181,0.2838749233599019,0.7136725935009196,2.0,3.5113553113553118,284.79031921552263,-0.3109375910494722,-11.430918944117474,-0.0961482431093758,1310.6227106227104,-1.0,62.66390438247012,3.519647073709735,
2023-08-09 18:17:47.275000,0.0,9.686746987951807,0.14457831325301207,10.09196811771919,0.2618025751072961,0.6744328632740649,2.0,3.5113553113553118,284.79031921552263,-0.3109375910494722,-10.835499096789231,-0.15721694539945213,1314.2857142857142,-1.0,62.66390438247012,3.519557024017389,
2023-08-09 18:17:47.283000,0.024096385542168676,9.66265060240964,0.13253012048192772,10.094420600858369,0.33292458614347026,0.6621704475781729,2.0,3.5113553113553118,284.79031921552263,-0.9826933162403119,-10.652292989919001,-0.05034671639181855,1315.018315018315,-1.0,62.66390438247012,3.519466920775899,
2023-08-09 18:17:47.291000,0.024096385542168676,9.650602409638555,0.1566265060240964,10.082158185162477,0.33292458614347026,0.733292458614347,2.0,3.5113553113553118,284.79031921552263,-0.5857467513548157,-9.858399860148008,0.056523512615815036,1313.5531135531135,-1.0,62.66390438247012,3.5193767668894527,
2023-08-09 18:17:47.298000,0.012048192771084338,9.674698795180724,0.12048192771084337,10.082158185162477,0.2838749233599019,0.6695278969957081,2.0,3.5113553113553118,284.79031921552263,-0.8605559116601592,-9.400384592972436,-0.03507954081929947,1311.3553113553112,-1.0,62.66390438247012,3.5192865655887298,
2023-08-09 18:17:47.306000,-0.012048192771084338,9.698795180722891,0.12048192771084337,10.16799509503372,0.23727774371551194,0.6817903126916002,2.0,3.5113553113553118,284.79031921552263,-0.4025406444845867,-9.095041081522055,0.13285939047841044,1311.3553113553112,-1.0,62.66390438247012,3.5191963204373367,
2023-08-09 18:17:47.314000,-0.012048192771084338,9.686746987951807,0.14457831325301207,10.13856529736358,0.26670754138565295,0.7381974248927038,2.0,3.5113553113553118,284.79031921552263,-0.28040323990443405,-8.759163218926634,0.3618670240661967,1309.1575091575091,-1.0,62.66390438247012,3.5191060357958226,
2023-08-09 18:17:47.321000,0.012048192771084338,9.674698795180724,0.13253012048192772,10.126302881667687,0.25444512568976085,0.6597179644389944,2.0,3.5113553113553118,284.79031921552263,-0.49414369791970125,-8.102674669308314,-0.019812365246780383,1307.6923076923076,-1.0,62.66390438247012,3.5190157163024756,
2023-08-09 18:17:47.329000,0.0,9.698795180722891,0.18072289156626506,10.089515634580012,0.3182096873083997,0.7136725935009196,2.0,3.5113553113553118,284.79031921552263,-0.28040323990443405,-8.224812073888467,-0.12668259425441397,1307.6923076923076,-1.0,62.66390438247012,3.5189253669158553,
2023-08-09 18:17:47.337000,0.012048192771084338,9.674698795180724,0.1566265060240964,10.133660331085224,0.22746781115879827,0.7308399754751685,2.0,3.5113553113553118,284.79031921552263,-0.18880018646931956,-7.125575432667093,0.30079832177612037,1306.9597069597069,-1.0,62.66390438247012,3.518834993345289,
2023-08-09 18:17:47.344000,0.024096385542168676,9.686746987951807,0.13253012048192772,10.082158185162477,0.2936848559166156,0.7431023911710607,2.0,3.5098901098901094,284.909204758923,-0.5552124002097776,-6.51488840976633,0.11759221490589136,1305.4945054945053,-1.0,62.66390438247012,3.518744601567555,
2023-08-09 18:17:47.352000,0.012048192771084338,9.686746987951807,0.1927710843373494,10.109135499693439,0.34763948497854075,0.7749846719803801,2.0,3.5113553113553118,284.79031921552263,-0.5399452246372585,-5.858399860148009,0.010721985898257782,1304.7619047619046,-1.0,62.66390438247012,3.5186541973430256,
2023-08-09 18:17:47.359000,0.024096385542168676,9.686746987951807,0.18072289156626506,10.143470263641937,0.3083997547516861,0.6842427958307786,2.0,3.5113553113553118,284.79031921552263,-0.631548278072373,-5.3851174173999174,0.0870578637608532,1305.4945054945053,-1.0,62.66390438247012,3.518563786644388,
2023-08-09 18:17:47.367000,0.04819277108433735,9.698795180722891,0.1566265060240964,10.10668301655426,0.3182096873083997,0.7063151440833844,2.0,3.5098901098901094,284.909204758923,-0.37200629333954854,-4.743896043354116,0.2549967950585631,1306.227106227106,-1.0,62.66390438247012,3.5184733761889757,
2023-08-09 18:17:47.375000,0.024096385542168676,9.72289156626506,0.1566265060240964,10.055180870631514,0.2299202942979767,0.6989576946658491,2.0,3.5098901098901094,284.909204758923,-0.8605559116601592,-4.453819707476254,-0.08088106753685671,1307.6923076923076,-1.0,62.66390438247012,3.5183829724950124,
2023-08-09 18:17:47.382000,0.0,9.686746987951807,0.13253012048192772,10.082158185162477,0.3304721030042918,0.7063151440833844,2.0,3.5098901098901094,284.909204758923,-0.997960491812831,-3.812598333430452,0.39240137521123486,1309.1575091575091,-1.0,62.66390438247012,3.51829258181593,
2023-08-09 18:17:47.390000,-0.024096385542168676,9.674698795180724,0.16867469879518074,10.116492949110974,0.3182096873083997,0.7602697731453096,2.0,3.5098901098901094,284.909204758923,-0.7078841559349685,-3.4919876464075514,0.28553114620360126,1309.1575091575091,-1.0,62.66390438247012,3.518202210598893,
2023-08-09 18:17:47.398000,-0.03614457831325302,9.650602409638555,0.18072289156626506,10.038013488657265,0.2568976088289393,0.7406499080318822,2.0,3.5113553113553118,284.79031921552263,-0.265136064331915,-2.6064914632014444,0.4534700775013112,1307.6923076923076,-1.0,62.66390438247012,3.518111865484678,
2023-08-09 18:17:47.405000,-0.024096385542168676,9.66265060240964,0.18072289156626506,10.052728387492335,0.23973022685469036,0.7504598405885959,2.0,3.508424908424909,285.02818960116934,-0.4178078200571058,-2.7896975700716733,0.6214090087990212,1307.6923076923076,-1.0,62.66390438247012,3.5180215537994894,
2023-08-09 18:17:47.413000,-0.012048192771084338,9.674698795180724,0.18072289156626506,10.099325567136725,0.25444512568976085,0.7847946045370937,2.0,3.5098901098901094,284.909204758923,-0.11246430860672414,-2.316415127323582,0.5298059553639066,1307.6923076923076,-1.0,62.66390438247012,3.517931282640312,
2023-08-09 18:17:47.421000,0.0,9.650602409638555,0.1566265060240964,10.118945432250152,0.23727774371551194,0.7357449417535254,2.0,3.5098901098901094,284.909204758923,-0.11246430860672414,-2.148476196025872,0.5145387797913875,1309.1575091575091,-1.0,62.66390438247012,3.5178410592267495,
2023-08-09 18:17:47.428000,0.012048192771084338,9.674698795180724,0.20481927710843376,10.0453709380748,0.26425505824647455,0.7946045370938074,2.0,3.5098901098901094,284.909204758923,0.19287920284365753,-1.766796806712895,0.39240137521123486,1308.4249084249084,-1.0,62.66390438247012,3.517750891356357,
2023-08-09 18:17:47.436000,0.04819277108433735,9.698795180722891,0.1927710843373494,10.160637645616186,0.39178418148375227,0.7749846719803801,2.0,3.5098901098901094,284.909204758923,0.284482256278772,-0.9118349746518262,0.9114853446768837,1306.227106227106,-1.0,62.66390438247012,3.5176607865227454,
2023-08-09 18:17:47.444000,0.060240963855421686,9.710843373493976,0.1927710843373494,10.150827713059472,0.3672593500919681,0.7921520539546291,2.0,3.5098901098901094,284.909204758923,0.36081813414136743,-0.5759571120564064,0.8351494668142883,1303.2967032967033,-1.0,62.66390438247012,3.517570752862283,
2023-08-09 18:17:47.451000,0.060240963855421686,9.72289156626506,0.16867469879518074,10.116492949110974,0.43838136112814224,0.7357449417535254,2.0,3.5098901098901094,284.909204758923,0.16234485169861934,-0.07214031816327662,0.6977448866616165,1298.9010989010987,-1.0,62.66390438247012,3.517480799082779,
2023-08-09 18:17:47.459000,0.04819277108433735,9.698795180722891,0.18072289156626506,10.175352544451256,0.2716125076640098,0.7357449417535254,2.0,3.5098901098901094,284.909204758923,0.16234485169861934,-0.07214031816327662,0.6977448866616165,1293.040293040293,965.14892578125,62.16657180800607,3.5173909335130498,
2023-08-09 18:17:47.467000,0.024096385542168676,9.710843373493976,0.1927710843373494,10.155732679337829,0.29123237277743713,0.7651747394236664,2.0,3.5098901098901094,284.909204758923,-0.3109375910494722,0.6148825826000821,0.8046151156692501,1290.10989010989,-1.0,62.16657180800607,3.517301164627497,
2023-08-09 18:17:47.474000,0.04819277108433735,9.686746987951807,0.16867469879518074,10.096873083997547,0.30104230533415083,0.745554874310239,2.0,3.508424908424909,285.02818960116934,0.20814637841617661,1.1797680787832883,0.40766855078375397,1288.6446886446886,-1.0,62.16657180800607,3.5172115014660528,
2023-08-09 18:17:47.482000,0.024096385542168676,9.686746987951807,0.16867469879518074,10.12139791538933,0.296137339055794,0.7480073574494175,2.0,3.508424908424909,285.02818960116934,0.4524211875764819,1.5919818192413036,0.6824777110890975,1290.8424908424909,-1.0,62.16657180800607,3.5171219526478223,
2023-08-09 18:17:47.490000,0.024096385542168676,9.686746987951807,0.1566265060240964,10.136112814224402,0.325567136725935,0.6916002452483139,2.0,3.5098901098901094,284.909204758923,0.2997494318512911,1.9125925062642042,0.6672105355165784,1301.8315018315018,-1.0,62.16657180800607,3.51703252629746,
2023-08-09 18:17:47.497000,0.04819277108433735,9.674698795180724,0.1566265060240964,10.104230533415082,0.2985898221949724,0.7259350091968118,2.0,3.508424908424909,285.02818960116934,0.2234135539886957,2.1416001398519904,1.0336227492570365,1318.6813186813185,-1.0,62.16657180800607,3.516943230988354,
2023-08-09 18:17:47.505000,0.07228915662650603,9.686746987951807,0.1927710843373494,10.136112814224402,0.3280196198651134,0.7749846719803801,2.0,3.508424908424909,285.02818960116934,0.6203601188741918,2.4774780024474103,0.9420196958219219,1344.3223443223442,-1.0,62.16657180800607,3.516854075313955,
2023-08-09 18:17:47.513000,0.060240963855421686,9.686746987951807,0.1927710843373494,10.082158185162477,0.3133047210300429,0.7406499080318822,2.0,3.508424908424909,285.02818960116934,0.43715401200396287,3.1034322009206927,1.2168288561272653,1376.5567765567764,-1.0,62.16657180800607,3.5167650673543243,
2023-08-09 18:17:47.520000,0.10843373493975904,9.686746987951807,0.1927710843373494,10.13856529736358,0.40404659717964436,0.7700797057020232,2.0,3.508424908424909,285.02818960116934,0.9409708058970926,3.4393100635161127,1.7817143523104715,1416.117216117216,-1.0,62.16657180800607,3.516676215125043,
2023-08-09 18:17:47.528000,0.14457831325301207,9.674698795180724,0.16867469879518074,10.10668301655426,0.4457388105456775,0.7651747394236664,2.0,3.508424908424909,285.02818960116934,0.9867723326146498,3.5919818192413033,1.9954548103257386,1463.7362637362637,-1.0,62.16657180800607,3.5165875270256044,
2023-08-09 18:17:47.536000,0.1927710843373494,9.698795180722891,0.16867469879518074,10.150827713059472,0.4089515634580012,0.7406499080318822,2.0,3.508424908424909,285.02818960116934,1.002039508187169,4.004195559699319,1.9801876347532195,1509.89010989011,-1.0,62.16657180800607,3.5164990113043917,
2023-08-09 18:17:47.543000,0.18072289156626506,9.674698795180724,0.1566265060240964,10.099325567136725,0.49724095646842426,0.733292458614347,2.0,3.508424908424909,285.02818960116934,0.9715051570421308,4.599615407027563,2.392401375211235,1556.7765567765566,-1.0,62.16657180800607,3.5164106760852682,
2023-08-09 18:17:47.551000,0.20481927710843376,9.686746987951807,0.1566265060240964,10.141017780502759,0.5487431023911711,0.7406499080318822,2.0,3.508424908424909,285.02818960116934,1.002039508187169,4.81335586504283,2.606141833226502,1602.197802197802,-1.0,62.16657180800607,3.516322529324174,
2023-08-09 18:17:47.559000,0.22891566265060243,9.674698795180724,0.13253012048192772,10.128755364806866,0.5242182709993869,0.733292458614347,2.0,3.5069597069597065,285.1472738667224,0.9715051570421308,5.332439834508479,2.789347940096731,1642.4908424908424,-1.0,62.16657180800607,3.516234578377042,
2023-08-09 18:17:47.566000,0.30120481927710846,9.66265060240964,0.13253012048192772,10.145922746781116,0.5830778663396688,0.7259350091968118,2.0,3.5069597069597065,285.1472738667224,1.5821921799428942,5.500378765806189,2.987821222539479,1682.7838827838827,-1.0,62.16657180800607,3.516146830904078,
2023-08-09 18:17:47.574000,0.3253012048192771,9.66265060240964,0.08433734939759037,10.116492949110974,0.6762722256284488,0.6646229307173512,2.0,3.5069597069597065,285.1472738667224,1.4447875997902224,5.576714643668784,3.2626303828448227,1720.14652014652,-1.0,62.16657180800607,3.516059294193989,
2023-08-09 18:17:47.582000,0.3493975903614458,9.66265060240964,0.14457831325301207,10.074800735744942,0.6762722256284488,0.6842427958307786,2.0,3.5069597069597065,285.1472738667224,1.4753219509352604,6.065264261989395,3.1862945049822273,1753.8461538461538,-1.0,62.16657180800607,3.5159719746960416,
2023-08-09 18:17:47.589000,0.39759036144578314,9.674698795180724,0.13253012048192772,10.104230533415082,0.6492949110974862,0.6499080318822807,2.0,3.5069597069597065,285.1472738667224,1.5363906532253369,6.385874949012296,3.2778975584173415,1780.9523809523807,-1.0,62.16657180800607,3.5158848784993286,
2023-08-09 18:17:47.597000,0.39759036144578314,9.63855421686747,0.10843373493975904,10.035561005518087,0.6787247087676271,0.6793378295524218,2.0,3.5069597069597065,285.1472738667224,1.8722685158207566,6.9660276207680205,3.0641571004020745,1802.197802197802,-1.0,62.16657180800607,3.515798011318903,
2023-08-09 18:17:47.605000,0.39759036144578314,9.626506024096386,0.08433734939759037,10.025751072961373,0.6909871244635193,0.7014101778050276,2.0,3.5069597069597065,285.1472738667224,1.9944059204009092,6.9660276207680205,2.9267525202494027,1819.7802197802196,-1.0,62.16657180800607,3.51571137848154,
2023-08-09 18:17:47.612000,0.3855421686746988,9.650602409638555,0.07228915662650603,10.050275904353157,0.7106069895769466,0.6817903126916002,2.0,3.5069597069597065,285.1472738667224,2.3608181341413674,6.996561971913059,2.575607482081464,1830.7692307692307,-1.0,62.16657180800607,3.5156249849114,
2023-08-09 18:17:47.620000,0.3855421686746988,9.650602409638555,0.0963855421686747,10.047823421213979,0.6640098099325566,0.6425505824647455,2.0,3.5069597069597065,285.1472738667224,2.5745585921566345,6.81335586504283,2.438202901928792,1834.4322344322343,-1.0,62.16657180800607,3.5155388351157715,
2023-08-09 18:17:47.628000,0.39759036144578314,9.674698795180724,0.10843373493975904,10.055180870631514,0.683629675045984,0.6940527283874923,2.0,3.5069597069597065,285.1472738667224,2.7424975234543445,6.492745178019929,2.5908746576539827,1827.106227106227,-1.0,62.16657180800607,3.515452933171084,
2023-08-09 18:17:47.635000,0.4096385542168675,9.686746987951807,0.10843373493975904,10.079705702023299,0.6909871244635193,0.6670754138565297,2.0,3.5069597069597065,285.1472738667224,2.5287570654390774,5.912592506264204,2.239729619486044,1811.7216117216117,-1.0,62.16657180800607,3.515367282709464,
2023-08-09 18:17:47.643000,0.39759036144578314,9.686746987951807,0.0963855421686747,10.128755364806866,0.7400367872470877,0.6768853464132434,2.0,3.5069597069597065,285.1472738667224,2.5440242410115963,4.8438902161878685,2.071790688188334,1786.8131868131868,-1.0,62.16657180800607,3.515281886905961,
2023-08-09 18:17:47.651000,0.4096385542168675,9.686746987951807,0.0963855421686747,10.055180870631514,0.6958920907418761,0.6351931330472103,2.0,3.5069597069597065,285.1472738667224,2.8799021036070163,4.935493269622983,1.2931647339898609,1754.5787545787546,-1.0,62.16657180800607,3.515196748466768,
2023-08-09 18:17:47.658000,0.45783132530120485,9.674698795180724,0.060240963855421686,10.114040465971796,0.7719190680564071,0.6523605150214592,2.0,3.5069597069597065,285.1472738667224,2.8799021036070163,4.2942718955771815,1.3847677874249753,1720.8791208791208,-1.0,62.16657180800607,3.5151118696185613,
2023-08-09 18:17:47.666000,0.45783132530120485,9.698795180722891,0.04819277108433735,10.128755364806866,0.7326793378295524,0.5787860208461066,2.0,3.5069597069597065,285.1472738667224,3.0936425616222833,3.6377833459588604,0.9420196958219219,1684.9816849816848,-1.0,62.16657180800607,3.5150272525570943,
2023-08-09 18:17:47.674000,0.46987951807228917,9.66265060240964,0.03614457831325302,10.072348252605762,0.8503985285101164,0.5763335377069282,2.0,3.5069597069597065,285.1472738667224,2.98677233261465,3.14923372763825,0.3618670240661967,1649.8168498168498,-1.0,62.16657180800607,3.5149428989143696,
2023-08-09 18:17:47.681000,0.4819277108433735,9.650602409638555,0.024096385542168676,10.028203556100552,0.7719190680564071,0.615573267933783,2.0,3.5069597069597065,285.1472738667224,3.032573859332207,2.9354932696229827,0.10232503933337228,1613.186813186813,-1.0,62.16657180800607,3.514858809789463,
2023-08-09 18:17:47.689000,0.4819277108433735,9.626506024096386,0.012048192771084338,10.040465971796444,0.7866339668914776,0.5763335377069282,2.0,3.5069597069597065,285.1472738667224,3.444787599790222,2.8896917429054256,-0.40149175455975744,1579.4871794871794,-1.0,62.16657180800607,3.514774986169341,
2023-08-09 18:17:47.697000,0.45783132530120485,9.626506024096386,0.0,10.116492949110974,0.7424892703862661,0.5346413243408952,2.0,3.5069597069597065,285.1472738667224,3.185245615057398,2.7370199871802345,-0.7373696171551773,1547.2527472527472,-1.0,62.16657180800607,3.5146914284380277,
2023-08-09 18:17:47.704000,0.43373493975903615,9.650602409638555,0.0,10.07725321888412,0.7547516860821581,0.5616186388718577,2.0,3.5069597069597065,285.1472738667224,3.3837188975001458,2.6912184604626774,-1.02744595303304,1517.9487179487178,-1.0,62.16657180800607,3.5146081359222605,
2023-08-09 18:17:47.712000,0.42168674698795183,9.686746987951807,0.012048192771084338,10.099325567136725,0.7400367872470877,0.5738810545677498,2.0,3.504029304029304,285.3857411666318,3.582192179942894,3.6377833459588604,-1.241186411048307,1487.9120879120878,-1.0,62.16657180800607,3.514525106964125,
2023-08-09 18:17:47.720000,0.3493975903614458,9.698795180722891,0.0,10.118945432250152,0.6689147762109136,0.5959534028203556,2.0,3.5054945054945055,285.26645768025077,3.933337218110833,3.469844414661151,-1.3022551133383833,1459.3406593406592,-1.0,62.16657180800607,3.514442339347215,
2023-08-09 18:17:47.727000,0.3132530120481928,9.66265060240964,-0.012048192771084338,10.067443286327405,0.5879828326180258,0.5125689760882893,2.0,3.5054945054945055,285.26645768025077,3.8264669891031993,3.515645941378708,-1.7144688537963986,1431.5018315018315,-1.0,62.16657180800607,3.5143598305163417,
2023-08-09 18:17:47.735000,0.26506024096385544,9.66265060240964,0.0,10.038013488657265,0.507050889025138,0.5419987737584304,2.0,3.5069597069597065,285.1472738667224,3.8264669891031993,3.515645941378708,-1.7144688537963986,1405.8608058608058,-1.0,62.16657180800607,3.514277577128558,
2023-08-09 18:17:47.742000,0.24096385542168675,9.66265060240964,-0.03614457831325302,10.087063151440834,0.5217657878602084,0.5052115266707541,2.0,3.5069597069597065,285.1472738667224,3.398986073072665,2.996561971913059,-1.5617970980712077,1385.3479853479853,-1.0,62.16657180800607,3.514195575167651,
2023-08-09 18:17:47.750000,0.1927710843373494,9.650602409638555,-0.03614457831325302,10.072348252605762,0.45309625996321273,0.5959534028203556,2.0,3.5054945054945055,285.26645768025077,3.4295204242177033,2.3095390711497004,-1.6381329759338032,1367.7655677655678,-1.0,62.16657180800607,3.514113820518466,
2023-08-09 18:17:47.758000,0.18072289156626506,9.650602409638555,-0.07228915662650603,10.094420600858369,0.5389331698344574,0.5272838749233598,2.0,3.5054945054945055,285.26645768025077,3.3226501952100698,2.080531437561914,-2.0198123652467803,1354.5787545787546,-1.0,62.16657180800607,3.5140323080335105,
2023-08-09 18:17:47.765000,0.18072289156626506,9.650602409638555,-0.060240963855421686,10.025751072961373,0.5413856529736357,0.41692213366033104,2.0,3.5054945054945055,285.26645768025077,3.612726531087932,1.515645941378708,-1.6686673270788415,1345.054945054945,-1.0,62.16657180800607,3.513951031480785,
2023-08-09 18:17:47.773000,0.21686746987951808,9.650602409638555,-0.0963855421686747,10.126302881667687,0.5634580012262416,0.43408951563458,2.0,3.5054945054945055,285.26645768025077,3.3073830196375504,1.1034322009206927,-1.6381329759338032,1340.6593406593406,-1.0,62.16657180800607,3.5138699840190646,
2023-08-09 18:17:47.781000,0.22891566265060243,9.650602409638555,-0.12048192771084337,10.111587982832617,0.5144083384426732,0.47332924586143466,2.0,3.5054945054945055,285.26645768025077,3.5974593555154133,1.0881650253481736,-1.5465299224986888,1342.8571428571427,-1.0,62.16657180800607,3.513789158217743,
2023-08-09 18:17:47.788000,0.27710843373493976,9.66265060240964,-0.1566265060240964,10.079705702023299,0.624770079705702,0.38994481912936846,2.0,3.5054945054945055,285.26645768025077,3.3837188975001458,1.1186993764932118,-1.409125342346017,1347.2527472527472,-1.0,62.16657180800607,3.513708546079208,
2023-08-09 18:17:47.796000,0.2530120481927711,9.674698795180724,-0.1566265060240964,10.104230533415082,0.5413856529736357,0.3678724708767627,2.0,3.5054945054945055,285.26645768025077,3.5058563020802986,1.7599207505390133,-1.5007283957811315,1352.3809523809523,-1.0,62.16657180800607,3.5136281390638096,
2023-08-09 18:17:47.804000,0.24096385542168675,9.674698795180724,-0.16867469879518074,10.133660331085224,0.5315757204169221,0.34580012262415694,2.0,3.5054945054945055,285.26645768025077,3.2921158440650315,2.2942718955771815,-1.1953848843307497,1357.5091575091574,-1.0,62.16657180800607,3.5135479281175033,
2023-08-09 18:17:47.811000,0.24096385542168675,9.698795180722891,-0.21686746987951808,10.145922746781116,0.5119558553034947,0.3654199877375843,2.0,3.5054945054945055,285.26645768025077,3.246314317347474,3.2103024299283263,-0.874774197307849,1362.6373626373625,-1.0,62.16657180800607,3.5134679037021845,
2023-08-09 18:17:47.819000,0.20481927710843376,9.686746987951807,-0.20481927710843376,10.1704475781729,0.5291232372777437,0.328632740649908,2.0,3.5054945054945055,285.26645768025077,2.849367752461978,3.8057222772565704,-0.7221024415826582,1364.102564102564,-1.0,62.16657180800607,3.5133880558288078,
2023-08-09 18:17:47.827000,0.21686746987951808,9.686746987951807,-0.22891566265060243,10.12139791538933,0.5144083384426732,0.33353770692826484,2.0,3.5054945054945055,285.26645768025077,2.5592914165841156,3.9583940329817615,-0.30988870112464295,1363.3699633699632,-1.0,62.16657180800607,3.513308374093209,
2023-08-09 18:17:47.834000,0.20481927710843376,9.698795180722891,-0.24096385542168675,10.123850398528509,0.5389331698344574,0.2722256284488044,2.0,3.5054945054945055,285.26645768025077,2.2692150807062528,3.698852048248937,-0.4625604568498338,1359.7069597069597,-1.0,62.16657180800607,3.5132288477147324,
2023-08-09 18:17:47.842000,0.1927710843373494,9.698795180722891,-0.21686746987951808,10.099325567136725,0.5585530349478847,0.30656039239730226,2.0,3.5054945054945055,285.26645768025077,2.0096730959734286,4.370607773439777,-0.4472932812773147,1356.0439560439559,-1.0,62.16657180800607,3.5131494660354177,
2023-08-09 18:17:47.850000,0.2530120481927711,9.686746987951807,-0.22891566265060243,10.141017780502759,0.48743102391171056,0.2918454935622317,2.0,3.504029304029304,285.3857411666318,1.9791387448283904,5.011829147485578,0.11759221490589136,1353.113553113553,-1.0,62.16657180800607,3.5130702184967877,
2023-08-09 18:17:47.857000,0.2530120481927711,9.686746987951807,-0.27710843373493976,10.133660331085224,0.5045984058859595,0.30656039239730226,2.0,3.5054945054945055,285.26645768025077,1.6737952333780086,5.164500903210769,-0.17248412097197122,1349.4505494505493,-1.0,62.16657180800607,3.5129910937054367,
2023-08-09 18:17:47.865000,0.20481927710843376,9.698795180722891,-0.24096385542168675,10.13856529736358,0.51931330472103,0.2452483139178418,2.0,3.502564102564102,285.5051244509517,1.1241769127673216,5.3019054833634405,-0.03507954081929947,1343.5897435897434,-1.0,62.16657180800607,3.5129120799063696,
2023-08-09 18:17:47.873000,0.24096385542168675,9.686746987951807,-0.2530120481927711,10.141017780502759,0.5659104843654199,0.3139178418148375,2.0,3.504029304029304,285.3857411666318,0.8035662257444208,5.668317697103899,-0.06561389196433763,1339.194139194139,-1.0,62.16657180800607,3.5128331650346505,
2023-08-09 18:17:47.880000,0.24096385542168675,9.698795180722891,-0.22891566265060243,10.096873083997547,0.5389331698344574,0.3041079092581238,2.0,3.504029304029304,285.3857411666318,0.3913524852864056,6.004195559699318,0.025989161470776866,1337.7289377289376,-1.0,62.16657180800607,3.5127543365943055,
2023-08-09 18:17:47.888000,0.21686746987951808,9.686746987951807,-0.2530120481927711,10.131207847946046,0.5168608215818516,0.32127529123237275,2.0,3.504029304029304,285.3857411666318,0.26921508070625294,5.9583940329817615,0.1786609171959677,1337.7289377289376,-1.0,62.16657180800607,3.5126755817461763,
2023-08-09 18:17:47.896000,0.21686746987951808,9.686746987951807,-0.22891566265060243,10.13856529736358,0.48743102391171056,0.3629675045984059,2.0,3.504029304029304,285.3857411666318,-0.051395606316647816,6.782821513897792,0.20919526834100588,1335.5311355311355,-1.0,62.16657180800607,3.512596887430814,
2023-08-09 18:17:47.903000,0.2530120481927711,9.710843373493976,-0.22891566265060243,10.21704475781729,0.5242182709993869,0.34334763948497854,2.0,3.504029304029304,285.3857411666318,-0.5399452246372585,7.195035254355807,0.2702639706310822,1334.065934065934,-1.0,62.16657180800607,3.5125182403875033,
2023-08-09 18:17:47.911000,0.22891566265060243,9.710843373493976,-0.22891566265060243,10.084610668301655,0.5119558553034947,0.34580012262415694,2.0,3.504029304029304,285.3857411666318,-0.20406736204183865,7.3019054833634405,0.3160654973486394,1333.3333333333333,-1.0,62.16657180800607,3.5124396267853046,
2023-08-09 18:17:47.919000,0.26506024096385544,9.710843373493976,-0.1927710843373494,10.09196811771919,0.5879828326180258,0.3629675045984059,2.0,3.504029304029304,285.3857411666318,-0.9063574383777164,7.103432200920692,0.39240137521123486,1334.7985347985348,-1.0,62.16657180800607,3.5123610327678167,
2023-08-09 18:17:47.926000,0.2530120481927711,9.698795180722891,-0.14457831325301207,10.143470263641937,0.5389331698344574,0.42673206621704474,2.0,3.504029304029304,285.3857411666318,-1.1658994231105408,7.439310063516112,0.07179068818833412,1336.9963369963368,-1.0,62.16657180800607,3.5122824449636636,
2023-08-09 18:17:47.934000,0.26506024096385544,9.698795180722891,-0.1566265060240964,10.13856529736358,0.607602697731453,0.4438994481912937,2.0,3.504029304029304,285.3857411666318,-1.4559757589884035,7.882058155119166,-0.03507954081929947,1336.263736263736,-1.0,62.16657180800607,3.5122038504722286,
2023-08-09 18:17:47.942000,0.26506024096385544,9.710843373493976,-0.10843373493975904,10.12139791538933,0.5708154506437768,0.4218270999386879,2.0,3.504029304029304,285.3857411666318,-1.5933803391410752,8.248470368859623,-0.21828564768952846,1334.065934065934,-1.0,62.16657180800607,3.512125235970698,
2023-08-09 18:17:47.949000,0.26506024096385544,9.686746987951807,-0.0963855421686747,10.067443286327405,0.5462906192519926,0.5321888412017167,2.0,3.504029304029304,285.3857411666318,-1.8223879727288614,8.614882582600082,0.13285939047841044,1331.8681318681317,-1.0,62.16657180800607,3.5120465878384426,
2023-08-09 18:17:47.957000,0.2530120481927711,9.686746987951807,-0.04819277108433735,10.038013488657265,0.5364806866952789,0.5346413243408952,2.0,3.504029304029304,285.3857411666318,-1.7765864460113043,8.752287162752754,-0.24881999883456662,1330.4029304029302,-1.0,62.16657180800607,3.511967892701969,
2023-08-09 18:17:47.965000,0.22891566265060243,9.674698795180724,-0.060240963855421686,10.109135499693439,0.5438381361128142,0.510116492949111,2.0,3.504029304029304,285.3857411666318,-1.913991026163976,8.98129479634054,-0.0045451896742613,1328.2051282051282,-1.0,62.16657180800607,3.51188913794503,
2023-08-09 18:17:47.972000,0.21686746987951808,9.674698795180724,0.0,10.089515634580012,0.48743102391171056,0.5542611894543225,2.0,3.504029304029304,285.3857411666318,-1.6544490414311517,9.301905483363441,-0.0961482431093758,1323.8095238095236,-1.0,62.16657180800607,3.5118103116935218,
2023-08-09 18:17:47.980000,0.18072289156626506,9.66265060240964,-0.024096385542168676,10.12139791538933,0.47516860821581847,0.5861434702636419,2.0,3.502564102564102,285.5051244509517,-1.7002505681487088,9.072897849775654,-0.03507954081929947,1317.9487179487178,-1.0,62.16657180800607,3.511731402378994,
2023-08-09 18:17:47.988000,0.1927710843373494,9.66265060240964,0.012048192771084338,10.114040465971796,0.489883507050889,0.5714285714285714,2.0,3.502564102564102,285.5051244509517,-1.562845987996037,9.301905483363441,-0.03507954081929947,1314.2857142857142,-1.0,62.16657180800607,3.511652398301197,
2023-08-09 18:17:47.995000,0.14457831325301207,9.66265060240964,0.03614457831325302,10.09196811771919,0.4580012262415696,0.5935009196811771,2.0,3.504029304029304,285.3857411666318,-1.394907056698327,8.889691742905425,0.2549967950585631,1311.3553113553112,-1.0,62.16657180800607,3.511573287152115,
2023-08-09 18:17:48.003000,0.1566265060240964,9.66265060240964,0.07228915662650603,10.087063151440834,0.4702636419374617,0.598405885959534,2.0,3.502564102564102,285.5051244509517,-1.2727696521181744,8.950760445195503,0.13285939047841044,1310.6227106227104,-1.0,62.16657180800607,3.511494057538966,
2023-08-09 18:17:48.011000,0.16867469879518074,9.63855421686747,0.060240963855421686,10.069895769466584,0.4678111587982832,0.598405885959534,2.0,3.504029304029304,285.3857411666318,-1.2727696521181744,8.950760445195503,0.13285939047841044,1312.087912087912,-1.0,62.16657180800607,3.5114146990302135,
2023-08-09 18:17:48.018000,0.20481927710843376,9.650602409638555,0.07228915662650603,10.040465971796444,0.507050889025138,0.6621704475781729,2.0,3.501098901098901,285.62460765850597,-1.6086475147135944,9.088165025348173,0.3771341996387158,1310.6227106227104,-1.0,62.16657180800607,3.5113352012172627,
2023-08-09 18:17:48.026000,0.20481927710843376,9.63855421686747,0.07228915662650603,10.064990803188227,0.5242182709993869,0.6180257510729613,2.0,3.501098901098901,285.62460765850597,-0.9368917895227546,8.96602762076802,0.22446244391352496,1306.9597069597069,-1.0,62.16657180800607,3.5112555542847472,
2023-08-09 18:17:48.034000,0.1927710843373494,9.66265060240964,0.07228915662650603,10.067443286327405,0.49724095646842426,0.6768853464132434,2.0,3.502564102564102,285.5051244509517,-0.448342171202144,8.904958918477945,0.13285939047841044,1301.098901098901,-1.0,62.16657180800607,3.5111757483502783,
2023-08-09 18:17:48.041000,0.20481927710843376,9.66265060240964,0.07228915662650603,10.104230533415082,0.48497854077253216,0.615573267933783,2.0,3.502564102564102,285.5051244509517,-0.7384185070800066,9.33243983450848,0.48400442864634935,1295.970695970696,-1.0,62.16657180800607,3.5110957744508493,
2023-08-09 18:17:48.049000,0.1927710843373494,9.66265060240964,0.060240963855421686,10.050275904353157,0.49969343960760265,0.6253832004904966,2.0,3.502564102564102,285.5051244509517,-0.631548278072373,9.500378765806188,0.30079832177612037,1289.3772893772893,-1.0,62.16657180800607,3.5110156246129405,
2023-08-09 18:17:48.057000,0.21686746987951808,9.650602409638555,0.07228915662650603,10.087063151440834,0.4702636419374617,0.6204782342121398,2.0,3.502564102564102,285.5051244509517,-0.18880018646931956,9.683584872676418,0.33133267292115853,1284.2490842490843,-1.0,62.16657180800607,3.5109352910065525,
2023-08-09 18:17:48.064000,0.20481927710843376,9.674698795180724,0.060240963855421686,10.079705702023299,0.45554874310239113,0.6768853464132434,2.0,3.502564102564102,285.5051244509517,-0.2346017131868768,10.049997086416875,0.33133267292115853,1279.8534798534797,-1.0,62.16657180800607,3.510854766467965,
2023-08-09 18:17:48.072000,0.16867469879518074,9.674698795180724,0.07228915662650603,10.155732679337829,0.4776210913549969,0.6621704475781729,2.0,3.502564102564102,285.5051244509517,-0.2346017131868768,10.630149758172601,0.28553114620360126,1278.3882783882782,-1.0,62.16657180800607,3.510774044985403,
2023-08-09 18:17:48.080000,0.16867469879518074,9.66265060240964,0.08433734939759037,10.069895769466584,0.40649908031882276,0.6548129981606376,2.0,3.502564102564102,285.5051244509517,-0.11246430860672414,10.416409300157333,0.28553114620360126,1278.3882783882782,-1.0,62.16657180800607,3.510693121657294,
2023-08-09 18:17:48.087000,0.14457831325301207,9.674698795180724,0.03614457831325302,10.099325567136725,0.4580012262415696,0.640098099325567,2.0,3.502564102564102,285.5051244509517,0.024940271545947603,10.64541693374512,0.33133267292115853,1279.8534798534797,-1.0,62.16657180800607,3.51061199222714,
2023-08-09 18:17:48.095000,0.14457831325301207,9.66265060240964,0.024096385542168676,10.126302881667687,0.4212139791538933,0.6376456161863887,2.0,3.502564102564102,285.5051244509517,-0.28040323990443405,10.355340597867258,0.39240137521123486,1283.5164835164835,-1.0,62.16657180800607,3.5105306531081815,
2023-08-09 18:17:48.103000,0.16867469879518074,9.674698795180724,0.024096385542168676,10.094420600858369,0.45309625996321273,0.6302881667688535,2.0,3.502564102564102,285.5051244509517,0.284482256278772,10.3095390711497,0.7282792378066547,1287.9120879120878,-1.0,62.16657180800607,3.5104491014052157,
2023-08-09 18:17:48.110000,0.16867469879518074,9.686746987951807,0.0,10.143470263641937,0.48252605763335377,0.6229307173513182,2.0,3.502564102564102,285.5051244509517,0.14707767612610026,10.233203193287105,0.7130120622341356,1290.8424908424909,-1.0,62.16657180800607,3.5103673349336186,
2023-08-09 18:17:48.118000,0.21686746987951808,9.674698795180724,0.012048192771084338,10.109135499693439,0.49724095646842426,0.5714285714285714,2.0,3.502564102564102,285.5051244509517,0.3913524852864056,10.263737544432143,0.6061418332265021,1294.5054945054944,-1.0,62.16657180800607,3.5102853522356505,
2023-08-09 18:17:48.125000,0.20481927710843376,9.698795180722891,0.012048192771084338,10.136112814224402,0.5217657878602084,0.5787860208461066,2.0,3.502564102564102,285.5051244509517,0.33028378299632927,10.508012353592449,0.3771341996387158,1298.168498168498,-1.0,62.16657180800607,3.5102031525941073,
2023-08-09 18:17:48.133000,0.22891566265060243,9.698795180722891,0.024096385542168676,10.13856529736358,0.5364806866952789,0.539546290619252,2.0,3.502564102564102,285.5051244509517,0.4524211875764819,10.843890216187868,0.422935726356273,1300.3663003663003,-1.0,62.16657180800607,3.510120736043445,
2023-08-09 18:17:48.141000,0.24096385542168675,9.686746987951807,0.0,10.074800735744942,0.5315757204169221,0.5346413243408952,2.0,3.502564102564102,285.5051244509517,0.13181050055358118,11.195035254355806,0.39240137521123486,1301.098901098901,-1.0,62.16657180800607,3.5100381033784025,
